"Time (s)","Gyroscope x (rad/s)","Gyroscope y (rad/s)","Gyroscope z (rad/s)"
6.825591000E-3,0.000000000E0,-1.844813079E-1,7.574728876E-2
8.932437000E-3,0.000000000E0,-1.844813079E-1,7.574728876E-2
1.091582100E-2,0.000000000E0,-1.844813079E-1,7.574728876E-2
1.292905100E-2,0.000000000E0,-1.844813079E-1,7.574728876E-2
1.491243600E-2,0.000000000E0,-1.844813079E-1,7.574728876E-2
1.692658900E-2,0.000000000E0,-1.844813079E-1,7.574728876E-2
1.891089700E-2,0.000000000E0,-1.844813079E-1,7.574728876E-2
2.092466600E-2,0.000000000E0,-1.844813079E-1,7.574728876E-2
2.290835700E-2,0.000000000E0,-1.844813079E-1,7.574728876E-2
2.492312600E-2,0.000000000E0,-1.844813079E-1,7.574728876E-2
2.690681900E-2,0.000000000E0,-1.844813079E-1,7.574728876E-2
2.892166400E-2,0.000000000E0,-1.844813079E-1,7.574728876E-2
3.090474100E-2,0.000000000E0,-1.844813079E-1,7.574728876E-2
3.291797200E-2,0.000000000E0,-1.844813079E-1,7.574728876E-2
3.493266300E-2,0.000000000E0,-1.844813079E-1,7.574728876E-2
3.691666300E-2,0.000000000E0,-1.844813079E-1,7.574728876E-2
3.893058600E-2,0.000000000E0,-1.844813079E-1,7.574728876E-2
4.091366200E-2,0.000000000E0,-1.844813079E-1,7.574728876E-2
4.292781600E-2,0.000000000E0,-1.844813079E-1,7.574728876E-2
4.491089300E-2,0.000000000E0,-1.844813079E-1,7.574728876E-2
4.692658400E-2,0.000000000E0,-1.844813079E-1,7.574728876E-2
4.891119900E-2,0.000000000E0,-1.844813079E-1,7.574728876E-2
5.092258400E-2,0.000000000E0,-1.844813079E-1,7.574728876E-2
5.290781400E-2,0.000000000E0,-1.844813079E-1,7.574728876E-2
5.492166000E-2,0.000000000E0,-1.844813079E-1,7.574728876E-2
5.690442900E-2,0.000000000E0,-1.844813079E-1,7.574728876E-2
5.891919700E-2,0.000000000E0,-1.844813079E-1,7.574728876E-2
6.090312100E-2,0.000000000E0,-1.844813079E-1,7.574728876E-2
6.291696700E-2,0.000000000E0,-1.844813079E-1,7.574728876E-2
6.493173500E-2,0.000000000E0,-1.844813079E-1,7.574728876E-2
6.691488900E-2,0.000000000E0,-1.844813079E-1,7.574728876E-2
6.892935000E-2,0.000000000E0,-1.844813079E-1,7.574728876E-2
7.091273400E-2,-9.773843922E-3,4.642575979E-2,3.054326167E-3
7.292681100E-2,-8.552113548E-3,3.726277873E-2,-1.221730490E-3
7.490996500E-2,-9.773843922E-3,3.115412779E-2,-6.108652451E-4
7.692504100E-2,-8.552113548E-3,2.626720630E-2,-1.221730490E-3
7.890811800E-2,-7.330383174E-3,1.832595654E-2,-1.832595794E-3
8.092196400E-2,-8.552113548E-3,1.527163107E-2,-2.443460980E-3
8.290565500E-2,-9.162978269E-3,1.160643995E-2,-4.886921961E-3
8.491980900E-2,-7.330383174E-3,5.497787148E-3,-6.719517522E-3
8.690380900E-2,-4.886921961E-3,1.832595794E-3,-6.719517522E-3
8.891880900E-2,-6.108652335E-3,-1.832595794E-3,-1.038470957E-2
9.093326900E-2,-5.497787148E-3,-6.108652335E-3,-1.038470957E-2
9.291611600E-2,-7.941247895E-3,-6.108652335E-3,-1.099557430E-2
9.493026900E-2,-8.552113548E-3,-8.552113548E-3,-7.330383174E-3
9.691326800E-2,-1.099557430E-2,-1.099557430E-2,-7.330383174E-3
9.892749900E-2,-9.162978269E-3,-1.160643995E-2,-9.162978269E-3
1.009121150E-1,-9.162978269E-3,-9.773843922E-3,-7.330383174E-3
1.029259600E-1,-1.221730467E-2,-1.038470957E-2,-6.719517522E-3
1.049096520E-1,-1.466076635E-2,-1.038470957E-2,-7.330383174E-3
1.069228830E-1,-1.404990070E-2,-8.552113548E-3,-4.886921961E-3
1.089071900E-1,-1.343903504E-2,-9.773843922E-3,-3.665191587E-3
1.109209590E-1,-1.343903504E-2,-1.099557430E-2,-3.665191587E-3
1.129050360E-1,-1.466076635E-2,-9.773843922E-3,-1.221730490E-3
1.149188810E-1,-1.404990070E-2,-9.162978269E-3,-3.054326167E-3
1.169022660E-1,-1.527163107E-2,-6.108652335E-3,-2.443460980E-3
1.189163420E-1,-1.588249579E-2,-6.108652335E-3,-4.276056774E-3
1.209305720E-1,-1.404990070E-2,-3.665191587E-3,-8.552113548E-3
1.229142650E-1,-1.832595654E-2,-1.221730490E-3,-7.941247895E-3
1.249280340E-1,-1.893682219E-2,-3.054326167E-3,-6.719517522E-3
1.269120330E-1,-1.710422710E-2,-3.665191587E-3,-6.108652335E-3
1.289283400E-1,-1.710422710E-2,-5.497787148E-3,-4.886921961E-3
1.309098790E-1,-1.832595654E-2,-5.497787148E-3,-6.719517522E-3
1.329244160E-1,-1.954768784E-2,-1.221730490E-3,-8.552113548E-3
1.349077240E-1,-1.832595654E-2,-2.443460980E-3,-6.719517522E-3
1.369219550E-1,-1.588249579E-2,-3.665191587E-3,-7.330383174E-3
1.389055690E-1,-1.588249579E-2,-4.276056774E-3,-8.552113548E-3
1.409201080E-1,-1.527163107E-2,-1.221730490E-3,-6.719517522E-3
1.429028770E-1,-1.099557430E-2,-2.443460980E-3,-7.941247895E-3
1.449185680E-1,-8.552113548E-3,-1.221730490E-3,-5.497787148E-3
1.469317990E-1,-8.552113548E-3,-6.108652451E-4,-6.108652335E-3
1.489164140E-1,-7.941247895E-3,6.108652451E-4,-8.552113548E-3
1.509301830E-1,-6.719517522E-3,1.221730490E-3,-8.552113548E-3
1.529129520E-1,-4.886921961E-3,-6.108652451E-4,-8.552113548E-3
1.549274900E-1,-4.886921961E-3,2.443460980E-3,-1.099557430E-2
1.569111050E-1,-4.886921961E-3,1.832595794E-3,-1.038470957E-2
1.589249510E-1,-4.886921961E-3,1.832595794E-3,-1.343903504E-2
1.609087200E-1,-2.443460980E-3,-1.221730490E-3,-1.160643995E-2
1.629231040E-1,-6.108652451E-4,0.000000000E0,-1.588249579E-2
1.649061810E-1,-6.108652451E-4,1.832595794E-3,-1.588249579E-2
1.669213350E-1,1.221730490E-3,3.054326167E-3,-1.649336144E-2
1.689050260E-1,-6.108652451E-4,4.886921961E-3,-2.015855350E-2
1.709191800E-1,6.108652451E-4,4.886921961E-3,-2.260201424E-2
1.729021800E-1,1.221730490E-3,7.941247895E-3,-2.076941915E-2
1.749167170E-1,0.000000000E0,1.160643995E-2,-2.138028294E-2
1.769302560E-1,6.108652451E-4,1.343903504E-2,-2.443460934E-2
1.789147940E-1,1.832595794E-3,1.404990070E-2,-2.504547499E-2
1.809277940E-1,6.108652451E-4,1.649336144E-2,-2.626720630E-2
1.829121010E-1,1.832595794E-3,1.893682219E-2,-2.687807009E-2
1.849271780E-1,1.832595794E-3,2.076941915E-2,-2.565634064E-2
1.869101780E-1,1.832595794E-3,1.893682219E-2,-2.321287990E-2
1.889247150E-1,3.054326167E-3,1.954768784E-2,-2.565634064E-2
1.909077150E-1,4.276056774E-3,2.504547499E-2,-2.138028294E-2
1.929218690E-1,3.054326167E-3,2.260201424E-2,-2.382374369E-2
1.949053300E-1,4.886921961E-3,2.443460934E-2,-2.138028294E-2
1.969194070E-1,3.665191587E-3,2.687807009E-2,-2.138028294E-2
1.989028680E-1,6.719517522E-3,2.687807009E-2,-1.771509275E-2
2.009172520E-1,4.276056774E-3,2.626720630E-2,-1.649336144E-2
2.029310980E-1,8.552113548E-3,2.565634064E-2,-1.466076635E-2
2.049142520E-1,1.099557430E-2,2.443460934E-2,-1.221730467E-2
2.069286350E-1,1.160643995E-2,2.260201424E-2,-8.552113548E-3
2.089114050E-1,1.221730467E-2,2.260201424E-2,-6.108652335E-3
2.109250200E-1,9.773843922E-3,2.138028294E-2,-5.497787148E-3
2.129107880E-1,1.343903504E-2,1.954768784E-2,-1.832595794E-3
2.149246340E-1,1.343903504E-2,1.771509275E-2,6.108652451E-4
2.169089420E-1,1.343903504E-2,1.954768784E-2,2.443460980E-3
2.189224800E-1,1.404990070E-2,1.649336144E-2,4.886921961E-3
2.209067870E-1,1.588249579E-2,1.466076635E-2,7.330383174E-3
2.229200180E-1,1.527163107E-2,1.343903504E-2,9.162978269E-3
2.249050170E-1,1.832595654E-2,1.221730467E-2,7.330383174E-3
2.269185550E-1,1.893682219E-2,1.099557430E-2,1.038470957E-2
2.289327090E-1,2.076941915E-2,6.719517522E-3,1.038470957E-2
2.309157850E-1,2.382374369E-2,7.941247895E-3,9.162978269E-3
2.329298620E-1,2.626720630E-2,4.886921961E-3,7.941247895E-3
2.349142470E-1,2.565634064E-2,3.665191587E-3,8.552113548E-3
2.369284000E-1,2.809980139E-2,2.443460980E-3,6.108652335E-3
2.389114770E-1,3.115412779E-2,1.221730490E-3,8.552113548E-3
2.409258610E-1,3.115412779E-2,0.000000000E0,3.054326167E-3
2.429093220E-1,3.298672289E-2,-1.221730490E-3,6.108652335E-3
2.449227830E-1,3.787364438E-2,-3.054326167E-3,7.941247895E-3
2.469077060E-1,3.909537569E-2,-3.665191587E-3,9.773843922E-3
2.489231670E-1,3.970624134E-2,-4.886921961E-3,1.038470957E-2
2.509052440E-1,4.031710699E-2,-6.108652335E-3,1.038470957E-2
2.529188590E-1,4.337143153E-2,-8.552113548E-3,1.099557430E-2
2.549028580E-1,4.153883830E-2,-9.773843922E-3,1.038470957E-2
2.569173200E-1,4.337143153E-2,-1.160643995E-2,1.038470957E-2
2.589308580E-1,4.276056588E-2,-1.343903504E-2,1.038470957E-2
2.609151650E-1,4.276056588E-2,-1.282817032E-2,4.886921961E-3
2.629287030E-1,4.398229718E-2,-1.160643995E-2,4.276056774E-3
2.649126260E-1,4.337143153E-2,-1.343903504E-2,3.054326167E-3
2.669271650E-1,3.970624134E-2,-1.160643995E-2,1.221730490E-3
2.689108560E-1,4.031710699E-2,-9.773843922E-3,6.108652451E-4
2.709255490E-1,3.848451003E-2,-7.330383174E-3,-2.443460980E-3
2.729080870E-1,3.665191308E-2,-1.832595794E-3,-4.276056774E-3
2.749222400E-1,3.420845419E-2,0.000000000E0,-4.886921961E-3
2.769065480E-1,3.298672289E-2,3.665191587E-3,-7.941247895E-3
2.789200860E-1,3.176499158E-2,7.330383174E-3,-9.162978269E-3
2.809043160E-1,2.993239649E-2,1.282817032E-2,-5.497787148E-3
2.829179310E-1,2.748893574E-2,1.710422710E-2,-5.497787148E-3
2.849317770E-1,2.443460934E-2,2.076941915E-2,-6.108652335E-3
2.869166990E-1,2.260201424E-2,2.626720630E-2,-7.330383174E-3
2.889317760E-1,1.832595654E-2,2.932153270E-2,-6.719517522E-3
2.909132380E-1,1.893682219E-2,2.993239649E-2,-4.276056774E-3
2.929280830E-1,1.343903504E-2,3.237585723E-2,-4.276056774E-3
2.949116980E-1,9.773843922E-3,3.604105115E-2,-4.276056774E-3
2.969255450E-1,9.162978269E-3,3.543018550E-2,-3.054326167E-3
2.989095440E-1,6.719517522E-3,3.420845419E-2,-3.665191587E-3
3.009231590E-1,2.443460980E-3,3.176499158E-2,-6.108652451E-4
3.029071590E-1,0.000000000E0,3.237585723E-2,-6.108652451E-4
3.049219270E-1,-4.276056774E-3,3.115412779E-2,-2.443460980E-3
3.069049270E-1,-4.276056774E-3,3.237585723E-2,-3.054326167E-3
3.089197730E-1,-6.719517522E-3,2.809980139E-2,-3.665191587E-3
3.109025420E-1,-6.719517522E-3,2.871066704E-2,-2.443460980E-3
3.129173110E-1,-5.497787148E-3,3.054326214E-2,-2.443460980E-3
3.149305420E-1,-7.941247895E-3,3.298672289E-2,-6.108652335E-3
3.169148480E-1,-7.941247895E-3,3.176499158E-2,-6.108652335E-3
3.189292330E-1,-7.330383174E-3,3.298672289E-2,-6.719517522E-3
3.209126950E-1,-9.162978269E-3,3.420845419E-2,-7.941247895E-3
3.229259240E-1,-9.162978269E-3,3.787364438E-2,-7.941247895E-3
3.249096170E-1,-7.941247895E-3,3.787364438E-2,-4.886921961E-3
3.269246170E-1,-8.552113548E-3,4.153883830E-2,-5.497787148E-3
3.289095390E-1,-9.162978269E-3,4.520402849E-2,-4.276056774E-3
3.309225390E-1,-1.038470957E-2,4.642575979E-2,-4.886921961E-3
3.329058460E-1,-1.099557430E-2,4.948008433E-2,-1.221730490E-3
3.349193840E-1,-1.038470957E-2,5.375614017E-2,6.108652451E-4
3.369036920E-1,-8.552113548E-3,5.681046844E-2,0.000000000E0
3.389178450E-1,-6.108652335E-3,5.986479297E-2,2.443460980E-3
3.409319980E-1,-7.330383174E-3,6.414084882E-2,3.665191587E-3
3.429156910E-1,-5.497787148E-3,6.597344577E-2,3.054326167E-3
3.449307680E-1,-4.886921961E-3,6.780604273E-2,4.276056774E-3
3.469138430E-1,-3.665191587E-3,6.963863969E-2,6.108652335E-3
3.489292280E-1,-1.221730490E-3,7.513642311E-2,4.276056774E-3
3.509111510E-1,6.108652451E-4,7.635815442E-2,4.886921961E-3
3.529256130E-1,-1.221730490E-3,7.880161703E-2,1.221730490E-3
3.549089960E-1,1.221730490E-3,8.246681094E-2,6.108652451E-4
3.569230730E-1,3.665191587E-3,8.307767659E-2,-2.443460980E-3
3.589074580E-1,4.276056774E-3,8.124507964E-2,-2.443460980E-3
3.609209180E-1,4.886921961E-3,8.063421398E-2,-3.054326167E-3
3.629049950E-1,6.719517522E-3,7.941248268E-2,-7.941247895E-3
3.649185340E-1,7.330383174E-3,7.696902007E-2,-9.773843922E-3
3.669333020E-1,7.941247895E-3,7.513642311E-2,-1.099557430E-2
3.689185330E-1,8.552113548E-3,7.269296050E-2,-1.343903504E-2
3.709301480E-1,9.773843922E-3,7.269296050E-2,-1.404990070E-2
3.729147630E-1,1.099557430E-2,7.269296050E-2,-1.649336144E-2
3.749286090E-1,1.038470957E-2,7.391469181E-2,-1.771509275E-2
3.769126860E-1,9.162978269E-3,7.269296050E-2,-1.832595654E-2
3.789265310E-1,9.162978269E-3,7.574728876E-2,-1.954768784E-2
3.809105310E-1,8.552113548E-3,7.635815442E-2,-2.138028294E-2
3.829243770E-1,7.941247895E-3,7.635815442E-2,-2.199114859E-2
3.849086070E-1,9.773843922E-3,7.513642311E-2,-2.138028294E-2
3.869222220E-1,9.162978269E-3,7.452555746E-2,-1.954768784E-2
3.889067610E-1,9.162978269E-3,7.086037099E-2,-1.954768784E-2
3.909202980E-1,6.719517522E-3,7.086037099E-2,-2.015855350E-2
3.929028370E-1,7.941247895E-3,6.902777404E-2,-1.893682219E-2
3.949172980E-1,6.108652335E-3,6.658431143E-2,-1.954768784E-2
3.969316820E-1,6.719517522E-3,6.169738993E-2,-1.649336144E-2
3.989157590E-1,4.886921961E-3,5.803219974E-2,-1.649336144E-2
4.009292200E-1,4.886921961E-3,5.314527452E-2,-1.588249579E-2
4.029136040E-1,6.108652335E-3,4.948008433E-2,-1.282817032E-2
4.049268350E-1,4.276056774E-3,4.581489414E-2,-1.527163107E-2
4.069114500E-1,7.330383174E-3,4.092797264E-2,-1.404990070E-2
4.089261410E-1,6.108652335E-3,4.031710699E-2,-1.649336144E-2
4.109096030E-1,7.941247895E-3,3.665191308E-2,-1.710422710E-2
4.129228340E-1,7.941247895E-3,3.359758854E-2,-1.466076635E-2
4.149064480E-1,7.941247895E-3,2.993239649E-2,-1.527163107E-2
4.169203710E-1,7.330383174E-3,2.565634064E-2,-1.710422710E-2
4.189037560E-1,8.552113548E-3,1.954768784E-2,-1.588249579E-2
4.209182160E-1,8.552113548E-3,2.015855350E-2,-1.588249579E-2
4.229332930E-1,7.330383174E-3,1.282817032E-2,-1.527163107E-2
4.249178320E-1,8.552113548E-3,7.941247895E-3,-1.404990070E-2
4.269308310E-1,9.773843922E-3,8.552113548E-3,-1.527163107E-2
4.289153690E-1,1.221730467E-2,3.665191587E-3,-9.162978269E-3
4.309286000E-1,1.099557430E-2,6.108652451E-4,-1.282817032E-2
4.329116760E-1,1.160643995E-2,-2.443460980E-3,-1.038470957E-2
4.349261370E-1,1.038470957E-2,-1.221730490E-3,-9.773843922E-3
4.369098300E-1,9.773843922E-3,-6.108652335E-3,-1.038470957E-2
4.389240600E-1,1.160643995E-2,-7.330383174E-3,-6.108652335E-3
4.409077520E-1,1.099557430E-2,-7.941247895E-3,-7.330383174E-3
4.429215210E-1,1.282817032E-2,-7.330383174E-3,-6.719517522E-3
4.449049830E-1,1.221730467E-2,-7.941247895E-3,-3.054326167E-3
4.469194430E-1,1.343903504E-2,-4.886921961E-3,0.000000000E0
4.489015970E-1,1.466076635E-2,-3.665191587E-3,0.000000000E0
4.509179050E-1,1.466076635E-2,-3.665191587E-3,0.000000000E0
4.529310570E-1,1.404990070E-2,3.665191587E-3,-6.108652451E-4
4.549159810E-1,1.649336144E-2,3.665191587E-3,6.108652451E-4
4.569298270E-1,1.649336144E-2,1.160643995E-2,-1.832595794E-3
4.589126720E-1,1.710422710E-2,1.588249579E-2,-2.443460980E-3
4.609265180E-1,1.649336144E-2,1.954768784E-2,-6.108652451E-4
4.629101330E-1,1.466076635E-2,2.504547499E-2,-6.108652451E-4
4.649249020E-1,1.343903504E-2,3.115412779E-2,6.108652451E-4
4.669085940E-1,1.404990070E-2,3.420845419E-2,-1.832595794E-3
4.689230560E-1,1.282817032E-2,4.214970022E-2,3.054326167E-3
4.709067470E-1,1.404990070E-2,4.459316283E-2,0.000000000E0
4.729209010E-1,1.221730467E-2,5.192354694E-2,-1.221730490E-3
4.749042850E-1,1.038470957E-2,5.864306539E-2,1.221730490E-3
4.769175150E-1,9.162978269E-3,6.108652428E-2,0.000000000E0
4.789329000E-1,6.108652335E-3,6.658431143E-2,3.054326167E-3
4.809159770E-1,4.886921961E-3,7.513642311E-2,3.054326167E-3
4.829298990E-1,3.054326167E-3,7.941248268E-2,4.886921961E-3
4.849129760E-1,-1.221730490E-3,8.429940045E-2,4.886921961E-3
4.869282830E-1,-1.832595794E-3,8.735372871E-2,6.719517522E-3
4.889123590E-1,-4.276056774E-3,9.040805697E-2,9.773843922E-3
4.909258980E-1,-7.330383174E-3,9.590584040E-2,9.773843922E-3
4.929089750E-1,-1.160643995E-2,9.590584040E-2,1.343903504E-2
4.949237430E-1,-1.221730467E-2,9.896016866E-2,1.343903504E-2
4.969073580E-1,-1.710422710E-2,9.834930301E-2,1.710422710E-2
4.989212810E-1,-1.954768784E-2,9.896016866E-2,2.076941915E-2
5.009048960E-1,-2.015855350E-2,9.896016866E-2,2.015855350E-2
5.029196650E-1,-2.504547499E-2,9.834930301E-2,2.382374369E-2
5.049028190E-1,-2.626720630E-2,9.834930301E-2,2.626720630E-2
5.069172020E-1,-2.871066704E-2,9.651670605E-2,2.871066704E-2
5.089313560E-1,-3.359758854E-2,9.040805697E-2,3.115412779E-2
5.109153560E-1,-3.359758854E-2,8.857546002E-2,3.359758854E-2
5.129288940E-1,-3.298672289E-2,8.674286306E-2,3.420845419E-2
5.149128940E-1,-3.787364438E-2,8.307767659E-2,3.604105115E-2
5.169271250E-1,-3.909537569E-2,8.124507964E-2,3.359758854E-2
5.189105080E-1,-3.909537569E-2,7.819075137E-2,3.665191308E-2
5.209252770E-1,-4.276056588E-2,7.513642311E-2,3.359758854E-2
5.229092000E-1,-4.581489414E-2,7.452555746E-2,3.543018550E-2
5.249221230E-1,-4.703662544E-2,7.086037099E-2,3.543018550E-2
5.269058150E-1,-4.886921868E-2,7.208210230E-2,3.543018550E-2
5.289218150E-1,-4.948008433E-2,6.902777404E-2,3.604105115E-2
5.309037380E-1,-5.131268129E-2,6.719517708E-2,3.298672289E-2
5.329181220E-1,-5.436700583E-2,6.352998316E-2,3.298672289E-2
5.349320450E-1,-5.742133409E-2,6.475171447E-2,3.298672289E-2
5.369153520E-1,-5.558873713E-2,6.108652428E-2,3.420845419E-2
5.389301210E-1,-5.436700583E-2,5.742133409E-2,3.604105115E-2
5.409141210E-1,-5.864306539E-2,5.619960278E-2,3.726277873E-2
5.429283510E-1,-6.108652428E-2,5.131268129E-2,3.665191308E-2
5.449122730E-1,-6.169738993E-2,4.948008433E-2,3.848451003E-2
5.469255040E-1,-6.169738993E-2,4.520402849E-2,4.092797264E-2
5.489108120E-1,-6.291911751E-2,4.276056588E-2,4.214970022E-2
5.509234260E-1,-6.414084882E-2,4.031710699E-2,4.642575979E-2
5.529077340E-1,-6.719517708E-2,3.970624134E-2,4.948008433E-2
5.549215030E-1,-6.658431143E-2,3.665191308E-2,4.948008433E-2
5.569049640E-1,-6.719517708E-2,3.543018550E-2,4.886921868E-2
5.589188100E-1,-6.536258012E-2,3.481931984E-2,4.948008433E-2
5.609025020E-1,-6.658431143E-2,3.481931984E-2,5.192354694E-2
5.629166550E-1,-6.963863969E-2,3.665191308E-2,5.131268129E-2
5.649308090E-1,-7.024950534E-2,3.665191308E-2,5.009094998E-2
5.669141170E-1,-6.719517708E-2,3.848451003E-2,5.009094998E-2
5.689298850E-1,-6.658431143E-2,3.848451003E-2,5.009094998E-2
5.709132700E-1,-6.719517708E-2,3.909537569E-2,4.764748737E-2
5.729270390E-1,-6.658431143E-2,4.092797264E-2,4.520402849E-2
5.749104220E-1,-6.780604273E-2,4.276056588E-2,4.642575979E-2
5.769239610E-1,-6.475171447E-2,4.520402849E-2,4.703662544E-2
5.789080380E-1,-6.536258012E-2,4.520402849E-2,4.642575979E-2
5.809224210E-1,-6.536258012E-2,4.886921868E-2,4.642575979E-2
5.829058830E-1,-6.352998316E-2,4.886921868E-2,4.886921868E-2
5.849205750E-1,-6.658431143E-2,4.948008433E-2,4.764748737E-2
5.869037280E-1,-6.291911751E-2,5.070181563E-2,4.886921868E-2
5.889184970E-1,-6.291911751E-2,5.314527452E-2,5.253441259E-2
5.909322670E-1,-6.108652428E-2,5.192354694E-2,5.009094998E-2
5.929160350E-1,-6.169738993E-2,5.131268129E-2,5.192354694E-2
5.949298810E-1,-5.925392732E-2,5.131268129E-2,5.314527452E-2
5.969144190E-1,-5.986479297E-2,5.131268129E-2,5.314527452E-2
5.989273420E-1,-6.108652428E-2,5.314527452E-2,5.497787148E-2
6.009116490E-1,-5.986479297E-2,5.742133409E-2,5.497787148E-2
6.029251880E-1,-5.803219974E-2,5.558873713E-2,5.619960278E-2
6.049085710E-1,-5.742133409E-2,5.925392732E-2,5.497787148E-2
6.069228020E-1,-5.803219974E-2,5.925392732E-2,5.436700583E-2
6.089080330E-1,-5.864306539E-2,6.230825558E-2,5.314527452E-2
6.109199550E-1,-5.803219974E-2,6.291911751E-2,4.948008433E-2
6.129046470E-1,-5.925392732E-2,6.352998316E-2,4.886921868E-2
6.149184930E-1,-5.864306539E-2,6.414084882E-2,4.581489414E-2
6.169331860E-1,-5.742133409E-2,6.658431143E-2,4.459316283E-2
6.189168770E-1,-5.742133409E-2,6.597344577E-2,4.214970022E-2
6.209307230E-1,-5.619960278E-2,6.780604273E-2,4.214970022E-2
6.229141080E-1,-5.558873713E-2,7.147123665E-2,3.970624134E-2
6.249286450E-1,-5.864306539E-2,7.635815442E-2,3.848451003E-2
6.269123380E-1,-5.558873713E-2,8.063421398E-2,3.604105115E-2
6.289274150E-1,-5.375614017E-2,8.307767659E-2,3.665191308E-2
6.309110290E-1,-5.436700583E-2,8.796459436E-2,3.665191308E-2
6.329243370E-1,-5.314527452E-2,8.857546002E-2,3.787364438E-2
6.349080290E-1,-5.131268129E-2,9.101892263E-2,3.848451003E-2
6.369221820E-1,-5.070181563E-2,9.651670605E-2,3.970624134E-2
6.389064890E-1,-4.948008433E-2,1.007927656E-1,3.726277873E-2
6.409194130E-1,-4.642575979E-2,9.529497474E-2,4.092797264E-2
6.429037190E-1,-4.764748737E-2,9.773843735E-2,4.214970022E-2
6.449166420E-1,-4.703662544E-2,9.957103431E-2,4.092797264E-2
6.469316420E-1,-4.825835302E-2,1.014036313E-1,4.214970022E-2
6.489162570E-1,-4.581489414E-2,9.957103431E-2,4.337143153E-2
6.509294870E-1,-4.642575979E-2,9.651670605E-2,4.214970022E-2
6.529132570E-1,-4.581489414E-2,9.590584040E-2,4.337143153E-2
6.549277170E-1,-4.642575979E-2,9.101892263E-2,4.092797264E-2
6.569107940E-1,-4.642575979E-2,8.674286306E-2,3.970624134E-2
6.589242560E-1,-4.520402849E-2,8.429940045E-2,4.276056588E-2
6.609091780E-1,-4.703662544E-2,7.757988572E-2,4.092797264E-2
6.629221780E-1,-4.459316283E-2,7.147123665E-2,3.726277873E-2
6.649074090E-1,-4.520402849E-2,6.780604273E-2,4.031710699E-2
6.669209460E-1,-4.581489414E-2,6.047565863E-2,3.726277873E-2
6.689052540E-1,-4.520402849E-2,5.619960278E-2,3.848451003E-2
6.709187920E-1,-4.459316283E-2,4.825835302E-2,3.787364438E-2
6.729021760E-1,-4.581489414E-2,3.909537569E-2,3.543018550E-2
6.749160220E-1,-4.459316283E-2,3.420845419E-2,3.604105115E-2
6.769304070E-1,-4.642575979E-2,2.504547499E-2,3.726277873E-2
6.789147900E-1,-4.337143153E-2,1.710422710E-2,3.543018550E-2
6.809288670E-1,-4.214970022E-2,1.404990070E-2,3.543018550E-2
6.829122520E-1,-3.909537569E-2,6.719517522E-3,3.481931984E-2
6.849252510E-1,-3.909537569E-2,4.276056774E-3,3.787364438E-2
6.869098660E-1,-3.665191308E-2,-4.276056774E-3,3.543018550E-2
6.889221740E-1,-3.543018550E-2,-3.665191587E-3,3.481931984E-2
6.909070190E-1,-3.420845419E-2,-4.276056774E-3,3.481931984E-2
6.929215580E-1,-3.298672289E-2,-1.221730490E-3,3.420845419E-2
6.949054810E-1,-2.993239649E-2,0.000000000E0,3.481931984E-2
6.969197100E-1,-2.932153270E-2,6.108652451E-4,3.604105115E-2
6.989036330E-1,-2.932153270E-2,2.443460980E-3,3.298672289E-2
7.009166330E-1,-2.443460934E-2,5.497787148E-3,3.298672289E-2
7.029317100E-1,-2.199114859E-2,5.497787148E-3,3.420845419E-2
7.049156320E-1,-2.199114859E-2,6.108652335E-3,3.298672289E-2
7.069289400E-1,-2.138028294E-2,9.162978269E-3,3.665191308E-2
7.089134790E-1,-1.954768784E-2,7.941247895E-3,3.237585723E-2
7.109267850E-1,-1.649336144E-2,9.773843922E-3,3.420845419E-2
7.129107080E-1,-1.710422710E-2,1.160643995E-2,3.604105115E-2
7.149242470E-1,-1.221730467E-2,1.221730467E-2,3.543018550E-2
7.169088610E-1,-1.099557430E-2,1.466076635E-2,3.420845419E-2
7.189227840E-1,-1.160643995E-2,1.527163107E-2,3.420845419E-2
7.209064000E-1,-9.773843922E-3,1.832595654E-2,3.420845419E-2
7.229208600E-1,-7.941247895E-3,1.771509275E-2,3.298672289E-2
7.249030910E-1,-5.497787148E-3,1.527163107E-2,3.298672289E-2
7.269181680E-1,-3.054326167E-3,1.343903504E-2,3.115412779E-2
7.289332440E-1,-1.221730490E-3,1.404990070E-2,3.115412779E-2
7.309160130E-1,-6.108652451E-4,1.404990070E-2,2.748893574E-2
7.329304750E-1,0.000000000E0,1.099557430E-2,2.443460934E-2
7.349140890E-1,4.276056774E-3,1.221730467E-2,2.382374369E-2
7.369279350E-1,4.886921961E-3,9.162978269E-3,2.260201424E-2
7.389122430E-1,8.552113548E-3,9.162978269E-3,2.138028294E-2
7.409258570E-1,6.719517522E-3,5.497787148E-3,1.893682219E-2
7.429095500E-1,9.162978269E-3,7.330383174E-3,1.771509275E-2
7.449245500E-1,9.773843922E-3,4.276056774E-3,1.771509275E-2
7.469076260E-1,1.282817032E-2,4.276056774E-3,1.649336144E-2
7.489224720E-1,1.343903504E-2,3.054326167E-3,1.832595654E-2
7.509055490E-1,2.015855350E-2,3.665191587E-3,1.771509275E-2
7.529190860E-1,1.893682219E-2,0.000000000E0,1.343903504E-2
7.549027780E-1,1.771509275E-2,1.832595794E-3,1.527163107E-2
7.569172400E-1,1.893682219E-2,-1.832595794E-3,1.404990070E-2
7.589307010E-1,2.321287990E-2,-3.054326167E-3,1.466076635E-2
7.609150850E-1,2.138028294E-2,-2.443460980E-3,1.527163107E-2
7.629288540E-1,2.321287990E-2,-6.719517522E-3,1.527163107E-2
7.649125460E-1,2.748893574E-2,-9.162978269E-3,1.527163107E-2
7.669270070E-1,2.932153270E-2,-9.773843922E-3,1.527163107E-2
7.689128530E-1,3.176499158E-2,-9.162978269E-3,1.588249579E-2
7.709240060E-1,3.298672289E-2,-1.099557430E-2,1.404990070E-2
7.729088520E-1,3.665191308E-2,-1.038470957E-2,1.282817032E-2
7.749224680E-1,3.787364438E-2,-1.038470957E-2,1.221730467E-2
7.769060820E-1,4.031710699E-2,-9.162978269E-3,1.343903504E-2
7.789212360E-1,3.909537569E-2,-8.552113548E-3,9.773843922E-3
7.809042360E-1,4.520402849E-2,-5.497787148E-3,1.282817032E-2
7.829175430E-1,4.459316283E-2,-7.330383174E-3,1.038470957E-2
7.849329270E-1,4.825835302E-2,-6.108652335E-3,8.552113548E-3
7.869162350E-1,4.948008433E-2,-7.330383174E-3,4.886921961E-3
7.889306970E-1,5.192354694E-2,-8.552113548E-3,4.886921961E-3
7.909132340E-1,5.192354694E-2,-7.941247895E-3,3.665191587E-3
7.929280030E-1,5.803219974E-2,-1.343903504E-2,3.054326167E-3
7.949107730E-1,5.681046844E-2,-1.343903504E-2,6.108652451E-4
7.969258480E-1,5.925392732E-2,-1.649336144E-2,6.108652451E-4
7.989091560E-1,6.047565863E-2,-1.527163107E-2,-3.054326167E-3
8.009233870E-1,6.230825558E-2,-2.015855350E-2,-3.054326167E-3
8.029073860E-1,6.352998316E-2,-2.076941915E-2,-4.276056774E-3
8.049214630E-1,6.658431143E-2,-2.199114859E-2,-6.108652335E-3
8.069049240E-1,6.902777404E-2,-2.321287990E-2,-7.330383174E-3
8.089196930E-1,7.086037099E-2,-2.382374369E-2,-9.162978269E-3
8.109039230E-1,7.147123665E-2,-2.565634064E-2,-9.773843922E-3
8.129168460E-1,7.330382615E-2,-2.748893574E-2,-1.221730467E-2
8.149313070E-1,7.513642311E-2,-2.993239649E-2,-1.649336144E-2
8.169140760E-1,7.819075137E-2,-3.237585723E-2,-1.649336144E-2
8.189289220E-1,7.757988572E-2,-3.054326214E-2,-1.893682219E-2
8.209132290E-1,8.185594529E-2,-3.420845419E-2,-1.954768784E-2
8.229266910E-1,8.185594529E-2,-3.481931984E-2,-2.260201424E-2
8.249109980E-1,8.552113175E-2,-3.543018550E-2,-2.504547499E-2
8.269239970E-1,8.674286306E-2,-3.970624134E-2,-2.382374369E-2
8.289094590E-1,8.796459436E-2,-4.031710699E-2,-2.382374369E-2
8.309226900E-1,9.224065393E-2,-4.214970022E-2,-2.565634064E-2
8.329055350E-1,9.101892263E-2,-4.031710699E-2,-2.748893574E-2
8.349205350E-1,9.529497474E-2,-4.520402849E-2,-2.626720630E-2
8.369036890E-1,9.773843735E-2,-4.948008433E-2,-2.748893574E-2
8.389181490E-1,1.001819000E-1,-5.253441259E-2,-2.626720630E-2
8.409323030E-1,1.032362282E-1,-5.803219974E-2,-2.626720630E-2
8.429153800E-1,1.050688252E-1,-6.047565863E-2,-2.504547499E-2
8.449289170E-1,1.044579595E-1,-6.169738993E-2,-2.565634064E-2
8.469143790E-1,1.062905490E-1,-6.475171447E-2,-2.443460934E-2
8.489288410E-1,1.081231460E-1,-6.902777404E-2,-2.565634064E-2
8.509100700E-1,1.087340117E-1,-7.024950534E-2,-2.504547499E-2
8.529255320E-1,1.117883399E-1,-7.391469181E-2,-2.626720630E-2
8.549091470E-1,1.123992056E-1,-7.452555746E-2,-2.809980139E-2
8.569233000E-1,1.123992056E-1,-7.513642311E-2,-2.871066704E-2
8.589060690E-1,1.160643995E-1,-7.635815442E-2,-2.993239649E-2
8.609211460E-1,1.172861308E-1,-7.452555746E-2,-3.359758854E-2
8.629042220E-1,1.197295859E-1,-7.574728876E-2,-3.298672289E-2
8.649189910E-1,1.197295859E-1,-8.002334833E-2,-3.420845419E-2
8.669029910E-1,1.240056455E-1,-8.002334833E-2,-3.420845419E-2
8.689169140E-1,1.233947799E-1,-7.880161703E-2,-3.787364438E-2
8.709306830E-1,1.240056455E-1,-8.307767659E-2,-3.970624134E-2
8.729141440E-1,1.246165112E-1,-8.368854225E-2,-4.153883830E-2
8.749294520E-1,1.276708394E-1,-8.735372871E-2,-4.092797264E-2
8.769119130E-1,1.295034289E-1,-8.796459436E-2,-4.337143153E-2
8.789257590E-1,1.313360333E-1,-8.857546002E-2,-4.398229718E-2
8.809100660E-1,1.295034289E-1,-8.735372871E-2,-4.520402849E-2
8.829239880E-1,1.301143020E-1,-8.857546002E-2,-4.153883830E-2
8.849073730E-1,1.301143020E-1,-8.796459436E-2,-4.459316283E-2
8.869218350E-1,1.325577646E-1,-8.796459436E-2,-4.214970022E-2
8.889072950E-1,1.319468915E-1,-8.552113175E-2,-4.214970022E-2
8.909196800E-1,1.325577646E-1,-8.491026610E-2,-4.214970022E-2
8.929036030E-1,1.343903542E-1,-8.429940045E-2,-3.787364438E-2
8.949175250E-1,1.362229437E-1,-8.613199741E-2,-3.848451003E-2
8.969313710E-1,1.374446750E-1,-8.552113175E-2,-3.726277873E-2
8.989156790E-1,1.398881376E-1,-8.368854225E-2,-3.543018550E-2
9.009295240E-1,1.392772794E-1,-8.368854225E-2,-3.481931984E-2
9.029134470E-1,1.417207420E-1,-8.246681094E-2,-3.420845419E-2
9.049273700E-1,1.411098689E-1,-8.185594529E-2,-3.176499158E-2
9.069106770E-1,1.417207420E-1,-8.246681094E-2,-3.115412779E-2
9.089261380E-1,1.429424733E-1,-8.491026610E-2,-2.993239649E-2
9.109088310E-1,1.447750628E-1,-8.491026610E-2,-3.176499158E-2
9.129229840E-1,1.429424733E-1,-8.796459436E-2,-3.115412779E-2
9.149064450E-1,1.441642046E-1,-9.040805697E-2,-3.176499158E-2
9.169205220E-1,1.447750628E-1,-9.346238524E-2,-3.481931984E-2
9.189045980E-1,1.447750628E-1,-9.346238524E-2,-3.115412779E-2
9.209187520E-1,1.453859210E-1,-9.896016866E-2,-3.726277873E-2
9.229027520E-1,1.453859210E-1,-9.896016866E-2,-3.848451003E-2
9.249162120E-1,1.466076523E-1,-1.001819000E-1,-3.970624134E-2
9.269300590E-1,1.459967941E-1,-1.062905490E-1,-4.214970022E-2
9.289125970E-1,1.459967941E-1,-1.062905490E-1,-4.214970022E-2
9.309282880E-1,1.459967941E-1,-1.069014147E-1,-4.398229718E-2
9.329116730E-1,1.411098689E-1,-1.136209369E-1,-4.398229718E-2
9.349261340E-1,1.435533315E-1,-1.166752651E-1,-4.703662544E-2
9.369095180E-1,1.429424733E-1,-1.227839142E-1,-4.581489414E-2
9.389242870E-1,1.392772794E-1,-1.319468915E-1,-4.825835302E-2
9.409076720E-1,1.368338168E-1,-1.380555481E-1,-4.764748737E-2
9.429223630E-1,1.356120855E-1,-1.441642046E-1,-4.764748737E-2
9.449055170E-1,1.295034289E-1,-1.576032341E-1,-4.642575979E-2
9.469195940E-1,1.313360333E-1,-1.631010175E-1,-4.337143153E-2
9.489030550E-1,1.282816976E-1,-1.789835095E-1,-4.581489414E-2
9.509168240E-1,1.288925707E-1,-1.973094791E-1,-4.276056588E-2
9.529319010E-1,1.325577646E-1,-2.064724565E-1,-4.337143153E-2
9.549152840E-1,1.276708394E-1,-2.290744632E-1,-4.092797264E-2
9.569292070E-1,1.221730486E-1,-2.535090744E-1,-4.214970022E-2
9.589134380E-1,1.185078546E-1,-2.693915665E-1,-4.398229718E-2
9.609269760E-1,1.130100712E-1,-2.956587672E-1,-4.153883830E-2
9.629100530E-1,1.087340117E-1,-3.280346394E-1,-4.153883830E-2
9.649242830E-1,1.062905490E-1,-3.439171314E-1,-4.520402849E-2
9.669088990E-1,1.069014147E-1,-3.756821156E-1,-4.581489414E-2
9.689236670E-1,1.056796908E-1,-3.909537494E-1,-4.764748737E-2
9.709063590E-1,1.075122803E-1,-4.227187634E-1,-5.436700583E-2
9.729202050E-1,1.105666086E-1,-4.483750761E-1,-5.681046844E-2
9.749042810E-1,1.093448773E-1,-4.618141353E-1,-6.414084882E-2
9.769175120E-1,1.099557430E-1,-4.862487316E-1,-6.658431143E-2
9.789322810E-1,1.123992056E-1,-5.076290369E-1,-7.574728876E-2
9.809156650E-1,1.136209369E-1,-5.143485069E-1,-7.880161703E-2
9.829297420E-1,1.172861308E-1,-5.308418870E-1,-8.613199741E-2
9.849143570E-1,1.227839142E-1,-5.442809463E-1,-9.346238524E-2
9.869282790E-1,1.295034289E-1,-5.516113043E-1,-9.773843735E-2
9.889128180E-1,1.392772794E-1,-5.638286471E-1,-1.075122803E-1
9.909267410E-1,1.466076523E-1,-5.693264008E-1,-1.123992056E-1
9.929101250E-1,1.478293836E-1,-5.723807216E-1,-1.191187203E-1
9.949235860E-1,1.527163088E-1,-5.748242140E-1,-1.258382350E-1
9.969076630E-1,1.557706445E-1,-5.760459304E-1,-1.313360333E-1
9.989214310E-1,1.594358236E-1,-5.803219676E-1,-1.386664063E-1
1.000904816E0,1.624901593E-1,-5.797111392E-1,-1.478293836E-1
1.002919277E0,1.655444801E-1,-5.784893632E-1,-1.514945775E-1
1.004902738E0,1.685988009E-1,-5.827654600E-1,-1.618792862E-1
1.006917738E0,1.734857261E-1,-5.827654600E-1,-1.679879427E-1
1.008933507E0,1.765400618E-1,-5.852088928E-1,-1.759291887E-1
1.010913814E0,1.789835095E-1,-5.852088928E-1,-1.887573600E-1
1.012929199E0,1.857030392E-1,-5.900958180E-1,-1.954768747E-1
1.014912199E0,1.863138974E-1,-5.900958180E-1,-2.028072625E-1
1.016927044E0,1.899790913E-1,-5.943718553E-1,-2.193006277E-1
1.018910121E0,1.899790913E-1,-5.974262357E-1,-2.351831198E-1
1.020924198E0,1.899790913E-1,-6.041457057E-1,-2.412917763E-1
1.022909120E0,1.875356287E-1,-6.029239893E-1,-2.608394623E-1
1.024922735E0,1.875356287E-1,-6.029239893E-1,-2.791654170E-1
1.026905812E0,1.869247705E-1,-6.047565937E-1,-2.913827300E-1
1.028921426E0,1.863138974E-1,-6.035348773E-1,-3.115412891E-1
1.030904503E0,1.881465018E-1,-6.023131609E-1,-3.225368559E-1
1.032918349E0,1.838704348E-1,-5.962044597E-1,-3.414736688E-1
1.034932579E0,1.850921661E-1,-5.888741016E-1,-3.591887653E-1
1.036915348E0,1.857030392E-1,-5.833762884E-1,-3.665191531E-1
1.038930118E0,1.844813079E-1,-5.699372888E-1,-3.799581826E-1
1.040914117E0,1.820378453E-1,-5.601634383E-1,-3.940080702E-1
1.042927347E0,1.820378453E-1,-5.534439087E-1,-4.013384581E-1
1.044910655E0,1.832595766E-1,-5.418374538E-1,-4.135557711E-1
1.046925500E0,1.820378453E-1,-5.400048494E-1,-4.190535545E-1
1.048909808E0,1.802052408E-1,-5.381723046E-1,-4.245513380E-1
1.050923885E0,1.777617931E-1,-5.375614166E-1,-4.300491214E-1
1.052906962E0,1.753183305E-1,-5.387831330E-1,-4.306600094E-1
1.054920884E0,1.734857261E-1,-5.418374538E-1,-4.312708676E-1
1.056904807E0,1.643227488E-1,-5.522221923E-1,-4.288274050E-1
1.058918730E0,1.398881376E-1,-5.766568184E-1,-4.361577928E-1
1.060902729E0,1.288925707E-1,-5.943718553E-1,-4.422664344E-1
1.062917729E0,1.099557430E-1,-6.438519955E-1,-4.618141353E-1
1.064931575E0,1.007927656E-1,-6.780604124E-1,-4.734205604E-1
1.066914651E0,8.796459436E-2,-7.550294399E-1,-5.125159621E-1
1.068929420E0,7.880161703E-2,-8.399397135E-1,-5.528330207E-1
1.070913190E0,7.208210230E-2,-8.833111525E-1,-5.766568184E-1
1.072926650E0,6.047565863E-2,-9.651671052E-1,-6.255260110E-1
1.074909804E0,5.253441259E-2,-1.035416603E0,-6.701191664E-1
1.076923958E0,4.581489414E-2,-1.065348983E0,-6.890559793E-1
1.078908495E0,3.298672289E-2,-1.122159481E0,-7.269296646E-1
1.080921803E0,1.771509275E-2,-1.172250390E0,-7.538077235E-1
1.082905419E0,1.282817032E-2,-1.200350165E0,-7.672467232E-1
1.084919264E0,1.221730490E-3,-1.247386813E0,-7.861835957E-1
1.086904264E0,-5.497787148E-3,-1.295034289E0,-8.026769161E-1
1.088918956E0,-3.665191587E-3,-1.317636371E0,-8.063421249E-1
1.090900878E0,-3.054326167E-3,-1.359175205E0,-8.167268038E-1
1.092916570E0,-1.832595794E-3,-1.393994451E0,-8.307767510E-1
1.094929186E0,2.443460980E-3,-1.411709547E0,-8.374962807E-1
1.096913108E0,6.719517522E-3,-1.431257248E0,-8.484918475E-1
1.098927954E0,9.773843922E-3,-1.438587666E0,-8.576548100E-1
1.100910646E0,1.038470957E-2,-1.441031098E0,-8.680394888E-1
1.102925491E0,9.773843922E-3,-1.434922457E0,-8.820894361E-1
1.104909722E0,8.552113548E-3,-1.426370382E0,-8.894197941E-1
1.106922722E0,1.038470957E-2,-1.405600905E0,-9.028588533E-1
1.108907260E0,1.343903504E-2,-1.378722906E0,-9.224064946E-1
1.110920567E0,1.527163107E-2,-1.361007810E0,-9.321803451E-1
1.112904567E0,2.138028294E-2,-1.329242826E0,-9.474520087E-1
1.114918413E0,3.115412779E-2,-1.295034289E0,-9.645562172E-1
1.116932797E0,3.726277873E-2,-1.277930140E0,-9.737191796E-1
1.118916182E0,4.520402849E-2,-1.240667343E0,-9.902125597E-1
1.120930950E0,5.314527452E-2,-1.195463300E0,-1.006095052E0
1.122914719E0,5.803219974E-2,-1.175304770E0,-1.015258074E0
1.124927950E0,6.475171447E-2,-1.129489779E0,-1.029918790E0
1.126912564E0,6.719517708E-2,-1.106887817E0,-1.036027431E0
1.128926949E0,7.696902007E-2,-1.058629513E0,-1.044579625E0
1.130910334E0,8.491026610E-2,-1.006705880E0,-1.053742528E0
1.132924563E0,8.857546002E-2,-9.834930301E-1,-1.054353356E0
1.134907948E0,1.014036313E-1,-9.309586287E-1,-1.057407737E0
1.136923025E0,1.099557430E-1,-8.759807348E-1,-1.053742528E0
1.138905717E0,1.148426682E-1,-8.460483551E-1,-1.051299095E0
1.140919947E0,1.258382350E-1,-7.898487449E-1,-1.049466491E0
1.142903332E0,1.325577646E-1,-7.324274182E-1,-1.044579625E0
1.144918024E0,1.380555481E-1,-7.037167549E-1,-1.042136073E0
1.146931638E0,1.435533315E-1,-6.432411075E-1,-1.038470864E0
1.148915869E0,1.478293836E-1,-5.852088928E-1,-1.036638379E0
1.150929408E0,1.472185254E-1,-5.534439087E-1,-1.033583999E0
1.152913099E0,1.521054506E-1,-4.948008358E-1,-1.034805775E0
1.154927253E0,1.539380401E-1,-4.392121136E-1,-1.032362223E0
1.156910945E0,1.545489132E-1,-4.080579877E-1,-1.031140566E0
1.158925098E0,1.557706445E-1,-3.573561609E-1,-1.029918790E0
1.160908252E0,1.551597714E-1,-3.292563558E-1,-1.029918790E0
1.162923252E0,1.576032341E-1,-2.816088796E-1,-1.026253581E0
1.164906097E0,1.533271819E-1,-2.339613885E-1,-1.023810148E0
1.166920482E0,1.484402567E-1,-1.514945775E-1,-1.016479731E0
1.168903020E0,1.453859210E-1,-1.350012124E-1,-1.017090678E0
1.170915250E0,1.453859210E-1,-1.172861308E-1,-1.012203693E0
1.172929788E0,1.429424733E-1,-1.007927656E-1,-1.009760261E0
1.174915865E0,1.398881376E-1,-8.491026610E-2,-1.005484223E0
1.176930941E0,1.368338168E-1,-5.803219974E-2,-9.999864101E-1
1.178913710E0,1.337794960E-1,-4.948008433E-2,-9.957103729E-1
1.180928172E0,1.264491081E-1,-2.993239649E-2,-9.902125597E-1
1.182911325E0,1.240056455E-1,-1.771509275E-2,-9.786061049E-1
1.184926940E0,1.197295859E-1,-1.038470957E-2,-9.749409556E-1
1.186910325E0,1.148426682E-1,-5.497787148E-3,-9.669997096E-1
1.188924785E0,1.087340117E-1,-4.276056774E-3,-9.578366876E-1
1.190907324E0,1.069014147E-1,-4.276056774E-3,-9.517280459E-1
1.192921478E0,1.069014147E-1,-9.773843922E-3,-9.419541955E-1
1.194904784E0,1.020144969E-1,-1.160643995E-2,-9.352346659E-1
1.196919631E0,1.007927656E-1,-2.015855350E-2,-9.248499870E-1
1.198903323E0,1.001819000E-1,-3.115412779E-2,-9.162978530E-1
1.200916245E0,9.834930301E-2,-3.787364438E-2,-9.095783234E-1
1.202931630E0,1.001819000E-1,-5.742133409E-2,-8.973610401E-1
1.204914399E0,1.050688252E-1,-7.574728876E-2,-8.875871897E-1
1.206929167E0,1.020144969E-1,-8.796459436E-2,-8.851437569E-1
1.208913705E0,1.044579595E-1,-1.142318025E-1,-8.759807348E-1
1.210927244E0,1.056796908E-1,-1.411098689E-1,-8.631525636E-1
1.212910628E0,1.062905490E-1,-1.545489132E-1,-8.588765264E-1
1.214924474E0,1.075122803E-1,-1.863138974E-1,-8.478809595E-1
1.216908551E0,1.081231460E-1,-2.205223590E-1,-8.368853927E-1
1.218921473E0,1.056796908E-1,-2.406809032E-1,-8.326093554E-1
1.220906088E0,1.069014147E-1,-2.803871334E-1,-8.210029006E-1
1.222919857E0,1.050688252E-1,-3.274237812E-1,-8.112290502E-1
1.224904780E0,1.020144969E-1,-3.506366611E-1,-8.063421249E-1
1.226918703E0,1.020144969E-1,-3.995058835E-1,-7.935139537E-1
1.228902318E0,1.038470939E-1,-4.288274050E-1,-7.849618196E-1
1.230916241E0,1.014036313E-1,-4.819726646E-1,-7.715228200E-1
1.232930086E0,9.957103431E-2,-5.351179838E-1,-7.580837607E-1
1.234914317E0,9.896016866E-2,-5.601634383E-1,-7.519751191E-1
1.236927932E0,9.407325089E-2,-6.065891981E-1,-7.367035151E-1
1.238910931E0,8.979719132E-2,-6.438519955E-1,-7.159340382E-1
1.240925393E0,8.429940045E-2,-6.609562039E-1,-7.098253965E-1
1.242909085E0,7.391469181E-2,-6.902777553E-1,-6.921103001E-1
1.244923238E0,6.414084882E-2,-7.104362845E-1,-6.725626588E-1
1.246907546E0,5.558873713E-2,-7.171558142E-1,-6.615670323E-1
1.248922623E0,3.970624134E-2,-7.269296646E-1,-6.444628239E-1
1.250903852E0,2.809980139E-2,-7.318165898E-1,-6.243042946E-1
1.252919545E0,1.832595654E-2,-7.330383062E-1,-6.145304441E-1
1.254902699E0,3.665191587E-3,-7.318165898E-1,-5.955936313E-1
1.256917390E0,-1.038470957E-2,-7.263187766E-1,-5.900958180E-1
1.258931005E0,-1.466076635E-2,-7.202101350E-1,-5.705481172E-1
1.260914928E0,-2.443460934E-2,-7.073819637E-1,-5.583308339E-1
1.262928850E0,-3.237585723E-2,-6.969972253E-1,-5.497786999E-1
1.264913389E0,-4.398229718E-2,-6.750060916E-1,-5.369505286E-1
1.266927312E0,-5.375614017E-2,-6.469063163E-1,-5.222898126E-1
1.268911542E0,-5.742133409E-2,-6.316346526E-1,-5.155702829E-1
1.270924157E0,-6.658431143E-2,-5.931501389E-1,-5.021312237E-1
1.272908234E0,-7.757988572E-2,-5.455026627E-1,-4.850270152E-1
1.274922079E0,-8.063421398E-2,-5.210680366E-1,-4.770857692E-1
1.276906079E0,-9.346238524E-2,-4.697553813E-1,-4.587597847E-1
1.278920233E0,-9.712757170E-2,-4.196644127E-1,-4.398229718E-1
1.280903848E0,-1.014036313E-1,-3.903428912E-1,-4.300491214E-1
1.282918078E0,-1.050688252E-1,-3.414736688E-1,-4.043927789E-1
1.284931617E0,-1.075122803E-1,-2.919935882E-1,-3.805690408E-1
1.286915923E0,-1.087340117E-1,-2.687807083E-1,-3.665191531E-1
1.288931539E0,-1.081231460E-1,-2.229658216E-1,-3.359758854E-1
1.290913462E0,-1.050688252E-1,-2.021963894E-1,-3.170390725E-1
1.292927538E0,-1.014036313E-1,-1.606575549E-1,-2.877175212E-1
1.294910692E0,-9.896016866E-2,-1.221730486E-1,-2.492330223E-1
1.296925692E0,-9.590584040E-2,-1.056796908E-1,-2.345722616E-1
1.298908537E0,-9.346238524E-2,-7.452555746E-2,-1.997529417E-1
1.300923306E0,-9.101892263E-2,-4.886921868E-2,-1.685988009E-1
1.302906383E0,-8.796459436E-2,-3.970624134E-2,-1.545489132E-1
1.304921459E0,-8.429940045E-2,-2.626720630E-2,-1.227839142E-1
1.306905074E0,-7.696902007E-2,-1.954768784E-2,-9.773843735E-2
1.308920228E0,-7.208210230E-2,-1.832595654E-2,-8.735372871E-2
1.310902382E0,-6.414084882E-2,-2.076941915E-2,-6.291911751E-2
1.312916535E0,-5.925392732E-2,-2.871066704E-2,-4.153883830E-2
1.314930612E0,-5.314527452E-2,-3.359758854E-2,-2.932153270E-2
1.316915227E0,-4.459316283E-2,-4.520402849E-2,-9.773843922E-3
1.318929149E0,-4.031710699E-2,-5.864306539E-2,1.282817032E-2
1.320911842E0,-3.726277873E-2,-6.780604273E-2,2.504547499E-2
1.322926303E0,-3.298672289E-2,-8.674286306E-2,4.520402849E-2
1.324909687E0,-2.993239649E-2,-9.896016866E-2,5.925392732E-2
1.326924456E0,-2.748893574E-2,-1.246165112E-1,8.063421398E-2
1.328909071E0,-2.504547499E-2,-1.557706445E-1,1.032362282E-1
1.330921763E0,-2.626720630E-2,-1.734857261E-1,1.160643995E-1
1.332905686E0,-2.809980139E-2,-2.119702399E-1,1.343903542E-1
1.334919840E0,-3.054326214E-2,-2.522873580E-1,1.508837193E-1
1.336903839E0,-3.237585723E-2,-2.742784917E-1,1.600466967E-1
1.338918069E0,-3.848451003E-2,-3.219259977E-1,1.722639948E-1
1.340931839E0,-4.703662544E-2,-3.646865487E-1,1.789835095E-1
1.342915299E0,-5.192354694E-2,-3.885102868E-1,1.795943826E-1
1.344929992E0,-6.230825558E-2,-4.318817258E-1,1.795943826E-1
1.346913145E0,-6.963863969E-2,-4.764748812E-1,1.783726513E-1
1.348928760E0,-7.635815442E-2,-4.954117239E-1,1.740965992E-1
1.350910991E0,-8.918632567E-2,-5.351179838E-1,1.637118906E-1
1.352925144E0,-1.007927656E-1,-5.693264008E-1,1.527163088E-1
1.354908759E0,-1.032362282E-1,-5.870414972E-1,1.447750628E-1
1.356922990E0,-1.130100712E-1,-6.169738770E-1,1.313360333E-1
1.358906682E0,-1.178969890E-1,-6.285803318E-1,1.221730486E-1
1.360921142E0,-1.246165112E-1,-6.487388611E-1,1.087340117E-1
1.362904835E0,-1.343903542E-1,-6.676757336E-1,9.407325089E-2
1.364918296E0,-1.398881376E-1,-6.695083380E-1,8.918632567E-2
1.366933449E0,-1.459967941E-1,-6.725626588E-1,7.208210230E-2
1.368918295E0,-1.508837193E-1,-6.615670323E-1,6.230825558E-2
1.370930603E0,-1.545489132E-1,-6.530149579E-1,5.558873713E-2
1.372914064E0,-1.612684280E-1,-6.249151230E-1,4.886921868E-2
1.374927910E0,-1.710422635E-1,-5.845980644E-1,4.825835302E-2
1.376912140E0,-1.759291887E-1,-5.632177591E-1,4.764748737E-2
1.378925986E0,-1.850921661E-1,-5.235115290E-1,4.948008433E-2
1.380909986E0,-1.881465018E-1,-4.880813360E-1,4.764748737E-2
1.382923524E0,-1.918116808E-1,-4.728097022E-1,4.703662544E-2
1.384907908E0,-1.881465018E-1,-4.538728893E-1,4.459316283E-2
1.386921754E0,-1.795943826E-1,-4.398229718E-1,3.909537569E-2
1.388906369E0,-1.771509200E-1,-4.331034720E-1,3.543018550E-2
1.390919907E0,-1.685988009E-1,-4.172209501E-1,2.809980139E-2
1.392903214E0,-1.661553532E-1,-4.098905921E-1,2.382374369E-2
1.394917753E0,-1.606575549E-1,-3.891211748E-1,1.771509275E-2
1.396931290E0,-1.521054506E-1,-3.646865487E-1,9.162978269E-3
1.398914906E0,-1.466076523E-1,-3.524692357E-1,4.886921961E-3
1.400928829E0,-1.374446750E-1,-3.249803185E-1,0.000000000E0
1.402912752E0,-1.264491081E-1,-2.968805134E-1,-5.497787148E-3
1.404926982E0,-1.178969890E-1,-2.883284092E-1,-4.276056774E-3
1.406911520E0,-8.185594529E-2,-2.449569702E-1,-9.773843922E-3
1.408923520E0,-7.452555746E-2,-2.266310006E-1,-6.719517522E-3
1.410906365E0,-6.963863969E-2,-2.101376504E-1,-2.443460980E-3
1.412923827E0,-6.475171447E-2,-1.912008226E-1,4.276056774E-3
1.414906058E0,-6.047565863E-2,-1.496619880E-1,1.710422710E-2
1.416920749E0,-5.619960278E-2,-1.276708394E-1,2.199114859E-2
1.418904210E0,-4.642575979E-2,-8.002334833E-2,3.848451003E-2
1.420918364E0,-4.153883830E-2,-6.291911751E-2,4.581489414E-2
1.422901979E0,-3.176499158E-2,-2.015855350E-2,6.047565863E-2
1.424916825E0,-1.954768784E-2,2.015855350E-2,7.330382615E-2
1.426930286E0,-1.649336144E-2,3.848451003E-2,7.757988572E-2
1.428914978E0,-9.773843922E-3,7.635815442E-2,8.613199741E-2
1.430928208E0,-7.330383174E-3,1.166752651E-1,9.285151958E-2
1.432911901E0,-4.886921961E-3,1.374446750E-1,9.407325089E-2
1.434926054E0,-5.497787148E-3,1.795943826E-1,9.285151958E-2
1.436910054E0,-3.054326167E-3,2.156354338E-1,9.040805697E-2
1.438923900E0,-3.665191587E-3,2.370157093E-1,8.552113175E-2
1.440906976E0,-3.054326167E-3,2.730567753E-1,7.086037099E-2
1.442921668E0,-1.221730490E-3,3.023782969E-1,5.742133409E-2
1.444905360E0,-4.886921961E-3,3.200933933E-1,5.070181563E-2
1.446918590E0,-4.276056774E-3,3.524692357E-1,3.237585723E-2
1.448934282E0,-4.886921961E-3,3.860668242E-1,1.710422710E-2
1.450916821E0,-6.108652451E-4,3.982841372E-1,8.552113548E-3
1.452931589E0,6.719517522E-3,4.208861589E-1,-4.276056774E-3
1.454915205E0,9.162978269E-3,4.294382632E-1,-1.099557430E-2
1.456929358E0,1.954768784E-2,4.410447180E-1,-2.199114859E-2
1.458912819E0,2.932153270E-2,4.483750761E-1,-3.298672289E-2
1.460926896E0,3.237585723E-2,4.502076805E-1,-3.848451003E-2
1.462910665E0,5.009094998E-2,4.453207552E-1,-4.642575979E-2
1.464925433E0,6.719517708E-2,4.349360466E-1,-5.619960278E-2
1.466908510E0,7.757988572E-2,4.257730842E-1,-6.108652428E-2
1.468922895E0,9.651670605E-2,4.007275999E-1,-6.963863969E-2
1.470906586E0,1.136209369E-1,3.720169365E-1,-8.002334833E-2
1.472920740E0,1.185078546E-1,3.604104817E-1,-8.368854225E-2
1.474904432E0,1.374446750E-1,3.335324228E-1,-9.040805697E-2
1.476917970E0,1.533271819E-1,3.103195429E-1,-9.773843735E-2
1.478932508E0,1.576032341E-1,3.017674387E-1,-9.957103431E-2
1.480915893E0,1.704314053E-1,2.828305960E-1,-1.020144969E-1
1.482930046E0,1.765400618E-1,2.748893499E-1,-1.056796908E-1
1.484913123E0,1.832595766E-1,2.663372457E-1,-1.056796908E-1
1.486928507E0,1.905899495E-1,2.547308207E-1,-1.105666086E-1
1.488913123E0,1.936442852E-1,2.510656118E-1,-1.136209369E-1
1.490924737E0,1.991420686E-1,2.388483137E-1,-1.160643995E-1
1.492909352E0,2.021963894E-1,2.241875380E-1,-1.203404516E-1
1.494924122E0,2.021963894E-1,2.168571651E-1,-1.246165112E-1
1.496907582E0,2.015855312E-1,2.095267773E-1,-1.350012124E-1
1.498921428E0,1.991420686E-1,2.021963894E-1,-1.429424733E-1
1.500905044E0,1.966986060E-1,2.003637999E-1,-1.459967941E-1
1.502919274E0,1.912008226E-1,1.960877478E-1,-1.527163088E-1
1.504903274E0,1.820378453E-1,1.954768747E-1,-1.594358236E-1
1.506917043E0,1.765400618E-1,1.948660165E-1,-1.606575549E-1
1.508931888E0,1.667662114E-1,1.912008226E-1,-1.624901593E-1
1.510915503E0,1.508837193E-1,1.893682331E-1,-1.637118906E-1
1.512929119E0,1.398881376E-1,1.863138974E-1,-1.618792862E-1
1.514912502E0,1.227839142E-1,1.844813079E-1,-1.576032341E-1
1.516926579E0,9.896016866E-2,1.783726513E-1,-1.496619880E-1
1.518909964E0,8.918632567E-2,1.759291887E-1,-1.447750628E-1
1.520924501E0,6.719517708E-2,1.710422635E-1,-1.368338168E-1
1.522908117E0,5.558873713E-2,1.710422635E-1,-1.325577646E-1
1.524921424E0,2.993239649E-2,1.637118906E-1,-1.240056455E-1
1.526906270E0,9.162978269E-3,1.466076523E-1,-1.160643995E-1
1.528921423E0,0.000000000E0,1.386664063E-1,-1.123992056E-1
1.530904116E0,-2.382374369E-2,1.117883399E-1,-1.075122803E-1
1.532917038E0,-5.009094998E-2,7.819075137E-2,-1.056796908E-1
1.534931884E0,-6.352998316E-2,5.864306539E-2,-1.020144969E-1
1.536915576E0,-9.162978828E-2,1.588249579E-2,-1.075122803E-1
1.538929422E0,-1.203404516E-1,-3.481931984E-2,-1.105666086E-1
1.540913960E0,-1.356120855E-1,-5.986479297E-2,-1.160643995E-1
1.542927498E0,-1.618792862E-1,-1.172861308E-1,-1.264491081E-1
1.544911574E0,-1.832595766E-1,-1.789835095E-1,-1.374446750E-1
1.546925728E0,-1.936442852E-1,-2.125810981E-1,-1.478293836E-1
1.548909651E0,-2.144137025E-1,-2.767219543E-1,-1.643227488E-1
1.550923496E0,-2.333505303E-1,-3.414736688E-1,-1.826487035E-1
1.552906650E0,-2.467895597E-1,-3.695734739E-1,-1.936442852E-1
1.554921112E0,-2.602286041E-1,-4.306600094E-1,-2.174680233E-1
1.556904495E0,-2.638937831E-1,-4.605923891E-1,-2.290744632E-1
1.558918957E0,-2.675589919E-1,-5.180137157E-1,-2.535090744E-1
1.560902265E0,-2.712241709E-1,-5.784893632E-1,-2.822197378E-1
1.562916110E0,-2.742784917E-1,-6.102544069E-1,-2.962696552E-1
1.564930033E0,-2.816088796E-1,-6.676757336E-1,-3.286454976E-1
1.566915187E0,-2.932153046E-1,-7.299839854E-1,-3.610213697E-1
1.568929340E0,-2.999348342E-1,-7.819074988E-1,-3.927863538E-1
1.570911801E0,-2.981022298E-1,-8.124507666E-1,-4.092797041E-1
1.572926263E0,-2.974913716E-1,-8.631525636E-1,-4.379903674E-1
1.574910263E0,-2.950479090E-1,-8.827002645E-1,-4.520402849E-1
1.576924723E0,-2.919935882E-1,-9.144652486E-1,-4.770857692E-1
1.578908108E0,-2.846632004E-1,-9.358455539E-1,-4.978551865E-1
1.580922031E0,-2.834414840E-1,-9.401215911E-1,-5.039638281E-1
1.582905722E0,-2.803871334E-1,-9.431759119E-1,-5.180137157E-1
1.584920492E0,-2.767219543E-1,-9.382890463E-1,-5.241223574E-1
1.586903876E0,-2.706133127E-1,-9.248499870E-1,-5.265658498E-1
1.588918567E0,-2.638937831E-1,-9.010262489E-1,-5.302310586E-1
1.590931875E0,-2.614503205E-1,-8.845328689E-1,-5.277875662E-1
1.592914644E0,-2.583959997E-1,-8.491026759E-1,-5.253441334E-1
1.594929720E0,-2.516764700E-1,-8.057312369E-1,-5.174028873E-1
1.596912797E0,-2.474004179E-1,-7.806857824E-1,-5.112941861E-1
1.598927490E0,-2.406809032E-1,-7.305948138E-1,-5.009095073E-1
1.600910873E0,-2.339613885E-1,-6.743952036E-1,-4.862487316E-1
1.602925027E0,-2.284636050E-1,-6.438519955E-1,-4.795292318E-1
1.604908181E0,-2.211332172E-1,-5.803219676E-1,-4.648684561E-1
1.606923180E0,-2.125810981E-1,-5.131267905E-1,-4.428772926E-1
1.608907795E0,-2.064724565E-1,-4.783074856E-1,-4.343251884E-1
1.610922026E0,-1.966986060E-1,-4.062253833E-1,-4.166100919E-1
1.612903564E0,-1.875356287E-1,-3.335324228E-1,-3.988949955E-1
1.614918948E0,-1.808161139E-1,-2.981022298E-1,-3.872885704E-1
1.616902256E0,-1.728748679E-1,-2.247984111E-1,-3.707951903E-1
1.618916716E0,-1.685988009E-1,-1.899790913E-1,-3.616322279E-1
1.620930255E0,-1.588249654E-1,-1.191187203E-1,-3.469714522E-1
1.622914332E0,-1.521054506E-1,-5.497787148E-2,-3.323107064E-1
1.624929100E0,-1.484402567E-1,-2.504547499E-2,-3.262020350E-1
1.626912408E0,-1.362229437E-1,3.237585723E-2,-3.090978265E-1
1.628926869E0,-1.319468915E-1,8.368854225E-2,-2.962696552E-1
1.630909714E0,-1.288925707E-1,1.069014147E-1,-2.913827300E-1
1.632923868E0,-1.240056455E-1,1.496619880E-1,-2.816088796E-1
1.634907253E0,-1.203404516E-1,1.795943826E-1,-2.693915665E-1
1.636922252E0,-1.209513173E-1,1.924225539E-1,-2.645046413E-1
1.638905406E0,-1.166752651E-1,2.131919712E-1,-2.528982162E-1
1.640919560E0,-1.154535338E-1,2.247984111E-1,-2.467895597E-1
1.642903559E0,-1.130100712E-1,2.296853364E-1,-2.406809032E-1
1.644916789E0,-1.111774743E-1,2.290744632E-1,-2.345722616E-1
1.646931251E0,-1.178969890E-1,2.113593817E-1,-2.278527319E-1
1.648913404E0,-1.178969890E-1,2.113593817E-1,-2.278527319E-1
1.650929019E0,-1.178969890E-1,2.021963894E-1,-2.241875380E-1
1.652913711E0,-1.191187203E-1,1.930334121E-1,-2.260201424E-1
1.654927249E0,-1.215621829E-1,1.698205322E-1,-2.278527319E-1
1.656911172E0,-1.264491081E-1,1.411098689E-1,-2.327396572E-1
1.658925095E0,-1.282816976E-1,1.258382350E-1,-2.345722616E-1
1.660908711E0,-1.325577646E-1,9.040805697E-2,-2.382374406E-1
1.662922633E0,-1.386664063E-1,5.436700583E-2,-2.449569702E-1
1.664907171E0,-1.423316002E-1,3.665191308E-2,-2.486221492E-1
1.666921402E0,-1.490511149E-1,-1.221730490E-3,-2.565633953E-1
1.668905093E0,-1.551597714E-1,-3.970624134E-2,-2.620611787E-1
1.670918555E0,-1.588249654E-1,-5.986479297E-2,-2.645046413E-1
1.672932401E0,-1.673770845E-1,-9.651670605E-2,-2.687807083E-1
1.674916477E0,-1.759291887E-1,-1.325577646E-1,-2.742784917E-1
1.676930246E0,-1.795943826E-1,-1.502728462E-1,-2.755002379E-1
1.678914015E0,-1.875356287E-1,-1.844813079E-1,-2.767219543E-1
1.680928168E0,-1.924225539E-1,-2.156354338E-1,-2.724458873E-1
1.682911553E0,-1.948660165E-1,-2.302961946E-1,-2.724458873E-1
1.684925707E0,-1.960877478E-1,-2.553416789E-1,-2.675589919E-1
1.686909321E0,-2.003637999E-1,-2.632829249E-1,-2.651155293E-1
1.688925090E0,-2.021963894E-1,-2.809980214E-1,-2.571742535E-1
1.690906552E0,-2.034181207E-1,-2.919935882E-1,-2.443460971E-1
1.692921320E0,-2.028072625E-1,-2.962696552E-1,-2.406809032E-1
1.694906243E0,-2.015855312E-1,-2.950479090E-1,-2.296853364E-1
1.696919782E0,-1.973094791E-1,-2.919935882E-1,-2.162462920E-1
1.698903473E0,-1.942551434E-1,-2.895501256E-1,-2.083050460E-1
1.700917011E0,-1.899790913E-1,-2.773328125E-1,-1.918116808E-1
1.702930550E0,-1.814269722E-1,-2.565633953E-1,-1.759291887E-1
1.704915780E0,-1.765400618E-1,-2.443460971E-1,-1.655444801E-1
1.706929395E0,-1.649336219E-1,-2.205223590E-1,-1.502728462E-1
1.708913703E0,-1.521054506E-1,-1.899790913E-1,-1.356120855E-1
1.710927471E0,-1.459967941E-1,-1.722639948E-1,-1.288925707E-1
1.712910855E0,-1.301143020E-1,-1.380555481E-1,-1.123992056E-1
1.714924779E0,-1.130100712E-1,-9.957103431E-2,-9.712757170E-2
1.716908162E0,-1.032362282E-1,-7.819075137E-2,-9.040805697E-2
1.718922008E0,-8.491026610E-2,-3.481931984E-2,-7.574728876E-2
1.720906239E0,-7.391469181E-2,-1.343903504E-2,-6.719517708E-2
1.722920084E0,-5.497787148E-2,3.054326214E-2,-5.436700583E-2
1.724904161E0,-3.115412779E-2,7.391469181E-2,-4.398229718E-2
1.726918854E0,-2.321287990E-2,9.651670605E-2,-3.604105115E-2
1.728902853E0,-4.276056774E-3,1.386664063E-1,-2.565634064E-2
1.730915468E0,1.771509275E-2,1.802052408E-1,-1.527163107E-2
1.732929929E0,2.504547499E-2,1.979203373E-1,-1.099557430E-2
1.734914236E0,3.909537569E-2,2.309070677E-1,-2.443460980E-3
1.736927775E0,5.681046844E-2,2.608394623E-1,3.054326167E-3
1.738911467E0,6.108652428E-2,2.730567753E-1,9.162978269E-3
1.740925620E0,7.635815442E-2,2.950479090E-1,1.221730467E-2
1.742909927E0,8.796459436E-2,3.103195429E-1,1.527163107E-2
1.744923851E0,9.407325089E-2,3.145956099E-1,2.015855350E-2
1.746906851E0,1.014036313E-1,3.274237812E-1,2.015855350E-2
1.748921926E0,1.050688252E-1,3.292563558E-1,2.199114859E-2
1.750905696E0,1.081231460E-1,3.353650272E-1,2.443460934E-2
1.752919465E0,1.105666086E-1,3.396410644E-1,2.443460934E-2
1.754902925E0,1.130100712E-1,3.402519524E-1,2.687807009E-2
1.756916772E0,1.123992056E-1,3.402519524E-1,2.993239649E-2
1.758931541E0,1.117883399E-1,3.341432810E-1,3.237585723E-2
1.760914540E0,1.117883399E-1,3.298672438E-1,3.665191308E-2
1.762928771E0,1.111774743E-1,3.188716471E-1,4.031710699E-2
1.764912078E0,1.069014147E-1,3.109304011E-1,4.214970022E-2
1.766926616E0,1.014036313E-1,3.036000133E-1,4.520402849E-2
1.768911154E0,9.468411654E-2,2.889392674E-1,4.764748737E-2
1.770924693E0,8.429940045E-2,2.718350291E-1,5.192354694E-2
1.772908692E0,7.941248268E-2,2.657263875E-1,5.436700583E-2
1.774922230E0,6.658431143E-2,2.486221492E-1,5.375614017E-2
1.776905384E0,5.375614017E-2,2.339613885E-1,5.681046844E-2
1.778920152E0,4.764748737E-2,2.241875380E-1,5.803219974E-2
1.780903845E0,3.543018550E-2,2.058615834E-1,5.803219974E-2
1.782918306E0,3.176499158E-2,1.954768747E-1,5.803219974E-2
1.784932382E0,2.687807009E-2,1.722639948E-1,6.414084882E-2
1.786915767E0,2.015855350E-2,1.453859210E-1,6.108652428E-2
1.788931228E0,1.404990070E-2,1.337794960E-1,6.230825558E-2
1.790913997E0,7.330383174E-3,1.050688252E-1,6.352998316E-2
1.792927227E0,-3.665191587E-3,7.880161703E-2,6.108652428E-2
1.794910843E0,-1.099557430E-2,6.902777404E-2,6.108652428E-2
1.796925072E0,-1.404990070E-2,3.848451003E-2,5.803219974E-2
1.798908380E0,-1.832595654E-2,1.160643995E-2,5.497787148E-2
1.800923226E0,-2.138028294E-2,-1.221730490E-3,5.742133409E-2
1.802906918E0,-2.565634064E-2,-2.626720630E-2,5.253441259E-2
1.804920687E0,-3.054326214E-2,-4.520402849E-2,4.948008433E-2
1.806905379E0,-3.054326214E-2,-5.681046844E-2,4.703662544E-2
1.808920763E0,-3.176499158E-2,-7.208210230E-2,4.398229718E-2
1.810901917E0,-3.481931984E-2,-8.429940045E-2,4.398229718E-2
1.812917378E0,-3.359758854E-2,-9.040805697E-2,4.337143153E-2
1.814931146E0,-3.726277873E-2,-9.712757170E-2,4.031710699E-2
1.816914300E0,-3.665191308E-2,-1.020144969E-1,4.092797264E-2
1.818928454E0,-4.153883830E-2,-1.044579595E-1,4.031710699E-2
1.820912068E0,-4.092797264E-2,-1.062905490E-1,4.214970022E-2
1.822926530E0,-4.092797264E-2,-1.050688252E-1,3.970624134E-2
1.824910530E0,-4.092797264E-2,-1.032362282E-1,4.459316283E-2
1.826924683E0,-3.787364438E-2,-9.651670605E-2,4.398229718E-2
1.828908452E0,-3.665191308E-2,-9.529497474E-2,4.398229718E-2
1.830921375E0,-3.970624134E-2,-8.552113175E-2,4.581489414E-2
1.832905913E0,-4.337143153E-2,-7.391469181E-2,4.459316283E-2
1.834919528E0,-4.642575979E-2,-6.597344577E-2,4.459316283E-2
1.836903451E0,-4.764748737E-2,-5.192354694E-2,4.642575979E-2
1.838917913E0,-4.764748737E-2,-3.543018550E-2,4.703662544E-2
1.840931835E0,-4.520402849E-2,-2.871066704E-2,4.703662544E-2
1.842915450E0,-4.337143153E-2,-1.527163107E-2,4.886921868E-2
1.844928758E0,-4.337143153E-2,6.108652451E-4,5.131268129E-2
1.846913911E0,-4.337143153E-2,4.886921961E-3,5.131268129E-2
1.848928757E0,-4.214970022E-2,1.832595654E-2,5.314527452E-2
1.850911218E0,-4.520402849E-2,2.748893574E-2,5.314527452E-2
1.852924987E0,-4.886921868E-2,4.214970022E-2,5.558873713E-2
1.854908448E0,-4.398229718E-2,5.375614017E-2,5.619960278E-2
1.856923217E0,-4.886921868E-2,5.803219974E-2,5.681046844E-2
1.858906909E0,-4.642575979E-2,6.597344577E-2,5.925392732E-2
1.860920755E0,-4.703662544E-2,7.147123665E-2,6.169738993E-2
1.862904678E0,-4.703662544E-2,7.391469181E-2,6.169738993E-2
1.864920062E0,-4.459316283E-2,7.696902007E-2,5.986479297E-2
1.866903215E0,-4.276056588E-2,7.941248268E-2,5.986479297E-2
1.868917369E0,-4.398229718E-2,8.307767659E-2,5.803219974E-2
1.870930830E0,-4.337143153E-2,8.491026610E-2,5.986479297E-2
1.872914214E0,-4.459316283E-2,8.674286306E-2,5.681046844E-2
1.874928676E0,-4.642575979E-2,8.979719132E-2,5.375614017E-2
1.876912060E0,-4.886921868E-2,9.162978828E-2,5.009094998E-2
1.878926213E0,-4.948008433E-2,9.101892263E-2,4.459316283E-2
1.880909675E0,-4.948008433E-2,8.979719132E-2,4.459316283E-2
1.882923443E0,-4.703662544E-2,8.613199741E-2,4.092797264E-2
1.884906828E0,-4.703662544E-2,8.185594529E-2,3.543018550E-2
1.886921982E0,-4.031710699E-2,6.780604273E-2,2.504547499E-2
1.888903519E0,-3.970624134E-2,6.536258012E-2,2.199114859E-2
1.890916750E0,-3.726277873E-2,6.169738993E-2,1.832595654E-2
1.892933904E0,-3.604105115E-2,5.986479297E-2,1.404990070E-2
1.894917364E0,-3.665191308E-2,5.436700583E-2,7.941247895E-3
1.896930903E0,-3.481931984E-2,5.070181563E-2,1.832595794E-3
1.898915441E0,-3.176499158E-2,4.520402849E-2,-4.276056774E-3
1.900928979E0,-2.565634064E-2,4.642575979E-2,-1.099557430E-2
1.902913056E0,-2.504547499E-2,4.398229718E-2,-1.221730467E-2
1.904928056E0,-2.015855350E-2,4.459316283E-2,-1.649336144E-2
1.906910901E0,-1.832595654E-2,5.009094998E-2,-1.954768784E-2
1.908925055E0,-1.710422710E-2,5.497787148E-2,-2.015855350E-2
1.910908362E0,-9.773843922E-3,6.414084882E-2,-1.954768784E-2
1.912922515E0,-3.665191587E-3,6.841690838E-2,-2.076941915E-2
1.914906208E0,1.221730490E-3,8.735372871E-2,-2.015855350E-2
1.916920131E0,9.162978269E-3,1.044579595E-1,-1.527163107E-2
1.918904053E0,6.719517522E-3,1.123992056E-1,-1.588249579E-2
1.920918514E0,1.160643995E-2,1.331686229E-1,-1.282817032E-2
1.922902207E0,1.527163107E-2,1.557706445E-1,-1.343903504E-2
1.924915207E0,1.771509275E-2,1.667662114E-1,-8.552113548E-3
1.926930206E0,2.076941915E-2,1.844813079E-1,-9.773843922E-3
1.928915129E0,2.565634064E-2,1.985312104E-1,-7.330383174E-3
1.930927821E0,2.504547499E-2,2.058615834E-1,-8.552113548E-3
1.932912051E0,2.809980139E-2,2.162462920E-1,-7.941247895E-3
1.934925589E0,2.504547499E-2,2.278527319E-1,-9.773843922E-3
1.936909358E0,2.382374369E-2,2.309070677E-1,-9.162978269E-3
1.938923511E0,2.321287990E-2,2.351831198E-1,-8.552113548E-3
1.940907511E0,1.832595654E-2,2.376265824E-1,-1.160643995E-2
1.942921665E0,1.771509275E-2,2.376265824E-1,-1.404990070E-2
1.944905587E0,1.466076635E-2,2.364048511E-1,-1.954768784E-2
1.946919741E0,1.160643995E-2,2.339613885E-1,-1.893682219E-2
1.948903741E0,1.099557430E-2,2.284636050E-1,-2.687807009E-2
1.950917048E0,7.330383174E-3,2.223549485E-1,-2.993239649E-2
1.952931817E0,5.497787148E-3,2.180788964E-1,-3.420845419E-2
1.954914817E0,4.886921961E-3,2.138028294E-1,-4.092797264E-2
1.956928739E0,3.054326167E-3,2.107485086E-1,-5.009094998E-2
1.958913047E0,3.054326167E-3,2.107485086E-1,-5.497787148E-2
1.960926816E0,3.054326167E-3,2.119702399E-1,-6.230825558E-2
1.962910815E0,4.886921961E-3,2.199114859E-1,-6.963863969E-2
1.964923738E0,7.941247895E-3,2.217440903E-1,-7.024950534E-2
1.966908738E0,1.160643995E-2,2.333505303E-1,-7.513642311E-2
1.968924429E0,1.771509275E-2,2.486221492E-1,-7.819075137E-2
1.970905583E0,2.199114859E-2,2.541199327E-1,-7.757988572E-2
1.972920737E0,2.504547499E-2,2.700024247E-1,-7.391469181E-2
1.974904044E0,3.054326214E-2,2.834414840E-1,-6.963863969E-2
1.976917967E0,3.359758854E-2,2.926044464E-1,-6.475171447E-2
1.978932736E0,4.214970022E-2,3.084869385E-1,-5.436700583E-2
1.980916427E0,4.581489414E-2,3.139847219E-1,-4.764748737E-2
1.982929966E0,5.375614017E-2,3.255911767E-1,-3.359758854E-2
1.984913581E0,6.230825558E-2,3.384193480E-1,-1.954768784E-2
1.986928119E0,6.536258012E-2,3.414736688E-1,-1.099557430E-2
1.988912427E0,7.330382615E-2,3.457497358E-1,1.221730490E-3
1.990925888E0,8.185594529E-2,3.488040566E-1,1.588249579E-2
1.992909041E0,8.246681094E-2,3.475823104E-1,1.954768784E-2
1.994923810E0,8.796459436E-2,3.445279896E-1,2.993239649E-2
1.996906810E0,8.796459436E-2,3.371976018E-1,3.909537569E-2
1.998921271E0,9.040805697E-2,3.329215646E-1,4.153883830E-2
2.000905271E0,9.101892263E-2,3.255911767E-1,4.948008433E-2
2.002919194E0,8.735372871E-2,3.219259977E-1,4.886921868E-2
2.004902500E0,8.246681094E-2,3.182607889E-1,4.886921868E-2
2.006917654E0,7.147123665E-2,3.121521473E-1,4.703662544E-2
2.008932039E0,5.681046844E-2,3.127630055E-1,4.276056588E-2
2.010915424E0,4.886921868E-2,3.103195429E-1,4.214970022E-2
2.012928730E0,4.092797264E-2,3.036000133E-1,3.909537569E-2
2.014912653E0,3.726277873E-2,2.999348342E-1,3.726277873E-2
2.016926576E0,3.298672289E-2,2.944370508E-1,3.543018550E-2
2.018909960E0,3.054326214E-2,2.901609838E-1,3.909537569E-2
2.020924114E0,2.871066704E-2,2.871066630E-1,4.276056588E-2
2.022908422E0,2.443460934E-2,2.785545588E-1,4.520402849E-2
2.024922267E0,1.832595654E-2,2.687807083E-1,4.886921868E-2
2.026906190E0,1.588249579E-2,2.632829249E-1,4.581489414E-2
2.028920113E0,1.221730467E-2,2.455678284E-1,4.948008433E-2
2.030903420E0,9.162978269E-3,2.205223590E-1,5.192354694E-2
2.032917343E0,9.162978269E-3,2.015855312E-1,5.131268129E-2
2.034931420E0,1.343903504E-2,1.631010175E-1,5.314527452E-2
2.036915726E0,1.282817032E-2,1.240056455E-1,5.375614017E-2
2.038930188E0,1.099557430E-2,1.069014147E-1,5.497787148E-2
2.040913572E0,9.773843922E-3,6.658431143E-2,5.742133409E-2
2.042926879E0,6.719517522E-3,2.504547499E-2,5.864306539E-2
2.044910802E0,6.108652335E-3,6.108652335E-3,6.047565863E-2
2.046925264E0,-6.108652451E-4,-3.115412779E-2,5.986479297E-2
2.048911417E0,-1.221730490E-3,-5.131268129E-2,6.475171447E-2
2.050922494E0,-3.665191587E-3,-9.468411654E-2,6.475171447E-2
2.052907417E0,-7.941247895E-3,-1.356120855E-1,6.658431143E-2
2.054920954E0,-9.773843922E-3,-1.594358236E-1,7.024950534E-2
2.056904723E0,-1.282817032E-2,-2.015855312E-1,6.719517708E-2
2.058918262E0,-1.588249579E-2,-2.504547536E-1,6.352998316E-2
2.060932953E0,-2.138028294E-2,-2.730567753E-1,5.986479297E-2
2.062916415E0,-3.237585723E-2,-3.152064681E-1,5.558873713E-2
2.064931722E0,-4.642575979E-2,-3.549126983E-1,4.825835302E-2
2.066914491E0,-5.314527452E-2,-3.744603992E-1,4.642575979E-2
2.068929568E0,-6.230825558E-2,-4.086688459E-1,3.787364438E-2
2.070913029E0,-7.269296050E-2,-4.416555762E-1,3.176499158E-2
2.072925874E0,-8.063421398E-2,-4.538728893E-1,2.871066704E-2
2.074910182E0,-8.613199741E-2,-4.838052690E-1,2.199114859E-2
2.076923797E0,-9.224065393E-2,-4.948008358E-1,1.588249579E-2
2.078908027E0,-9.407325089E-2,-5.192354321E-1,8.552113548E-3
2.080921950E0,-9.651670605E-2,-5.387831330E-1,-1.221730490E-3
2.082906181E0,-9.896016866E-2,-5.473352671E-1,-5.497787148E-3
2.084919103E0,-1.020144969E-1,-5.607742667E-1,-1.343903504E-2
2.086903795E0,-1.044579595E-1,-5.687155724E-1,-2.076941915E-2
2.088918565E0,-1.050688252E-1,-5.656611919E-1,-2.199114859E-2
2.090901025E0,-1.044579595E-1,-5.681046844E-1,-2.565634064E-2
2.092914794E0,-1.044579595E-1,-5.564982295E-1,-3.298672289E-2
2.094929641E0,-1.026253626E-1,-5.491678715E-1,-3.176499158E-2
2.096913256E0,-1.062905490E-1,-5.314527750E-1,-3.298672289E-2
2.098927178E0,-1.026253626E-1,-5.088507533E-1,-2.993239649E-2
2.100910870E0,-1.007927656E-1,-4.954117239E-1,-2.626720630E-2
2.102925332E0,-9.040805697E-2,-4.648684561E-1,-2.138028294E-2
2.104909254E0,-7.757988572E-2,-4.300491214E-1,-1.710422710E-2
2.106923177E0,-7.024950534E-2,-4.105014503E-1,-1.527163107E-2
2.108907408E0,-6.475171447E-2,-3.701843321E-1,-1.466076635E-2
2.110920330E0,-6.658431143E-2,-3.469714522E-1,-1.404990070E-2
2.112904407E0,-6.597344577E-2,-3.029891551E-1,-1.404990070E-2
2.114919099E0,-7.208210230E-2,-2.583959997E-1,-1.160643995E-2
2.116902252E0,-6.841690838E-2,-2.345722616E-1,-1.588249579E-2
2.118916637E0,-6.414084882E-2,-1.966986060E-1,-1.343903504E-2
2.120930252E0,-6.475171447E-2,-1.582140923E-1,-1.221730467E-2
2.122914174E0,-6.536258012E-2,-1.411098689E-1,-1.466076635E-2
2.124927789E0,-6.536258012E-2,-1.087340117E-1,-1.954768784E-2
2.126911789E0,-6.963863969E-2,-5.925392732E-2,-2.382374369E-2
2.128924942E0,-6.963863969E-2,-5.925392732E-2,-2.382374369E-2
2.130909327E0,-7.086037099E-2,-4.825835302E-2,-2.565634064E-2
2.132924096E0,-7.208210230E-2,-2.871066704E-2,-2.626720630E-2
2.134908018E0,-7.208210230E-2,-2.015855350E-2,-2.626720630E-2
2.136921864E0,-7.757988572E-2,6.108652451E-4,-2.260201424E-2
2.138905557E0,-7.696902007E-2,1.893682219E-2,-1.710422710E-2
2.140919786E0,-7.696902007E-2,2.871066704E-2,-1.343903504E-2
2.142902786E0,-7.880161703E-2,4.703662544E-2,-6.719517522E-3
2.144918171E0,-7.941248268E-2,5.864306539E-2,6.108652451E-4
2.146931401E0,-8.002334833E-2,7.757988572E-2,9.773843922E-3
2.148916093E0,-7.696902007E-2,9.712757170E-2,1.954768784E-2
2.150929324E0,-7.635815442E-2,1.081231460E-1,2.504547499E-2
2.152913323E0,-7.269296050E-2,1.264491081E-1,2.993239649E-2
2.154927477E0,-6.841690838E-2,1.441642046E-1,3.970624134E-2
2.156910169E0,-6.352998316E-2,1.539380401E-1,4.398229718E-2
2.158925245E0,-5.192354694E-2,1.728748679E-1,4.825835302E-2
2.160908707E0,-4.153883830E-2,1.912008226E-1,5.314527452E-2
2.162923399E0,-3.543018550E-2,1.973094791E-1,5.375614017E-2
2.164905859E0,-2.443460934E-2,2.119702399E-1,5.986479297E-2
2.166920321E0,-1.832595654E-2,2.229658216E-1,5.681046844E-2
2.168905013E0,-1.404990070E-2,2.241875380E-1,5.864306539E-2
2.170918166E0,-8.552113548E-3,2.235766798E-1,5.864306539E-2
2.172932397E0,-4.276056774E-3,2.138028294E-1,5.803219974E-2
2.174915782E0,-3.665191587E-3,2.070833147E-1,6.108652428E-2
2.176929934E0,-3.054326167E-3,1.838704348E-1,6.047565863E-2
2.178913550E0,-1.221730490E-3,1.710422635E-1,6.169738993E-2
2.180927396E0,-4.276056774E-3,1.380555481E-1,6.108652428E-2
2.182911472E0,-6.108652335E-3,1.038470939E-1,6.047565863E-2
2.184926549E0,-8.552113548E-3,8.491026610E-2,5.925392732E-2
2.186909549E0,-9.773843922E-3,4.276056588E-2,5.436700583E-2
2.188925241E0,-1.038470957E-2,-3.054326167E-3,5.009094998E-2
2.190907702E0,-1.343903504E-2,-2.504547499E-2,4.703662544E-2
2.192921856E0,-1.527163107E-2,-7.391469181E-2,3.909537569E-2
2.194904625E0,-1.710422710E-2,-1.166752651E-1,2.871066704E-2
2.196918778E0,-1.771509275E-2,-1.368338168E-1,2.321287990E-2
2.198902547E0,-1.710422710E-2,-1.759291887E-1,7.330383174E-3
2.200917239E0,-1.588249579E-2,-2.064724565E-1,-5.497787148E-3
2.202931700E0,-1.527163107E-2,-2.186897546E-1,-1.282817032E-2
2.204914546E0,-1.160643995E-2,-2.351831198E-1,-3.115412779E-2
2.206929623E0,-1.038470957E-2,-2.419026345E-1,-4.764748737E-2
2.208914160E0,-1.160643995E-2,-2.406809032E-1,-5.253441259E-2
2.210926545E0,-1.221730467E-2,-2.272418737E-1,-6.597344577E-2
2.212910545E0,-9.773843922E-3,-2.150245607E-1,-7.391469181E-2
2.214924390E0,-1.038470957E-2,-1.869247705E-1,-8.368854225E-2
2.216908621E0,-9.773843922E-3,-1.514945775E-1,-9.101892263E-2
2.218922544E0,-1.466076635E-2,-1.276708394E-1,-9.468411654E-2
2.220906235E0,-1.771509275E-2,-8.246681094E-2,-9.834930301E-2
2.222920312E0,-1.710422710E-2,-3.909537569E-2,-9.773843735E-2
2.224904620E0,-1.588249579E-2,-1.771509275E-2,-9.529497474E-2
2.226918542E0,-1.466076635E-2,1.954768784E-2,-9.040805697E-2
2.228902465E0,-8.552113548E-3,5.681046844E-2,-8.307767659E-2
2.230915773E0,-9.162978269E-3,7.757988572E-2,-7.635815442E-2
2.232929849E0,-7.330383174E-3,1.130100712E-1,-6.536258012E-2
2.234913310E0,-1.343903504E-2,1.557706445E-1,-5.253441259E-2
2.236928079E0,-1.832595654E-2,1.759291887E-1,-4.581489414E-2
2.238911694E0,-2.871066704E-2,2.095267773E-1,-2.932153270E-2
2.240924925E0,-3.604105115E-2,2.266310006E-1,-2.687807009E-2
2.242908925E0,-4.703662544E-2,2.467895597E-1,-1.466076635E-2
2.244923077E0,-5.558873713E-2,2.559525371E-1,-5.497787148E-3
2.246907077E0,-6.414084882E-2,2.553416789E-1,-3.054326167E-3
2.248922539E0,-7.391469181E-2,2.498438805E-1,1.221730490E-3
2.250905230E0,-8.857546002E-2,2.364048511E-1,0.000000000E0
2.252919153E0,-1.001819000E-1,2.272418737E-1,0.000000000E0
2.254902538E0,-1.185078546E-1,1.960877478E-1,6.108652451E-4
2.256916691E0,-1.404990107E-1,1.606575549E-1,-3.054326167E-3
2.258931152E0,-1.508837193E-1,1.435533315E-1,-5.497787148E-3
2.260914537E0,-1.649336219E-1,1.007927656E-1,-6.719517522E-3
2.262928921E0,-1.673770845E-1,5.436700583E-2,-1.649336144E-2
2.264912921E0,-1.667662114E-1,3.054326214E-2,-1.893682219E-2
2.266926844E0,-1.679879427E-1,-1.466076635E-2,-2.504547499E-2
2.268911073E0,-1.673770845E-1,-5.864306539E-2,-3.298672289E-2
2.270924073E0,-1.673770845E-1,-8.124507964E-2,-3.420845419E-2
2.272908612E0,-1.631010175E-1,-1.233947799E-1,-4.092797264E-2
2.274922458E0,-1.612684280E-1,-1.386664063E-1,-4.520402849E-2
2.276905611E0,-1.521054506E-1,-1.637118906E-1,-4.764748737E-2
2.278919765E0,-1.374446750E-1,-1.857030392E-1,-4.642575979E-2
2.280903688E0,-1.319468915E-1,-1.912008226E-1,-4.459316283E-2
2.282917841E0,-1.185078546E-1,-1.881465018E-1,-3.543018550E-2
2.284931148E0,-1.044579595E-1,-1.698205322E-1,-2.687807009E-2
2.286915995E0,-9.834930301E-2,-1.576032341E-1,-2.321287990E-2
2.288931994E0,-8.796459436E-2,-1.264491081E-1,-1.160643995E-2
2.290912609E0,-8.368854225E-2,-8.552113175E-2,-2.443460980E-3
2.292927763E0,-7.696902007E-2,-6.902777404E-2,-1.832595794E-3
2.294910531E0,-6.658431143E-2,-2.748893574E-2,6.108652451E-4
2.296925300E0,-5.619960278E-2,9.162978269E-3,-4.886921961E-3
2.298908993E0,-5.253441259E-2,2.809980139E-2,-6.719517522E-3
2.300922453E0,-4.886921868E-2,6.475171447E-2,-1.527163107E-2
2.302906838E0,-3.543018550E-2,1.056796908E-1,-2.871066704E-2
2.304920915E0,-2.871066704E-2,1.221730486E-1,-3.054326214E-2
2.306905298E0,-1.832595654E-2,1.563815027E-1,-4.764748737E-2
2.308919145E0,-1.588249579E-2,1.710422635E-1,-5.436700583E-2
2.310902529E0,-1.649336144E-2,2.052507252E-1,-6.658431143E-2
2.312916913E0,-2.382374369E-2,2.400700450E-1,-7.452555746E-2
2.314930528E0,-2.809980139E-2,2.590068579E-1,-7.452555746E-2
2.316913605E0,-3.298672289E-2,2.981022298E-1,-6.902777404E-2
2.318927450E0,-3.848451003E-2,3.323107064E-1,-5.803219974E-2
2.320912066E0,-4.031710699E-2,3.469714522E-1,-4.642575979E-2
2.322926219E0,-3.848451003E-2,3.652974069E-1,-2.015855350E-2
2.324909911E0,-3.909537569E-2,3.714060783E-1,9.162978269E-3
2.326924065E0,-3.665191308E-2,3.714060783E-1,2.321287990E-2
2.328908680E0,-3.420845419E-2,3.585779071E-1,5.009094998E-2
2.330921833E0,-3.420845419E-2,3.402519524E-1,7.819075137E-2
2.332905602E0,-2.993239649E-2,3.268128932E-1,8.857546002E-2
2.334919371E0,-3.054326214E-2,2.981022298E-1,1.081231460E-1
2.336903678E0,-2.993239649E-2,2.816088796E-1,1.172861308E-1
2.338917524E0,-3.359758854E-2,2.535090744E-1,1.270599663E-1
2.340931678E0,-3.298672289E-2,2.205223590E-1,1.356120855E-1
2.342915369E0,-3.115412779E-2,2.064724565E-1,1.368338168E-1
2.344930216E0,-3.054326214E-2,1.716531366E-1,1.368338168E-1
2.346912985E0,-2.626720630E-2,1.337794960E-1,1.264491081E-1
2.348927753E0,-2.932153270E-2,1.142318025E-1,1.209513173E-1
2.350911138E0,-3.176499158E-2,7.330382615E-2,1.026253626E-1
2.352924676E0,-3.665191308E-2,3.054326214E-2,7.941248268E-2
2.354908060E0,-3.359758854E-2,9.773843922E-3,6.841690838E-2
2.356923367E0,-2.565634064E-2,-3.543018550E-2,4.153883830E-2
2.358905906E0,-2.015855350E-2,-8.063421398E-2,1.282817032E-2
2.360920675E0,-2.260201424E-2,-1.014036313E-1,-2.443460980E-3
2.362903982E0,-2.382374369E-2,-1.411098689E-1,-3.054326214E-2
2.364917905E0,-2.687807009E-2,-1.716531366E-1,-5.314527452E-2
2.366932059E0,-3.970624134E-2,-2.040289938E-1,-8.857546002E-2
2.368914750E0,-3.970624134E-2,-2.040289938E-1,-8.857546002E-2
2.370930135E0,-4.214970022E-2,-2.083050460E-1,-9.285151958E-2
2.372914442E0,-4.764748737E-2,-2.089159191E-1,-9.834930301E-2
2.374928595E0,-5.009094998E-2,-2.009746730E-1,-1.075122803E-1
2.376912364E0,-5.131268129E-2,-1.936442852E-1,-1.099557430E-1
2.378926441E0,-5.619960278E-2,-1.753183305E-1,-1.081231460E-1
2.380909902E0,-5.803219974E-2,-1.466076523E-1,-1.032362282E-1
2.382923671E0,-5.803219974E-2,-1.276708394E-1,-9.957103431E-2
2.384908287E0,-5.681046844E-2,-8.185594529E-2,-8.552113175E-2
2.386921516E0,-5.375614017E-2,-3.481931984E-2,-7.452555746E-2
2.388906439E0,-5.253441259E-2,-7.330383174E-3,-6.719517708E-2
2.390919670E0,-4.825835302E-2,4.948008433E-2,-4.948008433E-2
2.392903361E0,-5.070181563E-2,1.099557430E-1,-3.604105115E-2
2.394917285E0,-4.948008433E-2,1.398881376E-1,-2.871066704E-2
2.396931669E0,-4.948008433E-2,2.009746730E-1,-1.649336144E-2
2.398914822E0,-4.764748737E-2,2.596177161E-1,-3.054326167E-3
2.400929284E0,-4.459316283E-2,2.877175212E-1,1.221730490E-3
2.402912899E0,-4.337143153E-2,3.475823104E-1,1.160643995E-2
2.404926206E0,-4.031710699E-2,3.744603992E-1,1.527163107E-2
2.406910513E0,-3.604105115E-2,4.202753007E-1,2.443460934E-2
2.408926129E0,-3.176499158E-2,4.605923891E-1,2.932153270E-2
2.410908897E0,-2.932153270E-2,4.795292318E-1,3.115412779E-2
2.412921897E0,-2.199114859E-2,5.051855445E-1,3.726277873E-2
2.414906743E0,-2.076941915E-2,5.229006410E-1,4.214970022E-2
2.416920358E0,-1.710422710E-2,5.265658498E-1,4.520402849E-2
2.418903665E0,-1.527163107E-2,5.283984542E-1,4.642575979E-2
2.420918511E0,-1.588249579E-2,5.174028873E-1,5.253441259E-2
2.422901818E0,-1.527163107E-2,5.057964325E-1,5.558873713E-2
2.424917280E0,-1.649336144E-2,4.764748812E-1,6.108652428E-2
2.426930433E0,-1.649336144E-2,4.398229718E-1,6.536258012E-2
2.428914509E0,-1.649336144E-2,4.178318381E-1,6.597344577E-2
2.430928663E0,-1.954768784E-2,3.671300113E-1,7.024950534E-2
2.432911356E0,-2.565634064E-2,3.078760803E-1,6.963863969E-2
2.434926816E0,-2.199114859E-2,2.724458873E-1,6.780604273E-2
2.436909278E0,-2.015855350E-2,2.028072625E-1,6.414084882E-2
2.438924047E0,-1.954768784E-2,1.637118906E-1,5.742133409E-2
2.440906507E0,-2.138028294E-2,8.429940045E-2,5.009094998E-2
2.442921200E0,-2.015855350E-2,3.665191587E-3,3.848451003E-2
2.444904584E0,-1.588249579E-2,-3.848451003E-2,3.359758854E-2
2.446919969E0,-1.221730467E-2,-1.185078546E-1,2.504547499E-2
2.448904660E0,-7.941247895E-3,-1.985312104E-1,9.773843922E-3
2.450916583E0,-9.162978269E-3,-2.370157093E-1,1.832595794E-3
2.452931045E0,-1.221730467E-2,-3.097086847E-1,-1.710422710E-2
2.454914736E0,-1.221730467E-2,-3.720169365E-1,-3.604105115E-2
2.456929813E0,-1.038470957E-2,-3.976732790E-1,-4.214970022E-2
2.458913198E0,-5.497787148E-3,-4.398229718E-1,-5.619960278E-2
2.460926735E0,2.443460980E-3,-4.654793143E-1,-6.169738993E-2
2.462910428E0,6.108652335E-3,-4.740314186E-1,-6.352998316E-2
2.464925274E0,1.099557430E-2,-4.813618064E-1,-6.230825558E-2
2.466907965E0,1.343903504E-2,-4.746423066E-1,-6.169738993E-2
2.468923119E0,2.076941915E-2,-4.685336351E-1,-5.131268129E-2
2.470906119E0,2.748893574E-2,-4.489859641E-1,-4.153883830E-2
2.472920579E0,3.054326214E-2,-4.361577928E-1,-3.543018550E-2
2.474903656E0,3.420845419E-2,-4.074471295E-1,-2.138028294E-2
2.476918195E0,4.337143153E-2,-3.750712574E-1,-3.054326167E-3
2.478932271E0,4.581489414E-2,-3.543018401E-1,2.443460980E-3
2.480915117E0,5.619960278E-2,-3.115412891E-1,1.771509275E-2
2.482930117E0,6.414084882E-2,-2.626720667E-1,3.237585723E-2
2.484913808E0,7.269296050E-2,-2.376265824E-1,3.970624134E-2
2.486927962E0,8.368854225E-2,-1.820378453E-1,5.131268129E-2
2.488911654E0,9.346238524E-2,-1.270599663E-1,6.291911751E-2
2.490925884E0,9.773843735E-2,-9.529497474E-2,6.475171447E-2
2.492908961E0,1.044579595E-1,-3.420845419E-2,7.086037099E-2
2.494923653E0,1.075122803E-1,2.138028294E-2,7.330382615E-2
2.496907114E0,1.050688252E-1,5.009094998E-2,7.757988572E-2
2.498920652E0,1.056796908E-1,1.007927656E-1,7.941248268E-2
2.500904268E0,1.050688252E-1,1.227839142E-1,8.002334833E-2
2.502919113E0,1.099557430E-1,1.600466967E-1,8.124507964E-2
2.504903728E0,1.136209369E-1,1.869247705E-1,8.002334833E-2
2.506917190E0,1.142318025E-1,1.979203373E-1,8.002334833E-2
2.508931650E0,1.154535338E-1,2.125810981E-1,7.635815442E-2
2.510915112E0,1.123992056E-1,2.254092693E-1,7.208210230E-2
2.512928574E0,1.081231460E-1,2.315179259E-1,7.024950534E-2
2.514911957E0,1.020144969E-1,2.406809032E-1,6.108652428E-2
2.516926496E0,9.040805697E-2,2.461786866E-1,5.009094998E-2
2.518910726E0,8.735372871E-2,2.461786866E-1,4.581489414E-2
2.520924648E0,7.513642311E-2,2.480112910E-1,2.809980139E-2
2.522908264E0,6.536258012E-2,2.455678284E-1,1.160643995E-2
2.524921572E0,6.414084882E-2,2.406809032E-1,3.665191587E-3
2.526906417E0,5.742133409E-2,2.315179259E-1,-1.221730467E-2
2.528922109E0,4.886921868E-2,2.254092693E-1,-3.543018550E-2
2.530903340E0,4.581489414E-2,2.223549485E-1,-4.459316283E-2
2.532918494E0,3.543018550E-2,2.278527319E-1,-5.803219974E-2
2.534901185E0,3.298672289E-2,2.321287990E-1,-6.963863969E-2
2.536915108E0,2.687807009E-2,2.467895597E-1,-8.124507964E-2
2.538929570E0,2.382374369E-2,2.681698501E-1,-9.040805697E-2
2.540912953E0,2.443460934E-2,2.828305960E-1,-9.468411654E-2
2.542927415E0,2.504547499E-2,3.170390725E-1,-9.712757170E-2
2.544911107E0,3.115412779E-2,3.555235863E-1,-9.285151958E-2
2.546925568E0,3.420845419E-2,3.720169365E-1,-8.979719132E-2
2.548909568E0,3.970624134E-2,4.159992337E-1,-8.185594529E-2
2.550923106E0,4.214970022E-2,4.599815309E-1,-7.330382615E-2
2.552907105E0,4.703662544E-2,4.795292318E-1,-6.414084882E-2
2.554920874E0,4.703662544E-2,5.167919993E-1,-5.070181563E-2
2.556904644E0,5.314527452E-2,5.491678715E-1,-3.237585723E-2
2.558918489E0,5.375614017E-2,5.595525503E-1,-2.443460934E-2
2.560902719E0,6.108652428E-2,5.748242140E-1,-1.832595794E-3
2.562915950E0,6.963863969E-2,5.815436840E-1,1.466076635E-2
2.564929795E0,7.024950534E-2,5.803219676E-1,2.565634064E-2
2.566914103E0,7.574728876E-2,5.674937963E-1,4.214970022E-2
2.568929488E0,7.574728876E-2,5.619960427E-1,4.825835302E-2
2.570911410E0,7.880161703E-2,5.430592299E-1,5.742133409E-2
2.572926179E0,7.757988572E-2,5.143485069E-1,6.169738993E-2
2.574910410E0,7.269296050E-2,4.960225821E-1,6.352998316E-2
2.576923717E0,6.841690838E-2,4.612032473E-1,6.291911751E-2
2.578907640E0,6.047565863E-2,4.355469346E-1,5.986479297E-2
2.580921178E0,5.253441259E-2,4.263839424E-1,5.864306539E-2
2.582905485E0,3.726277873E-2,4.117231667E-1,5.681046844E-2
2.584920331E0,3.481931984E-2,3.872885704E-1,5.314527452E-2
2.586903408E0,3.481931984E-2,3.683517575E-1,4.825835302E-2
2.588918099E0,3.054326214E-2,3.249803185E-1,3.848451003E-2
2.590932022E0,2.932153270E-2,2.767219543E-1,3.115412779E-2
2.592915330E0,3.115412779E-2,2.492330223E-1,2.748893574E-2
2.594929560E0,3.420845419E-2,2.028072625E-1,1.832595654E-2
2.596912944E0,2.993239649E-2,1.618792862E-1,1.282817032E-2
2.598926791E0,2.382374369E-2,1.429424733E-1,9.162978269E-3
2.600910790E0,2.076941915E-2,9.834930301E-2,4.276056774E-3
2.602925482E0,1.588249579E-2,7.452555746E-2,1.832595794E-3
2.604908251E0,1.466076635E-2,1.954768784E-2,-1.832595794E-3
2.606922096E0,1.404990070E-2,-1.020144969E-1,-4.886921961E-3
2.608904865E0,1.404990070E-2,-1.020144969E-1,-4.886921961E-3
2.610919942E0,1.404990070E-2,-1.295034289E-1,-3.665191587E-3
2.612904249E0,1.466076635E-2,-1.795943826E-1,0.000000000E0
2.614918711E0,1.221730467E-2,-2.021963894E-1,1.221730490E-3
2.616901864E0,6.719517522E-3,-2.431243658E-1,7.330383174E-3
2.618915940E0,6.108652451E-4,-2.791654170E-1,1.160643995E-2
2.620929479E0,-4.276056774E-3,-2.944370508E-1,1.282817032E-2
2.622913787E0,-6.719517522E-3,-3.280346394E-1,1.954768784E-2
2.624928633E0,-7.330383174E-3,-3.573561609E-1,2.687807009E-2
2.626911709E0,-6.108652335E-3,-3.744603992E-1,3.115412779E-2
2.628926401E0,0.000000000E0,-4.043927789E-1,3.848451003E-2
2.630910478E0,4.276056774E-3,-4.306600094E-1,4.214970022E-2
2.632923938E0,6.108652335E-3,-4.416555762E-1,4.886921868E-2
2.634907323E0,9.162978269E-3,-4.581489265E-1,5.192354694E-2
2.636921477E0,7.330383174E-3,-4.630358517E-1,5.497787148E-2
2.638905476E0,-6.108652451E-4,-4.673119187E-1,5.925392732E-2
2.640919630E0,-9.162978269E-3,-4.703662395E-1,6.475171447E-2
2.642902399E0,-1.343903504E-2,-4.697553813E-1,6.719517708E-2
2.644916860E0,-1.893682219E-2,-4.660901725E-1,7.330382615E-2
2.646931706E0,-1.893682219E-2,-4.654793143E-1,7.757988572E-2
2.648915321E0,-1.893682219E-2,-4.660901725E-1,8.368854225E-2
2.650929551E0,-1.588249579E-2,-4.654793143E-1,8.613199741E-2
2.652912628E0,-1.832595654E-2,-4.667010605E-1,8.918632567E-2
2.654926782E0,-1.893682219E-2,-4.648684561E-1,9.040805697E-2
2.656910088E0,-2.504547499E-2,-4.630358517E-1,9.407325089E-2
2.658925165E0,-3.359758854E-2,-4.550946057E-1,9.224065393E-2
2.660908550E0,-3.726277873E-2,-4.526511431E-1,8.979719132E-2
2.662922703E0,-3.543018550E-2,-4.410447180E-1,9.040805697E-2
2.664907318E0,-3.420845419E-2,-4.343251884E-1,8.735372871E-2
2.666920857E0,-2.932153270E-2,-4.190535545E-1,8.368854225E-2
2.668904548E0,-2.687807009E-2,-4.050036669E-1,7.696902007E-2
2.670919009E0,-2.443460934E-2,-3.970624208E-1,7.269296050E-2
2.672901856E0,-2.015855350E-2,-3.744603992E-1,6.719517708E-2
2.674915932E0,-2.504547499E-2,-3.457497358E-1,5.619960278E-2
2.676930162E0,-2.382374369E-2,-3.359758854E-1,5.131268129E-2
2.678914470E0,-3.115412779E-2,-3.115412891E-1,4.581489414E-2
2.680928238E0,-4.276056588E-2,-2.864958048E-1,4.398229718E-2
2.682911392E0,-4.764748737E-2,-2.755002379E-1,4.153883830E-2
2.684925161E0,-5.131268129E-2,-2.614503205E-1,3.970624134E-2
2.686909853E0,-5.192354694E-2,-2.559525371E-1,3.543018550E-2
2.688925160E0,-5.131268129E-2,-2.583959997E-1,3.481931984E-2
2.690906699E0,-4.886921868E-2,-2.645046413E-1,3.054326214E-2
2.692921544E0,-4.948008433E-2,-2.736676335E-1,2.138028294E-2
2.694905159E0,-5.375614017E-2,-2.785545588E-1,1.771509275E-2
2.696918698E0,-6.475171447E-2,-2.858849466E-1,4.276056774E-3
2.698903081E0,-7.147123665E-2,-2.901609838E-1,-6.108652451E-4
2.700917235E0,-8.307767659E-2,-2.919935882E-1,-1.282817032E-2
2.702931081E0,-9.590584040E-2,-2.926044464E-1,-2.015855350E-2
2.704915927E0,-9.896016866E-2,-2.938261926E-1,-2.626720630E-2
2.706928619E0,-1.038470939E-1,-2.956587672E-1,-3.176499158E-2
2.708913850E0,-1.062905490E-1,-2.999348342E-1,-3.848451003E-2
2.710926696E0,-1.038470939E-1,-3.036000133E-1,-4.031710699E-2
2.712910464E0,-1.075122803E-1,-3.109304011E-1,-4.398229718E-2
2.714924618E0,-1.099557430E-1,-3.176499307E-1,-5.009094998E-2
2.716908849E0,-1.111774743E-1,-3.231477141E-1,-4.948008433E-2
2.718922386E0,-1.160643995E-1,-3.304781020E-1,-5.558873713E-2
2.720905463E0,-1.197295859E-1,-3.353650272E-1,-5.497787148E-2
2.722919925E0,-1.227839142E-1,-3.353650272E-1,-5.253441259E-2
2.724903077E0,-1.240056455E-1,-3.378084898E-1,-5.192354694E-2
2.726918693E0,-1.215621829E-1,-3.414736688E-1,-4.520402849E-2
2.728902693E0,-1.172861308E-1,-3.445279896E-1,-4.031710699E-2
2.730915923E0,-1.105666086E-1,-3.494149148E-1,-3.237585723E-2
2.732930153E0,-1.093448773E-1,-3.451388776E-1,-3.054326214E-2
2.734913153E0,-1.026253626E-1,-3.506366611E-1,-2.260201424E-2
2.736927922E0,-9.773843735E-2,-3.500257730E-1,-1.527163107E-2
2.738912229E0,-9.773843735E-2,-3.512475193E-1,-1.160643995E-2
2.740925537E0,-9.407325089E-2,-3.543018401E-1,-2.443460980E-3
2.742909228E0,-8.307767659E-2,-3.543018401E-1,4.886921961E-3
2.744924228E0,-7.819075137E-2,-3.597996235E-1,1.160643995E-2
2.746906998E0,-6.658431143E-2,-3.671300113E-1,1.771509275E-2
2.748921766E0,-5.864306539E-2,-3.769038618E-1,2.504547499E-2
2.750905150E0,-5.253441259E-2,-3.842342496E-1,2.809980139E-2
2.752919381E0,-4.642575979E-2,-3.964515328E-1,3.237585723E-2
2.754902457E0,-3.909537569E-2,-4.105014503E-1,3.543018550E-2
2.756916611E0,-3.726277873E-2,-4.159992337E-1,3.787364438E-2
2.758930996E0,-3.298672289E-2,-4.300491214E-1,4.276056588E-2
2.760914379E0,-2.932153270E-2,-4.416555762E-1,4.459316283E-2
2.762929456E0,-2.504547499E-2,-4.495968223E-1,4.886921868E-2
2.764912610E0,-2.260201424E-2,-4.605923891E-1,5.436700583E-2
2.766927071E0,-2.260201424E-2,-4.642575979E-1,5.558873713E-2
2.768913148E0,-1.649336144E-2,-4.789183438E-1,6.536258012E-2
2.770923994E0,-1.099557430E-2,-4.893030524E-1,7.208210230E-2
2.772908300E0,-6.719517522E-3,-4.966334403E-1,7.452555746E-2
2.774921762E0,1.221730490E-3,-5.082398653E-1,8.307767659E-2
2.776905454E0,1.343903504E-2,-5.161811113E-1,8.918632567E-2
2.778919915E0,1.710422710E-2,-5.161811113E-1,9.040805697E-2
2.780903915E0,2.443460934E-2,-5.204572082E-1,9.162978828E-2
2.782917530E0,2.809980139E-2,-5.100724697E-1,9.468411654E-2
2.784932298E0,3.115412779E-2,-5.057964325E-1,9.712757170E-2
2.786915683E0,3.665191308E-2,-4.923573732E-1,9.590584040E-2
2.788931068E0,4.092797264E-2,-4.783074856E-1,9.407325089E-2
2.790913759E0,4.703662544E-2,-4.691445231E-1,8.979719132E-2
2.792927682E0,5.314527452E-2,-4.544837475E-1,8.735372871E-2
2.794910759E0,5.681046844E-2,-4.465425014E-1,8.429940045E-2
2.796925451E0,5.803219974E-2,-4.306600094E-1,7.880161703E-2
2.798908835E0,6.169738993E-2,-4.153883755E-1,7.819075137E-2
2.800923373E0,6.414084882E-2,-4.056145251E-1,7.696902007E-2
2.802907296E0,6.902777404E-2,-3.842342496E-1,7.513642311E-2
2.804920603E0,7.024950534E-2,-3.597996235E-1,7.574728876E-2
2.806903988E0,7.452555746E-2,-3.518583775E-1,7.757988572E-2
2.808919680E0,7.757988572E-2,-3.304781020E-1,8.124507964E-2
2.810903679E0,8.368854225E-2,-3.084869385E-1,8.307767659E-2
2.812916525E0,8.735372871E-2,-3.023782969E-1,8.491026610E-2
2.814930756E0,9.346238524E-2,-2.779437006E-1,8.674286306E-2
2.816913524E0,9.468411654E-2,-2.571742535E-1,9.101892263E-2
2.818928524E0,9.590584040E-2,-2.467895597E-1,9.162978828E-2
2.820912293E0,9.529497474E-2,-2.254092693E-1,9.468411654E-2
2.822925754E0,9.407325089E-2,-2.028072625E-1,9.468411654E-2
2.824910062E0,9.712757170E-2,-1.918116808E-1,9.834930301E-2
2.826924216E0,9.773843735E-2,-1.747074574E-1,9.773843735E-2
2.828907676E0,9.834930301E-2,-1.655444801E-1,1.001819000E-1
2.830922138E0,1.007927656E-1,-1.484402567E-1,1.014036313E-1
2.832905138E0,1.056796908E-1,-1.319468915E-1,1.044579595E-1
2.834918983E0,1.075122803E-1,-1.252273768E-1,1.044579595E-1
2.836902675E0,1.130100712E-1,-1.154535338E-1,1.075122803E-1
2.838917829E0,1.160643995E-1,-1.032362282E-1,1.069014147E-1
2.840931366E0,1.178969890E-1,-9.773843735E-2,1.069014147E-1
2.842915059E0,1.240056455E-1,-9.040805697E-2,1.081231460E-1
2.844929443E0,1.307251602E-1,-8.307767659E-2,1.081231460E-1
2.846912289E0,1.417207420E-1,-7.513642311E-2,1.136209369E-1
2.848925750E0,1.441642046E-1,-6.963863969E-2,1.166752651E-1
2.850908289E0,1.490511149E-1,-6.841690838E-2,1.185078546E-1
2.852924826E0,1.508837193E-1,-6.475171447E-2,1.215621829E-1
2.854908826E0,1.563815027E-1,-6.414084882E-2,1.246165112E-1
2.856923288E0,1.600466967E-1,-6.047565863E-2,1.319468915E-1
2.858906748E0,1.631010175E-1,-5.986479297E-2,1.343903542E-1
2.860919979E0,1.631010175E-1,-5.864306539E-2,1.374446750E-1
2.862904210E0,1.649336219E-1,-6.108652428E-2,1.392772794E-1
2.864918747E0,1.655444801E-1,-6.108652428E-2,1.392772794E-1
2.866902363E0,1.661553532E-1,-6.475171447E-2,1.411098689E-1
2.868916516E0,1.637118906E-1,-6.780604273E-2,1.404990107E-1
2.870930438E0,1.631010175E-1,-7.330382615E-2,1.380555481E-1
2.872914131E0,1.557706445E-1,-8.246681094E-2,1.337794960E-1
2.874928592E0,1.545489132E-1,-8.491026610E-2,1.295034289E-1
2.876911361E0,1.478293836E-1,-9.651670605E-2,1.215621829E-1
2.878926437E0,1.417207420E-1,-1.050688252E-1,1.130100712E-1
2.880909207E0,1.356120855E-1,-1.093448773E-1,1.117883399E-1
2.882923591E0,1.295034289E-1,-1.209513173E-1,9.957103431E-2
2.884906436E0,1.221730486E-1,-1.337794960E-1,9.040805697E-2
2.886922052E0,1.185078546E-1,-1.423316002E-1,8.307767659E-2
2.888906129E0,1.111774743E-1,-1.539380401E-1,6.780604273E-2
2.890919589E0,1.044579595E-1,-1.649336219E-1,5.681046844E-2
2.892902974E0,1.032362282E-1,-1.698205322E-1,4.948008433E-2
2.894917820E0,9.101892263E-2,-1.753183305E-1,3.848451003E-2
2.896931896E0,8.674286306E-2,-1.765400618E-1,3.176499158E-2
2.898914665E0,7.269296050E-2,-1.740965992E-1,2.015855350E-2
2.900928588E0,5.619960278E-2,-1.649336219E-1,8.552113548E-3
2.902912587E0,4.764748737E-2,-1.582140923E-1,5.497787148E-3
2.904927895E0,3.054326214E-2,-1.441642046E-1,-2.443460980E-3
2.906910434E0,2.321287990E-2,-1.331686229E-1,-9.773843922E-3
2.908926125E0,1.771509275E-2,-1.282816976E-1,-1.404990070E-2
2.910909433E0,1.221730467E-2,-1.154535338E-1,-1.893682219E-2
2.912922663E0,1.221730467E-2,-1.007927656E-1,-2.809980139E-2
2.914906432E0,1.343903504E-2,-9.040805697E-2,-2.932153270E-2
2.916920278E0,1.404990070E-2,-6.291911751E-2,-3.298672289E-2
2.918904278E0,1.404990070E-2,-2.748893574E-2,-3.665191308E-2
2.920918431E0,1.282817032E-2,-6.719517522E-3,-3.604105115E-2
2.922901431E0,1.038470957E-2,3.665191308E-2,-4.092797264E-2
2.924915584E0,1.038470957E-2,8.429940045E-2,-3.909537569E-2
2.926930353E0,1.099557430E-2,1.075122803E-1,-3.970624134E-2
2.928915583E0,1.588249579E-2,1.569923609E-1,-3.481931984E-2
2.930927660E0,1.466076635E-2,1.802052408E-1,-3.298672289E-2
2.932912198E0,2.199114859E-2,2.193006277E-1,-2.626720630E-2
2.934925121E0,2.443460934E-2,2.608394623E-1,-2.015855350E-2
2.936909198E0,2.626720630E-2,2.767219543E-1,-1.343903504E-2
2.938923274E0,2.993239649E-2,3.072652221E-1,-4.276056774E-3
2.940907581E0,3.176499158E-2,3.335324228E-1,4.276056774E-3
2.942920889E0,3.359758854E-2,3.451388776E-1,9.162978269E-3
2.944905427E0,3.787364438E-2,3.640756905E-1,2.076941915E-2
2.946918427E0,4.092797264E-2,3.781255782E-1,3.481931984E-2
2.948903580E0,4.214970022E-2,3.836233616E-1,3.848451003E-2
2.950916887E0,4.764748737E-2,3.878994286E-1,5.009094998E-2
2.952930964E0,5.131268129E-2,3.885102868E-1,6.169738993E-2
2.954914656E0,5.436700583E-2,3.854559660E-1,6.475171447E-2
2.956928886E0,5.986479297E-2,3.787364662E-1,7.024950534E-2
2.958911963E0,6.291911751E-2,3.707951903E-1,7.452555746E-2
2.960926117E0,6.597344577E-2,3.585779071E-1,7.696902007E-2
2.962909501E0,7.269296050E-2,3.414736688E-1,8.124507964E-2
2.964923885E0,7.208210230E-2,3.316998184E-1,8.246681094E-2
2.966908193E0,7.635815442E-2,3.090978265E-1,8.613199741E-2
2.968922115E0,7.941248268E-2,2.852740586E-1,8.735372871E-2
2.970905807E0,8.185594529E-2,2.730567753E-1,8.735372871E-2
2.972919269E0,8.552113175E-2,2.474004179E-1,8.491026610E-2
2.974903577E0,8.735372871E-2,2.193006277E-1,8.491026610E-2
2.976917806E0,8.796459436E-2,2.064724565E-1,8.246681094E-2
2.978931883E0,8.979719132E-2,1.795943826E-1,7.696902007E-2
2.980915268E0,8.735372871E-2,1.557706445E-1,7.147123665E-2
2.982929805E0,8.613199741E-2,1.447750628E-1,6.780604273E-2
2.984913805E0,8.185594529E-2,1.227839142E-1,6.169738993E-2
2.986928267E0,7.696902007E-2,1.014036313E-1,5.070181563E-2
2.988911881E0,7.452555746E-2,9.101892263E-2,4.642575979E-2
2.990925497E0,6.963863969E-2,7.208210230E-2,3.848451003E-2
2.992908881E0,6.841690838E-2,6.230825558E-2,2.993239649E-2
2.994924188E0,5.925392732E-2,4.642575979E-2,2.565634064E-2
2.996906419E0,4.764748737E-2,3.665191308E-2,1.527163107E-2
2.998921496E0,4.337143153E-2,3.237585723E-2,1.099557430E-2
3.000904802E0,2.993239649E-2,2.015855350E-2,3.665191587E-3
3.002918956E0,1.588249579E-2,1.221730467E-2,-9.773843922E-3
3.004901725E0,1.099557430E-2,3.054326167E-3,-1.404990070E-2
3.006917494E0,1.832595794E-3,-9.773843922E-3,-2.565634064E-2
3.008932494E0,-4.276056774E-3,-2.199114859E-2,-3.848451003E-2
3.010914109E0,-9.773843922E-3,-2.871066704E-2,-4.398229718E-2
3.012929108E0,-1.771509275E-2,-3.298672289E-2,-5.864306539E-2
3.014911647E0,-2.382374369E-2,-3.176499158E-2,-6.902777404E-2
3.016926416E0,-2.687807009E-2,-2.748893574E-2,-7.574728876E-2
3.018909415E0,-3.359758854E-2,-1.343903504E-2,-8.429940045E-2
3.020924261E0,-3.787364438E-2,6.108652335E-3,-9.162978828E-2
3.022908184E0,-4.276056588E-2,2.015855350E-2,-9.224065393E-2
3.024922645E0,-4.153883830E-2,4.703662544E-2,-9.407325089E-2
3.026906029E0,-4.153883830E-2,6.169738993E-2,-9.529497474E-2
3.028921183E0,-3.848451003E-2,8.735372871E-2,-9.162978828E-2
3.030904182E0,-3.481931984E-2,1.142318025E-1,-8.429940045E-2
3.032917797E0,-3.237585723E-2,1.295034289E-1,-8.124507964E-2
3.034931336E0,-2.687807009E-2,1.521054506E-1,-7.147123665E-2
3.036915950E0,-2.138028294E-2,1.734857261E-1,-6.108652428E-2
3.038929796E0,-1.649336144E-2,1.857030392E-1,-5.436700583E-2
3.040913489E0,-1.221730467E-2,2.083050460E-1,-4.642575979E-2
3.042927872E0,-7.941247895E-3,2.290744632E-1,-3.604105115E-2
3.044910411E0,-4.276056774E-3,2.364048511E-1,-2.809980139E-2
3.046924872E0,-6.108652451E-4,2.528982162E-1,-2.321287990E-2
3.048910025E0,4.276056774E-3,2.614503205E-1,-1.343903504E-2
3.050923256E0,4.276056774E-3,2.620611787E-1,-1.099557430E-2
3.052905795E0,4.276056774E-3,2.663372457E-1,-6.719517522E-3
3.054920255E0,7.941247895E-3,2.687807083E-1,-1.832595794E-3
3.056904794E0,8.552113548E-3,2.687807083E-1,-4.276056774E-3
3.058918332E0,4.886921961E-3,2.700024247E-1,-4.886921961E-3
3.060932794E0,1.832595794E-3,2.693915665E-1,-9.162978269E-3
3.062916562E0,-6.108652335E-3,2.724458873E-1,-1.282817032E-2
3.064930946E0,-1.343903504E-2,2.718350291E-1,-2.138028294E-2
3.066914946E0,-1.221730467E-2,2.687807083E-1,-2.443460934E-2
3.068928868E0,-1.160643995E-2,2.645046413E-1,-2.932153270E-2
3.070912253E0,-3.054326167E-3,2.535090744E-1,-3.543018550E-2
3.072926099E0,3.054326167E-3,2.504547536E-1,-3.604105115E-2
3.074909791E0,1.404990070E-2,2.467895597E-1,-3.604105115E-2
3.076923329E0,2.138028294E-2,2.541199327E-1,-3.298672289E-2
3.078906944E0,2.565634064E-2,2.602286041E-1,-2.809980139E-2
3.080921713E0,2.504547499E-2,2.748893499E-1,-1.893682219E-2
3.082905097E0,2.138028294E-2,2.889392674E-1,-7.330383174E-3
3.084919251E0,2.260201424E-2,2.926044464E-1,-5.497787148E-3
3.086902712E0,2.076941915E-2,2.822197378E-1,1.099557430E-2
3.088916173E0,2.138028294E-2,2.779437006E-1,1.588249579E-2
3.090928481E0,2.443460934E-2,2.693915665E-1,1.282817032E-2
3.092915018E0,2.748893574E-2,2.614503205E-1,1.466076635E-2
3.094929172E0,2.871066704E-2,2.522873580E-1,1.649336144E-2
3.096912557E0,2.748893574E-2,2.425135076E-1,1.710422710E-2
3.098927556E0,2.565634064E-2,2.406809032E-1,2.565634064E-2
3.100910710E0,2.199114859E-2,2.412917763E-1,2.626720630E-2
3.102924864E0,1.954768784E-2,2.480112910E-1,3.176499158E-2
3.104908863E0,1.343903504E-2,2.602286041E-1,3.848451003E-2
3.106922709E0,1.160643995E-2,2.657263875E-1,4.214970022E-2
3.108907324E0,1.343903504E-2,2.706133127E-1,4.948008433E-2
3.110920477E0,9.773843922E-3,2.718350291E-1,5.375614017E-2
3.112904554E0,8.552113548E-3,2.706133127E-1,5.619960278E-2
3.114918631E0,2.443460980E-3,2.651155293E-1,5.925392732E-2
3.116901784E0,6.108652451E-4,2.553416789E-1,5.986479297E-2
3.118915938E0,-1.832595794E-3,2.486221492E-1,5.803219974E-2
3.120930091E0,-1.099557430E-2,2.425135076E-1,5.986479297E-2
3.122914013E0,-1.710422710E-2,2.315179259E-1,5.742133409E-2
3.124927321E0,-1.710422710E-2,2.284636050E-1,5.558873713E-2
3.126912244E0,-1.954768784E-2,2.156354338E-1,5.497787148E-2
3.128926936E0,-1.832595654E-2,2.070833147E-1,5.375614017E-2
3.130909705E0,-1.649336144E-2,1.924225539E-1,5.192354694E-2
3.132924166E0,-1.282817032E-2,1.747074574E-1,4.764748737E-2
3.134907550E0,-6.719517522E-3,1.649336219E-1,4.886921868E-2
3.136921396E0,-9.162978269E-3,1.472185254E-1,4.764748737E-2
3.138904550E0,-1.832595654E-2,1.337794960E-1,4.398229718E-2
3.140919318E0,-2.321287990E-2,1.295034289E-1,4.214970022E-2
3.142902934E0,-3.787364438E-2,1.221730486E-1,3.970624134E-2
3.144918087E0,-4.642575979E-2,1.111774743E-1,3.848451003E-2
3.146930703E0,-4.825835302E-2,1.001819000E-1,3.787364438E-2
3.148915933E0,-4.886921868E-2,7.391469181E-2,2.809980139E-2
3.150929471E0,-4.581489414E-2,4.459316283E-2,1.527163107E-2
3.152913086E0,-4.092797264E-2,2.626720630E-2,1.160643995E-2
3.154927009E0,-4.153883830E-2,1.832595794E-3,-1.221730490E-3
3.156910393E0,-4.459316283E-2,-3.054326167E-3,-6.108652335E-3
3.158925162E0,-4.642575979E-2,-1.099557430E-2,-1.832595654E-2
3.160907546E0,-5.375614017E-2,-3.665191587E-3,-2.748893574E-2
3.162922392E0,-5.375614017E-2,2.443460980E-3,-3.115412779E-2
3.164906008E0,-5.375614017E-2,1.466076635E-2,-4.459316283E-2
3.166920545E0,-4.703662544E-2,2.382374369E-2,-5.375614017E-2
3.168905160E0,-4.825835302E-2,2.932153270E-2,-6.108652428E-2
3.170917391E0,-4.031710699E-2,4.398229718E-2,-7.208210230E-2
3.172932775E0,-3.481931984E-2,6.230825558E-2,-8.002334833E-2
3.174915313E0,-3.298672289E-2,7.269296050E-2,-8.429940045E-2
3.176929775E0,-3.115412779E-2,1.026253626E-1,-8.613199741E-2
3.178913466E0,-3.665191308E-2,1.374446750E-1,-8.246681094E-2
3.180927620E0,-3.604105115E-2,1.533271819E-1,-8.002334833E-2
3.182910928E0,-3.787364438E-2,1.893682331E-1,-7.147123665E-2
3.184925696E0,-3.848451003E-2,2.156354338E-1,-6.169738993E-2
3.186909773E0,-4.092797264E-2,2.290744632E-1,-5.742133409E-2
3.188923850E0,-3.176499158E-2,2.480112910E-1,-5.009094998E-2
3.190906695E0,-2.871066704E-2,2.583959997E-1,-4.703662544E-2
3.192921080E0,-2.260201424E-2,2.779437006E-1,-4.520402849E-2
3.194904772E0,-1.466076635E-2,2.993239760E-1,-5.009094998E-2
3.196919309E0,-1.649336144E-2,3.103195429E-1,-5.070181563E-2
3.198902925E0,-1.221730467E-2,3.475823104E-1,-5.009094998E-2
3.200916848E0,-3.665191587E-3,3.891211748E-1,-4.459316283E-2
3.202931847E0,6.108652451E-4,4.166100919E-1,-3.665191308E-2
3.204914078E0,7.941247895E-3,4.728097022E-1,-2.443460934E-2
3.206928847E0,1.954768784E-2,5.265658498E-1,-6.108652451E-4
3.208913077E0,2.504547499E-2,5.473352671E-1,1.038470957E-2
3.210927615E0,3.420845419E-2,5.833762884E-1,2.993239649E-2
3.212909769E0,4.459316283E-2,5.980370641E-1,4.398229718E-2
3.214923614E0,4.581489414E-2,6.017022729E-1,4.642575979E-2
3.216908153E0,5.314527452E-2,5.913175344E-1,5.497787148E-2
3.218922922E0,5.619960278E-2,5.681046844E-1,5.742133409E-2
3.220905690E0,5.925392732E-2,5.510004759E-1,5.619960278E-2
3.222919921E0,5.986479297E-2,5.210680366E-1,5.925392732E-2
3.224904228E0,6.108652428E-2,5.002986193E-1,6.230825558E-2
3.226917689E0,5.986479297E-2,4.618141353E-1,6.291911751E-2
3.228932766E0,5.803219974E-2,4.202753007E-1,6.902777404E-2
3.230915843E0,5.497787148E-2,4.007275999E-1,7.024950534E-2
3.232929689E0,5.375614017E-2,3.506366611E-1,7.635815442E-2
3.234912765E0,4.825835302E-2,2.938261926E-1,7.880161703E-2
3.236927611E0,4.520402849E-2,2.675589919E-1,7.880161703E-2
3.238911611E0,4.153883830E-2,2.028072625E-1,8.002334833E-2
3.240925149E0,3.665191308E-2,1.350012124E-1,7.513642311E-2
3.242908533E0,3.604105115E-2,1.007927656E-1,7.452555746E-2
3.244923226E0,3.115412779E-2,4.031710699E-2,6.902777404E-2
3.246907225E0,2.871066704E-2,-9.773843922E-3,6.291911751E-2
3.248923225E0,2.809980139E-2,-3.665191308E-2,5.803219974E-2
3.250904455E0,2.504547499E-2,-7.024950534E-2,5.375614017E-2
3.252919531E0,1.771509275E-2,-1.001819000E-1,5.070181563E-2
3.254901993E0,1.099557430E-2,-1.099557430E-1,4.642575979E-2
3.256916839E0,4.276056774E-3,-1.233947799E-1,4.276056588E-2
3.258930992E0,6.108652451E-4,-1.264491081E-1,3.604105115E-2
3.260914069E0,-3.665191587E-3,-1.313360333E-1,2.809980139E-2
3.262928838E0,-9.162978269E-3,-1.313360333E-1,1.832595654E-2
3.264912837E0,-1.038470957E-2,-1.270599663E-1,1.343903504E-2
3.266926606E0,-1.343903504E-2,-1.166752651E-1,-3.054326167E-3
3.268911222E0,-1.527163107E-2,-9.834930301E-2,-1.710422710E-2
3.270924451E0,-1.588249579E-2,-8.307767659E-2,-2.321287990E-2
3.272908451E0,-1.099557430E-2,-4.520402849E-2,-3.726277873E-2
3.274921990E0,-4.276056774E-3,0.000000000E0,-4.581489414E-2
3.276905989E0,-6.108652451E-4,2.626720630E-2,-5.070181563E-2
3.278920220E0,4.276056774E-3,7.757988572E-2,-6.108652428E-2
3.280903604E0,8.552113548E-3,1.307251602E-1,-6.963863969E-2
3.282917680E0,1.099557430E-2,1.563815027E-1,-7.330382615E-2
3.284931296E0,2.382374369E-2,2.070833147E-1,-8.124507964E-2
3.286915219E0,2.871066704E-2,2.315179259E-1,-7.941248268E-2
3.288930064E0,4.825835302E-2,2.767219543E-1,-8.124507964E-2
3.290913756E0,5.436700583E-2,3.213151097E-1,-7.391469181E-2
3.292926910E0,5.681046844E-2,3.463605940E-1,-7.024950534E-2
3.294910909E0,5.131268129E-2,3.940080702E-1,-5.803219974E-2
3.296925678E0,3.420845419E-2,4.392121136E-1,-3.665191308E-2
3.298908524E0,2.076941915E-2,4.569272101E-1,-3.176499158E-2
3.300923523E0,-8.552113548E-3,4.850270152E-1,-2.321287990E-2
3.302906908E0,-3.298672289E-2,4.886921942E-1,-2.199114859E-2
3.304921446E0,-4.459316283E-2,4.819726646E-1,-2.565634064E-2
3.306904830E0,-6.169738993E-2,4.587597847E-1,-4.214970022E-2
3.308919907E0,-7.696902007E-2,4.312708676E-1,-7.269296050E-2
3.310902369E0,-8.491026610E-2,4.214970171E-1,-8.918632567E-2
3.312916214E0,-9.957103431E-2,4.092797041E-1,-1.288925707E-1
3.314930598E0,-1.087340117E-1,4.123340547E-1,-1.624901593E-1
3.316914060E0,-1.099557430E-1,4.233296216E-1,-1.789835095E-1
3.318928136E0,-1.148426682E-1,4.477642179E-1,-2.058615834E-1
3.320912136E0,-1.130100712E-1,4.618141353E-1,-2.186897546E-1
3.322925443E0,-1.056796908E-1,4.941899776E-1,-2.327396572E-1
3.324909367E0,-9.773843735E-2,5.265658498E-1,-2.364048511E-1
3.326923519E0,-8.674286306E-2,5.907067060E-1,-2.199114859E-1
3.328905750E0,-8.674286306E-2,5.907067060E-1,-2.199114859E-1
3.330922058E0,-8.491026610E-2,6.041457057E-1,-2.095267773E-1
3.332905057E0,-8.429940045E-2,6.206390858E-1,-1.930334121E-1
3.334919595E0,-8.552113175E-2,6.487388611E-1,-1.631010175E-1
3.336903288E0,-8.735372871E-2,6.731734872E-1,-1.288925707E-1
3.338917748E0,-8.491026610E-2,6.786713004E-1,-1.123992056E-1
3.340931594E0,-8.185594529E-2,6.866125464E-1,-8.307767659E-2
3.342915210E0,-7.391469181E-2,6.847799420E-1,-5.986479297E-2
3.344930593E0,-6.902777404E-2,6.792821288E-1,-5.436700583E-2
3.346913055E0,-5.803219974E-2,6.621779203E-1,-3.787364438E-2
3.348927593E0,-4.337143153E-2,6.371324658E-1,-3.054326214E-2
3.350910362E0,-3.543018550E-2,6.212499738E-1,-2.932153270E-2
3.352925362E0,-1.404990070E-2,5.913175344E-1,-2.748893574E-2
3.354908746E0,-2.443460980E-3,5.723807216E-1,-2.626720630E-2
3.356922668E0,1.527163107E-2,5.393940210E-1,-2.321287990E-2
3.358906361E0,2.687807009E-2,5.094616413E-1,-1.954768784E-2
3.360920514E0,3.054326214E-2,4.960225821E-1,-1.771509275E-2
3.362903821E0,3.237585723E-2,4.703662395E-1,-7.330383174E-3
3.364918052E0,4.214970022E-2,4.459316432E-1,9.162978269E-3
3.366933052E0,5.253441259E-2,4.300491214E-1,2.015855350E-2
3.368918282E0,7.696902007E-2,3.909537494E-1,4.520402849E-2
3.370931205E0,1.062905490E-1,3.316998184E-1,6.841690838E-2
3.372914051E0,1.148426682E-1,2.950479090E-1,7.819075137E-2
3.374927896E0,1.209513173E-1,2.113593817E-1,8.368854225E-2
3.376911588E0,1.197295859E-1,1.148426682E-1,8.552113175E-2
3.378925358E0,1.172861308E-1,6.780604273E-2,8.063421398E-2
3.380909664E0,1.148426682E-1,-3.115412779E-2,7.024950534E-2
3.382923511E0,1.117883399E-1,-1.215621829E-1,5.681046844E-2
3.384908511E0,1.111774743E-1,-1.661553532E-1,5.375614017E-2
3.386921433E0,1.111774743E-1,-2.431243658E-1,4.581489414E-2
3.388905971E0,1.105666086E-1,-2.748893499E-1,4.398229718E-2
3.390919202E0,1.087340117E-1,-3.292563558E-1,4.276056588E-2
3.392903201E0,1.123992056E-1,-3.628539443E-1,4.337143153E-2
3.394916432E0,1.117883399E-1,-3.756821156E-1,4.520402849E-2
3.396931585E0,1.117883399E-1,-3.830125034E-1,5.192354694E-2
3.398915277E0,1.087340117E-1,-3.799581826E-1,5.436700583E-2
3.400929354E0,1.081231460E-1,-3.744603992E-1,5.742133409E-2
3.402913046E0,9.834930301E-2,-3.506366611E-1,5.803219974E-2
3.404925968E0,8.796459436E-2,-3.219259977E-1,5.436700583E-2
3.406911891E0,8.185594529E-2,-3.011565804E-1,5.375614017E-2
3.408926276E0,7.086037099E-2,-2.522873580E-1,5.192354694E-2
3.410907507E0,6.414084882E-2,-1.924225539E-1,4.886921868E-2
3.412922352E0,5.986479297E-2,-1.582140923E-1,4.398229718E-2
3.414906352E0,5.192354694E-2,-8.857546002E-2,4.153883830E-2
3.416920121E0,4.886921868E-2,-7.941247895E-3,3.909537569E-2
3.418904120E0,5.192354694E-2,3.298672289E-2,3.359758854E-2
3.420917735E0,5.131268129E-2,1.197295859E-1,2.993239649E-2
3.422932428E0,5.070181563E-2,1.643227488E-1,2.809980139E-2
3.424916196E0,5.497787148E-2,2.522873580E-1,2.443460934E-2
3.426930350E0,6.230825558E-2,3.365867436E-1,2.260201424E-2
3.428914273E0,6.719517708E-2,3.726277947E-1,2.321287990E-2
3.430927810E0,6.536258012E-2,4.337143302E-1,1.710422710E-2
3.432912118E0,5.131268129E-2,4.697553813E-1,1.160643995E-2
3.434926041E0,4.092797264E-2,4.770857692E-1,6.719517522E-3
3.436908732E0,1.649336144E-2,4.789183438E-1,-5.497787148E-3
3.438923271E0,-4.276056774E-3,4.514294267E-1,-1.893682219E-2
3.440906579E0,-1.099557430E-2,4.276056588E-1,-2.932153270E-2
3.442921039E0,-2.260201424E-2,3.646865487E-1,-5.253441259E-2
3.444904501E0,-2.565634064E-2,2.919935882E-1,-7.696902007E-2
3.446919270E0,-2.748893574E-2,2.596177161E-1,-9.285151958E-2
3.448902884E0,-2.382374369E-2,2.028072625E-1,-1.166752651E-1
3.450916807E0,-2.199114859E-2,1.844813079E-1,-1.233947799E-1
3.452931192E0,-2.871066704E-2,1.692096740E-1,-1.386664063E-1
3.454914653E0,-4.153883830E-2,1.759291887E-1,-1.404990107E-1
3.456928806E0,-4.703662544E-2,1.850921661E-1,-1.386664063E-1
3.458912422E0,-6.536258012E-2,2.076941878E-1,-1.362229437E-1
3.460926267E0,-7.391469181E-2,2.223549485E-1,-1.307251602E-1
3.462909728E0,-7.757988572E-2,2.309070677E-1,-1.252273768E-1
3.464925344E0,-8.674286306E-2,2.419026345E-1,-1.221730486E-1
3.466908420E0,-9.468411654E-2,2.528982162E-1,-1.172861308E-1
3.468923266E0,-9.407325089E-2,2.626720667E-1,-1.154535338E-1
3.470905958E0,-1.007927656E-1,2.926044464E-1,-1.123992056E-1
3.472920496E0,-1.014036313E-1,3.353650272E-1,-1.081231460E-1
3.474903803E0,-9.712757170E-2,3.561344445E-1,-1.044579595E-1
3.476917957E0,-8.185594529E-2,3.988949955E-1,-9.712757170E-2
3.478931879E0,-6.658431143E-2,4.447098970E-1,-9.040805697E-2
3.480915264E0,-5.375614017E-2,4.624249935E-1,-8.124507964E-2
3.482929956E0,-3.604105115E-2,4.984660447E-1,-7.452555746E-2
3.484913032E0,-2.565634064E-2,5.180137157E-1,-6.536258012E-2
3.486928725E0,-7.330383174E-3,5.455026627E-1,-5.192354694E-2
3.488912494E0,1.099557430E-2,5.717698932E-1,-3.298672289E-2
3.490924724E0,1.893682219E-2,5.821545720E-1,-2.199114859E-2
3.492909339E0,3.726277873E-2,5.998696685E-1,-6.108652451E-4
3.494923493E0,5.925392732E-2,6.047565937E-1,2.199114859E-2
3.496906570E0,7.330382615E-2,6.059783101E-1,3.726277873E-2
3.498921030E0,9.896016866E-2,6.029239893E-1,5.986479297E-2
3.500905030E0,1.276708394E-1,5.913175344E-1,7.941248268E-2
3.502918876E0,1.380555481E-1,5.839871764E-1,8.857546002E-2
3.504902952E0,1.612684280E-1,5.589417219E-1,9.773843735E-2
3.506916491E0,1.765400618E-1,5.259549618E-1,1.020144969E-1
3.508931491E0,1.783726513E-1,5.076290369E-1,9.651670605E-2
3.510914336E0,1.936442852E-1,4.599815309E-1,8.796459436E-2
3.512928798E0,1.991420686E-1,4.123340547E-1,7.513642311E-2
3.514912182E0,1.997529417E-1,3.909537494E-1,6.719517708E-2
3.516925720E0,1.930334121E-1,3.549126983E-1,5.070181563E-2
3.518909720E0,1.875356287E-1,3.384193480E-1,4.459316283E-2
3.520924181E0,1.740965992E-1,3.133738637E-1,3.420845419E-2
3.522907872E0,1.692096740E-1,2.944370508E-1,4.031710699E-2
3.524921334E0,1.698205322E-1,2.828305960E-1,4.703662544E-2
3.526905719E0,1.716531366E-1,2.565633953E-1,6.169738993E-2
3.528920718E0,1.759291887E-1,2.205223590E-1,7.330382615E-2
3.530903256E0,1.759291887E-1,1.979203373E-1,7.269296050E-2
3.532917025E0,1.716531366E-1,1.514945775E-1,6.780604273E-2
3.534931486E0,1.655444801E-1,1.056796908E-1,5.558873713E-2
3.536915255E0,1.606575549E-1,8.491026610E-2,4.703662544E-2
3.538929947E0,1.514945775E-1,5.070181563E-2,2.993239649E-2
3.540913023E0,1.417207420E-1,2.809980139E-2,1.954768784E-2
3.542927562E0,1.398881376E-1,2.260201424E-2,1.466076635E-2
3.544911177E0,1.350012124E-1,1.954768784E-2,1.160643995E-2
3.546925099E0,1.319468915E-1,3.054326214E-2,1.221730467E-2
3.548910253E0,1.325577646E-1,3.543018550E-2,1.404990070E-2
3.550922561E0,1.295034289E-1,5.925392732E-2,2.260201424E-2
3.552906944E0,1.252273768E-1,7.391469181E-2,2.260201424E-2
3.554920406E0,1.197295859E-1,1.069014147E-1,3.848451003E-2
3.556904483E0,1.136209369E-1,1.508837193E-1,5.314527452E-2
3.558918328E0,1.123992056E-1,1.771509200E-1,6.047565863E-2
3.560902559E0,1.062905490E-1,2.290744632E-1,7.696902007E-2
3.562916097E0,1.001819000E-1,2.809980214E-1,9.040805697E-2
3.564930019E0,9.407325089E-2,3.048217595E-1,9.590584040E-2
3.566913712E0,7.880161703E-2,3.652974069E-1,8.307767659E-2
3.568927250E0,7.880161703E-2,3.652974069E-1,8.307767659E-2
3.570908711E0,7.574728876E-2,3.640756905E-1,6.841690838E-2
3.572926865E0,7.574728876E-2,3.591887653E-1,5.436700583E-2
3.574910557E0,6.719517708E-2,3.414736688E-1,2.076941915E-2
3.576923787E0,6.047565863E-2,3.298672438E-1,6.108652451E-4
3.578906941E0,4.092797264E-2,2.981022298E-1,-3.909537569E-2
3.580922325E0,2.748893574E-2,2.852740586E-1,-5.986479297E-2
3.582905017E0,3.054326167E-3,2.596177161E-1,-9.590584040E-2
3.584920170E0,-1.466076635E-2,2.284636050E-1,-1.301143020E-1
3.586903555E0,-2.565634064E-2,2.162462920E-1,-1.441642046E-1
3.588918247E0,-3.481931984E-2,1.869247705E-1,-1.759291887E-1
3.590931246E0,-3.787364438E-2,1.624901593E-1,-2.028072625E-1
3.592915554E0,-3.909537569E-2,1.569923609E-1,-2.144137025E-1
3.594928708E0,-4.153883830E-2,1.606575549E-1,-2.290744632E-1
3.596913322E0,-5.009094998E-2,1.948660165E-1,-2.260201424E-1
3.598927245E0,-5.131268129E-2,2.174680233E-1,-2.193006277E-1
3.600910861E0,-5.925392732E-2,2.822197378E-1,-1.979203373E-1
3.602925090E0,-6.658431143E-2,3.445279896E-1,-1.655444801E-1
3.604908398E0,-6.658431143E-2,3.726277947E-1,-1.459967941E-1
3.606922937E0,-6.352998316E-2,4.184426963E-1,-1.123992056E-1
3.608906859E0,-5.497787148E-2,4.440990388E-1,-7.941248268E-2
3.610921397E0,-5.131268129E-2,4.514294267E-1,-6.841690838E-2
3.612904166E0,-4.031710699E-2,4.502076805E-1,-4.825835302E-2
3.614918242E0,-3.726277873E-2,4.459316432E-1,-4.276056588E-2
3.616902242E0,-2.993239649E-2,4.306600094E-1,-3.543018550E-2
3.618916088E0,-2.199114859E-2,4.147774875E-1,-3.176499158E-2
3.620930626E0,-1.893682219E-2,4.025602043E-1,-3.298672289E-2
3.622914011E0,-7.330383174E-3,3.805690408E-1,-3.359758854E-2
3.624929011E0,-1.832595794E-3,3.549126983E-1,-3.420845419E-2
3.626911856E0,2.443460980E-3,3.390302062E-1,-3.543018550E-2
3.628926317E0,5.497787148E-3,3.060434759E-1,-3.420845419E-2
3.630910010E0,1.466076635E-2,2.657263875E-1,-2.993239649E-2
3.632923855E0,2.199114859E-2,2.437352389E-1,-2.748893574E-2
3.634906932E0,3.543018550E-2,1.973094791E-1,-2.321287990E-2
3.636921393E0,4.886921868E-2,1.459967941E-1,-1.832595654E-2
3.638905315E0,5.436700583E-2,1.240056455E-1,-1.282817032E-2
3.640919161E0,6.780604273E-2,8.429940045E-2,-6.108652335E-3
3.642902546E0,7.330382615E-2,5.436700583E-2,0.000000000E0
3.644916699E0,7.941248268E-2,4.214970022E-2,1.832595794E-3
3.646931776E0,8.491026610E-2,2.443460934E-2,6.108652451E-4
3.648916160E0,8.979719132E-2,4.886921961E-3,-6.108652451E-4
3.650928159E0,9.101892263E-2,-1.832595794E-3,-3.054326167E-3
3.652913083E0,9.590584040E-2,-1.221730467E-2,-7.941247895E-3
3.654926313E0,9.773843735E-2,-1.710422710E-2,-1.221730467E-2
3.656910928E0,1.026253626E-1,-2.015855350E-2,-2.199114859E-2
3.658924466E0,1.087340117E-1,-1.588249579E-2,-2.565634064E-2
3.660907851E0,1.069014147E-1,-9.162978269E-3,-2.504547499E-2
3.662921927E0,1.093448773E-1,7.941247895E-3,-2.504547499E-2
3.664906004E0,1.111774743E-1,2.809980139E-2,-1.710422710E-2
3.666919465E0,1.105666086E-1,4.153883830E-2,-1.404990070E-2
3.668905004E0,1.062905490E-1,6.658431143E-2,-3.665191587E-3
3.670918233E0,1.056796908E-1,8.979719132E-2,4.886921961E-3
3.672932080E0,1.014036313E-1,9.834930301E-2,9.162978269E-3
3.674915157E0,9.529497474E-2,1.111774743E-1,1.099557430E-2
3.676930232E0,9.285151958E-2,1.282816976E-1,1.099557430E-2
3.678913617E0,8.857546002E-2,1.356120855E-1,1.221730467E-2
3.680927232E0,8.429940045E-2,1.539380401E-1,6.108652335E-3
3.682911539E0,7.941248268E-2,1.612684280E-1,7.330383174E-3
3.684925616E0,6.658431143E-2,1.808161139E-1,5.497787148E-3
3.686909308E0,5.192354694E-2,1.973094791E-1,6.108652335E-3
3.688924384E0,4.459316283E-2,2.070833147E-1,6.108652335E-3
3.690907154E0,2.932153270E-2,2.144137025E-1,7.330383174E-3
3.692921384E0,1.404990070E-2,2.131919712E-1,1.282817032E-2
3.694905076E0,6.719517522E-3,2.058615834E-1,1.527163107E-2
3.696918922E0,-9.773843922E-3,1.844813079E-1,1.771509275E-2
3.698903230E0,-2.199114859E-2,1.508837193E-1,2.138028294E-2
3.700917075E0,-2.626720630E-2,1.301143020E-1,2.199114859E-2
3.702931152E0,-3.481931984E-2,8.796459436E-2,2.504547499E-2
3.704916075E0,-4.031710699E-2,4.337143153E-2,2.626720630E-2
3.706928381E0,-4.031710699E-2,2.382374369E-2,2.809980139E-2
3.708912458E0,-4.153883830E-2,-1.404990070E-2,2.932153270E-2
3.710927151E0,-4.642575979E-2,-4.276056588E-2,2.748893574E-2
3.712909996E0,-5.192354694E-2,-5.497787148E-2,2.809980139E-2
3.714924765E0,-5.986479297E-2,-7.941248268E-2,2.809980139E-2
3.716908073E0,-5.986479297E-2,-8.857546002E-2,2.809980139E-2
3.718922302E0,-5.314527452E-2,-1.178969890E-1,2.932153270E-2
3.720906226E0,-4.581489414E-2,-1.514945775E-1,2.443460934E-2
3.722920149E0,-4.153883830E-2,-1.710422635E-1,2.382374369E-2
3.724903455E0,-3.726277873E-2,-2.150245607E-1,1.466076635E-2
3.726918302E0,-3.604105115E-2,-2.620611787E-1,6.719517522E-3
3.728902917E0,-3.543018550E-2,-2.840523422E-1,-6.108652451E-4
3.730914608E0,-3.115412779E-2,-3.347541690E-1,-7.941247895E-3
3.732929377E0,-2.626720630E-2,-3.811798990E-1,-1.527163107E-2
3.734913916E0,-2.260201424E-2,-4.062253833E-1,-1.771509275E-2
3.736927146E0,-1.466076635E-2,-4.569272101E-1,-2.382374369E-2
3.738912069E0,-3.665191587E-3,-5.106833577E-1,-2.809980139E-2
3.740925607E0,3.054326167E-3,-5.393940210E-1,-2.809980139E-2
3.742907837E0,1.466076635E-2,-5.925393105E-1,-2.687807009E-2
3.744923452E0,1.893682219E-2,-6.188064814E-1,-2.321287990E-2
3.746906299E0,3.420845419E-2,-6.688974500E-1,-1.710422710E-2
3.748921605E0,4.642575979E-2,-7.177666426E-1,-8.552113548E-3
3.750905682E0,5.558873713E-2,-7.428121567E-1,-3.054326167E-3
3.752918836E0,6.536258012E-2,-7.849618196E-1,1.038470957E-2
3.754902528E0,8.246681094E-2,-8.283332586E-1,3.054326214E-2
3.756916450E0,9.162978828E-2,-8.472700715E-1,3.787364438E-2
3.758930604E0,1.117883399E-1,-8.924741149E-1,5.986479297E-2
3.760913681E0,1.313360333E-1,-9.321803451E-1,8.124507964E-2
3.762928449E0,1.423316002E-1,-9.529497623E-1,9.101892263E-2
3.764911449E0,1.692096740E-1,-9.926560521E-1,1.136209369E-1
3.766926603E0,2.064724565E-1,-1.031751394E0,1.368338168E-1
3.768911141E0,2.247984111E-1,-1.045801282E0,1.490511149E-1
3.770923833E0,2.535090744E-1,-1.070846796E0,1.753183305E-1
3.772907525E0,2.779437006E-1,-1.085507512E0,2.058615834E-1
3.774921986E0,2.919935882E-1,-1.088561893E0,2.180788964E-1
3.776904986E0,3.152064681E-1,-1.090394497E0,2.516764700E-1
3.778920371E0,3.298672438E-1,-1.090394497E0,2.687807083E-1
3.780903754E0,3.634648323E-1,-1.086729288E0,3.011565804E-1
3.782917370E0,3.946189582E-1,-1.083674908E0,3.378084898E-1
3.784932139E0,4.098905921E-1,-1.081231475E0,3.567453027E-1
3.786915138E0,4.422664344E-1,-1.077566266E0,3.933972120E-1
3.788930907E0,4.770857692E-1,-1.078788042E0,4.300491214E-1
3.790913061E0,4.905247986E-1,-1.080620646E0,4.483750761E-1
3.792927137E0,5.222898126E-1,-1.083064079E0,4.819726646E-1
3.794911214E0,5.534439087E-1,-1.085507512E0,5.174028873E-1
3.796925368E0,5.681046844E-1,-1.087340117E0,5.345070958E-1
3.798908444E0,6.017022729E-1,-1.083674908E0,5.705481172E-1
3.800922520E0,6.389650702E-1,-1.069014192E0,6.072000265E-1
3.802906290E0,6.603453159E-1,-1.060462117E0,6.310238242E-1
3.804920673E0,6.994407177E-1,-1.029918790E0,6.823364496E-1
3.806904058E0,7.568620443E-1,-9.456194043E-1,7.971791625E-1
3.808916981E0,7.568620443E-1,-9.456194043E-1,7.971791625E-1
3.810930826E0,7.715228200E-1,-9.248499870E-1,8.283332586E-1
3.812916442E0,7.812966704E-1,-9.071348906E-1,8.570439219E-1
3.814930211E0,8.020660877E-1,-8.765916228E-1,9.187413454E-1
3.816914210E0,8.191702962E-1,-8.607091308E-1,9.773843884E-1
3.818928364E0,8.283332586E-1,-8.558222055E-1,1.002429843E0
3.820911210E0,8.509352803E-1,-8.552113175E-1,1.050688267E0
3.822926517E0,8.704829812E-1,-8.637634516E-1,1.086729288E0
3.824910593E0,8.784242272E-1,-8.674286604E-1,1.104444385E0
3.826923517E0,8.967501521E-1,-8.790351152E-1,1.133154988E0
3.828908746E0,9.095783234E-1,-8.894197941E-1,1.149037480E0
3.830922208E0,9.181304574E-1,-8.955284357E-1,1.156367898E0
3.832905362E0,9.260717034E-1,-9.040805697E-1,1.168585181E0
3.834919515E0,9.279043078E-1,-9.150761366E-1,1.175304770E0
3.836903130E0,9.285151958E-1,-9.224064946E-1,1.177137375E0
3.838916976E0,9.217956662E-1,-9.303477407E-1,1.178969979E0
3.840932052E0,9.108000994E-1,-9.407324791E-1,1.178359032E0
3.842914590E0,9.034696817E-1,-9.468411207E-1,1.177748203E0
3.844928437E0,8.839219809E-1,-9.572258592E-1,1.175915599E0
3.846912975E0,8.735373020E-1,-9.645562172E-1,1.173472166E0
3.848928436E0,8.503243923E-1,-9.767735004E-1,1.169806957E0
3.850910897E0,8.234463334E-1,-9.883799553E-1,1.165530920E0
3.852924666E0,8.100073338E-1,-9.920451641E-1,1.163087368E0
3.854908742E0,7.794640660E-1,-1.001819015E0,1.160033107E0
3.856923127E0,7.489207983E-1,-1.006095052E0,1.156367898E0
3.858906512E0,7.324274182E-1,-1.004873276E0,1.155757070E0
3.860920664E0,7.000515461E-1,-1.003651619E0,1.155146122E0
3.862903818E0,6.627888083E-1,-9.999864101E-1,1.156978726E0
3.864919818E0,6.456845403E-1,-9.981538057E-1,1.153313637E0
3.866902279E0,6.133087277E-1,-9.883799553E-1,1.155757070E0
3.868917587E0,5.827654600E-1,-9.822713137E-1,1.159422278E0
3.870930510E0,5.650503635E-1,-9.773843884E-1,1.160033107E0
3.872913970E0,5.345070958E-1,-9.682214260E-1,1.167363524E0
3.874928124E0,5.051855445E-1,-9.547823668E-1,1.173472166E0
3.876911509E0,4.911356568E-1,-9.450085163E-1,1.178359032E0
3.878926585E0,4.679227769E-1,-9.260717034E-1,1.187522054E0
3.880909277E0,4.599815309E-1,-9.126327038E-1,1.189354658E0
3.882924123E0,4.465425014E-1,-8.820894361E-1,1.200350165E0
3.884906891E0,4.343251884E-1,-8.442157507E-1,1.213789225E0
3.886922584E0,4.294382632E-1,-8.222246170E-1,1.219287038E0
3.888906814E0,4.239404798E-1,-7.757988572E-1,1.236391306E0
3.890918583E0,4.153883755E-1,-7.232644558E-1,1.252884626E0
3.892903736E0,4.147774875E-1,-6.951646209E-1,1.262047648E0
3.894917352E0,4.080579877E-1,-6.365215778E-1,1.277319193E0
3.896931735E0,4.050036669E-1,-5.748242140E-1,1.296256065E0
3.898915120E0,4.056145251E-1,-5.448917747E-1,1.304808140E0
3.900928735E0,4.031710625E-1,-4.758640230E-1,1.315803766E0
3.902912965E0,4.062253833E-1,-4.123340547E-1,1.323745012E0
3.904926504E0,4.086688459E-1,-3.805690408E-1,1.329242826E0
3.906910581E0,4.129449129E-1,-3.188716471E-1,1.329853654E0
3.908925887E0,4.123340547E-1,-2.590068579E-1,1.328631878E0
3.910908349E0,4.141666293E-1,-2.260201424E-1,1.321301579E0
3.912922580E0,4.178318381E-1,-1.692096740E-1,1.310916781E0
3.914905886E0,4.245513380E-1,-1.423316002E-1,1.303586483E0
3.916920348E0,4.331034720E-1,-8.918632567E-2,1.280984402E0
3.918903425E0,4.434881806E-1,-4.092797264E-2,1.257771492E0
3.920917962E0,4.477642179E-1,-1.954768784E-2,1.243721604E0
3.922932116E0,4.569272101E-1,1.588249579E-2,1.206458807E0
3.924915116E0,4.581489265E-1,4.337143153E-2,1.166752577E0
3.926929961E0,4.587597847E-1,5.558873713E-2,1.142928839E0
3.928914884E0,4.557054639E-1,7.208210230E-2,1.095892191E0
3.930927807E0,4.508185387E-1,8.368854225E-2,1.045190454E0
3.932911500E0,4.434881806E-1,8.796459436E-2,1.018312335E0
3.934925576E0,4.276056588E-1,9.285151958E-2,9.627236128E-1
3.936908960E0,4.056145251E-1,9.590584040E-2,9.101892114E-1
3.938923191E0,3.940080702E-1,9.651670605E-2,8.814785480E-1
3.940907498E0,3.701843321E-1,9.590584040E-2,8.271115422E-1
3.942921036E0,3.585779071E-1,9.712757170E-2,7.996225953E-1
3.944905036E0,3.408628106E-1,9.162978828E-2,7.428121567E-1
3.946918266E0,3.207042515E-1,8.307767659E-2,6.878342628E-1
3.948904035E0,3.145956099E-1,8.002334833E-2,6.609562039E-1
3.950917343E0,2.907718420E-1,7.757988572E-2,5.992587805E-1
3.952931188E0,2.675589919E-1,7.819075137E-2,5.424483418E-1
3.954914880E0,2.571742535E-1,8.185594529E-2,5.143485069E-1
3.956928727E0,2.321287990E-1,9.712757170E-2,4.612032473E-1
3.958912110E0,2.070833147E-1,1.270599663E-1,4.074471295E-1
3.960927110E0,1.954768747E-1,1.441642046E-1,3.842342496E-1
