"Time (s)","Linear Acceleration x (m/s^2)","Linear Acceleration y (m/s^2)","Linear Acceleration z (m/s^2)"
1.491243600E-2,-3.327846527E-3,1.871347427E-3,-8.090019226E-3
2.290835700E-2,-7.891273499E-2,2.622723579E-2,-2.867984772E-2
3.090474100E-2,-3.912782669E-2,4.996299744E-3,-2.061748505E-2
3.893058600E-2,-6.276941299E-2,-4.486632347E-2,-1.952648163E-2
4.692658400E-2,-1.021306515E-1,-7.246160507E-2,3.162479401E-2
5.492166000E-2,-2.101297379E-1,-2.906870842E-2,5.862331390E-2
6.291696700E-2,-2.463591099E-1,9.999275208E-3,1.052846909E-1
7.091273400E-2,-2.272949219E-1,5.486273766E-2,8.545970917E-2
7.890811800E-2,-1.509110928E-1,7.957196236E-2,5.536842346E-2
8.690380900E-2,-9.151148796E-2,9.081292152E-2,1.078138351E-1
9.493026900E-2,-5.536818504E-2,1.282361746E-1,8.031940460E-2
1.029259600E-1,-1.198244095E-2,1.838390827E-1,6.100368500E-2
1.109209590E-1,3.623437881E-2,1.757175922E-1,4.474067688E-2
1.189163420E-1,1.743817329E-2,1.154040098E-1,2.980613708E-2
1.269120330E-1,4.271984100E-3,7.946693897E-2,5.787372589E-2
1.349077240E-1,-5.287027359E-2,3.731846809E-2,3.687858582E-2
1.429028770E-1,-1.030592918E-1,-3.304553032E-2,2.975654602E-2
1.509301830E-1,-7.582283020E-2,-5.429756641E-2,-3.437709808E-2
1.589249510E-1,-3.943657875E-2,-8.900773525E-2,-7.040214539E-2
1.669213350E-1,-5.324602127E-3,-9.181368351E-2,-7.384490967E-2
1.749167170E-1,5.009412766E-3,-9.548091888E-2,-8.511829376E-2
1.829121010E-1,1.585912704E-2,-1.011369228E-1,-5.150222778E-2
1.909077150E-1,1.826930046E-2,-9.108924866E-2,-2.625083923E-2
1.989028680E-1,-4.734969139E-2,-5.127716064E-2,-3.417873383E-2
2.069286350E-1,-6.914019585E-2,-2.245664597E-3,-1.470756531E-2
2.149246340E-1,-7.965660095E-2,2.309727669E-2,-3.464221954E-2
2.229200180E-1,-4.485058784E-2,1.260709763E-2,-4.970550537E-2
2.309157850E-1,6.142520905E-2,3.069877625E-2,2.371788025E-3
2.389114770E-1,4.720687866E-2,5.109882355E-2,-1.558780670E-2
2.469077060E-1,6.553649902E-3,7.043623924E-2,-1.610183716E-2
2.549028580E-1,2.041673660E-2,9.349083900E-2,7.790565491E-3
2.629287030E-1,9.205603600E-2,1.064857244E-1,3.239917755E-2
2.709255490E-1,9.747147560E-2,9.081208706E-2,5.249500275E-2
2.789200860E-1,9.264945984E-2,6.720852852E-2,5.607604980E-2
2.869166990E-1,5.479097366E-2,6.109571457E-2,6.976604462E-2
2.949116980E-1,-1.261425018E-2,6.202042103E-2,6.866359711E-2
3.029071590E-1,-5.162191391E-2,2.093982697E-2,7.122802734E-2
3.109025420E-1,-9.488272667E-2,-5.194067955E-3,1.015357971E-1
3.189292330E-1,-1.427681446E-1,-3.831195831E-2,1.030931473E-1
3.269246170E-1,-1.804766655E-1,-3.064763546E-2,3.500652313E-2
3.349193840E-1,-1.859953403E-1,-4.184508324E-2,-3.821563721E-2
3.429156910E-1,-1.901786327E-1,-5.763196945E-2,-3.529167175E-2
3.509111510E-1,-1.527724266E-1,-7.348120213E-2,-6.623554230E-2
3.589074580E-1,-6.458163261E-2,-1.207032204E-1,-4.953765869E-2
3.669333020E-1,-1.272153854E-2,-8.700633049E-2,-2.799034119E-2
3.749286090E-1,3.347945213E-2,-7.058215141E-2,-2.536869049E-2
3.829243770E-1,3.160309792E-2,-2.571666241E-2,1.209259033E-3
3.909202980E-1,-1.108622551E-2,-1.450407505E-2,6.132411957E-2
3.989157590E-1,-4.707479477E-2,3.979206085E-3,4.981803894E-2
4.069114500E-1,-6.733775139E-2,3.215324879E-2,1.033716202E-1
4.149064480E-1,-9.090876579E-2,2.897191048E-2,8.061122894E-2
4.229332930E-1,-1.033926010E-1,5.677473545E-2,7.491397858E-2
4.309286000E-1,-1.358714104E-1,6.053495407E-2,3.360080719E-2
4.389240600E-1,-1.209771633E-1,2.355933189E-2,9.231567383E-3
4.469194430E-1,-8.000111580E-2,1.014947891E-3,1.370429993E-2
4.549159810E-1,-2.434802055E-2,-7.155299187E-3,-3.485679626E-3
4.629101330E-1,3.680038452E-2,-4.179930687E-2,-6.406879425E-2
4.709067470E-1,7.045173645E-2,-5.463480949E-2,-8.675289154E-2
4.789329000E-1,8.872532845E-2,-4.337346554E-2,-4.288578033E-2
4.869282830E-1,9.420323372E-2,-4.095363617E-2,1.730823517E-2
4.949237430E-1,5.058073997E-2,-5.441403389E-2,5.809974670E-2
5.029196650E-1,-9.186506271E-3,-5.491566658E-2,1.084527969E-1
5.109153560E-1,-2.821683884E-2,-3.526675701E-2,1.637992859E-1
5.189105080E-1,-2.876830101E-2,-2.692854404E-2,1.716623306E-1
5.269058150E-1,3.222084045E-2,1.786589622E-2,1.368150711E-1
5.349320450E-1,6.510019302E-3,3.440999985E-2,1.549377441E-1
5.429283510E-1,-8.198499680E-2,4.172205925E-2,1.110887527E-1
5.509234260E-1,-1.520183086E-1,6.134390831E-2,7.475662231E-2
5.589188100E-1,-1.433727741E-1,5.739486217E-2,1.229667664E-2
5.669141170E-1,-1.298971176E-1,1.764965057E-2,1.268386841E-4
5.749104220E-1,-1.137673855E-1,-4.371225834E-2,-1.454067230E-2
5.829058830E-1,-9.723520279E-2,-8.826053143E-2,-1.736736298E-2
5.909322670E-1,-4.930138588E-2,-1.183191538E-1,-2.026462555E-2
5.989273420E-1,-2.775263786E-2,-1.029745340E-1,-5.906867981E-2
6.069228020E-1,4.668998718E-2,-1.091648340E-1,-7.400131226E-2
6.149184930E-1,1.285619736E-1,-8.196723461E-2,-6.031799316E-2
6.229141080E-1,9.317684174E-2,-6.932973862E-2,-4.908466339E-2
6.309110290E-1,3.428459167E-3,-3.544187546E-2,-2.380466461E-2
6.389064890E-1,-6.852197647E-2,5.312204361E-3,5.825996399E-3
6.469316420E-1,-1.134715080E-1,4.332327843E-2,3.753948212E-2
6.549277170E-1,-1.272339821E-1,3.343749046E-2,4.529380798E-2
6.629221780E-1,-1.371390820E-1,2.102231979E-2,7.012367249E-2
6.709187920E-1,-1.436698437E-1,2.034926414E-2,4.992866516E-2
6.789147900E-1,-1.829788685E-1,2.430891991E-2,7.818317413E-2
6.949054810E-1,-1.313450336E-1,-5.041360855E-3,-3.094673157E-3
7.029317100E-1,-9.361147881E-2,-4.543662071E-2,-2.708244324E-2
7.109267850E-1,-8.673858643E-2,-4.789805412E-2,-4.646015167E-2
7.189227840E-1,-7.720971107E-2,-6.984090805E-2,-6.361103058E-2
7.269181680E-1,-7.790565491E-3,-7.536268234E-2,-3.775310516E-2
7.349140890E-1,-3.507375717E-3,-8.386158943E-2,-4.297447205E-2
7.429095500E-1,-3.084850311E-2,-8.339190483E-2,-1.008272171E-1
7.509055490E-1,-6.812453270E-2,-3.069353104E-2,-6.767082214E-2
7.589307010E-1,-7.455110550E-2,-3.603076935E-2,-3.933525085E-2
7.669270070E-1,-8.369469643E-2,-5.596899986E-2,-1.093673706E-2
7.749224680E-1,-1.097843647E-1,-6.681323051E-2,-4.722404480E-2
7.829175430E-1,-8.786320686E-2,-2.558469772E-2,-5.974960327E-2
7.909132340E-1,-8.267354965E-2,-3.050708771E-2,-6.046199799E-2
7.989091560E-1,-8.987259865E-2,-3.603863716E-2,-6.355571747E-2
8.069049240E-1,-1.214399338E-1,-1.818871498E-2,-6.422710419E-2
8.149313070E-1,-1.269710064E-1,-2.009892464E-2,-6.253242493E-2
8.229266910E-1,-1.185436249E-1,-4.169964790E-2,-4.883861542E-2
8.309226900E-1,-1.700019836E-1,-7.317066193E-2,-3.759002686E-2
8.389181490E-1,-1.759738922E-1,-6.664514542E-2,-3.119468689E-2
8.469143790E-1,-1.561315060E-1,-9.619975090E-2,-3.661727905E-2
8.549091470E-1,-1.343631744E-1,-8.980631828E-2,-3.467845917E-2
8.629042220E-1,-1.080126762E-1,-1.074694395E-1,8.325576782E-4
8.709306830E-1,-1.080043316E-1,-1.109625101E-1,1.954746246E-2
8.789257590E-1,-1.202588081E-1,-9.310901165E-2,1.438522339E-2
8.949175250E-1,-1.793811321E-1,1.594448090E-2,8.961105347E-2
9.029134470E-1,-1.781466007E-1,1.510381699E-3,5.254173279E-2
9.109088310E-1,-1.455557346E-1,2.013790607E-2,4.642200470E-2
9.189045980E-1,-1.137063503E-1,5.717432499E-2,5.478000641E-2
9.269300590E-1,-1.089293957E-1,1.600416899E-1,1.661043167E-1
9.349261340E-1,-1.263563633E-1,1.876850128E-1,1.673307419E-1
9.429223630E-1,-1.780035496E-1,2.289559841E-1,1.566963196E-1
9.509168240E-1,-2.139244080E-1,1.697442532E-1,1.967439651E-1
9.589134380E-1,-1.861171722E-1,1.177384853E-1,1.326665878E-1
9.669088990E-1,-1.750333309E-1,1.025106907E-1,2.141656876E-1
9.749042810E-1,-1.552591324E-1,1.014151573E-1,2.019548416E-1
9.829297420E-1,3.010821342E-2,5.420863628E-2,1.730136871E-1
9.909267410E-1,4.029965401E-1,-2.228075266E-1,3.731632233E-2
9.989214310E-1,7.550661564E-1,-5.457829237E-1,-1.772880554E-1
1.006917738E0,1.010119438E0,-8.575147390E-1,-3.511495590E-1
1.014912199E0,1.187396288E0,-1.042971015E0,-4.186487198E-1
1.022909120E0,1.341862679E0,-1.158528447E0,-6.178236008E-1
1.030904503E0,1.286103010E0,-1.105072498E0,-6.381978989E-1
1.038930118E0,1.128815651E0,-9.278610945E-1,-5.939416885E-1
1.046925500E0,9.791433811E-1,-5.823248625E-1,-4.848642349E-1
1.054920884E0,7.458925247E-1,-2.131425142E-1,-5.050430298E-1
1.062917729E0,1.421393633E0,2.829971313E-1,-1.208750248E0
1.070913190E0,2.409859657E0,4.204895496E-1,-7.013425827E-1
1.078908495E0,2.271091938E0,4.533399343E-1,-4.241666794E-1
1.086904264E0,1.917858601E0,3.401769400E-1,-2.437705994E-1
1.094929186E0,1.972786427E0,1.578565836E-1,4.322338104E-2
1.102925491E0,2.157967091E0,2.309533358E-1,8.965110779E-2
1.110920567E0,2.296919346E0,3.446049690E-1,3.054656982E-1
1.118916182E0,2.341266632E0,3.145687580E-1,7.175245285E-1
1.126912564E0,2.069234371E0,2.394831181E-1,7.524490356E-1
1.134907948E0,1.366782665E0,2.350682020E-1,5.365915298E-1
1.142903332E0,7.761473656E-1,3.350323439E-1,1.924266815E-1
1.150929408E0,5.054659843E-1,5.113774538E-1,-9.579086304E-2
1.158925098E0,3.098678589E-1,7.831009030E-1,-3.135833740E-1
1.166920482E0,-6.027460098E-2,1.043415546E0,-3.891739845E-1
1.174915865E0,-2.463817596E-1,1.060369730E0,-3.357930183E-1
1.182911325E0,-5.601630211E-1,1.024478078E0,-1.586174965E-1
1.190907324E0,-8.921051025E-1,9.005135894E-1,6.501579285E-2
1.198903323E0,-1.210866928E0,7.606719732E-1,4.112291336E-1
1.206929167E0,-1.434034348E0,6.099188328E-1,6.882181168E-1
1.214924474E0,-1.659396887E0,5.028989315E-1,8.880109787E-1
1.222919857E0,-1.801821709E0,4.571145773E-1,9.961872101E-1
1.230916241E0,-1.913527966E0,4.202744365E-1,9.389390945E-1
1.238910931E0,-2.083821535E0,4.242632985E-1,5.034027100E-1
1.246907546E0,-2.192190647E0,5.108950734E-1,5.116176605E-2
1.254902699E0,-2.064855337E0,7.188206911E-1,-5.211267471E-1
1.262928850E0,-1.703357697E0,7.753907442E-1,-8.405709267E-1
1.270924157E0,-1.479457617E0,7.137352824E-1,-9.744701385E-1
1.278920233E0,-1.520586252E0,5.768320560E-1,-7.705764771E-1
1.286915923E0,-1.736235142E0,5.195945501E-1,-4.104843140E-1
1.294910692E0,-1.972307205E0,4.256266356E-1,7.238197327E-2
1.302906383E0,-1.955837250E0,2.680302560E-1,3.890848160E-1
1.310902382E0,-1.742612839E0,1.178377867E-2,7.994613647E-1
1.318929149E0,-1.743238449E0,-1.380037069E-1,1.067357063E0
1.326924456E0,-1.860821247E0,-2.254940867E-1,1.097249985E0
1.334919840E0,-1.815545797E0,-2.371187806E-1,8.438205719E-1
1.342915299E0,-1.527427435E0,-2.343471050E-1,3.880805969E-1
1.350910991E0,-9.674758911E-1,-2.158212662E-1,-2.406558990E-1
1.358906682E0,-4.651217461E-1,-2.403770685E-1,-6.012997627E-1
1.366933449E0,-5.497503281E-2,-3.115873933E-1,-8.685975075E-1
1.374927910E0,2.200193405E-1,-3.772203326E-1,-1.213093281E0
1.382923524E0,7.412753105E-1,-2.971527576E-1,-8.929667473E-1
1.390919907E0,1.438364029E0,-3.372843266E-1,-4.077434540E-2
1.398914906E0,1.560306072E0,-5.378353596E-1,1.944856644E-1
1.404926982E0,1.591011524E0,-6.992446780E-1,5.650844574E-1
1.406911520E0,1.538339138E0,-7.447345853E-1,8.954839706E-1
1.414906058E0,1.107314110E0,-5.473612547E-1,2.610359192E-1
1.422901979E0,1.040320396E0,-1.938243508E-1,2.602653503E-1
1.430928208E0,1.242555141E0,2.380581498E-1,-5.898571014E-2
1.438923900E0,1.631754875E0,3.097253442E-1,-2.925081253E-1
1.446918590E0,1.844081879E0,3.269970417E-3,-6.365623474E-1
1.454915205E0,1.548810482E0,-1.881164312E-1,6.808853149E-2
1.462910665E0,1.184777737E0,-1.152144074E-1,9.214992523E-1
1.470906586E0,1.106109619E0,-3.295388222E-1,1.460797310E0
1.478932508E0,1.051436901E0,-5.059214830E-1,1.302889824E0
1.486928507E0,9.851756096E-1,-3.124893308E-1,8.538455963E-1
1.494924122E0,1.096559048E0,5.807518959E-2,5.710258484E-1
1.502919274E0,9.376950264E-1,2.839540839E-1,8.265495300E-2
1.510915503E0,5.037794113E-1,4.311819375E-1,-4.971365929E-1
1.518909964E0,-6.186485291E-2,5.708469748E-1,-9.869661331E-1
1.526906270E0,-6.636695862E-1,6.402901411E-1,-1.365171909E0
1.534931884E0,-9.212527275E-1,6.290218830E-1,-1.611523628E0
1.542927498E0,-8.903374672E-1,3.860640824E-1,-1.706120491E0
1.550923496E0,-6.878609657E-1,-9.461104870E-3,-1.590508461E0
1.558918957E0,-3.918633461E-1,-3.285491467E-1,-1.044564724E0
1.566915187E0,2.714724541E-1,-4.439968467E-1,-8.464641571E-1
1.574910263E0,8.486428261E-1,-4.715237021E-1,-3.855538368E-1
1.582905722E0,1.055599213E0,-4.618918896E-1,-1.415419579E-1
1.590931875E0,1.155994415E0,-3.118745089E-1,-1.238646507E-1
1.598927490E0,1.207005024E0,1.060736179E-2,-1.601648331E-1
1.606923180E0,1.044418812E0,3.072002530E-1,-2.572927475E-1
1.614918948E0,8.285603523E-1,3.795467913E-1,-3.184242249E-1
1.622914332E0,5.367736816E-1,3.840821683E-1,-3.592162132E-1
1.630909714E0,1.916155815E-1,3.484130502E-1,-3.423323631E-1
1.638905406E0,-2.362470627E-1,3.554491103E-1,-3.248705864E-1
1.654927249E0,-5.142636299E-1,3.570680022E-1,-3.700294495E-1
1.662922633E0,-5.066227913E-1,2.867545485E-1,-3.848013878E-1
1.670918555E0,-5.405015945E-1,1.607683897E-1,-4.431505203E-1
1.678914015E0,-7.145690918E-1,7.056599855E-2,-4.369201660E-1
1.686909321E0,-9.016718864E-1,-3.212153912E-3,-3.854427338E-1
1.694906243E0,-1.064006805E0,-4.923462868E-2,-2.584118843E-1
1.702930550E0,-1.068878174E0,-1.675782204E-1,-3.139591217E-2
1.710927471E0,-1.011467934E0,-2.763932347E-1,3.011507988E-1
1.718922008E0,-8.283205032E-1,-4.571400285E-1,8.059496880E-1
1.726918854E0,-6.044573784E-1,-5.374048352E-1,1.157223701E0
1.734914236E0,-3.397812843E-1,-5.339986086E-1,1.355172157E0
1.742909927E0,-5.836534500E-2,-4.163074493E-1,1.354328632E0
1.750905696E0,6.130409241E-2,-2.331721783E-1,1.009157181E0
1.758931541E0,-5.686998367E-2,-2.434068918E-2,7.071228027E-1
1.766926616E0,-1.643762589E-1,1.202262044E-1,4.820899963E-1
1.774922230E0,-3.092103004E-1,2.922735810E-1,1.952514648E-1
1.782918306E0,-4.485220909E-1,4.082152247E-1,1.172590256E-1
1.790913997E0,-5.007214546E-1,3.554759920E-1,1.258029938E-1
1.798908380E0,-4.360833168E-1,2.973800600E-1,1.859006882E-1
1.806905379E0,-3.465094566E-1,2.340226471E-1,1.424894333E-1
1.814931146E0,-1.726593971E-1,2.063809633E-1,5.573654175E-2
1.822926530E0,4.541254044E-2,1.985809207E-1,5.692005157E-2
1.830921375E0,3.776173592E-1,1.542502046E-1,-7.433891296E-3
1.838917913E0,5.975909233E-1,1.644411087E-1,-9.176921844E-2
1.846913911E0,6.987061501E-1,1.034964919E-1,-1.359152794E-1
1.854908448E0,7.824544907E-1,7.518088818E-2,-2.754964828E-1
1.862904678E0,7.724933624E-1,3.637593985E-2,-3.151550293E-1
1.870930830E0,7.655749321E-1,-6.028991938E-2,-4.773287773E-1
1.878926213E0,6.983637810E-1,-9.830313921E-2,-6.166806221E-1
1.886921982E0,6.948704720E-1,-1.609642506E-1,-5.141534805E-1
1.894917364E0,6.701097488E-1,-1.752604246E-1,-5.760121346E-1
1.902913056E0,6.437382698E-1,-1.938079596E-1,-3.780236244E-1
1.910908362E0,4.868297577E-1,-1.693818569E-1,-2.453551292E-1
1.918904053E0,3.888831139E-1,-8.843189478E-2,-1.728377342E-1
1.926930206E0,3.657493591E-1,3.362417221E-3,-1.328482628E-1
1.934925589E0,3.225178719E-1,8.632636070E-2,-2.872047424E-1
1.942921665E0,3.618993759E-1,1.534550190E-1,-3.395671844E-1
1.950917048E0,5.198283195E-1,2.281582057E-1,-3.146419525E-1
1.958913047E0,6.022844315E-1,2.266348302E-1,-1.716561317E-1
1.966908738E0,4.878110886E-1,2.346712053E-1,2.734518051E-2
1.974904044E0,2.044844627E-1,2.426731586E-1,1.956000328E-1
1.982929966E0,-2.561750412E-1,2.815412879E-1,3.985095024E-1
1.990925888E0,-5.030364990E-1,2.553164065E-1,4.745712280E-1
1.998921271E0,-4.709668159E-1,1.875728667E-1,2.920989990E-1
2.006917654E0,-4.325289726E-1,9.025514126E-3,-3.923587799E-1
2.014912653E0,-3.543930054E-1,1.533026695E-1,-4.677557945E-1
2.022908422E0,-4.898419380E-1,3.625685275E-1,-1.716113091E-1
2.030903420E0,-5.229635239E-1,7.356947660E-2,5.576038361E-2
2.038930188E0,-5.941295624E-1,-2.897894382E-1,1.619863510E-1
2.046925264E0,-8.428430557E-1,-4.669383764E-1,1.139259338E-1
2.054920954E0,-8.930239677E-1,-4.247227311E-1,9.668731689E-2
2.062916415E0,-6.668219566E-1,-4.051693082E-1,-1.554484367E-1
2.070913029E0,-4.495625496E-1,-3.919650912E-1,-3.269195557E-1
2.078908027E0,-2.650761604E-1,-5.042028427E-1,-2.373828888E-1
2.086903795E0,-7.871055603E-2,-6.539979577E-1,-2.539176941E-1
2.094929641E0,-9.761047363E-2,-7.029430270E-1,-2.185502052E-1
2.102925332E0,-5.807065964E-2,-7.961421609E-1,-2.464246750E-2
2.110920330E0,7.104635239E-2,-8.433437347E-1,-1.025328636E-1
2.118916637E0,2.082433701E-1,-5.264872313E-1,-2.273974419E-1
2.134908018E0,5.802335739E-1,8.005481958E-2,-3.231959343E-1
2.142902786E0,3.306522369E-1,2.342528105E-2,-3.268847466E-1
2.150929324E0,1.922125816E-1,-5.031031370E-2,-2.013406754E-1
2.158925245E0,8.340501785E-2,5.092900991E-2,2.958040237E-1
2.166920321E0,-2.170896530E-2,3.007881045E-1,6.851716042E-1
2.174915782E0,-5.739402771E-2,5.815156102E-1,7.158412933E-1
2.182911472E0,-2.597713470E-2,8.477555513E-1,4.938673973E-1
2.190907702E0,1.607284546E-1,1.075077176E0,3.215918541E-1
2.198902547E0,6.081705093E-1,1.193617702E0,2.214574814E-1
2.206929623E0,9.142522812E-1,1.219380617E0,3.111219406E-2
2.214924390E0,1.052958488E0,1.122107983E0,-3.605556488E-1
2.222920312E0,9.835681915E-1,1.217601895E0,-5.826659203E-1
2.230915773E0,7.738928795E-1,1.486850500E0,-3.853578568E-1
2.238911694E0,2.727656364E-1,1.328860521E0,-5.680146217E-1
2.246907077E0,-1.892566681E-3,7.801574469E-1,-4.529848099E-1
2.254902538E0,-4.022569656E-1,2.112503946E-1,-4.138579369E-1
2.262928921E0,-8.323564529E-1,-2.682021856E-1,-6.006860733E-2
2.270924073E0,-1.018631458E0,-8.518516421E-1,-1.283831596E-1
2.278919765E0,-1.113415241E0,-1.397478819E0,1.878738403E-1
2.286915995E0,-1.242871761E0,-1.622058988E0,4.100856781E-1
2.294910531E0,-5.762062073E-1,-1.547574043E0,6.444602013E-1
2.302906838E0,2.861752510E-1,-1.278084755E0,3.792462349E-1
2.310902529E0,8.398818970E-1,-1.056204081E0,5.425324440E-1
2.318927450E0,6.464529037E-2,-5.579622984E-1,2.594795227E-1
2.326924065E0,-5.150833130E-1,-2.328716516E-1,3.390703201E-1
2.334919371E0,-6.846609116E-1,-8.057045937E-2,3.305387497E-1
2.342915369E0,-7.081756592E-1,-1.057198048E-1,1.779336929E-1
2.350911138E0,-3.128309250E-1,2.601916194E-1,9.372520447E-2
2.358905906E0,2.431712151E-1,8.202788234E-1,3.069467545E-1
2.374928595E0,6.863861084E-1,1.089293718E0,-3.409218788E-1
2.382923671E0,6.690888405E-1,7.830954194E-1,-4.803147316E-1
2.390919670E0,5.236182213E-1,2.942284346E-1,-4.111871719E-1
2.398914822E0,3.363828659E-1,-8.151525259E-2,-3.824415207E-1
2.406910513E0,6.062507629E-2,-3.262940049E-1,-2.361078262E-1
2.414906743E0,-3.221707344E-1,-4.927539229E-1,7.509994507E-2
2.422901818E0,-6.751985550E-1,-5.870491266E-1,2.445154190E-1
2.430928663E0,-9.629817009E-1,-6.807511449E-1,3.366098404E-1
2.438924047E0,-9.961013794E-1,-6.592152715E-1,7.099437714E-1
2.446919969E0,-8.411960602E-1,-4.789234996E-1,8.253469467E-1
2.454914736E0,-2.321515083E-1,-3.253680468E-1,3.514614105E-1
2.462910428E0,-1.340465546E-1,-2.074566483E-1,5.036125183E-1
2.470906119E0,-1.396808624E-1,6.051361561E-3,4.898643494E-1
2.478932271E0,6.959438324E-2,1.394546628E-1,2.806282043E-1
2.486927962E0,3.217511177E-1,1.901184320E-1,3.975563049E-1
2.494923653E0,5.098900795E-1,1.994977593E-1,2.040510178E-1
2.502919113E0,5.502624512E-1,2.962402105E-1,8.888053894E-2
2.510915112E0,6.131463051E-1,4.374754429E-1,-3.247609138E-1
2.518910726E0,9.229354858E-1,5.997853875E-1,-8.507723808E-1
2.526906417E0,1.459045887E0,6.972187757E-1,-8.953404427E-1
2.534901185E0,1.541193485E0,6.471564770E-1,-8.465332985E-1
2.542927415E0,1.090105534E0,6.039855480E-1,-4.902195930E-1
2.550923106E0,4.197978973E-1,5.759268403E-1,7.907104492E-2
2.558918489E0,-1.974601746E-1,5.946975350E-1,2.911128998E-1
2.566914103E0,-6.879734993E-1,4.582294226E-1,2.869262695E-1
2.574910410E0,-7.541470528E-1,3.415041268E-1,-5.186939240E-2
2.582905485E0,-1.085582256E0,-1.764529943E-2,-1.156148434E0
2.590932022E0,-8.829946518E-1,4.219669104E-2,-4.307098389E-1
2.598926791E0,-9.290623665E-1,1.846586764E-1,-2.703652382E-1
2.614918711E0,-7.833747864E-1,-6.495713592E-1,2.020835876E-1
2.622913787E0,-8.861589432E-1,-5.997744203E-1,-2.995491028E-2
2.630910478E0,-7.983479500E-1,-6.250725985E-1,1.269721985E-1
2.638905476E0,-5.182042122E-1,-7.586166263E-1,-9.375286102E-2
2.646931706E0,-3.981609344E-1,-8.260416389E-1,1.625347137E-2
2.654926782E0,-2.033276558E-1,-1.023160934E0,-2.671909332E-2
2.662922703E0,-1.803493500E-2,-1.178126574E0,-4.361433983E-1
2.670919009E0,2.161884308E-1,-1.274803758E0,-4.656710625E-1
2.678914470E0,2.357454300E-1,-9.870125055E-1,-3.756632805E-1
2.686909853E0,2.792119980E-1,-4.635666609E-1,-2.536416054E-1
2.694905159E0,6.635861397E-1,-2.875823975E-1,-3.109745979E-1
2.702931081E0,6.523723602E-1,-1.666159630E-1,-7.104048729E-1
2.710926696E0,4.963011742E-1,-1.895739436E-1,-4.441847801E-1
2.718922386E0,3.592209816E-1,-1.063750982E-1,-4.181852341E-1
2.726918693E0,4.347801208E-3,1.028254628E-1,-1.265096664E-1
2.734913153E0,-2.581586838E-1,2.545913458E-1,2.216224670E-1
2.742909228E0,-4.184455872E-1,4.433423877E-1,3.240113258E-1
2.750905150E0,-4.034180641E-1,5.101261139E-1,5.126833916E-1
2.758930996E0,-4.079804420E-1,6.708042026E-1,4.364681244E-1
2.766927071E0,-4.497122765E-1,8.271635175E-1,2.632226944E-1
2.774921762E0,-1.670651436E-1,8.954568505E-1,2.792482376E-1
2.782917530E0,1.590905190E-1,7.814592123E-1,2.260351181E-2
2.790913759E0,4.706134796E-1,6.469217539E-1,5.489778519E-2
2.798908835E0,6.711759567E-1,5.826508999E-1,-1.618385315E-1
2.806903988E0,5.622696877E-1,4.870389700E-1,-1.840219498E-1
2.814930756E0,5.191431046E-1,2.555330396E-1,-1.802144051E-1
2.822925754E0,4.661593437E-1,7.578295469E-2,-3.328156471E-1
2.830922138E0,3.499875069E-1,-2.874261141E-2,-2.098984718E-1
2.838917829E0,2.355747223E-1,-1.311276555E-1,-1.039738655E-1
2.846912289E0,2.482461929E-2,-1.873987913E-1,7.809019089E-2
2.854908826E0,-1.039128304E-1,-1.730828881E-1,1.430797577E-1
2.862904210E0,-1.859374046E-1,-1.723152995E-1,9.709262848E-2
2.870930438E0,-9.567689896E-2,-1.759647727E-1,-4.933691025E-2
2.878926437E0,-1.974582672E-3,-1.577720642E-1,-1.683735847E-1
2.886922052E0,2.255244255E-1,-1.580575109E-1,-2.972731590E-1
2.894917820E0,4.246001244E-1,-1.338292360E-1,-4.035272598E-1
2.902912587E0,5.012164116E-1,4.904776812E-2,-6.757297516E-1
2.910909433E0,8.004922867E-1,1.536293626E-1,-4.580826759E-1
2.918904278E0,7.000956535E-1,6.725728512E-3,-3.559274673E-1
2.926930353E0,4.441971779E-1,-1.063234210E-1,-1.444139481E-1
2.934925121E0,1.191806793E-1,-8.300650120E-2,2.064862251E-1
2.942920889E0,-2.513566017E-1,4.503774643E-2,3.617844582E-1
2.950916887E0,-5.406756401E-1,1.563907862E-1,5.792713165E-1
2.958911963E0,-6.956901550E-1,1.462690830E-1,6.967363358E-1
2.966908193E0,-7.707118988E-1,1.350943446E-1,6.291203499E-1
2.974903577E0,-6.799969673E-1,1.699396968E-1,6.233029366E-1
2.982929805E0,-5.028786659E-1,1.882405281E-1,4.490780830E-1
2.990925497E0,-1.688871384E-1,2.623979747E-1,2.577266693E-1
2.998921496E0,8.797740936E-2,3.595703244E-1,-3.801965714E-2
3.006917494E0,7.963352203E-1,4.220453799E-1,-2.772254944E-1
3.014911647E0,1.125952244E0,3.318364620E-1,-3.648295403E-1
3.022908184E0,8.638744354E-1,2.104644179E-1,-3.434495926E-1
3.030904182E0,4.112882614E-1,5.202025175E-2,-1.329641342E-1
3.038929796E0,7.765293121E-3,-6.512546539E-2,3.080558777E-2
3.046924872E0,-3.561859131E-1,-8.116286993E-2,8.074998856E-2
3.054920255E0,-4.779000282E-1,-1.238015294E-1,-3.101491928E-2
3.062916562E0,-3.236041069E-1,-3.731732368E-1,-4.519586563E-1
3.070912253E0,-5.478286743E-2,-1.453881860E-1,-9.678077698E-2
3.078906944E0,-2.674140930E-1,-4.170250893E-2,1.052045822E-1
3.094929172E0,2.212109566E-1,-3.869570494E-1,6.318330765E-2
3.102924864E0,-8.207941055E-2,-2.822309732E-1,-1.492829323E-1
3.110920477E0,-1.201825142E-1,-1.356806755E-1,6.322002411E-2
3.118915938E0,-9.298086166E-2,-1.721873879E-1,4.076814651E-2
3.126912244E0,-2.105712891E-1,-3.405280113E-1,5.290031433E-2
3.134907550E0,-3.003425598E-1,-4.870643616E-1,3.556652069E-1
3.142902934E0,-5.313305855E-1,-2.366812229E-1,-2.041888237E-1
3.150929471E0,3.899145126E-2,-3.970187902E-2,1.312108040E-1
3.158925162E0,8.110094070E-2,6.239968538E-2,-8.230113983E-2
3.166920545E0,3.604717255E-1,-2.633333206E-4,-2.629518509E-2
3.174915313E0,5.642819405E-1,3.256696463E-2,3.350114822E-2
3.182910928E0,3.314571381E-1,2.735896409E-1,-4.379606247E-2
3.190906695E0,4.674663544E-1,1.917296052E-1,6.936597824E-2
3.198902925E0,4.590225220E-1,-2.690076828E-2,-3.747639656E-1
3.206928847E0,-4.788880348E-1,2.481175661E-1,-5.863618851E-2
3.214923614E0,-3.386945724E-1,4.192609191E-1,2.820892334E-1
3.222919921E0,-2.586369514E-1,2.451746464E-1,2.432193756E-1
3.230915843E0,-6.687717438E-1,1.034677029E-2,1.237869263E-1
3.238911611E0,-7.833738327E-1,-1.504660845E-1,2.971172333E-2
3.246907225E0,-7.188525200E-1,-3.097916842E-1,-1.370730400E-1
3.254901993E0,-6.019930840E-1,-3.981987834E-1,-3.089127541E-1
3.262928838E0,-5.648279190E-2,-5.126833320E-1,-2.857604027E-1
3.270924451E0,2.893681526E-1,-6.481398940E-1,-2.545013428E-1
3.278920220E0,4.227414131E-1,-7.430350184E-1,3.289575577E-1
3.286915219E0,4.600181580E-1,-6.839317083E-1,3.820676804E-1
3.294910909E0,-4.457855225E-2,-3.141593337E-1,-6.427288055E-2
3.302906908E0,6.349892616E-1,5.111591816E-1,-4.994077682E-1
3.310902369E0,1.974975586E0,9.778422117E-1,-5.665602684E-1
3.318928136E0,1.751955032E0,9.648532271E-1,-4.281682968E-1
3.326923519E0,2.412524223E-1,1.424376369E-1,4.238786697E-1
3.334919595E0,-5.449843407E-1,1.547035575E-1,2.444820404E-1
3.342915210E0,-1.111652374E0,5.900579691E-1,3.083219528E-1
3.350910362E0,-1.285817623E0,7.491365075E-1,7.706451416E-1
3.358906361E0,-1.719283819E0,2.326737046E-1,7.976589203E-1
3.366933052E0,-2.266226768E0,2.530106604E-1,5.871524811E-1
3.374927896E0,-1.548668623E0,3.286156654E-1,1.341063499E0
3.382923511E0,-5.185236931E-1,3.733563423E-2,7.063293457E-1
3.390919202E0,-6.596455574E-1,-4.126135111E-1,1.085939407E-1
3.398915277E0,-5.306501389E-1,-5.272462368E-1,-5.017671585E-1
3.406911891E0,1.204552650E-1,-3.666191697E-1,-1.157111168E0
3.414906352E0,6.116518974E-1,-3.014336824E-1,-1.367738724E0
3.422932428E0,6.840329170E-1,-5.592196584E-1,-8.339271545E-1
3.430927810E0,5.931510925E-1,-9.611248970E-1,1.301031113E-1
3.438923271E0,9.673662186E-1,-4.264281392E-1,-7.083129883E-2
3.446919270E0,1.543213367E0,-2.025456429E-1,9.749126434E-2
3.454914653E0,5.714402199E-1,-2.481789589E-1,-1.717920303E-1
3.462909728E0,2.985343933E-1,3.938317299E-2,-2.279682159E-1
3.470905958E0,8.612346649E-2,5.873641968E-1,-4.349045753E-1
3.478931879E0,-6.800355911E-1,6.930909157E-1,1.777887344E-1
3.486928725E0,-1.180653572E0,2.800976932E-1,7.212123871E-1
3.494923493E0,-1.516758680E0,7.179832458E-2,1.169948578E0
3.502918876E0,-1.381706476E0,1.011046171E-1,1.356077194E0
3.510914336E0,-3.920364380E-1,1.440488100E-1,1.104956627E0
3.518909720E0,-1.429061890E-1,-1.244111061E-1,-2.726955414E-1
3.526905719E0,-8.823499680E-1,-1.555318236E-1,-3.806810379E-1
3.534931486E0,1.374039650E-1,-4.128521681E-1,-2.450008392E-1
3.542927562E0,2.525835037E-1,-6.695635319E-1,-6.517195702E-1
3.550922561E0,-2.822875977E-1,-5.840944052E-1,-8.046073914E-1
3.558918328E0,-6.664977074E-1,-4.218363762E-2,-9.218845367E-1
3.566913712E0,3.867568970E-1,2.999987602E-1,-2.274236679E-1
3.574910557E0,1.248538494E0,-1.339670420E-1,1.249313354E-2
3.582905017E0,1.838099480E0,-2.561465502E-1,-1.460103989E-1
3.590931246E0,2.118327618E0,-3.090589046E-1,-3.904857635E-1
3.598927245E0,1.012089252E0,-1.577731967E-1,-5.972380638E-1
3.606922937E0,-2.927255630E-1,2.033868432E-1,5.303096771E-2
3.614918242E0,-2.869262695E-1,2.904167175E-1,6.293563843E-1
3.622914011E0,-7.978720665E-1,1.569621563E-1,9.992971420E-1
3.630910010E0,-1.581074953E0,6.226718426E-2,6.744527817E-1
3.638905315E0,-1.777623177E0,2.345871925E-2,6.173639297E-1
3.646931776E0,-1.381840706E0,-2.104455233E-2,2.017154694E-1
3.654926313E0,-5.872988701E-1,-8.965522051E-2,4.564094543E-2
3.662921927E0,-2.882523537E-1,-1.391971707E-1,-8.141326904E-2
3.670918233E0,-1.161160469E-1,-1.501837969E-1,-3.062915802E-1
3.678913617E0,2.682209015E-1,-3.436264992E-1,-3.855295181E-1
3.686909308E0,1.332135201E-1,-4.673582315E-1,-5.268821716E-1
3.694905076E0,-2.030029297E-1,-4.849540591E-1,-6.330957413E-1
3.702931152E0,-3.483090401E-1,-6.785154939E-1,-6.507544518E-1
3.710927151E0,-6.374449730E-1,-1.249423742E0,-6.706795692E-1
3.718922302E0,-8.543488979E-1,-1.512487411E0,-6.133937836E-1
3.726918302E0,-6.072235107E-1,-1.674819708E0,-5.311498642E-1
3.734913916E0,-6.873354912E-1,-1.543401361E0,-5.347795486E-1
3.742907837E0,-7.699546814E-1,-1.381546736E0,-1.653385162E-1
3.750905682E0,-1.017159224E0,-1.269574642E0,2.787866592E-1
3.758930604E0,-1.316638947E0,-1.010156870E0,8.298530579E-1
3.766926603E0,-1.479490042E0,-8.104314804E-1,1.619300842E0
3.774921986E0,-1.792532921E0,-5.561460257E-1,1.581539154E0
3.782917370E0,-2.024717093E0,-2.430891991E-1,2.002785683E0
3.790913061E0,-2.025256872E0,-1.162309647E-1,2.239316940E0
3.798908444E0,-2.064850569E0,-1.275509596E-1,2.199728012E0
3.806904058E0,-2.993184328E0,-3.230961561E-1,1.778602600E0
3.814930211E0,-3.032846689E0,-3.085118532E-1,1.492673874E0
3.822926517E0,-2.317753792E0,-3.087285757E-1,1.182430267E0
3.830922208E0,-1.578882694E0,-2.005716562E-1,6.712770462E-1
3.838916976E0,-8.566467762E-1,1.530814171E-2,-9.361076355E-2
3.846912975E0,-3.281569481E-1,3.977285624E-1,-5.758857727E-1
3.854908742E0,2.895116806E-2,8.774176836E-1,-1.022823811E0
3.862903818E0,1.632671356E-1,1.208297372E0,-1.371479988E0
3.870930510E0,2.273988724E-1,1.208480716E0,-1.633996010E0
3.878926585E0,2.350234985E-1,9.860767126E-1,-1.842911720E0
3.886922584E0,1.965332031E-1,6.687480807E-1,-1.685038567E0
3.894917352E0,1.664915085E-1,4.482348561E-1,-1.438428402E0
3.902912965E0,4.933528900E-1,3.170312047E-1,-9.799413681E-1
3.910908349E0,1.049976349E0,3.426689506E-1,-8.224902153E-1
3.918903425E0,1.988038063E0,2.777819633E-1,-4.186239243E-1
3.926929961E0,3.180361271E0,2.272025943E-1,-4.061126709E-1
3.934925576E0,4.468238831E0,4.562329650E-1,-7.388887405E-1
3.942921036E0,5.394151688E0,7.936758399E-1,-9.328460693E-1
3.950917343E0,6.303307533E0,9.387030602E-1,-1.157087326E0
3.958912110E0,6.477108479E0,1.064466834E0,-1.582900047E0
3.966908725E0,5.764342308E0,1.241038918E0,-1.900207520E0
3.974903493E0,4.288129330E0,1.396851778E0,-2.210028172E0
3.982929875E0,3.248012066E0,1.510270596E0,-2.283445358E0
3.990926182E0,2.571770668E0,1.452236176E0,-1.870451927E0
3.998921027E0,1.980757713E0,1.228255033E0,-1.602743149E0
4.006915795E0,1.374436378E0,9.660999775E-1,-1.364445210E0
4.014912101E0,6.227698326E-1,6.843070984E-1,-1.244657516E0
4.022907177E0,1.000475883E-1,5.986189842E-1,-1.016504288E0
4.030902792E0,-1.822414398E-1,6.491501331E-1,-9.859776497E-1
4.038929867E0,-1.392951012E-1,8.605592847E-1,-1.290930748E0
4.046924712E0,2.211575508E-1,9.790823460E-1,-1.543593407E0
4.054920711E0,2.745833397E-1,8.786495924E-1,-1.530231476E0
4.062916632E0,3.160476685E-1,5.743793249E-1,-1.244049072E0
4.070912400E0,3.453574181E-1,2.184994817E-1,-5.348553658E-1
4.078907707E0,4.481763840E-1,-2.414131165E-2,2.494211197E-1
4.086903166E0,7.268881798E-1,-5.046033859E-2,7.700996399E-1
4.094929012E0,1.053174019E0,6.906062365E-2,5.615520477E-1
4.102925011E0,9.393205643E-1,3.706489801E-1,-9.976100922E-2
4.110920625E0,1.048078060E0,6.527742743E-1,-6.927390099E-1
4.118915392E0,1.118155479E0,5.043786764E-1,-6.467261314E-1
4.126912314E0,6.986975670E-1,6.422251463E-2,-1.420202255E-1
4.134907390E0,2.176976204E-1,-2.196531892E-1,7.108755112E-1
4.142902465E0,-5.353651047E-1,-2.897534370E-1,1.215918541E0
4.150929234E0,-1.356998444E0,-1.896659732E-1,1.383984089E0
4.158924617E0,-1.764773846E0,-1.763886809E-1,1.490776539E0
4.166919769E0,-1.696292400E0,-2.265157700E-1,1.446031094E0
4.174915768E0,-1.538769245E0,-3.092428446E-1,1.368004322E0
4.182911382E0,-1.315379620E0,-5.326163173E-1,1.369588375E0
4.190906843E0,-1.106008053E0,-8.173848987E-1,1.266311169E0
4.198902533E0,-8.732757568E-1,-1.036633849E0,8.657593727E-1
4.206929302E0,-4.486351013E-1,-1.169404030E0,8.274745941E-2
4.214924608E0,2.588553429E-1,-7.846738100E-1,-2.304062843E-1
4.222920376E0,1.295557976E0,-8.095175028E-1,-2.627077103E-1
4.230915759E0,1.308198929E0,-7.258913517E-1,-2.379627228E-1
4.238910835E0,1.265676975E0,-3.240634203E-1,-4.667687416E-1
4.244922526E0,1.312127113E0,5.211305618E-2,-4.827284813E-1
4.246907449E0,1.230724335E0,1.526695192E-1,-5.042762756E-1
4.254902140E0,5.961737633E-1,1.984550357E-1,-2.243356705E-1
4.262928293E0,-2.373561859E-1,-5.653803945E-1,2.804756165E-1
4.270924675E0,-7.870740891E-1,-7.447143793E-1,1.551237106E-1
4.278919982E0,-8.398442268E-1,-4.147543907E-1,4.967646599E-1
4.294911134E0,-1.000349998E0,1.577551365E-1,2.100210190E-1
4.302905901E0,-1.141435146E0,1.566068530E-1,1.892490387E-1
4.310902208E0,-1.080452442E0,5.948290229E-2,-6.613016129E-2
4.318928284E0,-8.605785370E-1,1.730033457E-1,-4.077792168E-1
4.326923743E0,-6.964507103E-1,3.990605474E-1,-7.758164406E-1
4.334919358E0,-5.254502296E-1,5.145538449E-1,-1.138554573E0
4.342914818E0,-3.193116188E-1,6.169900894E-1,-1.666370392E0
4.350910201E0,-1.426591873E-1,6.396518946E-1,-1.873402119E0
4.358905815E0,-6.062269211E-2,6.292287707E-1,-2.103465080E0
4.366932661E0,6.361007690E-3,7.190998793E-1,-2.234029770E0
4.374928660E0,9.376955032E-2,7.232011557E-1,-2.030885220E0
4.382923658E0,2.149648666E-1,5.967899561E-1,-1.412652493E0
4.390918810E0,3.177185059E-1,4.152021408E-1,-4.938149452E-1
4.398914425E0,1.083930016E0,1.401812434E-1,1.259199619E0
4.406910808E0,2.088760376E0,-1.657557487E-2,2.414978027E0
4.414905576E0,2.763086319E0,2.190151811E-1,2.207105637E0
4.422931959E0,1.802437782E0,7.852947712E-1,8.585877419E-1
4.430927957E0,4.897155762E-1,1.102005959E0,-1.900863647E-1
4.438923110E0,-1.903696060E-1,1.041263461E0,-7.273726463E-1
4.446919032E0,1.172957420E-1,7.271485925E-1,-6.643838882E-1
4.454914185E0,4.153971672E-1,3.593936563E-1,-3.910365105E-1
4.462909491E0,3.242673874E-1,1.928364635E-1,-1.321086884E-1
4.470906182E0,1.685523987E-2,1.933594942E-1,-1.859855652E-2
4.478931720E0,-2.786755562E-1,1.753140092E-1,1.784944534E-2
4.486928025E0,-3.068747520E-1,6.027171016E-2,1.054558754E-1
4.494923332E0,-1.786298752E-1,-1.340658069E-1,2.510976791E-1
4.502918485E0,-1.625728607E-1,-2.453096211E-1,3.735289574E-1
4.510913868E0,-2.742977142E-1,-2.988035679E-1,3.920407295E-1
4.518909867E0,-3.407473564E-1,-3.496508300E-1,4.711980820E-1
4.526905481E0,-2.773056030E-1,-3.264279962E-1,4.912877083E-1
4.534931402E0,-3.637790680E-1,-3.603746295E-1,4.527554512E-1
4.542927401E0,-5.001611710E-1,-3.021401465E-1,3.082504272E-1
4.550923400E0,-4.974694252E-1,-2.038695216E-1,1.291909218E-1
4.558918707E0,-2.843098640E-1,-7.609945536E-2,-2.057938576E-1
4.566914474E0,1.290202141E-1,-4.644465446E-2,-3.145432472E-1
4.574909166E0,4.182152748E-1,-2.088238299E-1,-3.711752892E-1
4.582905857E0,3.167252541E-1,-3.563428819E-1,-4.055547714E-1
4.590931624E0,-2.463102341E-2,-4.115612805E-1,-2.750167847E-1
4.598927008E0,-2.107176781E-1,-4.640361965E-1,-1.871604919E-1
4.606923007E0,-2.069325447E-1,-4.911399484E-1,-8.044099808E-2
4.614918466E0,-8.967447281E-2,-4.741850495E-1,4.258060455E-2
4.622913850E0,-1.381936073E-1,-4.484030604E-1,1.285157204E-1
4.630909464E0,-3.362188339E-1,-4.167099595E-1,2.717461586E-1
4.638904617E0,-4.583802223E-1,-3.647273779E-1,3.020753860E-1
4.646931308E0,-5.297517776E-1,-2.435035706E-1,2.944664955E-1
4.654926460E0,-4.641995430E-1,-1.574462652E-1,2.649383545E-1
4.662922075E0,-3.291115761E-1,-7.700085640E-2,1.746058464E-1
4.670918381E0,-1.325397491E-1,4.449832439E-2,6.157350540E-2
4.678914149E0,8.837509155E-2,8.575743437E-2,-6.847286224E-2
4.686910071E0,2.588338852E-1,8.598363400E-2,-1.760511398E-1
4.694905223E0,3.051576614E-1,3.909909725E-2,-2.008967400E-1
4.702931299E0,2.872986794E-1,8.228391409E-2,-1.997890472E-1
4.710927067E0,2.497143745E-1,1.129863262E-1,-1.425452232E-1
4.718922143E0,1.402473450E-1,1.263540983E-1,-1.684103012E-1
4.726917833E0,8.041620255E-2,1.609602571E-1,-2.027282715E-1
4.734913217E0,8.323955536E-2,1.359298527E-1,-1.511287689E-1
4.742908524E0,4.239320755E-2,3.924828768E-2,-1.421995163E-1
4.750904522E0,1.055622101E-2,-1.026371121E-1,-7.059144974E-2
4.758930982E0,-4.825735092E-2,-9.609752893E-2,-7.513952255E-2
4.774922364E0,4.032325745E-2,-5.540084839E-2,-5.150699615E-2
4.782917132E0,9.218740463E-2,-1.095148921E-1,-1.000843048E-1
4.790913208E0,4.863929749E-2,-1.560856104E-1,-4.593420029E-2
4.798908591E0,-8.453178406E-2,-1.164755821E-1,5.991506577E-2
4.806904513E0,-1.850194931E-1,-8.918738365E-2,1.239142418E-1
4.814930435E0,-2.666864395E-1,-5.250549316E-2,1.720471382E-1
4.822925511E0,-4.121327400E-1,-3.013718128E-2,2.896599770E-1
4.830921816E0,-5.263834000E-1,1.111292839E-2,4.013600349E-1
4.838916508E0,-5.351366997E-1,1.134725809E-1,3.657870293E-1
4.846913199E0,-4.276161194E-1,2.164517939E-1,2.836561203E-1
4.854908505E0,-2.822499275E-1,2.477647960E-1,1.986403465E-1
4.862904196E0,-8.963489532E-2,3.198845685E-1,5.987739563E-2
4.870930657E0,3.716659546E-2,3.832074404E-1,-6.039285660E-2
4.878926039E0,2.062826157E-1,4.716858566E-1,-1.911411285E-1
4.886921500E0,4.060225487E-1,4.232213497E-1,-1.833710670E-1
4.894916807E0,4.569582939E-1,3.403929770E-1,-1.921315193E-1
4.902911959E0,3.705186844E-1,2.223196030E-1,-1.875214577E-1
4.910908804E0,2.682318687E-1,1.226324141E-1,-1.468424797E-1
4.918903341E0,1.574616432E-1,1.311498880E-2,-1.396398544E-1
4.926929802E0,4.041862488E-2,-9.442740679E-2,-9.157609940E-2
4.934926338E0,-8.156108856E-2,-1.215484738E-1,-6.657218933E-2
4.942921106E0,-1.023221016E-1,-8.788800240E-2,-6.352519989E-2
4.950916798E0,-8.811664581E-2,-9.890806675E-2,-3.819465637E-2
4.958911950E0,-1.015439034E-1,-1.405859590E-1,-1.429939270E-2
4.966907949E0,-6.349897385E-2,-1.173768044E-1,8.926391602E-4
4.974903255E0,-5.292892456E-2,-9.408968687E-2,1.211404800E-2
4.982929485E0,-1.188850403E-2,-6.600987911E-2,4.648208618E-3
4.990925406E0,-1.084327698E-3,2.181035280E-2,2.048397064E-2
4.998920559E0,-1.992225647E-2,6.153228879E-2,9.031677246E-2
5.014911941E0,-9.248495102E-2,5.606135726E-2,5.116367340E-2
5.022907863E0,-7.366418839E-2,2.809482813E-2,3.917074203E-2
5.030903016E0,-7.281303406E-2,-1.626038551E-2,1.849174500E-2
5.038929168E0,-7.656621933E-2,-4.835987091E-2,-1.736164093E-2
5.046925090E0,-8.077621460E-2,-9.723109007E-2,-1.768016815E-2
5.054920473E0,-1.069917679E-1,-5.051022768E-2,-8.781957626E-2
5.062915933E0,-3.424167633E-2,2.715051174E-2,-9.938335419E-2
5.070911855E0,2.635335922E-2,8.025068045E-2,-1.084594727E-1
5.078906931E0,1.540789604E-1,7.999724150E-2,-1.097640991E-1
5.086903238E0,2.305145264E-1,6.253859401E-2,-8.743619919E-2
5.094929082E0,1.848597527E-1,6.845763326E-2,-1.075510979E-1
5.102924465E0,5.326366425E-2,8.851772547E-2,-1.079964638E-1
5.110920772E0,-1.665687561E-2,6.099966168E-2,-9.293508530E-2
5.118916462E0,-3.915786743E-2,2.439838648E-2,-6.552934647E-2
5.126911923E0,-4.752874374E-2,-5.726236105E-2,-5.299663544E-2
5.134906614E0,-9.593963623E-3,-9.111648798E-2,-7.837772369E-2
5.142902689E0,-7.249355316E-3,-1.201434731E-1,-6.949949265E-2
5.150929150E0,-1.251697540E-3,-1.730353236E-1,-6.531763077E-2
5.158923918E0,6.035137177E-2,-1.466653347E-1,-2.149915695E-2
5.166920148E0,1.432585716E-1,-1.273356080E-1,8.148193359E-3
5.174915915E0,8.182811737E-2,-1.081174016E-1,2.222537994E-2
5.182911299E0,2.189064026E-2,-1.174288392E-1,4.793643951E-2
5.190907298E0,-6.715536118E-2,-5.984121561E-2,4.418134689E-2
5.198902296E0,-1.362175941E-1,4.794716835E-3,5.011224747E-2
5.206929141E0,-2.023081779E-1,9.584921598E-2,2.452182770E-2
5.214923832E0,-2.126779556E-1,1.058258116E-1,9.116268158E-2
5.222919830E0,-2.214016914E-1,1.872933209E-1,-5.202293396E-3
5.230915829E0,-1.421203613E-1,1.681585014E-1,-5.637836456E-2
5.238910905E0,-4.157829285E-2,7.937937975E-2,-9.849405289E-2
5.254901672E0,1.647076607E-1,7.363557816E-4,-1.094355583E-1
5.262927824E0,2.392377853E-1,-8.288621902E-3,-6.552743912E-2
5.270923900E0,1.700463295E-1,-6.262624264E-2,-4.240608215E-2
5.278919514E0,5.618333817E-2,-6.648844481E-2,-4.309749603E-2
5.286914974E0,-1.851081848E-2,-3.414046764E-2,8.991718292E-3
5.294910050E0,-1.033320427E-1,5.694806576E-3,1.670360565E-2
5.302906356E0,-1.523923874E-1,1.230078936E-2,8.440494537E-2
5.310902047E0,-1.389203072E-1,-2.636730671E-3,2.431392670E-2
5.318928123E0,-1.403532028E-1,1.095819473E-2,-5.047893524E-2
5.326923815E0,-7.733011246E-2,3.366208076E-2,-4.447269440E-2
5.334918889E0,-2.807903290E-2,1.281440258E-2,-5.877256393E-2
5.342914658E0,2.795553207E-2,-2.255982161E-2,-8.237457275E-2
5.350910349E0,8.475351334E-2,-5.040419102E-2,-6.818532944E-2
5.358906039E0,1.591916084E-1,-5.622690916E-2,-1.144399643E-1
5.366932115E0,1.794705391E-1,-3.531599045E-2,-1.086373329E-1
5.374928191E0,1.048574448E-1,-2.404052019E-2,-1.034593582E-1
5.382923574E0,3.607273102E-2,-3.361105919E-3,-7.987499237E-2
5.390919496E0,-2.744054794E-2,2.726137638E-3,-4.946327209E-2
5.398914033E0,-1.127715111E-1,2.791774273E-2,-2.125787735E-2
5.406910647E0,-3.650426865E-2,6.513789296E-2,-3.050279617E-2
5.414905723E0,2.686500549E-3,7.060989738E-2,-5.811786652E-2
5.422931799E0,-1.295280457E-2,5.375856161E-2,-1.146821976E-1
5.430928182E0,1.170873642E-2,6.507453322E-2,-7.692909241E-2
5.438922027E0,3.852653503E-2,7.823684812E-2,-5.989027023E-2
5.446919179E0,3.467273712E-2,8.633342385E-2,-1.136159897E-2
5.454914332E0,9.451866150E-3,6.847032905E-2,8.087444305E-2
5.462909638E0,-1.738214493E-2,-1.089650393E-2,8.882331848E-2
5.470905945E0,-6.681346893E-2,-6.319969893E-2,4.250717163E-2
5.478901405E0,-1.332101822E-1,-1.318439841E-1,-9.130477905E-3
5.486926942E0,-1.557879448E-1,-1.645457149E-1,-1.010112762E-1
5.494922941E0,-1.516618729E-1,-1.566861272E-1,-1.012187004E-1
5.502918017E0,-1.019988060E-1,-1.321116686E-1,-1.093578339E-1
5.510913939E0,-3.644227982E-2,-9.066253901E-2,-1.001157761E-1
5.518909937E0,5.615520477E-2,-6.099128723E-2,-7.219600677E-2
5.526905397E0,7.941389084E-2,-5.033779144E-2,-7.713842392E-2
5.534931473E0,6.313228607E-2,-5.127918720E-2,-9.413719177E-2
5.542926933E0,9.402704239E-2,-4.940193892E-2,-1.858067513E-1
5.550922624E0,9.453582764E-2,-4.235529900E-2,-1.647253036E-1
5.558917623E0,7.318210602E-2,-8.644282818E-3,-2.535772324E-2
5.566913929E0,9.916305542E-3,3.198379278E-2,6.769466400E-2
5.574909390E0,-1.177620888E-1,2.918410301E-2,1.414318085E-1
5.582905389E0,-2.271399498E-1,3.853565454E-2,9.129905701E-2
5.590931234E0,-1.418905258E-1,6.513464451E-2,-3.182601929E-2
5.598926847E0,2.687215805E-2,2.716308832E-2,-5.252218246E-2
5.606922231E0,4.245901108E-2,-9.039819241E-3,-5.966424942E-2
5.614917999E0,2.383661270E-2,-2.163523436E-2,4.138755798E-2
5.622913305E0,8.815765381E-3,-5.715191364E-3,1.415939331E-1
5.630908996E0,-6.036520004E-2,2.722579241E-2,9.350109100E-2
5.638904995E0,-1.108074188E-1,7.515025139E-2,1.023120880E-1
5.646931224E0,-1.178631783E-1,6.833803654E-2,4.708766937E-2
5.654925915E0,-1.059274673E-1,2.585446835E-2,-7.886886597E-4
5.662922530E0,-4.655599594E-2,4.088383913E-2,5.979537964E-3
5.670917989E0,-4.188442230E-2,5.560141802E-2,-5.847549438E-2
5.678913296E0,-7.252645493E-2,3.644359112E-2,-9.616756439E-2
5.686909679E0,3.548383713E-2,2.881628275E-2,-3.875064850E-2
5.694904679E0,3.445148468E-2,-3.042399883E-3,2.910614014E-2
5.702930600E0,-5.896711349E-2,-1.351875067E-2,6.515598297E-2
5.710925906E0,-1.565032005E-1,-6.913363934E-3,1.230974197E-1
5.718921905E0,-1.948723793E-1,-1.646429300E-2,1.567640305E-1
5.726917596E0,-1.678400040E-1,1.047450304E-2,8.779907227E-2
5.734912979E0,-1.299524307E-1,-4.119008780E-2,3.717803955E-2
5.742908671E0,-7.209157944E-2,-2.356505394E-2,-7.584571838E-3
5.750904438E0,-1.946735382E-2,-3.256630898E-2,-7.199764252E-2
5.758930283E0,8.280849457E-2,5.938887596E-3,-1.535639763E-1
5.766927128E0,1.758737564E-1,4.373240471E-2,-1.620006561E-1
5.774922512E0,1.776142120E-1,5.205458403E-2,-1.175870895E-1
5.782916971E0,5.650901794E-2,6.006020308E-2,-2.162837982E-2
5.790912663E0,-3.018951416E-2,7.042521238E-2,2.665424347E-2
5.798908046E0,-5.462455750E-2,8.811038733E-2,-6.071949005E-2
5.806904660E0,-8.320713043E-2,7.254225016E-2,-1.317243576E-1
5.814930274E0,-1.957798004E-2,2.369982004E-2,-1.205244064E-1
5.822925889E0,-2.088499069E-2,3.625214100E-3,-1.506299973E-1
5.830921656E0,-8.613586426E-3,-5.677789450E-2,-1.809992790E-1
5.838917347E0,5.000734329E-2,-9.778141975E-2,-1.409053802E-1
5.846912731E0,5.865097046E-2,-1.073392034E-1,-4.112815857E-2
5.854907730E0,6.251907349E-2,-1.212156415E-1,7.385826111E-2
5.862903189E0,-2.662658691E-3,-1.229348183E-1,1.056356430E-1
5.870930496E0,-5.118656158E-2,-1.243823767E-1,3.777599335E-2
5.878925341E0,-1.010580063E-1,-9.682291746E-2,5.181312561E-3
5.886922185E0,-5.783271790E-2,-8.833515644E-2,-6.790924072E-2
5.894916646E0,-5.678701401E-2,-1.207948327E-1,-6.821346283E-2
5.902912337E0,-3.347253799E-2,-8.395677805E-2,-1.560144424E-1
5.910908335E0,-6.488800049E-3,-4.711478949E-2,-3.957366943E-2
5.918902873E0,-3.728723526E-2,-3.667700291E-2,-1.390171051E-2
5.926929949E0,3.016948700E-2,-2.862447500E-2,9.322166443E-3
5.934924716E0,6.644725800E-3,-5.180269480E-2,-9.765625000E-4
5.942920638E0,-7.627487183E-2,-1.546609402E-2,-4.408836365E-3
5.950916637E0,-8.416175842E-2,2.053284645E-2,6.104564667E-2
5.958912713E0,-1.733341217E-1,3.684097528E-2,9.047603607E-2
5.974903402E0,-1.685171127E-1,3.814595938E-2,5.194473267E-2
5.982929555E0,-1.040434837E-1,2.073693275E-2,3.476333618E-2
5.990924630E0,-1.093831062E-1,1.508140564E-2,3.696441650E-2
5.998920014E0,-1.462144852E-1,9.118974209E-3,3.458976746E-2
6.006916090E0,-1.193580627E-1,-2.060949802E-2,-2.940750122E-2
6.014912011E0,-5.289030075E-2,-4.551666975E-2,2.940177917E-2
6.022907702E0,-2.566432953E-2,-2.528083324E-2,-8.360576630E-2
6.030903086E0,3.702974319E-2,-9.906888008E-3,-1.029605865E-1
6.038928623E0,4.424238205E-2,2.218228579E-2,-5.501651764E-2
6.046924698E0,7.778215408E-2,1.592904329E-2,-1.243839264E-1
6.054920005E0,1.326351166E-1,7.425904274E-3,-1.313419342E-1
6.062915696E0,3.189754486E-2,-1.328164339E-2,-1.239748001E-1
6.070911079E0,-7.028865814E-2,-1.262092590E-2,-4.779338837E-2
6.078906463E0,-1.330280304E-1,-4.796206951E-3,3.005313873E-2
6.086902846E0,-1.590194702E-1,-2.810800076E-2,4.990863800E-2
6.094928690E0,-1.509280205E-1,-4.666090012E-2,7.419013977E-2
6.102924305E0,-1.547622681E-1,-9.865897894E-2,8.887577057E-2
6.110920073E0,-1.351556778E-1,-5.959039927E-2,6.079292297E-2
6.118915149E0,-3.791952133E-2,-3.479135036E-2,2.162361145E-2
6.126911685E0,-1.170921326E-2,-1.727610826E-2,5.008697510E-3
6.134906454E0,4.422569275E-2,1.933211088E-2,-8.973312378E-2
6.142902760E0,1.251759529E-1,1.121342182E-3,-9.742069244E-2
6.150928682E0,1.192522049E-1,3.082722425E-2,-1.573429108E-1
6.158924065E0,1.024432182E-1,1.282155514E-2,-8.625984192E-2
6.166919680E0,-3.626346588E-3,2.585077286E-2,-6.416034698E-2
6.174915754E0,-8.824586868E-2,4.141503572E-2,1.873493195E-2
6.182911369E0,-8.154916763E-2,4.482537508E-2,1.368808746E-2
6.198903059E0,-7.919645309E-2,-1.109313965E-2,1.102924347E-2
6.206927673E0,-1.355419159E-1,-8.420228958E-3,9.110832214E-2
6.214924364E0,-2.119255066E-1,-3.213971853E-2,9.752750397E-2
6.222919978E0,-2.632513046E-1,-5.076223612E-2,5.690002441E-2
6.230915361E0,-1.707520485E-1,-4.965734482E-2,-1.579284668E-2
6.238910822E0,-1.428747177E-2,-5.286753178E-2,-1.032638550E-1
6.246906513E0,1.087093353E-1,-9.914630651E-2,-1.461553574E-1
6.254901819E0,1.143026352E-1,-8.568143845E-2,-1.219596863E-1
6.262928356E0,1.263146400E-1,-9.361046553E-2,-1.083593369E-1
6.270923970E0,1.952371597E-1,-1.013995409E-1,-1.030950546E-1
6.278919430E0,1.538052559E-1,-8.041518927E-2,-7.526206970E-2
6.286914814E0,8.327436447E-2,-6.200808287E-2,-6.548500061E-2
6.294910813E0,-2.182817459E-2,-6.998693943E-2,5.691528320E-3
6.302906504E0,-1.504259109E-1,-4.713380337E-2,3.825855255E-2
6.310901502E0,-2.291936874E-1,-2.940803766E-2,1.213617325E-1
6.318927655E0,-2.405672073E-1,-3.805989027E-2,1.387109756E-1
6.326923039E0,-2.641577721E-1,-6.816089153E-2,8.351230621E-2
6.334919344E0,-2.373514175E-1,-4.311794043E-2,2.017498016E-2
6.342914420E0,-1.354632378E-1,-3.021645546E-2,-3.903388977E-3
6.350909881E0,-1.270675659E-2,-9.389764071E-2,-1.017675400E-1
6.358905186E0,7.255458832E-2,-7.393425703E-2,-1.235399246E-1
6.366932339E0,9.967041016E-2,-8.264422417E-2,-1.008949280E-1
6.374927646E0,6.666183472E-2,-5.779606104E-2,-8.677482605E-2
6.382923030E0,6.438255310E-3,-4.245531559E-2,-4.008483887E-2
6.390918797E0,-5.730819702E-2,-6.536483765E-2,-2.052497864E-2
6.398914411E0,-1.419763565E-1,-7.865524292E-2,4.892444611E-2
6.406910718E0,-1.479735374E-1,-4.434716702E-2,9.941101074E-2
6.414905485E0,-7.391500473E-2,1.848489046E-2,1.267871857E-1
6.422931638E0,-8.893108368E-2,5.680692196E-2,3.142833710E-2
6.430927945E0,-8.961725235E-2,7.561194897E-2,-2.412223816E-2
6.438922404E0,-1.735782623E-2,1.705241799E-1,-7.651805878E-2
6.446917865E0,8.585691452E-2,1.596355438E-1,-8.096027374E-2
6.454915018E0,1.141319275E-1,1.553449035E-1,-1.272096634E-1
6.462910094E0,1.541547775E-1,1.222073436E-1,-1.078023911E-1
6.470905246E0,1.578950882E-1,1.415007114E-1,-6.814670563E-2
6.478931322E0,1.010990143E-1,1.293555498E-1,-3.438758850E-2
6.486926474E0,-4.509687424E-2,8.625459671E-2,3.670024872E-2
6.494922088E0,-1.117296219E-1,8.880680799E-2,1.050615311E-1
6.502917472E0,-2.295150757E-1,1.128045321E-1,1.069316864E-1
6.510914086E0,-2.627520561E-1,1.005617976E-1,1.169939041E-1
6.518908853E0,-2.307910919E-1,8.789056540E-2,7.311058044E-2
6.526905237E0,-1.456670761E-1,7.742261887E-2,1.125431061E-2
6.534931697E0,-2.109384537E-2,6.727272272E-2,-4.260349274E-2
6.542926695E0,1.076636314E-1,-2.172946930E-3,-6.490802765E-2
6.550922694E0,1.149263382E-1,-1.357215643E-2,-6.121063232E-2
6.558918155E0,6.877899170E-2,-3.418958187E-2,-2.021598816E-2
6.566914077E0,3.414726257E-2,-5.932718515E-2,-2.591037750E-2
6.574909152E0,-7.082509995E-2,-5.780488253E-2,-1.335906982E-2
6.582905459E0,-1.342625618E-1,-4.394197464E-2,-6.087303162E-3
6.590900535E0,-1.332859993E-1,-7.316142321E-2,3.485012054E-2
6.598926456E0,-1.332483292E-1,-4.014861584E-2,4.285907745E-2
6.606922686E0,-1.132926941E-1,-2.184510231E-3,1.359748840E-2
6.614918069E0,-8.531284332E-2,2.309620380E-3,-5.538845062E-2
6.622913452E0,-1.279258728E-2,-5.060136318E-3,-8.546066284E-2
6.630909143E0,5.696249008E-2,-5.167186260E-3,-7.219886780E-2
6.638904911E0,1.031880379E-1,-9.977638721E-3,-5.679321289E-2
6.646930757E0,7.162332535E-2,4.325389862E-3,-3.018569946E-2
6.654925831E0,2.725362778E-2,1.146757603E-2,-6.951332092E-3
6.662921754E0,-4.442453384E-2,3.288882971E-2,1.777839661E-2
6.670918445E0,-1.247482300E-1,3.754425049E-2,3.474044800E-2
6.678913135E0,-1.904678345E-1,3.747117519E-2,2.522563934E-2
6.694904210E0,-1.826848984E-1,-5.604386330E-2,-4.369926453E-2
6.702930670E0,-9.776592255E-2,-6.572884321E-2,-6.206512451E-2
6.710926130E0,-1.937341690E-2,-6.107997894E-2,-6.019020081E-2
6.718921822E0,1.998424530E-2,-7.571375370E-2,-3.153324127E-2
6.726917513E0,4.539155960E-2,-7.359349728E-2,4.714488983E-2
6.734913126E0,7.227230072E-2,-8.597928286E-2,7.572174072E-3
6.742908510E0,1.520109177E-2,-4.814958572E-2,7.287979126E-3
6.750903971E0,-6.141519547E-2,1.358717680E-2,-3.256416321E-2
6.758930122E0,-7.474517822E-2,4.661643505E-2,-1.081466675E-2
6.766926045E0,-6.700992584E-2,4.376399517E-2,-2.706527710E-2
6.774921505E0,-8.245706558E-2,3.372591734E-2,-3.989696503E-2
6.782916811E0,-6.856632233E-2,-1.223152876E-2,-5.879116058E-2
6.790912579E0,-2.755832672E-2,-3.919154406E-2,-6.711006165E-2
6.798908193E0,5.197048187E-3,-2.783882618E-2,-9.391117096E-2
6.806904576E0,2.811861038E-2,-4.539483786E-2,-7.986068726E-2
6.814930344E0,2.519130707E-2,-2.718842030E-2,-6.852340698E-2
6.822925728E0,1.375627518E-2,1.496738195E-2,-4.827690125E-2
6.830921112E0,6.123352051E-2,6.787598133E-3,5.484771729E-2
6.838916494E0,8.868312836E-2,4.844206572E-2,8.515453339E-2
6.846911955E0,3.310441971E-2,1.065965891E-1,2.876663208E-2
6.854907954E0,-7.987689972E-2,1.576055884E-1,1.783561707E-2
6.862903029E0,-1.642494202E-1,1.439148784E-1,2.613162994E-2
6.870930335E0,-1.509566307E-1,1.682727337E-1,3.471946716E-2
6.878925181E0,-1.340785027E-1,1.564772129E-1,2.010154724E-2
6.886921179E0,-9.677362442E-2,1.230347157E-1,-2.254962921E-2
6.894916793E0,-1.425695419E-2,1.301423907E-1,-3.948211670E-4
6.902911946E0,1.170763969E-1,2.297078967E-1,-4.593467712E-2
6.910908253E0,1.583213806E-1,1.127489209E-1,7.158184052E-2
6.918903558E0,1.718611717E-1,5.729454756E-2,8.963584900E-2
6.934924864E0,-7.370758057E-2,3.101694584E-2,3.773689270E-2
6.942920785E0,-7.667446136E-2,4.962658882E-2,-5.110740662E-3
6.950915630E0,-4.835319519E-2,-1.425999403E-2,-1.530551910E-2
6.958911860E0,-1.516804695E-1,-1.012720466E-1,-3.205871582E-2
6.966908166E0,-2.635703087E-1,-1.785336733E-1,-9.289073944E-2
6.974903549E0,-2.407588959E-1,-2.078459263E-1,-1.161842346E-1
6.982928779E0,-1.533360481E-1,-1.957737207E-1,-1.125326157E-1
6.990925701E0,-6.535148621E-2,-1.500602365E-1,-5.985641479E-2
6.998919622E0,3.593778610E-2,-1.066113114E-1,8.778858185E-2
7.006916545E0,1.716198921E-1,-8.961260319E-2,1.232843399E-1
7.014911620E0,1.462903023E-1,-5.112993717E-2,1.014995575E-2
7.022906926E0,-5.450057983E-2,-1.512885094E-2,-1.214122772E-2
7.030903233E0,-1.540136337E-1,2.570593357E-2,9.153366089E-3
7.038929078E0,-2.122354507E-1,1.027528048E-1,6.842803955E-2
7.046924845E0,-1.891379356E-1,1.442335248E-1,4.306316376E-2
7.054920152E0,-1.988654137E-1,1.545106769E-1,1.301670074E-2
7.062915613E0,-1.598176956E-1,1.573885679E-1,2.124500275E-2
7.070911534E0,-8.819675446E-2,1.407771111E-1,8.895301819E-2
7.078906917E0,-1.865291595E-2,3.984969854E-2,1.722612381E-1
7.086902916E0,-1.063919067E-2,9.963274002E-3,1.583862305E-1
7.094928838E0,-1.098113060E-1,-3.440678120E-3,2.471122742E-1
7.102923913E0,-1.185994148E-1,-4.544889927E-2,3.012313843E-1
7.110920451E0,-1.922364235E-1,-7.266926765E-2,3.372783661E-1
7.118915296E0,-2.130475044E-1,-6.375807524E-2,4.483852386E-1
7.126910679E0,-2.289128304E-1,-1.170507073E-1,6.058044434E-1
7.134906908E0,-1.434178352E-1,-4.370347857E-1,6.766452789E-1
7.142901984E0,2.867221832E-3,-8.677675724E-1,6.026563644E-1
7.150928213E0,7.813882828E-2,-1.174499273E0,5.290622711E-1
7.158924212E0,1.750335693E-1,-1.386499882E0,3.964452744E-1
7.174914979E0,2.620229721E-1,-1.255758882E0,4.614257812E-2
7.182910670E0,2.436332703E-1,-1.048280716E0,-5.249214172E-2
7.190906592E0,1.100201607E-1,-7.133796811E-1,-1.635885239E-1
7.198902283E0,4.474353790E-2,-4.746007323E-1,-2.331390381E-1
7.206928512E0,1.468968391E-1,-4.658223391E-1,-2.928371429E-1
7.214923588E0,2.178702354E-1,-7.414699793E-1,1.487340927E-1
7.222919510E0,3.888874054E-1,-1.490517855E0,2.929592133E-2
7.230915508E0,1.139729977E0,-1.869860530E0,-8.189058304E-1
7.238910353E0,4.084258080E-1,-1.248351336E0,-1.126246452E0
7.246906968E0,-6.747627258E-1,-3.373875618E-1,-1.194367409E0
7.254901736E0,-9.741892815E-1,4.341204762E-1,-1.303917408E0
7.262928119E0,-6.603498459E-1,6.727516055E-1,-1.155293941E0
7.270922656E0,-6.065530777E-1,5.948953629E-1,-8.227529526E-1
7.278918655E0,-6.725354195E-1,5.811752081E-1,-4.620642662E-1
7.286913730E0,-5.109000206E-1,7.716693878E-1,5.265235901E-3
7.294910575E0,-3.704648018E-1,9.538022876E-1,3.636989594E-1
7.302905959E0,-3.245182037E-1,1.016586542E0,4.331388474E-1
7.310901649E0,-5.972433090E-2,1.041643977E0,3.643703461E-1
7.318927571E0,1.224389076E-1,1.075416446E0,3.409929276E-1
7.326922955E0,2.193069458E-1,1.110581875E0,2.555027008E-1
7.334918338E0,3.150157928E-1,1.185761929E0,1.341314316E-1
7.342914952E0,3.517584801E-1,1.170499325E0,3.481674194E-2
7.350910336E0,4.080271721E-1,1.117049217E0,-1.136102676E-1
7.358906258E0,5.082788467E-1,1.031155348E0,-1.269679070E-1
7.366931563E0,8.568682671E-1,8.749994636E-1,-5.654239655E-2
7.374927793E0,1.124760151E0,7.279522419E-1,-8.553695679E-2
7.382923561E0,1.092341423E0,6.350219250E-1,-1.378617287E-1
7.390919252E0,9.385390282E-1,5.833647847E-1,-2.220010757E-1
7.398914635E0,7.411441803E-1,5.197452307E-1,-2.837734222E-1
7.404926250E0,5.423698425E-1,4.995535016E-1,-4.065012932E-1
7.406909634E0,3.795638084E-1,5.043419003E-1,-5.669126511E-1
7.414905632E0,2.155213356E-1,4.682201445E-1,-6.836543083E-1
7.422931554E0,-1.208863258E-1,4.213185012E-1,-9.165444374E-1
7.430927553E0,-4.456176758E-1,3.824340999E-1,-1.046010017E0
7.438922553E0,-6.778507233E-1,3.919261694E-1,-1.146017551E0
7.446918627E0,-7.683067322E-1,4.180706143E-1,-1.237513542E0
7.454914011E0,-7.610330582E-1,4.434245229E-1,-1.221730709E0
7.462908779E0,-8.363676071E-1,5.345600247E-1,-1.268137455E0
7.470905624E0,-9.038200378E-1,6.516509056E-1,-1.318881035E0
7.478931161E0,-8.360939026E-1,6.656782627E-1,-1.212079525E0
7.486927160E0,-6.384911537E-1,6.024461389E-1,-8.260307312E-1
7.494922927E0,-1.918520927E-1,4.179455042E-1,1.378912926E-1
7.502918234E0,8.226022720E-1,1.546337456E-1,1.615879536E0
7.510913695E0,1.754446983E0,5.601826310E-2,2.416567802E0
7.518909694E0,1.805990696E0,3.596976995E-1,1.960408688E0
7.526905307E0,7.778515816E-1,6.261907220E-1,8.746051788E-1
7.534930229E0,6.580257416E-2,6.678071618E-1,8.531332016E-2
7.542926536E0,1.062393188E-2,4.771123528E-1,-3.888964653E-1
7.550922841E0,2.784051895E-1,1.559351683E-1,-3.994002342E-1
7.558917994E0,4.136214256E-1,-2.097727507E-1,-1.594142914E-1
7.566913609E0,1.563234329E-1,-3.628200889E-1,3.991746902E-2
7.574908991E0,-1.008481979E-1,-3.312698901E-1,1.907267570E-1
7.582904683E0,-2.223010063E-1,-2.143650204E-1,1.643466949E-1
7.590930836E0,-1.444077492E-1,-2.182319909E-1,1.129875183E-1
7.598926835E0,-1.955652237E-2,-2.932599485E-1,6.056976318E-2
7.606921371E0,-2.345895767E-2,-2.958525419E-1,5.867481232E-2
7.614917985E0,-1.728000641E-1,-3.356708884E-1,1.503500938E-1
7.622913061E0,-2.754163742E-1,-3.786292672E-1,1.124815941E-1
7.630909290E0,-2.288265228E-1,-3.555767834E-1,1.854586601E-1
7.638904366E0,-1.861214638E-1,-2.754943371E-1,2.805662155E-1
7.654925902E0,-1.840047836E-1,-5.906459689E-2,3.527460098E-1
7.662921670E0,-9.165525436E-2,4.379564524E-2,3.899879456E-1
7.670917054E0,7.205486298E-3,1.616038680E-1,3.703479767E-1
7.678912744E0,-7.000350952E-2,2.161067277E-1,1.092448235E-1
7.686908974E0,-1.098475456E-1,1.677270532E-1,-1.838731766E-2
7.694904434E0,-1.156606674E-1,7.900880277E-2,-2.869176865E-2
7.702930279E0,-1.909189224E-1,-4.011277854E-2,8.345890045E-2
7.710925662E0,-3.697900772E-1,-2.085019648E-1,-4.710102081E-2
7.718921584E0,-3.147678375E-1,-3.766561151E-1,-2.280406952E-1
7.726917275E0,-1.111125946E-1,-4.859787524E-1,-2.325348854E-1
7.734913043E0,4.442071915E-2,-6.732390523E-1,-1.768360138E-1
7.742908042E0,1.427145004E-1,-7.907426953E-1,-2.982254028E-1
7.750903810E0,3.733496666E-1,-8.611630201E-1,-4.515657425E-1
7.758929962E0,4.476990700E-1,-8.879416585E-1,-3.671131134E-1
7.766925269E0,3.713145256E-1,-8.722791672E-1,-2.338705063E-1
7.774921037E0,2.729072571E-1,-8.201690912E-1,-1.225919724E-1
7.782917036E0,1.390719414E-1,-6.718918085E-1,-9.391403198E-2
7.790912649E0,-1.843709946E-1,-4.798848033E-1,6.170368195E-2
7.798908417E0,-3.705534935E-1,-3.529156744E-1,1.654601097E-1
7.806904416E0,-3.920602798E-1,-2.201144695E-1,1.576919556E-1
7.814929953E0,-4.318623543E-1,-3.624987602E-2,1.577749252E-1
7.822925567E0,-4.829664230E-1,4.448342323E-2,8.614778519E-2
7.830922182E0,-4.238929749E-1,1.489283144E-1,1.109423637E-1
7.838916641E0,-3.596715927E-1,2.044385970E-1,6.681299210E-2
7.846912640E0,-1.715846062E-1,2.216603458E-1,5.099582672E-2
7.854907793E0,-2.344465256E-2,2.156321108E-1,6.495094299E-2
7.862903408E0,3.798484802E-3,2.323964536E-1,2.024712563E-1
7.870929559E0,-1.248588562E-1,2.023478448E-1,3.654437065E-1
7.878924635E0,-2.386808395E-1,1.781840324E-1,2.373151779E-1
7.886920327E0,-1.303462982E-1,1.567398608E-1,-3.096914291E-2
7.894916709E0,1.386594772E-2,2.030403912E-1,-1.435360909E-1
7.902911785E0,2.111802101E-1,1.804869175E-1,-1.804504395E-1
7.910908323E0,3.167858124E-1,1.289517879E-1,-2.558908463E-1
7.918903090E0,2.791576385E-1,1.008083224E-1,-2.876124382E-1
7.926929551E0,2.210178375E-1,1.393564641E-1,-2.377276421E-1
7.934924703E0,1.614632607E-1,2.155043185E-1,-1.222543716E-1
7.942920394E0,8.891916275E-2,2.102013528E-1,-5.323314667E-2
7.950916624E0,-1.857757568E-2,2.004151046E-1,2.782535553E-2
7.958911392E0,-1.602106094E-1,1.888696849E-1,5.573177338E-2
7.966907468E0,-2.174162865E-1,1.467807293E-1,1.222705841E-1
7.974902850E0,-2.690534592E-1,1.004716158E-1,7.578563690E-2
7.982929542E0,-2.298974991E-1,4.508185387E-2,8.933067322E-2
7.990924925E0,-2.350997925E-1,4.683756828E-2,1.540212631E-1
7.998920000E0,-2.800998688E-1,9.550678730E-2,1.478624344E-1
8.006916615E0,-2.354769707E-1,8.409380913E-2,1.474227905E-1
8.014911691E0,-1.639070511E-1,8.921414614E-2,1.290502548E-1
8.022907073E0,-1.275486946E-1,7.749944925E-2,5.438327789E-2
8.030902765E0,-5.190086365E-2,7.318142056E-2,-2.647495270E-2
8.038928917E0,3.290796280E-2,1.167807281E-1,-6.873559952E-2
8.046924301E0,4.933452606E-2,8.393669128E-2,-4.706859589E-2
8.054919761E0,-2.065610886E-2,4.655745625E-2,1.847267151E-3
8.062915144E0,-1.198716164E-1,2.182918787E-2,3.752326965E-2
8.070912066E0,-1.609001160E-1,-3.813338280E-2,-2.542018890E-2
8.078907064E0,-1.373567581E-1,-6.898248196E-2,-1.645851135E-2
8.086901910E0,-1.128492355E-1,-6.169116497E-2,2.460479736E-2
8.094928909E0,-1.512331963E-1,-5.470514297E-2,-3.281497955E-2
8.102924060E0,-9.046077728E-2,-3.107589483E-2,-1.403021812E-1
8.110919444E0,-9.747028351E-3,-2.671957016E-3,-3.192434311E-1
8.118915443E0,2.285394669E-1,-5.825161934E-4,-6.524991989E-2
8.124926519E0,2.642326355E-1,-2.007126808E-3,-7.124567032E-2
8.126911058E0,2.450790405E-1,4.108849168E-2,-4.969787598E-2
8.134906825E0,2.159686089E-1,6.518310308E-2,-6.996154785E-3
8.142902824E0,1.730432510E-1,1.393792033E-1,-7.168960571E-2
8.150928361E0,1.410193443E-1,1.873551607E-1,-1.126289368E-1
8.158924282E0,1.460485458E-1,1.371143460E-1,-9.857940674E-2
8.166919435E0,1.776900291E-1,5.777135491E-2,-7.408142090E-3
8.174914819E0,1.386451721E-2,-5.768993497E-2,6.539344788E-3
8.182909586E0,-2.561058998E-1,-2.942565084E-2,-6.753253937E-2
8.190906816E0,-3.477978706E-1,7.105684280E-2,9.395027161E-2
8.198901584E0,-2.395720482E-1,4.718875885E-2,1.413545609E-1
8.206927736E0,-4.401016235E-2,-7.660090923E-3,1.537256241E-1
8.214923735E0,7.884645462E-2,-9.644353390E-2,1.738662720E-1
8.222919119E0,5.169343948E-2,-4.464212060E-2,8.326053619E-2
8.230915041E0,1.333236694E-3,-3.599804640E-2,1.389122009E-1
8.238910423E0,9.730339050E-3,1.071208715E-2,1.297349930E-1
8.246907038E0,-5.043029785E-3,6.239095330E-2,1.207733154E-1
8.254900960E0,-2.090787888E-2,1.813768744E-1,2.714633942E-2
8.262928035E0,-6.345558167E-2,2.548076808E-1,-9.016513824E-2
8.270924342E0,-1.507182121E-1,2.177824676E-1,-1.177744865E-1
8.278919418E0,-1.692523956E-1,1.661471725E-1,-4.030513763E-2
8.286914416E0,-1.201720238E-1,2.148068994E-1,-7.965993881E-2
8.294910415E0,-1.496267319E-2,2.056684494E-1,-1.212592125E-1
8.302905490E0,2.377605438E-2,1.770310104E-1,-1.376738548E-1
8.310901874E0,1.056194305E-1,8.944705129E-2,-1.253094673E-1
8.318927411E0,1.046547890E-1,-3.727689385E-2,3.729724884E-2
8.326923410E0,-3.803730011E-3,-1.221978068E-1,7.843399048E-2
8.334918716E0,-1.146316528E-1,-3.877052665E-2,6.287670135E-2
8.342915099E0,-3.108048439E-1,-1.911762357E-2,2.523612976E-2
8.350909790E0,-3.564863205E-1,-1.158621311E-1,-1.451301575E-2
8.358905251E0,-3.176469803E-1,-2.549123466E-1,1.636600494E-2
8.366932018E0,-3.695025444E-1,-3.017436266E-1,6.073570251E-2
8.374926709E0,-3.771519661E-1,-2.891410589E-1,3.353404999E-2
8.382922785E0,-3.061132431E-1,-3.223759830E-1,-4.194641113E-2
8.390918707E0,-1.287608147E-1,-3.112627864E-1,-1.625709534E-1
8.398914398E0,7.885503769E-2,-3.135534823E-1,-1.946449280E-1
8.406910089E0,1.841111183E-1,-3.252696991E-1,-3.139796257E-1
8.414905165E0,2.078700066E-1,-3.316920996E-1,-4.092082977E-1
8.422900855E0,2.331109047E-1,-2.683501840E-1,-3.856835365E-1
8.430927624E0,2.587947845E-1,-1.837353110E-1,-2.348380089E-1
8.438922700E0,1.864123344E-1,-1.738576889E-1,8.732557297E-2
8.446918467E0,-1.544523239E-2,-2.268579006E-1,3.350706100E-1
8.454914158E0,-2.052655220E-1,-1.042444706E-1,3.190045357E-1
8.462909542E0,-2.735028267E-1,1.000497639E-1,1.992344856E-1
8.470905464E0,-1.857118607E-1,3.449909687E-1,4.312324524E-2
8.478931308E0,-8.807182312E-2,3.944682181E-1,3.925323486E-2
8.486926769E0,-1.945972443E-3,4.038439095E-1,4.789257050E-2
8.494922998E0,-2.185440063E-2,4.604295790E-1,5.298614502E-2
8.502917535E0,-6.248807907E-2,5.772701502E-1,8.211708069E-2
8.510913842E0,3.754854202E-2,6.268353462E-1,1.247024536E-2
8.518909456E0,1.555256844E-1,5.717885494E-1,-3.021383286E-2
8.526905223E0,3.072257042E-1,4.601894915E-1,-1.262187958E-3
8.534930453E0,2.937288284E-1,3.841768205E-1,1.405572891E-2
8.542925837E0,3.171291351E-1,3.211095929E-1,5.341768265E-2
8.550922758E0,2.894082069E-1,2.455817312E-1,1.188583374E-1
8.558917526E0,2.135314941E-1,1.936834902E-1,2.051839828E-1
8.566913756E0,1.559839249E-1,2.452472597E-1,1.762409210E-1
8.574908909E0,-9.315586090E-2,1.732224077E-1,4.039001465E-2
8.582904599E0,-3.389530182E-1,3.583547771E-1,-2.773284912E-3
8.590900521E0,-2.140069008E-1,3.067454100E-1,3.997030258E-1
8.598926674E0,-1.944084167E-1,1.244265139E-1,5.383396149E-2
8.614917209E0,-2.294263840E-1,-1.225167513E-2,-3.440318108E-1
8.622912593E0,2.389955521E-2,-1.003882885E-1,-2.694463730E-1
8.630908899E0,2.107133865E-1,-2.298117578E-1,-3.251438141E-1
8.638904282E0,3.597226143E-1,-4.371320903E-1,-4.338030815E-1
8.646930974E0,4.372935295E-1,-4.546244740E-1,-5.569539070E-1
8.654926127E0,3.462991714E-1,-3.582275510E-1,-3.601121902E-1
8.662922125E0,5.733823776E-2,-4.762263596E-1,-1.772961617E-1
8.670916816E0,-1.638636589E-1,-6.326740980E-1,-1.592645645E-1
8.678913123E0,-3.715000153E-1,-7.404408455E-1,-7.024240494E-2
8.686908505E0,-4.958820343E-1,-7.898733616E-1,-5.472135544E-2
8.694903581E0,-5.444636345E-1,-7.650495768E-1,3.580474854E-2
8.702930350E0,-4.992184639E-1,-7.012676001E-1,2.488517761E-2
8.710925732E0,-4.528722763E-1,-5.637300014E-1,9.396266937E-2
8.718921423E0,-3.309149742E-1,-3.989052176E-1,6.798601151E-2
8.726917115E0,-1.170091629E-1,-2.814935446E-1,-9.689331055E-3
8.734912268E0,3.024864197E-2,-1.433064342E-1,-1.124148369E-1
8.742908266E0,1.318635941E-1,1.139563322E-2,-1.730918884E-1
8.750903957E0,2.322940826E-1,1.384552419E-1,-1.734685898E-1
8.758930648E0,2.178010941E-1,2.115044594E-1,-1.669030190E-1
8.766925416E0,1.391506195E-1,2.632397115E-1,-1.751852036E-1
8.774921492E0,9.414720535E-2,2.525810301E-1,-1.165070534E-1
8.782916567E0,7.723522186E-2,2.060693800E-1,-9.085273743E-2
8.790912565E0,7.190561295E-2,1.760678887E-1,-1.175785065E-1
8.798907641E0,3.605175018E-2,1.694846749E-1,-6.334829330E-2
8.806903871E0,-7.585048676E-3,1.741657853E-1,-3.679561615E-2
8.814929485E0,1.568794250E-2,1.734028459E-1,3.115749359E-2
8.822925099E0,-4.073858261E-2,1.888954937E-1,7.628345490E-2
8.830920867E0,-5.337333679E-2,1.465704143E-1,1.074266434E-2
8.838916482E0,2.965927124E-3,1.330709159E-1,-4.486799240E-2
8.846911249E0,3.395938873E-2,1.220646203E-1,-3.238964081E-2
8.854907940E0,1.097774506E-2,1.014029980E-1,-2.133512497E-2
8.862903324E0,-3.617191315E-2,1.521219015E-1,3.296327591E-2
8.870929707E0,9.210824966E-2,1.852425635E-1,5.799913406E-2
8.878925090E0,1.284928322E-1,2.217441797E-1,1.033897400E-1
8.886920474E0,1.366934776E-1,3.207556605E-1,5.306673050E-2
8.894916164E0,1.881332397E-1,4.289809465E-1,-3.525733948E-2
8.902912548E0,2.384095192E-1,4.464691877E-1,-4.563140869E-2
8.910907624E0,2.361297607E-1,4.072449207E-1,-1.112546921E-1
8.918902623E0,2.460198402E-1,3.470355868E-1,-3.668789864E-1
8.926929775E0,1.454453468E-1,4.310022593E-1,-1.182603836E-2
8.934924543E0,3.596210480E-2,3.985823691E-1,7.483482361E-3
8.942920157E0,1.982641220E-2,1.756877899E-1,1.449842453E-1
8.950916232E0,-1.523103714E-1,-1.839718223E-2,9.694051743E-2
8.958911616E0,-1.981906891E-1,-7.156485319E-2,4.067516327E-2
8.966907923E0,-1.635503769E-2,-5.239677429E-2,1.017022133E-1
8.974902921E0,-5.914545059E-2,6.062000990E-3,-4.882812500E-2
8.982928150E0,-1.210255623E-1,-8.054938912E-2,-3.476190567E-2
8.990924765E0,-1.696414948E-1,-1.956418157E-1,-1.018767357E-1
8.998920225E0,-1.351218224E-1,-2.055217922E-1,-6.307601929E-3
9.006916531E0,-7.108402252E-2,-1.580049694E-1,-2.924299240E-2
9.014911299E0,1.765823364E-2,-1.006307006E-1,-4.374551773E-2
9.022906683E0,1.316843033E-1,-6.188526750E-2,-3.586196899E-2
9.030903912E0,3.727831841E-1,-9.902533889E-2,1.012377739E-1
9.038928757E0,4.660220146E-1,-1.115796864E-1,1.278243065E-1
9.046924756E0,5.040655136E-1,2.526336908E-2,9.291648865E-2
9.054920139E0,4.929823875E-1,1.839927733E-1,8.408451080E-2
9.062914984E0,3.426766396E-1,2.963933945E-1,4.790639877E-2
9.070911290E0,3.722791672E-1,1.102764308E-1,2.980270386E-1
9.078906673E0,5.566859245E-1,-2.817178369E-1,3.235464096E-1
9.086901980E0,6.340718269E-1,-4.768729210E-1,3.000040054E-1
9.094928210E0,2.933554649E-1,-2.477490008E-1,1.364135742E-1
9.102923285E0,-3.766856194E-1,2.338834703E-1,2.846994400E-1
9.110919591E0,-6.085982323E-1,4.299967289E-1,4.955072403E-1
9.118915513E0,-6.135964394E-1,4.552700818E-1,5.103335381E-1
9.126911205E0,-6.659936905E-1,4.054099917E-1,3.220133781E-1
9.134906280E0,-6.734142303E-1,4.103460908E-1,1.591906548E-1
9.142901740E0,-5.937247276E-1,5.221902132E-1,-4.075098038E-2
9.150928431E0,-4.633860588E-1,5.889587998E-1,-2.119731903E-1
9.158923814E0,-2.481637001E-1,5.855438113E-1,-4.026355743E-1
9.166920505E0,7.054471970E-2,5.364474654E-1,-7.383928299E-1
9.174914966E0,3.770494461E-1,8.791295290E-1,-1.383316994E0
9.182910888E0,6.510267258E-1,1.238805652E0,-4.685816765E-1
9.190906578E0,5.422506332E-1,9.750688076E-1,-4.230480194E-1
9.198901962E0,2.770080566E-1,4.600727856E-1,-5.087680817E-1
9.206927269E0,2.539348602E-1,2.119379938E-1,-4.136486053E-1
9.214923805E0,3.354411125E-1,2.075510919E-1,-4.967026711E-1
9.222919266E0,2.529697418E-1,8.978614956E-2,-3.357210159E-1
9.230915265E0,5.132579803E-2,-1.821868420E-1,-1.379327774E-1
9.238910263E0,-1.794714928E-1,-5.438731313E-1,3.807830811E-2
9.246906339E0,-3.533692360E-1,-6.734060645E-1,1.008038521E-1
9.254901107E0,-5.764827728E-1,-6.850420237E-1,1.483945847E-1
9.262928106E0,-7.394666672E-1,-7.076504230E-1,4.500484467E-2
9.270924104E0,-8.225784302E-1,-6.759204865E-1,-1.140203476E-1
9.278919257E0,-7.331786156E-1,-6.624222994E-1,-2.012095451E-1
9.286914564E0,-5.821046829E-1,-6.307688355E-1,-2.549719810E-1
9.294909946E0,-4.003725052E-1,-6.244095564E-1,-1.963882446E-1
9.302905945E0,-1.436729431E-1,-6.237891912E-1,-6.944704056E-2
9.310901714E0,-4.953861237E-2,-6.594015956E-1,3.348541260E-2
9.318927558E0,4.559755325E-2,-7.362481356E-1,3.447594643E-1
9.334918940E0,-2.228307724E-2,-8.027231097E-1,3.986110687E-1
9.342913939E0,-4.459238052E-2,-7.254742980E-1,3.086290359E-1
9.350910322E0,2.366018295E-2,-6.534996033E-1,1.083998680E-1
9.358905629E0,-6.979656219E-2,-5.766493082E-1,-1.945877075E-2
9.366931782E0,-6.385946274E-2,-5.817126036E-1,-2.721071243E-2
9.374927472E0,3.052711487E-2,-4.458325207E-1,-1.941156387E-1
9.382922548E0,-3.432178497E-2,-1.745898724E-1,-1.167559624E-1
9.390918931E0,-8.105134964E-2,-1.561528444E-2,8.056592941E-2
9.398913929E0,1.817631721E-1,3.853738308E-3,-2.778911591E-2
9.406909313E0,1.937794685E-1,-6.337165833E-4,1.192913055E-1
9.414904697E0,1.374526024E-1,2.529370785E-2,1.360735893E-1
9.422931464E0,-6.677627563E-2,-3.049159050E-2,2.679700851E-1
9.430926925E0,-3.754973412E-1,-2.493718863E-1,5.203132629E-1
9.438922616E0,-5.005855560E-1,-3.907394409E-1,5.574011803E-1
9.446918307E0,-5.755643845E-1,-3.781689405E-1,4.261198044E-1
9.454914305E0,-4.778280258E-1,-2.937484384E-1,4.047822952E-1
9.462908766E0,-2.703766823E-1,-2.764507532E-1,4.069275856E-1
9.470905380E0,-2.700710297E-2,-2.797405720E-1,4.434494972E-1
9.478900686E0,3.673076630E-2,-2.506513596E-1,4.282035828E-1
9.486926300E0,-2.448325157E-1,-1.678992510E-1,7.602167130E-1
9.494921992E0,-1.904144287E-1,1.666867733E-2,5.844392776E-1
9.502917605E0,2.605290413E-1,6.280994415E-2,4.002490044E-1
9.510913912E0,3.679409027E-1,9.814178944E-2,9.629583359E-2
9.518908988E0,3.812503815E-1,9.713339806E-2,3.210163116E-2
9.526905294E0,4.801087379E-1,1.037531793E-1,2.093172073E-2
9.534930831E0,3.122782707E-1,8.564200997E-2,-1.591777802E-2
9.542926522E0,-6.204938889E-2,1.345162094E-1,-1.878547668E-2
9.550922214E0,-3.322753906E-1,1.437748075E-1,2.549314499E-2
9.558917673E0,-3.688941002E-1,7.532233000E-2,4.493713379E-2
9.574909056E0,-5.223641396E-1,-3.384575248E-2,-1.537523270E-1
9.582904131E0,-3.671908379E-1,2.265194058E-2,-4.269995689E-1
9.590900360E0,-1.426897049E-1,1.489451826E-1,-7.014260292E-1
9.598926821E0,2.090072632E-2,2.210830301E-1,-9.445257187E-1
9.606921897E0,2.187542915E-1,3.237724006E-1,-1.090516567E0
9.614916972E0,3.677134514E-1,3.268921375E-1,-1.092658520E0
9.622912432E0,4.261808395E-1,3.444428742E-1,-1.046080112E0
9.630908739E0,4.133915901E-1,3.909873962E-1,-8.975043297E-1
9.638904353E0,4.057736397E-1,4.116369486E-1,-7.371377945E-1
9.646930198E0,4.104905128E-1,4.105964601E-1,-6.296448708E-1
9.654926197E0,3.917999268E-1,4.376058877E-1,-4.866023064E-1
9.662921964E0,4.378933907E-1,4.652324617E-1,-4.633941650E-1
9.670917348E0,4.193987846E-1,5.643513799E-1,-4.929594994E-1
9.678912654E0,2.245531082E-1,6.641902924E-1,-5.997676849E-1
9.686908652E0,5.972671509E-2,7.663468719E-1,-7.841048241E-1
9.694903190E0,6.732034683E-2,7.886155248E-1,-9.970574379E-1
9.702929650E0,1.907520294E-1,8.488327265E-1,-1.273344994E0
9.710926496E0,2.501749992E-1,8.937944174E-1,-1.236870766E0
9.718921647E0,4.261612892E-1,8.356317282E-1,-1.128415108E0
9.726917339E0,5.002470016E-1,7.008844614E-1,-1.112650394E0
9.734912338E0,4.575371742E-1,7.103067040E-1,-1.109582901E0
9.742907720E0,9.209113121E-1,7.540711164E-1,-7.370615005E-1
9.750904027E0,1.158196449E0,7.137789130E-1,-4.173140526E-1
9.758929949E0,1.225129128E0,6.122008562E-1,-8.848571777E-2
9.766925024E0,1.253834248E0,5.177034736E-1,1.012969017E-1
9.774921639E0,1.164586067E0,4.297571778E-1,2.723064423E-1
9.782915791E0,1.008872986E0,4.208768606E-1,3.490509987E-1
9.790912714E0,9.061946869E-1,4.074460268E-1,2.520704269E-1
9.798908096E0,6.268157959E-1,3.648753762E-1,5.318098068E-1
9.814929633E0,3.831787109E-1,2.001957595E-1,5.724792480E-1
9.822925631E0,1.060729027E-1,2.299992144E-1,2.693934441E-1
9.830920707E0,-2.198081017E-1,2.354815900E-1,2.219772339E-2
9.838916090E0,-3.522229195E-1,2.546473145E-1,-3.466382027E-1
9.846912704E0,-3.842306137E-2,4.583236296E-3,-8.684062958E-2
9.854907087E0,-2.784242630E-1,-2.938275635E-1,-1.902909279E-1
9.862903086E0,-3.092584610E-1,-3.419804573E-1,-2.120876312E-2
9.870929624E0,-9.421920776E-2,-3.237547576E-1,3.151845932E-2
9.878924622E0,-2.149238586E-1,-3.214125037E-1,-1.280303001E-1
9.886920082E0,-1.928601265E-1,-2.714477777E-1,-1.377248764E-1
9.894916620E0,-2.537713051E-1,-3.126038611E-1,-1.597719193E-1
9.902911772E0,-3.303837776E-1,-3.322323263E-1,-2.676343918E-2
9.910907386E0,-2.221374512E-1,-4.067599475E-1,2.737722397E-1
9.918902847E0,-1.744451523E-1,-5.236659646E-1,3.574285507E-1
9.926928922E0,-3.259096146E-1,-5.478074551E-1,4.514660835E-1
9.934924998E0,-5.033354759E-1,-4.560278952E-1,4.858055115E-1
9.942920612E0,-4.996552467E-1,-3.767133355E-1,4.375848770E-1
9.950916918E0,-5.151343346E-1,-2.929272354E-1,3.488087654E-1
9.958911994E0,-6.047215462E-1,-1.939606071E-1,2.624549866E-1
9.966907147E0,-5.360498428E-1,-1.847055554E-1,2.550268173E-1
9.974902761E0,-3.485975266E-1,-2.522534728E-1,2.317318916E-1
9.982928682E0,-2.720699310E-1,-2.815375328E-1,1.756863594E-1
9.990924912E0,-3.213672638E-1,-2.442545295E-1,2.002758980E-1
9.998919757E0,-3.758940697E-1,-2.121868581E-1,2.545218468E-1
1.000691606E1,-4.191975594E-1,-2.020063847E-1,2.884135246E-1
1.001491145E1,-4.913740158E-1,-1.755810827E-1,3.158545494E-1
1.002290675E1,-4.896922112E-1,-1.528770179E-1,3.442101479E-1
1.003090252E1,-5.310592651E-1,-1.435426474E-1,3.032422066E-1
1.003892775E1,-4.762983322E-1,-1.306967586E-1,2.544260025E-1
1.004692336E1,-3.041453362E-1,-7.880651951E-2,1.926093102E-1
1.005492029E1,-2.052578926E-1,1.442819834E-3,1.547708511E-1
1.006291544E1,-8.940982819E-2,8.885119855E-2,1.443815231E-1
1.007091113E1,-1.571226120E-2,1.309567839E-1,8.901643753E-2
1.007890713E1,-6.490707397E-3,2.121340781E-1,-5.383491516E-3
1.008690190E1,-3.081703186E-2,1.872671396E-1,-1.598310471E-2
1.009492774E1,-8.989334106E-3,1.527224332E-1,-1.751565933E-2
1.010292397E1,-2.710962296E-2,1.419190168E-1,-1.962709427E-2
1.011091912E1,-1.109356880E-1,1.996742785E-1,-3.953742981E-2
1.011891474E1,-1.671528816E-1,2.639341056E-1,-1.972866058E-2
1.012691135E1,-1.992335320E-1,3.080205917E-1,-5.994081497E-2
1.013490643E1,-1.650400162E-1,2.655282319E-1,-8.280849457E-2
1.014290212E1,-1.847205162E-1,1.894876063E-1,-7.362699509E-2
1.015092804E1,-1.263809204E-1,1.115210503E-1,-1.339292526E-2
1.015892342E1,-1.285753250E-1,4.865206778E-2,4.020261765E-2
1.016691904E1,-1.407389641E-1,-6.207183003E-3,8.694267273E-2
1.017491504E1,-1.104969978E-1,-1.485065818E-1,9.114551544E-2
1.018291111E1,-1.073246002E-1,-2.298577577E-1,-6.686782837E-2
1.019090642E1,-9.248590469E-2,-2.571846843E-1,-2.868595123E-1
1.019890157E1,-3.219509125E-2,-3.762291968E-1,-4.133977890E-1
1.020692772E1,-7.708358765E-2,-5.780115128E-1,-6.093807220E-1
1.021492403E1,-1.476182938E-1,-6.472052336E-1,-6.165513992E-1
1.022291841E1,-2.482519150E-1,-6.601653695E-1,-4.877963066E-1
1.023091472E1,-3.141670227E-1,-6.937888265E-1,-3.165841103E-1
1.023891010E1,-2.213425636E-1,-7.861149311E-1,-1.384072304E-1
1.024690641E1,-1.909461021E-1,-7.871704102E-1,-4.364919662E-2
1.025490179E1,-2.493023872E-1,-7.198882103E-1,4.186153412E-2
1.026292702E1,-2.715296745E-1,-4.548353255E-1,1.464653015E-1
1.027092302E1,-2.457385063E-1,-1.929179728E-1,2.174105644E-1
1.027891817E1,-2.280168533E-1,6.270319223E-3,2.120509148E-1
1.029491017E1,2.088289261E-1,4.397174716E-2,1.058697701E-1
1.030290586E1,3.615717888E-1,3.358447552E-2,-3.268051147E-2
1.031090117E1,3.903484344E-1,1.432294846E-1,-1.580014229E-1
1.031892709E1,4.822950363E-1,1.923031509E-1,-1.553688049E-1
1.032692340E1,4.595608711E-1,1.518375874E-1,-2.565269470E-1
1.033491847E1,3.953232765E-1,1.104060411E-1,-2.470006943E-1
1.034291416E1,2.515859604E-1,8.501341939E-2,-1.359801292E-1
1.035091008E1,9.507608414E-2,9.510216117E-2,-1.635551453E-3
1.035890547E1,9.675025940E-3,1.075916290E-1,1.320486069E-1
1.036693193E1,-3.491878510E-3,1.673223376E-1,2.013378143E-1
1.037492639E1,-1.059265137E-1,2.043192089E-1,2.644767761E-1
1.038292270E1,-1.364951134E-1,2.706597149E-1,2.101511955E-1
1.039091754E1,-1.181769371E-1,2.185062468E-1,2.405843735E-1
1.039891346E1,-5.697870255E-2,1.297773719E-1,1.508193016E-1
1.040691046E1,-2.696037292E-2,1.245270371E-1,3.413200378E-2
1.041490484E1,-8.235216141E-2,1.739894152E-1,-6.700754166E-2
1.042293107E1,-9.539556503E-2,1.945793331E-1,-1.268935204E-1
1.043092638E1,-5.341625214E-2,1.507886648E-1,-1.388411522E-1
1.043892238E1,-1.523017883E-2,1.049482822E-1,-7.010555267E-2
1.044691815E1,3.881549835E-2,1.260569990E-1,-2.404308319E-2
1.045491438E1,6.052970886E-2,1.326061189E-1,-1.000404358E-2
1.046290922E1,5.449485779E-2,1.653855443E-1,-5.656290054E-2
1.047090453E1,1.109247208E-1,1.862344444E-1,-1.296138763E-1
1.047893045E1,2.360424995E-1,1.285800636E-1,-6.081581116E-2
1.048692699E1,2.331151962E-1,7.581180334E-2,-1.395874023E-1
1.049492245E1,1.437964439E-1,9.251111746E-2,-1.894764900E-1
1.050291783E1,8.344650269E-2,1.144799292E-1,-1.964168549E-1
1.051091321E1,4.480218887E-2,3.196242452E-2,-1.914477348E-1
1.051890829E1,-3.362846375E-2,5.677342415E-4,-7.937097549E-2
1.052690329E1,-1.110320091E-1,6.511098146E-2,2.716016769E-2
1.053493067E1,-1.571698189E-1,7.468855381E-2,1.216206551E-1
1.054292667E1,-1.818528175E-1,3.392454982E-2,1.993889809E-1
1.055092244E1,-1.613168716E-1,2.880632877E-2,2.246694565E-1
1.055891651E1,-1.673412323E-1,3.516599536E-2,2.453002930E-1
1.056691320E1,-1.664190292E-1,5.531373620E-2,1.870603561E-1
1.057490882E1,-1.472301483E-1,5.102285743E-2,5.523061752E-2
1.058290482E1,-1.362938881E-1,8.033463359E-2,-8.776330948E-2
1.059089989E1,-7.633161545E-2,1.195454895E-1,-2.010707855E-1
1.059892612E1,1.403093338E-2,1.116789877E-1,-2.682933807E-1
1.060692151E1,1.379489899E-1,6.380721927E-2,-2.971892357E-1
1.061491681E1,1.428737640E-1,1.660913229E-3,-2.500019073E-1
1.062291281E1,1.348757744E-1,-1.264899969E-2,-9.855270386E-2
1.063090796E1,1.353802681E-1,4.725918174E-2,-3.158569336E-3
1.063890358E1,9.806060791E-2,3.759723902E-2,3.440237045E-2
1.064693073E1,-1.082944870E-2,3.011149168E-2,5.021095276E-2
1.065492581E1,-5.017900467E-2,6.079849601E-2,7.311296463E-2
1.066292173E1,-5.660247803E-2,1.007314920E-1,5.094814301E-2
1.067091711E1,-1.287465096E-1,1.138659120E-1,1.519584656E-2
1.067891257E1,-1.899313927E-1,8.352839947E-2,1.130294800E-2
1.068690911E1,-1.776437759E-1,8.892229199E-2,-6.147432327E-2
1.069490426E1,-9.664726257E-2,1.210246980E-1,-6.664609909E-2
1.070292918E1,-3.813838959E-2,5.044063926E-2,-7.588195801E-2
1.071092641E1,5.119657516E-2,-5.619913340E-3,-1.279773712E-1
1.071892149E1,1.317510605E-1,-8.339464664E-3,-1.064066887E-1
1.072691687E1,1.387815475E-1,-1.818525791E-2,-8.774852753E-2
1.073491279E1,4.901838303E-2,-1.129779220E-2,-4.378461838E-2
1.074290764E1,-8.282661438E-4,2.980828285E-3,-1.059579849E-2
1.075090356E1,1.978063583E-2,3.431195021E-2,9.869575500E-3
1.075892948E1,-5.734968185E-2,2.001306415E-2,3.240299225E-2
1.076692386E1,-1.201190948E-1,5.561083555E-2,1.182031631E-2
1.077492086E1,-1.239447594E-1,3.850179911E-2,4.459381104E-2
1.078291594E1,-1.337819099E-1,4.273557663E-2,-7.917881012E-3
1.079091225E1,-1.278095245E-1,7.561203837E-2,-7.047176361E-3
1.079890786E1,-7.463979721E-2,8.442002535E-2,-2.482175827E-2
1.080690386E1,-1.234531403E-2,5.514049530E-2,-1.111745834E-2
1.081493009E1,3.271961212E-2,4.285690188E-2,-4.492759705E-2
1.082292486E1,8.414268494E-3,4.261434078E-3,-2.166271210E-3
1.083092139E1,2.058696747E-2,6.500661373E-3,-1.249313354E-2
1.083891654E1,4.275989532E-2,1.114314795E-2,-3.750419617E-2
1.084691154E1,5.212306976E-3,2.755942941E-2,-1.009349823E-1
1.085490700E1,1.809787750E-2,4.368132353E-2,-1.261935234E-1
1.086290293E1,4.532623291E-2,3.308382630E-2,-1.658229828E-1
1.087092916E1,1.011943817E-2,5.578330159E-2,-1.622295380E-1
1.087892515E1,3.681421280E-2,4.745635390E-2,-1.224541664E-1
1.088692108E1,1.023626328E-2,1.037606597E-2,-1.205306053E-1
1.089491531E1,2.155828476E-2,2.251446247E-3,-8.716011047E-2
1.090291153E1,-1.038265228E-2,-2.011886239E-2,-9.435462952E-2
1.091090661E1,9.207725525E-4,-6.606906652E-3,-5.617189407E-2
1.091890238E1,-3.997373581E-2,2.129912376E-3,-3.750038147E-2
1.092692938E1,-6.116533279E-2,-1.318317652E-2,7.085800171E-3
1.093492422E1,-9.671306610E-2,-3.124198318E-2,6.122112274E-2
1.094292014E1,-1.345095634E-1,-1.355388761E-2,9.847736359E-2
1.095091622E1,-8.378458023E-2,6.216406822E-3,1.190047264E-1
1.095891091E1,-6.706523895E-2,4.144191742E-3,8.960819244E-2
1.096690729E1,-3.693532944E-2,-1.271718740E-2,2.260828018E-2
1.097490268E1,-2.947854996E-2,-2.511969209E-2,-5.312776566E-2
1.098292814E1,-3.044080734E-2,1.290729642E-2,-1.853656769E-1
1.099092444E1,1.163625717E-1,1.043916345E-1,-2.619667053E-1
1.099892014E1,1.791033745E-1,5.530494452E-2,-2.736716270E-1
1.101491067E1,1.493563652E-1,-8.548966050E-2,-2.752304077E-1
1.102290659E1,7.978582382E-2,-3.573355079E-2,-1.990928650E-1
1.103090259E1,-3.499078751E-2,1.364913583E-2,-1.490211487E-2
1.103892782E1,-1.563210487E-1,2.641141415E-3,2.172098160E-1
1.104692444E1,-1.803612709E-1,3.153520823E-2,2.757287025E-1
1.105491951E1,-2.376508713E-1,6.960147619E-2,2.430419922E-1
1.106291582E1,-2.307481766E-1,1.430106163E-1,1.891264915E-1
1.107091089E1,-1.367101669E-1,1.607509255E-1,1.650233269E-1
1.107890666E1,-1.001944542E-1,1.227655411E-1,9.488010406E-2
1.108690174E1,-8.539533615E-2,1.063046455E-1,-4.991626740E-2
1.109492843E1,3.719520569E-2,1.646089256E-1,-1.569719315E-1
1.110292350E1,1.898250580E-1,2.470146269E-1,-2.344512939E-1
1.111091981E1,2.937879562E-1,2.325815558E-1,-2.054791451E-1
1.111891458E1,3.428621292E-1,1.518743336E-1,-1.468830109E-1
1.112691088E1,3.964171410E-1,1.559639871E-1,9.312343597E-2
1.113490565E1,3.917322159E-1,1.948451251E-1,2.539863586E-1
1.114290203E1,1.539702415E-1,2.357398272E-1,1.964063644E-1
1.115092757E1,-1.907362938E-1,1.652932167E-1,6.473207474E-2
1.115892349E1,-3.003215790E-1,3.710672259E-2,-1.245665550E-1
1.116691918E1,-2.805829048E-1,-8.177778125E-2,-1.682538986E-1
1.117491426E1,-2.708816528E-1,-1.586572826E-1,-1.456522942E-1
1.118290995E1,-2.152404785E-1,-1.751295626E-1,-1.275677681E-1
1.119090595E1,-1.075577736E-1,-2.077687979E-1,-1.371717453E-1
1.119890133E1,-7.358789444E-2,-2.849041522E-1,-1.800818443E-1
1.120692756E1,-7.157325745E-3,-3.147790730E-1,-1.915979385E-1
1.121492264E1,5.924701691E-2,-2.688114047E-1,-1.742691994E-1
1.122291864E1,9.483385086E-2,-1.549016535E-1,-1.588997841E-1
1.123091425E1,1.046228409E-2,-5.775898695E-2,-1.086153984E-1
1.123890964E1,-7.470321655E-2,-4.457187653E-2,-7.090473175E-2
1.125490132E1,-2.085719109E-1,-1.828342676E-3,1.487350464E-2
1.126292748E1,-1.696186066E-1,2.712765336E-2,1.204676628E-1
1.127092324E1,-1.254682541E-1,6.714314222E-2,2.251086235E-1
1.127891832E1,-5.968952179E-2,8.676582575E-2,1.494560242E-1
1.128691401E1,-7.678699493E-2,1.055406332E-1,1.514806747E-1
1.129490940E1,-6.798791885E-2,8.790978789E-2,9.874486923E-2
1.130290562E1,-7.044839859E-2,6.072637439E-2,4.547786713E-2
1.131090132E1,-7.385015488E-2,6.957456470E-2,1.746654510E-2
1.131892693E1,-1.211733818E-1,9.057509899E-2,-1.410436630E-2
1.132692262E1,-6.430482864E-2,1.714160740E-1,5.873918533E-2
1.133491893E1,-1.733636856E-2,2.182065994E-1,6.236743927E-2
1.134291370E1,-3.603649139E-2,1.568740159E-1,1.407289505E-2
1.135090962E1,-1.530504227E-2,6.932926178E-2,-2.847719193E-2
1.135890508E1,-1.711320877E-2,-1.057398319E-2,-8.013725281E-3
1.136693123E1,-4.116725922E-2,-5.153027177E-2,-2.290821075E-2
1.137492723E1,-7.999944687E-2,-5.346840620E-2,3.915691376E-2
1.138292230E1,-9.054517746E-2,-9.547805786E-2,4.173231125E-2
1.139091792E1,-5.615949631E-2,-1.702385247E-1,6.460189819E-3
1.139891392E1,-1.528358459E-2,-2.033848166E-1,-1.120414734E-1
1.140690961E1,5.601835251E-2,-2.332966030E-1,-1.605377197E-1
1.141490499E1,9.815645218E-2,-2.412275970E-1,-1.967067719E-1
1.142293176E1,1.186790466E-1,-1.768752038E-1,-2.208209038E-1
1.143092683E1,1.318316460E-1,-1.288684309E-1,-2.639174461E-1
1.143892230E1,6.091213226E-2,-1.855043173E-1,-2.301430702E-1
1.144691829E1,-4.308700562E-2,-2.941365242E-1,-1.367979050E-1
1.145491306E1,-1.158008575E-1,-3.612463176E-1,-1.009807587E-1
1.146290937E1,-1.343150139E-1,-2.794113159E-1,-1.506519318E-1
1.147090383E1,-8.722543716E-2,-2.357295156E-1,-1.010427475E-1
1.147893060E1,-1.060228348E-1,-1.473927796E-1,-2.133131027E-1
1.149492167E1,1.235923767E-1,-2.946776152E-2,-2.199497223E-1
1.150291767E1,5.891370773E-2,-1.953369379E-2,-1.746168137E-1
1.151091305E1,-4.570484161E-3,1.079291105E-3,-3.359794617E-3
1.151890897E1,-1.210036278E-1,3.274011612E-2,2.188935280E-1
1.152690413E1,-2.419767380E-1,4.955825210E-2,3.528866768E-1
1.153493059E1,-3.400382996E-1,1.283979118E-1,3.618440628E-1
1.154292682E1,-2.966942787E-1,1.275985241E-1,2.921724319E-1
1.155092228E1,-2.055068016E-1,1.446781456E-1,2.296385765E-1
1.155891758E1,-2.001910210E-1,8.110588789E-2,5.370426178E-2
1.156691297E1,-1.930031776E-1,1.313723326E-1,-1.583256721E-1
1.157490896E1,1.905584335E-2,2.338385135E-1,-2.264432907E-1
1.158290373E1,1.919479370E-1,2.998896241E-1,-2.201972008E-1
1.159089942E1,3.320050240E-1,2.984846830E-1,-2.820305824E-1
1.159892558E1,4.983282089E-1,3.440029621E-1,-3.031196594E-1
1.160692188E1,5.565018654E-1,3.184921741E-1,-2.904081345E-1
1.161491665E1,4.288744926E-1,2.678691745E-1,-2.353658676E-1
1.162291357E1,3.137440681E-1,2.196875662E-1,-1.538720131E-1
1.163090865E1,1.903648376E-1,1.749291420E-1,-5.850553513E-2
1.163890311E1,6.202220917E-3,1.294370294E-1,7.539272308E-3
1.164693026E1,-1.864643097E-1,5.504027009E-2,5.177831650E-2
1.165492526E1,-2.769155502E-1,-1.716008782E-2,1.091690063E-1
1.166292134E1,-2.819080353E-1,-2.826917171E-2,1.049556732E-1
1.167091764E1,-2.428927422E-1,-5.319982767E-3,1.258916855E-1
1.167891272E1,-1.480207443E-1,-1.084506512E-2,1.193876266E-1
1.168690687E1,-6.423950195E-2,2.960413694E-3,4.706192017E-2
1.169490341E1,1.648187637E-2,2.206438780E-2,-4.386091232E-2
1.170292956E1,5.193424225E-2,-1.500099897E-3,-6.790065765E-2
1.171092564E1,6.903457642E-2,-1.982104778E-2,-8.058452606E-2
1.171892071E1,7.579612732E-2,-4.382640123E-3,-6.822538376E-2
1.172691602E1,7.755041122E-2,-2.938717604E-3,4.662513733E-3
1.173491202E1,3.141498566E-2,2.496790886E-2,3.734302521E-2
1.174290740E1,-4.678201675E-2,1.926666498E-2,8.801555634E-2
1.175090401E1,-1.043443680E-1,3.287139535E-2,1.040067673E-1
1.175892963E1,-1.062259674E-1,4.915028811E-2,7.404422760E-2
1.176692501E1,-7.260608673E-2,2.273544669E-2,1.571083069E-2
1.177492062E1,-7.107448578E-2,-8.154124022E-3,-5.920886993E-3
1.178291609E1,-6.391525269E-2,-3.885737062E-2,-4.067182541E-2
1.179091262E1,-8.007764816E-2,-3.830334544E-2,-7.161664963E-2
1.179890747E1,-9.293079376E-2,-4.009073973E-2,-9.181118011E-2
1.180690347E1,-4.168128967E-2,-8.495509624E-2,-8.524227142E-2
1.181492900E1,-4.287672043E-2,-7.026377320E-2,-5.253028870E-2
1.182292523E1,-2.182340622E-2,-7.244113088E-2,-3.234529495E-2
1.183092100E1,-2.179861069E-2,-5.784511566E-2,-4.608583450E-2
1.183891577E1,7.216453552E-3,-5.265641212E-2,-2.410793304E-2
1.184691177E1,1.709318161E-2,-5.712556839E-2,-3.326749802E-2
1.185490746E1,-2.145290375E-3,-3.523167968E-2,-7.324552536E-2
1.186290223E1,5.941724777E-2,-1.319080591E-2,-1.462602615E-1
1.187092900E1,1.151814461E-1,-2.682441473E-2,-1.538233757E-1
1.187892430E1,1.510066986E-1,2.496361732E-3,-1.631708145E-1
1.188692038E1,1.819553375E-1,5.774313211E-2,-1.030368805E-1
1.189491514E1,1.367440224E-1,1.099033058E-1,-8.400011063E-2
1.190291138E1,-5.170345306E-3,1.371793449E-1,-5.179452896E-2
1.191090745E1,-6.849384308E-2,1.567054391E-1,-1.398754120E-2
1.191890252E1,-9.734106064E-2,2.066447437E-1,2.782154083E-2
1.192692922E1,-1.597037315E-1,1.581408679E-1,8.637714386E-2
1.193492429E1,-2.349548340E-1,6.855693460E-2,4.028844833E-2
1.194291914E1,-2.260613441E-1,3.619879484E-2,-3.533601761E-2
1.195091506E1,-1.813244820E-1,-7.516741753E-4,-4.438018799E-2
1.195891175E1,-7.617378235E-2,-3.507730365E-2,5.483150482E-3
1.196690590E1,1.125764847E-2,-1.482634842E-1,-4.205513000E-2
1.197490221E1,4.136991501E-2,-1.584785581E-1,-3.223896027E-2
1.198292836E1,6.510543823E-2,-1.161209643E-1,3.278255463E-3
1.199092436E1,4.448413849E-2,-5.237549543E-2,1.156234741E-2
1.199891967E1,-6.089687347E-3,-2.222055197E-2,-3.135299683E-2
1.200691505E1,-6.040811539E-2,-3.026622534E-2,-2.719688416E-2
1.201491143E1,-4.470443726E-2,-3.346732259E-2,-1.392555237E-2
1.202290674E1,-9.602403641E-2,-8.246600628E-4,-1.155881882E-1
1.203090305E1,-4.071712494E-3,-1.564607024E-2,-1.331343651E-1
1.203892889E1,9.664821625E-2,-3.974607587E-2,-1.476359367E-1
1.204692427E1,1.226730347E-1,-7.097047567E-2,-1.186671257E-1
1.205491912E1,1.134309769E-1,-9.005045891E-2,-5.428218842E-2
1.206291535E1,5.488252640E-2,-5.402073264E-2,-3.853988647E-2
1.207091042E1,-9.674072266E-3,-7.273930311E-2,-1.651620865E-2
1.207890588E1,-5.206251144E-2,-1.198756695E-1,-4.284477234E-2
1.208690242E1,-8.734035492E-2,-1.211159825E-1,-4.754495621E-2
1.209492834E1,-9.204578400E-2,-1.175102293E-1,-7.575082779E-2
1.210292311E1,-1.121749878E-1,-1.590064466E-1,-8.395528793E-2
1.211091903E1,-1.096425056E-1,-1.927343309E-1,-3.606081009E-2
1.211891503E1,-8.641290665E-2,-2.374913692E-1,-1.139354706E-2
1.212691080E1,-8.007621765E-2,-1.977863610E-1,-1.291990280E-2
1.213490611E1,-8.787202835E-2,-8.175194263E-2,-5.294895172E-2
1.214290118E1,4.382133484E-4,5.189478397E-3,-2.382707596E-2
1.215092772E1,5.747985840E-2,1.480945945E-2,-3.294038773E-2
1.215892310E1,3.082180023E-2,3.552168608E-2,-9.006166458E-2
1.216691910E1,7.397842407E-2,6.306135654E-2,-9.722518921E-2
1.217491418E1,5.008888245E-2,8.076694608E-2,-1.043949127E-1
1.218290948E1,1.673746109E-2,5.250594020E-2,-7.576799393E-2
1.219090556E1,-1.831054688E-3,3.118067980E-2,-4.987716675E-2
1.219890086E1,-4.642343521E-2,1.198562980E-2,-2.424335480E-2
1.220692648E1,-7.408332825E-2,2.634206414E-2,6.045341492E-3
1.221492309E1,-3.717184067E-2,1.453974843E-2,-2.345561981E-2
1.222291786E1,-4.609203339E-2,2.183446288E-2,-3.353834152E-2
1.223091448E1,-4.324340820E-2,9.818106890E-3,-3.628921509E-2
1.223891017E1,-6.456327438E-2,1.690509915E-2,-2.929019928E-2
1.224690494E1,-5.759668350E-2,-1.923087239E-2,-3.631734848E-2
1.225490093E1,-6.559848785E-2,-5.265057087E-3,-4.527759552E-2
1.226292739E1,-5.003690720E-2,3.847330809E-3,-5.394554138E-2
1.227092301E1,-3.242635727E-2,-2.302122116E-2,-3.122282028E-2
1.227891870E1,-2.211141586E-2,-4.985964298E-2,-2.995777130E-2
1.228691501E1,5.213260651E-3,-6.242769957E-2,-6.959438324E-2
1.229490977E1,2.385473251E-2,-2.918264270E-2,-7.639217377E-2
1.230290431E1,4.139661789E-2,1.352059841E-2,-6.744909286E-2
1.231090054E1,1.089587212E-1,8.237522840E-2,-6.497287750E-2
1.231892700E1,1.622910500E-1,1.506081820E-1,-7.886886597E-2
1.232692300E1,2.037534714E-1,1.651973128E-1,8.196830750E-3
1.233491784E1,2.156300545E-1,1.668746173E-1,-1.371049881E-2
1.234291407E1,5.593252182E-2,1.634351909E-1,-6.018257141E-2
1.235090953E1,-6.248998642E-2,7.006195188E-2,-5.434417725E-2
1.235890522E1,-5.702543259E-2,-2.686861157E-2,-8.146286011E-2
1.236693138E1,-8.378171921E-2,-1.036951244E-1,-4.541683197E-2
1.237492699E1,-2.175168991E-1,-9.210065007E-2,8.648872375E-3
1.238292237E1,-3.795576096E-1,-3.284409642E-2,7.140159607E-2
1.239091783E1,-3.914875984E-1,-6.459936500E-2,1.030249596E-1
1.239891383E1,-3.295221329E-1,-1.628834307E-1,8.408117294E-2
1.240690883E1,-2.189254761E-1,-2.695736587E-1,5.927753448E-2
1.241490452E1,-1.496334076E-1,-2.767738402E-1,5.176925659E-2
1.242293098E1,-1.165418625E-1,-2.278433740E-1,2.778196335E-2
1.243092644E1,-1.008415222E-1,-1.831922233E-1,-7.469892502E-2
1.243892206E1,-1.159286499E-2,-1.575011313E-1,-1.479177475E-1
1.245491321E1,6.838369370E-2,-1.017493010E-2,-1.218066216E-1
1.246290882E1,1.664924622E-2,2.514469624E-2,-8.043241501E-2
1.247090428E1,2.262592316E-2,3.845006227E-2,-9.194755554E-2
1.247893105E1,-4.853248596E-3,7.058694959E-2,-6.282472610E-2
1.248692605E1,2.536964417E-2,1.026286185E-1,-6.740999222E-2
1.249492274E1,6.018257141E-2,1.248706579E-1,-8.621740341E-2
1.250291743E1,4.939079285E-2,1.325080991E-1,-4.748535156E-2
1.251091320E1,4.829645157E-2,1.422004104E-1,-5.674934387E-2
1.251890828E1,2.621984482E-2,1.227577329E-1,-4.492378235E-2
1.252690420E1,2.428388596E-2,1.006635129E-1,-3.627061844E-2
1.253493043E1,-1.959514618E-2,4.508563876E-2,5.008220673E-3
1.254292612E1,-7.440805435E-2,-1.992717385E-2,4.309749603E-2
1.255092150E1,-1.214566231E-1,-5.378413200E-2,5.440139771E-2
1.255891750E1,-1.732015610E-1,-3.725257516E-2,5.845689774E-2
1.256691342E1,-1.920013428E-1,-5.171811581E-2,6.296586990E-2
1.257490796E1,-1.569371223E-1,-6.602406502E-2,6.166934967E-3
1.258290388E1,-1.111569405E-1,-4.673036933E-2,1.259469986E-2
1.259089934E1,-3.795719147E-2,-2.514964342E-2,-3.742456436E-2
1.259892549E1,3.424406052E-2,1.548460126E-2,-1.130075455E-1
1.260692180E1,7.539653778E-2,2.996736765E-2,-1.455397606E-1
1.261491657E1,1.174893379E-1,4.932481050E-2,-1.380934715E-1
1.262291195E1,1.297883987E-1,3.282803297E-2,-1.292858124E-1
1.263090849E1,1.052117348E-1,2.362114191E-2,-1.096158028E-1
1.263890387E1,5.328559875E-2,2.635967731E-2,-5.989933014E-2
1.264692979E1,-1.915884018E-2,1.218935847E-2,-8.600711823E-3
1.265492518E1,-7.684755325E-2,5.349129438E-3,2.325057983E-2
1.266292110E1,-1.062817574E-1,9.731650352E-4,4.350614548E-2
1.267091679E1,-1.608848572E-1,-2.020052075E-2,4.556179047E-2
1.267891225E1,-1.570649147E-1,-5.480676889E-3,5.351877213E-2
1.269490332E1,-1.268420219E-1,-1.693814993E-2,1.967382431E-2
1.270292978E1,-9.974050522E-2,-1.173204184E-2,1.289367676E-3
1.271092548E1,-4.425096512E-2,-1.368525624E-2,-3.118801117E-2
1.271892109E1,-3.134250641E-3,5.759686232E-3,-4.451131821E-2
1.272691686E1,9.532451630E-3,-3.710806370E-3,-6.524419785E-2
1.273491155E1,3.214454651E-2,1.072162390E-2,-8.626365662E-2
1.274290701E1,3.366613388E-2,3.236594796E-2,-8.848428726E-2
1.275090355E1,4.506254196E-2,-2.011975646E-2,-9.332513809E-2
1.275892908E1,3.523349762E-2,-1.755350828E-2,-6.968879700E-2
1.276692631E1,8.794307709E-3,4.169046879E-3,-5.095529556E-2
1.277492024E1,-3.202724457E-2,4.259139299E-3,-3.221273422E-2
1.278291685E1,-7.524394989E-2,3.045848012E-2,-1.510143280E-3
1.279091154E1,-9.453058243E-2,6.211936474E-3,1.482772827E-2
1.279890669E1,-1.018323898E-1,1.056557894E-2,2.418994904E-3
1.280690331E1,-4.949378967E-2,2.740085125E-3,-7.438659668E-3
1.281492938E1,-2.116155624E-2,-1.029682159E-2,-2.444934845E-2
1.282292423E1,-1.664733887E-2,1.219671965E-2,-5.115604401E-2
1.283092046E1,-5.247402191E-2,4.887652397E-2,-3.745460510E-2
1.283891592E1,-6.159639359E-2,7.353356481E-2,-3.841209412E-2
1.284691153E1,-3.188133240E-2,1.077281833E-1,-1.824140549E-2
1.285490761E1,-4.725122452E-2,9.618204832E-2,-1.756000519E-2
1.286290291E1,-5.547666550E-2,2.685469389E-2,-7.287025452E-3
1.287092945E1,-7.598781586E-2,-6.794989109E-3,-2.550840378E-2
1.287892414E1,-7.312345505E-2,-2.382022142E-2,-3.371143341E-2
1.288692014E1,-1.844882965E-2,-1.685515046E-2,-4.840755463E-2
1.289491522E1,-2.913379669E-2,-2.487808466E-3,-2.421379089E-2
1.290291160E1,-4.032135010E-3,1.420781016E-2,1.205062866E-2
1.291090667E1,9.329319000E-3,-6.321370602E-4,2.177667618E-2
1.291890229E1,-3.146648407E-3,-1.416295767E-3,1.912164688E-2
1.292491367E1,9.027481079E-3,-6.952986121E-2,-5.660533905E-3
1.292692790E1,-1.252031326E-2,-1.030486524E-1,-3.917932510E-2
1.293492359E1,-4.294443130E-2,-8.733665943E-2,-4.280328751E-2
1.294291952E1,-4.437398911E-2,-8.108216524E-2,-4.423570633E-2
1.295091582E1,-4.352951050E-2,-7.224264741E-2,-6.471443176E-2
1.295891128E1,-4.062509537E-2,-1.782119274E-2,-6.576585770E-2
1.296690636E1,-6.748676300E-3,3.402015567E-2,-2.839660645E-2
1.297490236E1,1.503419876E-2,4.014700651E-2,-2.685022354E-2
1.298292905E1,1.061391830E-2,3.172034025E-2,-1.823711395E-2
1.299092351E1,-1.272249222E-2,5.442771316E-2,6.950378418E-3
1.299891920E1,2.612113953E-3,5.796226859E-2,4.142332077E-2
1.300691527E1,4.697227478E-2,3.741693497E-2,6.847524643E-2
1.301491058E1,4.589939117E-2,2.146601677E-2,1.407098770E-2
1.302290666E1,-1.230192184E-2,3.112763166E-3,-1.186800003E-2
1.303090227E1,-6.288766861E-2,2.287980914E-2,-2.618885040E-2
1.303892781E1,-1.203141212E-1,2.573409677E-2,-8.388471603E-2
1.304692296E1,-1.248397827E-1,1.412078738E-2,-5.318021774E-2
1.305491896E1,-1.292934418E-1,-1.445019245E-2,-4.169130325E-2
1.306291557E1,-8.084297180E-2,-1.557171345E-4,-6.455421448E-3
1.307091119E1,-6.573438644E-2,-1.240924001E-2,9.480476379E-3
1.307890596E1,-7.685852051E-2,3.289562464E-2,-1.536178589E-2
1.308690172E1,7.920742035E-3,3.060400486E-2,1.716566086E-2
1.309492811E1,8.303689957E-2,-1.006606221E-2,-4.360961914E-2
1.310292349E1,6.975078583E-2,-3.148779273E-2,-1.404404640E-1
1.311091926E1,1.402707100E-1,-4.419863224E-3,-2.444314957E-1
1.311891464E1,2.001328468E-1,6.865298748E-2,-2.948632240E-1
1.312691118E1,1.291294098E-1,8.905921876E-2,-3.560028076E-1
1.313490595E1,1.021542549E-1,1.764506847E-1,-4.638590813E-1
1.314290133E1,1.925978661E-1,1.226861775E-1,-3.567886353E-1
1.315092787E1,1.175560951E-1,-2.243319154E-2,-3.481354713E-1
1.315892348E1,-7.709026337E-3,-8.155497909E-2,-2.006525993E-1
1.316691794E1,-2.552928925E-1,5.004513264E-2,2.406740189E-2
1.317491486E1,-2.911291122E-1,3.542166948E-2,1.473798752E-1
1.318291063E1,-1.769361496E-1,1.858872175E-2,1.085524559E-1
1.319090563E1,-1.652703285E-1,-4.131668806E-2,1.383662224E-1
1.319890140E1,-2.053718567E-1,-2.733540535E-2,7.362174988E-2
1.320692717E1,-1.180796623E-1,1.067110896E-2,-1.589441299E-2
1.321492316E1,2.596187592E-2,5.362650752E-2,-1.650924683E-1
1.322291855E1,1.053495407E-1,2.509008348E-2,-2.404360771E-1
1.323091462E1,2.179336548E-1,3.014145792E-2,-2.675662041E-1
1.323890908E1,2.403669357E-1,3.293335438E-2,-2.139115334E-1
1.324690500E1,1.464266777E-1,3.346899152E-2,-1.585826874E-1
1.325490070E1,1.141724586E-1,5.359840393E-2,-1.047124863E-1
1.326292654E1,6.487607956E-2,1.439113915E-2,-1.663923264E-2
1.327092254E1,3.874778748E-2,-3.691716492E-2,3.897571564E-2
1.328691400E1,-1.824975014E-1,-1.017698050E-1,1.497926712E-1
1.329490907E1,-2.126526833E-1,-1.093596667E-1,1.262087822E-1
1.330290530E1,-1.635804176E-1,-1.015827507E-1,1.150035858E-2
1.331090046E1,4.496574402E-3,-3.365384042E-2,-8.583545685E-2
1.331892692E1,5.927848816E-2,-4.511180520E-2,-1.442122459E-1
1.332692253E1,1.091356277E-1,-2.368687093E-2,-2.838835716E-1
1.333491799E1,2.174549103E-1,3.350953758E-2,-2.041292191E-1
1.334291368E1,1.612896919E-1,1.853218675E-2,-2.039933205E-1
1.335090937E1,7.588386536E-2,-1.806640625E-2,-8.574724197E-2
1.335890499E1,6.877422333E-3,-4.271779954E-2,9.220123291E-3
1.336693175E1,-1.228590012E-1,-7.675158978E-2,7.895517349E-2
1.337492622E1,-2.061128616E-1,-1.149847955E-1,1.454682350E-1
1.338292191E1,-3.030362129E-1,-1.119379848E-1,2.449202538E-1
1.339091790E1,-3.728971481E-1,-1.344233155E-1,2.360372543E-1
1.339891398E1,-3.547630310E-1,-2.507635951E-2,7.203817368E-2
1.341490505E1,5.470132828E-2,1.195740402E-1,-2.236509323E-1
1.342289982E1,2.467670441E-1,1.741991490E-1,-2.324042320E-1
1.343092621E1,3.222813606E-1,1.328733861E-1,-2.130746841E-1
1.343892190E1,3.030204773E-1,9.357705712E-2,-2.568459511E-1
1.344691797E1,2.112016678E-1,5.207301676E-2,-1.272573471E-1
1.345491359E1,-3.370237350E-2,-1.475051045E-3,9.729862213E-3
1.346290836E1,-3.074336052E-1,-4.306398332E-2,1.782655716E-1
1.347090412E1,-4.389195442E-1,-2.484679222E-2,2.645516396E-1
1.347893020E1,-5.097446442E-1,-9.019032121E-3,2.759308815E-1
1.348692651E1,-3.419699669E-1,1.801922917E-3,2.473092079E-1
1.349492166E1,-2.892951965E-1,-9.709790349E-3,1.873574257E-1
1.350291704E1,-2.157020569E-1,8.066701889E-2,5.336189270E-2
1.351091335E1,-9.800434113E-2,1.105502620E-1,-5.570411682E-3
1.351890865E1,2.082061768E-2,1.254863292E-1,-9.726142883E-2
1.352690442E1,1.204953194E-1,1.184365600E-1,-1.772871017E-1
1.353493050E1,1.597933769E-1,1.328601390E-1,-1.538648605E-1
1.354292588E1,1.827702522E-1,1.017604470E-1,-1.571130753E-1
1.355092188E1,1.541194916E-1,1.116559580E-1,-3.216357231E-1
1.355891703E1,3.930792809E-1,1.607030481E-1,-2.914018631E-1
1.356691242E1,4.749975204E-1,1.374544948E-1,-2.907342911E-1
1.357490811E1,3.643636703E-1,9.437552094E-2,-2.074651718E-1
1.358290372E1,2.014994621E-1,1.037892401E-1,-1.266760826E-1
1.359093087E1,1.766777039E-2,1.158898622E-1,-2.933788300E-2
1.359892495E1,-1.614747047E-1,1.091144532E-1,3.725576401E-2
1.360692156E1,-2.556543350E-1,8.346761018E-2,1.100149155E-1
1.361491664E1,-2.978630066E-1,3.870499134E-2,1.929755211E-1
1.362291241E1,-3.896808624E-1,3.162614256E-2,1.338043213E-1
1.363090840E1,-2.986226082E-1,1.007423550E-2,1.621317863E-1
1.363890317E1,-2.121376991E-1,1.496303082E-2,8.704471588E-2
1.365492494E1,1.110219955E-1,1.569085568E-1,-5.828475952E-2
1.366292155E1,2.556853294E-1,1.578588337E-1,-1.895709038E-1
1.367091671E1,5.184726715E-1,1.902548671E-1,-1.874799728E-1
1.367891140E1,5.383191109E-1,1.499942392E-1,-2.032589912E-1
1.368690709E1,3.590178490E-1,1.092508659E-1,-1.441597939E-1
1.369490378E1,1.205668449E-1,1.428026557E-1,-7.345104218E-2
1.370292962E1,-7.220315933E-2,1.788866520E-1,-5.532217026E-2
1.371092624E1,-1.817975044E-1,1.744834483E-1,4.327774048E-3
1.371892093E1,-2.101011276E-1,1.248480305E-1,-5.583763123E-4
1.372691670E1,-1.592402458E-1,7.055654377E-2,1.571083069E-2
1.373491077E1,-1.427669525E-1,1.411839575E-2,1.812934875E-2
1.374290685E1,-1.343183517E-1,5.361746997E-3,-1.725387573E-2
1.375090400E1,-6.822538376E-2,1.283973455E-3,-7.550239563E-3
1.375892861E1,-3.952884674E-2,-1.026866212E-2,3.702831268E-2
1.376692500E1,-9.033441544E-2,-6.486819685E-2,5.465507507E-3
1.377492030E1,-9.767198563E-2,-1.524858326E-1,7.111549377E-3
1.378291600E1,-6.612110138E-2,-1.841486543E-1,-3.963327408E-2
1.379091292E1,2.313375473E-2,-2.124567628E-1,-1.201028824E-1
1.379890684E1,5.778884888E-2,-2.041719556E-1,-2.009825706E-1
1.380690307E1,1.217455864E-1,-1.712902784E-1,-2.201218605E-1
1.381492861E1,1.547842026E-1,-1.449671388E-1,-1.963443756E-1
1.382292460E1,1.779685020E-1,-1.584712565E-1,-2.465291023E-1
1.383092060E1,1.697869301E-1,-1.591884792E-1,-1.839599609E-1
1.383891606E1,7.126045227E-2,-1.499392986E-1,-1.602692604E-1
1.384691106E1,2.947473526E-2,-1.140787303E-1,-1.189537048E-1
1.385490737E1,-8.964538574E-4,-5.471869931E-2,9.265899658E-3
1.386290221E1,-5.867004395E-2,3.234253824E-2,5.248308182E-2
1.387092929E1,-1.300139427E-1,5.852751434E-2,9.977149963E-2
1.387892375E1,-2.203927040E-1,7.443229109E-2,1.278080940E-1
1.388691975E1,-2.537727356E-1,1.450917721E-1,1.131834984E-1
1.389491628E1,-1.924557686E-1,1.700187027E-1,8.997774124E-2
1.390291082E1,-6.294631958E-2,1.896162778E-1,-3.022909164E-2
1.391090674E1,1.237440109E-2,1.585259885E-1,-2.969264984E-3
1.391890190E1,6.170415878E-2,1.442084908E-1,-1.126570702E-1
1.392692836E1,1.383600235E-1,1.448123008E-1,-1.372280121E-1
1.393492405E1,1.468992233E-1,5.733713508E-2,-1.272544861E-1
1.394292005E1,1.384825706E-1,-3.181662410E-2,-2.128477097E-1
1.395091535E1,5.217695236E-2,2.551387250E-2,-2.779231071E-1
1.395891143E1,-6.788444519E-2,1.141082346E-1,-5.029201508E-3
1.396690735E1,1.348934174E-1,6.133541465E-2,-6.202840805E-2
1.397490220E1,1.126003265E-1,-1.206630096E-1,-1.142158508E-1
1.398292766E1,-1.138668060E-1,-2.528619170E-1,-1.920866966E-1
1.399092335E1,-2.611804008E-1,-1.836519539E-1,-1.072869301E-1
1.399891942E1,-1.620788574E-1,-9.005013108E-2,6.149005890E-2
1.400691511E1,-1.006016731E-1,-1.731668711E-1,-6.977081299E-2
1.401491050E1,-7.664775848E-2,-3.148206472E-1,-1.300749779E-1
1.402290619E1,3.256940842E-2,-3.375300467E-1,-1.416182518E-1
1.403090180E1,8.395195007E-2,-2.466692626E-1,-1.288518906E-1
1.403892834E1,1.192603111E-1,-1.554249525E-1,-9.038496017E-2
1.404692403E1,1.179447174E-1,-1.573459208E-1,-1.325273514E-1
1.405491872E1,1.139602661E-1,-1.329214424E-1,-1.216330528E-1
1.406291472E1,5.909347534E-2,-8.716931194E-2,-1.148514748E-1
1.407091049E1,2.729606628E-2,-3.251285851E-2,-6.164026260E-2
1.407890610E1,-3.202581406E-2,4.741904140E-2,2.154874802E-2
1.408690179E1,-4.276514053E-2,1.023012698E-1,6.817007065E-2
1.409492795E1,-1.204476357E-1,1.373686343E-1,5.246305466E-2
1.410292271E1,-1.147761345E-1,1.750613749E-1,1.802921295E-2
1.411091910E1,-3.090476990E-2,1.796877235E-1,4.183149338E-2
1.411891479E1,-3.385782242E-2,1.243834943E-1,-3.175258636E-3
1.412690917E1,-1.981925964E-2,1.024761945E-1,-4.361724854E-2
1.413490517E1,-1.250076294E-2,9.264042974E-2,-8.211612701E-2
1.414290148E1,-1.185417175E-2,8.044409752E-2,-1.091394424E-1
1.415092763E1,1.622152328E-2,3.732027113E-2,-1.013188362E-1
1.415892332E1,2.617406845E-2,3.966741264E-2,-6.577110291E-2
1.416691847E1,1.533794403E-2,2.304054797E-2,-4.293680191E-2
1.417491409E1,-2.860784531E-2,3.547492623E-2,-2.290296555E-2
1.418291016E1,-2.924251556E-2,7.679536939E-2,-6.054019928E-2
1.419090608E1,3.664493561E-3,8.483006060E-2,-5.510759354E-2
1.419890062E1,7.281112671E-2,1.069442779E-1,-1.886272430E-2
1.420692762E1,1.427917480E-1,1.666127145E-1,2.224445343E-3
1.421492277E1,1.178693771E-1,1.871544272E-1,-2.299976349E-2
1.422291846E1,6.993198395E-2,1.238979846E-1,-1.137619019E-1
1.423091469E1,5.356168747E-2,7.557773590E-2,-1.498899460E-1
1.423890946E1,2.257061005E-2,1.819685102E-3,-1.211385727E-1
1.424690554E1,3.892993927E-2,-1.182554662E-2,-1.086306572E-1
1.425490115E1,-1.409196854E-2,-3.512669355E-2,-1.057400703E-1
1.426292669E1,-1.070737839E-1,-6.790917367E-2,-8.440732956E-2
1.427092299E1,-1.420674324E-1,-1.332226992E-1,-3.246688843E-2
1.427891807E1,-9.147167206E-2,-1.924966574E-1,1.285362244E-2
1.428691384E1,-3.503322601E-2,-1.504291892E-1,-7.586002350E-3
1.429490953E1,-3.840923309E-3,-9.605228901E-2,-3.635406494E-2
1.430290491E1,-2.859544754E-2,-4.889818281E-2,-7.145786285E-2
1.431090114E1,-1.517152786E-2,6.513817608E-2,-1.040372849E-1
1.431892637E1,2.933073044E-2,9.293327481E-2,-7.192659378E-2
1.432692145E1,3.295087814E-2,1.082859635E-1,-8.751726151E-2
1.433491783E1,7.864475250E-3,1.519322693E-1,-6.241989136E-2
1.434291375E1,-2.225303650E-2,1.427515745E-1,-8.356571198E-3
1.435090921E1,-7.722139359E-2,8.540727198E-2,3.482341766E-3
1.435890490E1,-1.023678780E-1,5.423530191E-2,-3.610134125E-2
1.437492582E1,-2.191734314E-2,2.076365054E-3,-1.641893387E-2
1.438292205E1,5.772876740E-2,-5.995982140E-2,4.187107086E-3
1.439091774E1,6.030559540E-2,-8.418218046E-2,-7.291316986E-2
1.439891290E1,4.195404053E-2,-7.056567818E-2,-1.218590736E-1
1.440690943E1,4.427862167E-2,-3.090856969E-2,-2.680277824E-1
1.441490459E1,5.652046204E-2,-2.910459042E-2,-3.426151276E-1
1.442290020E1,5.496835709E-2,6.161978096E-2,-1.998000145E-1
1.443092643E1,-5.598735809E-2,2.379880100E-1,-5.999183655E-2
1.443892151E1,-1.445660591E-1,2.727119029E-1,1.533384323E-1
1.444691750E1,-5.053901672E-2,1.583696306E-1,1.218619347E-1
1.445491289E1,6.981086731E-2,-1.829509437E-2,-3.418397903E-2
1.446290827E1,1.508159637E-1,-1.300194412E-1,-8.159542084E-2
1.447090419E1,2.884550095E-1,-1.216428056E-1,3.448629379E-2
1.447893004E1,3.052377701E-1,7.108605653E-2,-3.039073944E-2
1.448692550E1,3.609013557E-1,2.545896769E-1,3.374419212E-1
1.449492150E1,7.090449333E-1,1.576833278E-1,2.690834999E-1
1.450291711E1,1.018428326E0,-2.075295299E-1,1.675844193E-1
1.451091319E1,1.106688023E0,-4.551051259E-1,-4.024558067E-1
1.451890857E1,1.408413410E0,-3.897402287E-1,-6.832699776E-1
1.452690395E1,1.689214230E0,-2.126349807E-1,-8.496785164E-1
1.453492980E1,1.646230221E0,4.794396460E-3,-9.578428268E-1
1.454292541E1,1.273944855E0,1.685918272E-1,-9.853129387E-1
1.455092141E1,9.161076546E-1,3.856290579E-1,-1.610675812E0
1.455891656E1,1.154950142E0,8.336399198E-1,-1.923893452E0
1.456691310E1,1.906880856E0,1.106976390E0,-1.598773003E0
1.457490825E1,2.069291592E0,1.038669705E0,-1.449541569E0
1.458290333E1,1.525875092E0,8.480481505E-1,-1.498070240E0
1.459089925E1,1.095033646E0,7.957154512E-1,-1.224643230E0
1.459892571E1,1.034132481E0,8.468837738E-1,-9.618601799E-1
1.460692025E1,9.781036377E-1,1.058741093E0,-9.635419846E-1
1.461491648E1,8.371334076E-1,1.060463786E0,-8.948898315E-1
1.462291225E1,5.708599091E-1,9.695249796E-1,-6.847920418E-1
1.463090824E1,2.351226807E-1,8.038144708E-1,-3.876891136E-1
1.463890355E1,-2.417097092E-1,6.233260036E-1,-9.950447083E-2
1.464692978E1,-6.485228539E-1,4.762197137E-1,9.094429016E-2
1.465492516E1,-1.051763535E0,4.661392570E-1,-4.413700104E-2
1.466292024E1,-1.169177532E0,4.898293614E-1,-2.364940643E-1
1.467091685E1,-1.204252720E0,3.532796502E-1,-3.004102707E-1
1.467891101E1,-1.192408085E0,8.826309443E-2,-3.077416420E-1
1.468690754E1,-1.026489258E0,-2.096672654E-1,-7.389020920E-2
1.469490262E1,-7.761540413E-1,-4.454501271E-1,4.048633575E-1
1.470292916E1,-6.916151047E-1,-7.510408163E-1,1.070427895E0
1.471092515E1,-6.420207024E-1,-9.796729088E-1,1.543125153E0
1.471892077E1,-5.015830994E-1,-1.217495561E0,1.898388386E0
1.472691615E1,-6.144847870E-1,-1.318687916E0,2.020444393E0
1.473491130E1,-8.982849121E-1,-1.353297114E0,2.036476612E0
1.474290730E1,-1.134146690E0,-1.389118433E0,1.969372272E0
1.475090299E1,-1.329649448E0,-1.267484307E0,1.499114037E0
1.475892876E1,-1.417978764E0,-1.170416951E0,1.021128178E0
1.476692507E1,-1.481838703E0,-1.136684775E0,6.106472015E-1
1.477492053E1,-1.481678486E0,-1.166500568E0,1.761550903E-1
1.478291676E1,-1.518771172E0,-1.156672597E0,6.933355331E-2
1.479091160E1,-1.545506001E0,-1.108947396E0,9.322881699E-2
1.479890691E1,-1.397716522E0,-1.113228321E0,3.049588203E-1
1.480690298E1,-1.176309586E0,-1.122956753E0,3.643126488E-1
1.481492845E1,-1.028411865E0,-1.087977290E0,3.248009682E-1
1.482292452E1,-9.791636467E-1,-9.109764099E-1,2.760829926E-1
1.483092014E1,-1.071532249E0,-7.666758895E-1,2.970585823E-1
1.483891583E1,-1.104114056E0,-7.533500791E-1,3.849000931E-1
1.484492690E1,-1.071239471E0,-7.471524477E-1,4.332394600E-1
1.484691067E1,-1.052085876E0,-8.189784288E-1,6.175928116E-1
1.485490698E1,-9.183325768E-1,-7.879345417E-1,4.908080101E-1
1.486290267E1,-1.631278992E-1,-4.498787820E-1,-2.713012695E-2
1.487092913E1,1.094048977E0,-2.308053523E-1,2.937598228E-1
1.487892482E1,1.234026909E0,-1.849093139E-1,3.802394867E-1
1.488692043E1,1.085266113E0,-2.359365821E-1,3.404955864E-1
1.489491559E1,1.020906925E0,-1.752856672E-1,7.848911285E-1
1.490291089E1,7.712798119E-1,1.223490015E-1,6.420402527E-1
1.491090697E1,5.518870354E-1,3.791457713E-1,8.882908821E-1
1.491890204E1,1.974229813E-1,4.279534519E-1,8.511095047E-1
1.492692812E1,-4.359674454E-2,4.142156839E-1,8.754944801E-1
1.493492381E1,1.796517372E-1,5.532473326E-1,5.937361717E-1
1.494291927E1,6.025657654E-1,7.994619012E-1,1.101226807E-1
1.495091558E1,1.093102932E0,9.297570586E-1,-5.821151733E-1
1.495891058E1,1.382913113E0,9.393146038E-1,-1.193012714E0
1.496690688E1,1.402794838E0,1.027833462E0,-1.086319923E0
1.497490142E1,1.111894131E0,8.682926297E-1,-4.751181602E-1
1.498292842E1,7.946691513E-1,6.594314575E-1,1.981735229E-3
1.499092357E1,7.434201241E-1,4.295707941E-1,4.837198257E-1
1.499891957E1,7.317566872E-1,3.646331429E-1,5.934119225E-1
1.500691518E1,5.740818977E-1,5.100997090E-1,5.382981300E-1
1.501491026E1,4.436717033E-1,7.000539303E-1,3.438978195E-1
1.502290595E1,2.699437141E-1,9.480376244E-1,-7.711267471E-2
1.503090141E1,-4.744577408E-2,1.073004007E0,-4.542527199E-1
1.503892749E1,-3.064637184E-1,1.010687590E0,-9.653797150E-1
1.504692348E1,-2.888507843E-1,8.682761192E-1,-1.215717793E0
1.505491864E1,-3.545479774E-1,6.576969624E-1,-1.565985203E0
1.506291425E1,-3.258461952E-1,4.062272310E-1,-1.764158249E0
1.507091064E1,-2.237091064E-1,1.670580506E-1,-1.710336685E0
1.507890571E1,-1.472945213E-1,-4.299885035E-2,-1.451455593E0
1.508690133E1,5.075669289E-1,-1.996662021E-1,-8.777346611E-1
1.509492725E1,6.739387512E-1,-6.445580721E-2,-6.458597183E-1
1.510292317E1,5.520544052E-1,1.271603107E-1,-2.091884613E-1
1.511091886E1,5.189442635E-1,2.028042078E-2,-8.160877228E-2
1.511891424E1,5.809035301E-1,-6.509751081E-2,-1.378331184E-1
1.512691001E1,4.283003807E-1,1.827621460E-2,-2.097058296E-1
1.513490532E1,2.163481712E-1,1.396176219E-1,-1.414761543E-1
1.514290047E1,6.045818329E-2,2.177248597E-1,-8.708333969E-2
1.515092778E1,-6.027221680E-4,1.611444950E-1,-4.975891113E-2
1.515892293E1,-2.102022171E-1,1.422665715E-1,-1.115269661E-1
1.516691862E1,-3.666048050E-1,1.135833263E-1,-1.961355209E-1
1.517491393E1,-4.250674248E-1,9.605562687E-2,-3.357167244E-1
1.518290877E1,-4.627223015E-1,1.315475106E-1,-5.817532539E-1
1.519090531E1,-5.050134659E-1,1.028359532E-1,-7.840256691E-1
1.519890038E1,-3.942155838E-1,2.713626623E-2,-1.006851673E0
1.520692715E1,-3.020429611E-1,-8.739751577E-2,-1.169683456E0
1.521492284E1,-2.619400024E-1,-2.035082579E-1,-1.179819107E0
1.522291823E1,-4.301252365E-1,-3.089179695E-1,-1.087831497E0
1.523091399E1,-6.806063652E-1,-3.914859295E-1,-8.290729523E-1
1.523890969E1,-7.471580505E-1,-5.017576814E-1,-5.405993462E-1
1.524690538E1,-7.170791626E-1,-5.997141004E-1,-2.688689232E-1
1.525490068E1,-8.058204651E-1,-6.502091885E-1,-4.201078415E-2
1.526292684E1,-9.291000366E-1,-6.435657740E-1,1.063957214E-1
1.527092283E1,-9.975461960E-1,-6.606930494E-1,1.878395081E-1
1.527891768E1,-1.078831196E0,-6.583853364E-1,1.743588448E-1
1.528691360E1,-1.123086929E0,-6.519126892E-1,1.862673759E-1
1.529490960E1,-1.191710949E0,-6.630508304E-1,2.177915573E-1
1.530290475E1,-1.226245403E0,-7.153514624E-1,2.389931679E-1
1.531090037E1,-1.120434761E0,-7.340914011E-1,3.110260963E-1
1.531892660E1,-8.226914406E-1,-7.536589503E-1,4.969043732E-1
1.532692159E1,-1.624436378E-1,-8.479472399E-1,1.018074512E0
1.533491790E1,3.620176315E-1,-8.586845398E-1,1.458114624E0
1.534291328E1,1.079303741E0,-7.401704788E-1,1.905793667E0
1.535090867E1,1.575578213E0,-3.829543889E-1,2.037238598E0
1.535890444E1,1.392625809E0,1.418965459E-1,1.488013744E0
1.536693090E1,7.686061859E-1,4.655333459E-1,1.083827972E0
1.537492620E1,1.174211502E-1,5.967152119E-1,5.917325020E-1
1.538292189E1,-1.591868401E-1,5.631794930E-1,2.513084412E-1
1.539091758E1,-2.956333160E-1,4.589934945E-1,1.007409096E-1
1.539891304E1,-3.061199188E-1,3.734731972E-1,5.649375916E-2
1.540690866E1,-2.458729744E-1,2.948440015E-1,5.918359756E-2
1.541490435E1,-9.138774872E-2,2.718612552E-1,-9.877967834E-2
1.542293027E1,1.064491272E-1,2.105362415E-1,-1.894016266E-1
1.543092627E1,3.057980537E-1,8.760756254E-2,-2.189383507E-1
1.543892158E1,3.442759514E-1,3.697621822E-2,-1.354546547E-1
1.544691734E1,2.431769371E-1,9.162738919E-2,-1.280546188E-1
1.545491296E1,1.184768677E-1,1.822834015E-1,-2.433948517E-1
1.546290811E1,2.248697281E-1,1.581996679E-1,-3.696870804E-1
1.547090434E1,3.316645622E-1,9.000045061E-2,-4.506063461E-1
1.547892995E1,3.458070755E-1,1.317001581E-1,-4.766030312E-1
1.548692588E1,1.903457642E-1,2.827231884E-1,-3.421773911E-1
1.549492064E1,1.920056343E-1,4.085133374E-1,-2.424445152E-1
1.550291664E1,3.119802475E-1,5.374577045E-1,-2.677917480E-1
1.551091272E1,2.877202034E-1,5.352532268E-1,-2.564134598E-1
1.551890803E1,2.238564491E-1,4.458576143E-1,-2.554464340E-1
1.552690372E1,9.719848633E-3,4.915636778E-1,-1.543788910E-1
1.553492964E1,-2.129817009E-1,3.606663942E-1,1.033535004E-1
1.554292533E1,-6.539030075E-1,2.882890701E-1,-3.455376625E-1
1.555092187E1,-4.540843964E-1,1.758834124E-1,1.920990944E-1
1.555891663E1,-2.880415916E-1,-1.235169470E-1,2.463150024E-1
1.557490809E1,-6.750779152E-1,-5.737560987E-1,1.072397232E-1
1.558290255E1,-6.744484901E-1,-5.389938354E-1,1.431818008E-1
1.559093017E1,-5.362205505E-1,-6.878598332E-1,1.109566689E-1
1.559892532E1,-2.478137016E-1,-8.099873066E-1,-1.719837189E-1
1.560692070E1,3.226137161E-2,-9.919634461E-1,1.299047470E-2
1.561491601E1,3.324270248E-2,-7.769970894E-1,-9.527492523E-2
1.562291209E1,2.223172188E-1,-4.718913138E-1,-2.577161789E-2
1.563090839E1,4.126849174E-1,-2.985246181E-1,3.727960587E-2
1.563890347E1,2.468810081E-1,-2.262985259E-1,1.823949814E-2
1.564693054E1,-1.168494225E-1,-2.194153368E-1,2.181587219E-1
1.565492500E1,-4.084668159E-1,-1.455939710E-1,3.047614098E-1
1.566292100E1,-5.875415802E-1,-8.030927181E-2,7.878336906E-1
1.567091662E1,-4.596023560E-1,7.695597410E-2,4.110498428E-1
1.567891115E1,-4.739270210E-1,1.962115169E-1,4.810204506E-1
1.568690684E1,-1.142740250E-1,3.385689855E-1,1.541976929E-1
1.569490307E1,9.735774994E-2,4.950600564E-1,-3.270349503E-1
1.570292892E1,2.741365433E-1,5.554776192E-1,-5.447478294E-1
1.571092522E1,4.581999779E-1,5.060259104E-1,-6.899218559E-1
1.571892038E1,4.702787399E-1,5.058022141E-1,-6.840415001E-1
1.572691638E1,6.364679337E-1,5.009301305E-1,-7.070813179E-1
1.573491107E1,8.554048538E-1,5.284729600E-1,-9.036240578E-1
1.574290745E1,7.872810364E-1,4.952439666E-1,-7.384877205E-1
1.575090314E1,7.458620071E-1,4.690274000E-1,-7.102913857E-1
1.575892922E1,5.307803154E-1,4.904121459E-1,-6.212611198E-1
1.576692468E1,5.209031105E-1,4.368360043E-1,-4.052934647E-1
1.577492006E1,4.382596016E-1,2.988331318E-1,-4.974718094E-1
1.578291544E1,2.403349876E-1,1.871180534E-1,-1.736378670E-1
1.579091206E1,7.859086990E-2,1.673489809E-1,-1.151371002E-2
1.579890683E1,-2.192511559E-1,2.765009403E-1,1.324954033E-1
1.581492806E1,1.306929588E-1,6.540589333E-1,-2.068281174E-2
1.582292459E1,1.263499260E-1,6.654391289E-1,-2.845330238E-1
1.583092059E1,-3.376054764E-2,5.766443610E-1,-4.947247505E-1
1.583891544E1,-4.889307022E-1,4.758323431E-1,-2.356042862E-1
1.584691074E1,-6.236462593E-1,4.765428901E-1,2.365303040E-1
1.585490674E1,-5.486931801E-1,2.113937736E-1,5.277581215E-1
1.586290212E1,-1.121570110E0,-1.993068457E-1,4.202809334E-1
1.587092866E1,-1.180651188E0,-6.398105621E-1,2.597928047E-1
1.587892435E1,-4.367518425E-1,-7.153280973E-1,1.498680115E-1
1.588692027E1,-7.345199585E-3,-7.594566941E-1,2.002816200E-1
1.589491473E1,1.514344215E-1,-8.685732484E-1,4.783706665E-1
1.590291081E1,2.429771423E-1,-7.656874657E-1,5.770158768E-1
1.591090619E1,2.154278755E-1,-8.167930245E-1,1.197703362E0
1.591890219E1,-4.579324722E-1,-7.292276621E-1,1.084379196E0
1.592692796E1,-7.960324287E-1,-6.591008902E-1,9.344296455E-1
1.593492396E1,-7.031984329E-1,-4.817577600E-1,4.525814056E-1
1.594291911E1,-7.151508331E-1,-2.897720039E-1,2.486181259E-2
1.595091572E1,-1.885604858E-2,1.089937687E-1,-3.587021828E-1
1.595890949E1,7.079248428E-1,3.028581142E-1,-6.251206398E-1
1.596690642E1,7.148137093E-1,1.424777508E-1,-1.284974098E0
1.597490157E1,9.326968193E-1,3.519201279E-2,-1.549177170E0
1.598292710E1,7.761201859E-1,1.543140411E-2,-1.137170792E0
1.599092341E1,3.358287811E-1,-2.036493123E-1,-2.825264931E-1
1.599891872E1,-2.399349213E-2,-4.429145157E-1,1.519994736E-1
1.600691472E1,-5.916776657E-1,-6.902181506E-1,3.285288811E-1
1.601490987E1,-9.463005066E-1,-8.914313912E-1,5.310063362E-1
1.602290618E1,-1.022738457E0,-9.022662044E-1,4.983000755E-1
1.603090117E1,-7.312655449E-1,-7.801420093E-1,6.440892220E-1
1.603892802E1,-4.892554283E-1,-4.029949903E-1,1.847782135E-1
1.605491840E1,2.899403572E-1,-2.052168101E-1,2.030634880E-1
1.606291417E1,2.288160324E-1,-1.630907208E-1,4.606342316E-1
1.607091048E1,2.294912338E-1,-2.744904160E-2,4.063334465E-1
1.607890609E1,2.354669571E-1,1.424135566E-1,1.860494614E-1
1.608690116E1,1.541180611E-1,3.084338009E-1,5.549335480E-2
1.609492770E1,1.014451981E-1,4.279622734E-1,-1.849236488E-1
