"Time (s)","Acceleration x (m/s^2)","Acceleration y (m/s^2)","Acceleration z (m/s^2)"
4.711240000E-3,-4.548983276E-1,-7.247248650E0,6.138733387E0
6.756166000E-3,-4.094084799E-1,-7.247248650E0,6.129156113E0
8.862324000E-3,-3.375824392E-1,-7.240066051E0,6.117185116E0
1.084486500E-2,-2.753331959E-1,-7.264008045E0,6.095637321E0
1.285902300E-2,-2.466027737E-1,-7.278373241E0,6.095637321E0
1.484356500E-2,-2.011129409E-1,-7.290344238E0,6.102819920E0
1.685749200E-2,-1.436520964E-1,-7.304709435E0,6.093243122E0
1.884080200E-2,-1.292868853E-1,-7.307103634E0,6.078877926E0
2.085496000E-2,-1.101332754E-1,-7.331045628E0,6.064512730E0
2.283811700E-2,-6.703764945E-2,-7.335834026E0,6.040570736E0
2.484912000E-2,-5.506663769E-2,-7.328651428E0,6.040570736E0
2.686612400E-2,-4.309562966E-2,-7.347805023E0,6.069301128E0
2.885105000E-2,-3.591302410E-2,-7.371747017E0,6.098031521E0
3.083351600E-2,-4.309562966E-2,-7.371747017E0,6.102819920E0
3.284851900E-2,-5.027823523E-2,-7.374141216E0,6.095637321E0
3.486336900E-2,-6.464344263E-2,-7.388506413E0,6.076483727E0
3.684637200E-2,-6.703764945E-2,-7.383718014E0,6.081272125E0
3.886022200E-2,-8.140286058E-2,-7.405265808E0,6.090848923E0
4.084399400E-2,-9.816227108E-2,-7.402871609E0,6.105214119E0
4.285807500E-2,-1.316810995E-1,-7.386112213E0,6.110002518E0
4.484269400E-2,-1.651999205E-1,-7.374141216E0,6.129156113E0
4.685569700E-2,-1.891419291E-1,-7.374141216E0,6.138733387E0
4.883993100E-2,-2.226607651E-1,-7.383718014E0,6.155492783E0
5.085416500E-2,-2.609679997E-1,-7.369352818E0,6.172252178E0
5.283755400E-2,-2.801215947E-1,-7.362170219E0,6.184223175E0
5.485255700E-2,-3.184288144E-1,-7.366958618E0,6.208165169E0
5.683509900E-2,-3.351882398E-1,-7.354987621E0,6.253654957E0
5.884894800E-2,-3.423708379E-1,-7.359776020E0,6.265625954E0
6.086279900E-2,-3.711012602E-1,-7.364564419E0,6.287173748E0
6.284710900E-2,-3.687070608E-1,-7.359776020E0,6.303933144E0
6.486126700E-2,-3.687070608E-1,-7.362170219E0,6.308721542E0
6.684557800E-2,-3.615244627E-1,-7.400477409E0,6.311115742E0
6.885973500E-2,-3.447650373E-1,-7.390900612E0,6.311115742E0
7.084212300E-2,-3.375824392E-1,-7.388506413E0,6.311115742E0
7.285751100E-2,-3.495534360E-1,-7.395689011E0,6.308721542E0
7.484182300E-2,-3.447650373E-1,-7.400477409E0,6.313509941E0
7.685567200E-2,-3.495534360E-1,-7.388506413E0,6.299144745E0
7.883844500E-2,-3.423708379E-1,-7.393294811E0,6.291962147E0
8.085321700E-2,-3.351882398E-1,-7.402871609E0,6.277596951E0
8.283637500E-2,-3.423708379E-1,-7.419631004E0,6.277596951E0
8.485114700E-2,-3.639186621E-1,-7.414842606E0,6.251260757E0
8.683391900E-2,-3.687070608E-1,-7.393294811E0,6.236895561E0
8.884869300E-2,-3.663128614E-1,-7.393294811E0,6.224924564E0
9.086254200E-2,-3.902548850E-1,-7.376535416E0,6.193799973E0
9.284616100E-2,-4.070142806E-1,-7.371747017E0,6.174646378E0
9.486001000E-2,-4.189853072E-1,-7.359776020E0,6.126761913E0
9.684378400E-2,-4.405331016E-1,-7.338228226E0,6.090848923E0
9.885794100E-2,-4.405331016E-1,-7.331045628E0,6.078877926E0
1.008418680E-1,-4.453215301E-1,-7.316680431E0,6.026205540E0
1.028547940E-1,-4.572925270E-1,-7.299921036E0,6.004657745E0
1.048391810E-1,-4.692635238E-1,-7.290344238E0,5.978321552E0
1.068532620E-1,-4.908113480E-1,-7.287950039E0,5.937620163E0
1.088373420E-1,-5.027823448E-1,-7.290344238E0,5.923254967E0
1.108511920E-1,-5.051765442E-1,-7.283161640E0,5.913678169E0
1.128351950E-1,-5.147533417E-1,-7.299921036E0,5.901707172E0
1.148496610E-1,-5.147533417E-1,-7.295132637E0,5.882553577E0
1.168332790E-1,-4.979939461E-1,-7.307103634E0,5.817910194E0
1.188465140E-1,-5.171475410E-1,-7.302315235E0,5.767632008E0
1.208610560E-1,-5.267243981E-1,-7.290344238E0,5.755661011E0
1.228449830E-1,-5.243301988E-1,-7.283161640E0,5.755661011E0
1.248598320E-1,-5.123591423E-1,-7.297526836E0,5.767632008E0
1.268426040E-1,-5.027823448E-1,-7.314286232E0,5.781997204E0
1.288570700E-1,-5.075707436E-1,-7.335834026E0,5.803544998E0
1.308409960E-1,-5.219359994E-1,-7.321468830E0,5.805939198E0
1.328545380E-1,-5.171475410E-1,-7.321468830E0,5.801150799E0
1.348388490E-1,-5.291185975E-1,-7.314286232E0,5.774814606E0
1.368524680E-1,-5.147533417E-1,-7.311892033E0,5.767632008E0
1.388367790E-1,-5.027823448E-1,-7.321468830E0,5.774814606E0
1.408505520E-1,-5.099649429E-1,-7.307103634E0,5.808333397E0
1.428342470E-1,-5.075707436E-1,-7.302315235E0,5.839457989E0
1.448480970E-1,-4.884171486E-1,-7.323863029E0,5.901707172E0
1.468629470E-1,-4.860229492E-1,-7.335834026E0,5.930437565E0
1.488460270E-1,-4.812345505E-1,-7.333439827E0,5.947196960E0
1.508592610E-1,-4.644751251E-1,-7.340622425E0,5.942408562E0
1.528441870E-1,-4.501099288E-1,-7.314286232E0,5.942408562E0
1.548588840E-1,-4.453215301E-1,-7.314286232E0,5.956773758E0
1.568426560E-1,-4.261679053E-1,-7.343016624E0,5.983109951E0
1.588558140E-1,-4.070142806E-1,-7.331045628E0,5.990292549E0
1.608389710E-1,-4.070142806E-1,-7.328651428E0,5.990292549E0
1.628531290E-1,-3.902548850E-1,-7.357381821E0,6.011840343E0
1.648383620E-1,-3.830722570E-1,-7.364564419E0,6.030993938E0
1.668509040E-1,-3.543418646E-1,-7.354987621E0,6.030993938E0
1.688352160E-1,-3.519476354E-1,-7.354987621E0,6.030993938E0
1.708497570E-1,-3.591302633E-1,-7.359776020E0,6.035782337E0
1.728324530E-1,-3.663128614E-1,-7.371747017E0,6.050147533E0
1.748479180E-1,-3.519476354E-1,-7.371747017E0,6.069301128E0
1.768610760E-1,-3.591302633E-1,-7.376535416E0,6.064512730E0
1.788448480E-1,-3.639186621E-1,-7.388506413E0,6.057330132E0
1.808596210E-1,-3.830722570E-1,-7.405265808E0,6.071695328E0
1.828427010E-1,-3.926490843E-1,-7.414842606E0,6.078877926E0
1.848559350E-1,-4.261679053E-1,-7.429207802E0,6.088454723E0
1.868407850E-1,-4.501099288E-1,-7.424419403E0,6.105214119E0
1.888543270E-1,-4.620809257E-1,-7.424419403E0,6.102819920E0
1.908380230E-1,-5.027823448E-1,-7.402871609E0,6.086060524E0
1.928524870E-1,-5.291185975E-1,-7.414842606E0,6.083666325E0
1.948367990E-1,-5.458779931E-1,-7.419631004E0,6.090848923E0
1.968494940E-1,-5.698199868E-1,-7.424419403E0,6.112396717E0
1.988334980E-1,-5.770025849E-1,-7.441178799E0,6.121973515E0
2.008482710E-1,-5.770025849E-1,-7.448361397E0,6.112396717E0
2.028620440E-1,-5.961562395E-1,-7.472303391E0,6.112396717E0
2.048466620E-1,-6.057330370E-1,-7.474697590E0,6.110002518E0
2.068598960E-1,-6.200982332E-1,-7.462726593E0,6.093243122E0
2.088436690E-1,-6.296750307E-1,-7.467514992E0,6.076483727E0
2.108578260E-1,-6.344634295E-1,-7.460332394E0,6.076483727E0
2.128409070E-1,-6.464344859E-1,-7.481880188E0,6.076483727E0
2.148556790E-1,-6.488286853E-1,-7.498639584E0,6.093243122E0
2.168393760E-1,-6.560112834E-1,-7.508216381E0,6.100425720E0
2.188531480E-1,-6.368576288E-1,-7.534552574E0,6.105214119E0
2.208368440E-1,-6.177040339E-1,-7.541735172E0,6.095637321E0
2.228513860E-1,-6.200982332E-1,-7.553706169E0,6.100425720E0
2.248344660E-1,-6.009446383E-1,-7.568071365E0,6.095637321E0
2.268495460E-1,-5.865794420E-1,-7.582436562E0,6.093243122E0
2.288334730E-1,-5.793967843E-1,-7.584830761E0,6.098031521E0
2.308458610E-1,-5.674257874E-1,-7.601590633E0,6.078877926E0
2.328611720E-1,-5.578489900E-1,-7.625532627E0,6.069301128E0
2.348461760E-1,-5.578489900E-1,-7.625532627E0,6.074089527E0
2.368581790E-1,-5.578489900E-1,-7.630321026E0,6.090848923E0
2.388421830E-1,-5.530605912E-1,-7.642292023E0,6.102819920E0
2.408560320E-1,-5.506663918E-1,-7.642292023E0,6.141127586E0
2.428400360E-1,-5.315127969E-1,-7.668628216E0,6.148310184E0
2.448556540E-1,-5.219359994E-1,-7.666234016E0,6.141127586E0
2.468384270E-1,-5.243301988E-1,-7.661445618E0,6.141127586E0
2.488520460E-1,-5.171475410E-1,-7.673416615E0,6.141127586E0
2.508357410E-1,-5.099649429E-1,-7.671022415E0,6.138733387E0
2.527778220E-1,-4.955997467E-1,-7.668628216E0,6.126761913E0
2.549218250E-1,-5.123591423E-1,-7.666234016E0,6.145915985E0
2.568449830E-1,-5.123591423E-1,-7.666234016E0,6.145915985E0
2.588622170E-1,-5.099649429E-1,-7.682993412E0,6.160281181E0
2.608458360E-1,-5.195417404E-1,-7.687781811E0,6.157886982E0
2.628599930E-1,-5.123591423E-1,-7.687781811E0,6.160281181E0
2.648427650E-1,-5.027823448E-1,-7.675810814E0,6.157886982E0
2.668570000E-1,-4.979939461E-1,-7.678205013E0,6.162675381E0
2.688410030E-1,-4.860229492E-1,-7.687781811E0,6.160281181E0
2.708550840E-1,-4.860229492E-1,-7.690176010E0,6.169857979E0
2.728390870E-1,-4.908113480E-1,-7.702147007E0,6.177040577E0
2.748545530E-1,-4.572925270E-1,-7.706935406E0,6.191405773E0
2.768375560E-1,-4.453215301E-1,-7.723694801E0,6.215347767E0
2.788514060E-1,-4.477157295E-1,-7.728483200E0,6.210559368E0
2.808354090E-1,-4.333505034E-1,-7.742848396E0,6.189011574E0
2.828489510E-1,-4.261679053E-1,-7.740454197E0,6.179434776E0
2.848631850E-1,-4.333505034E-1,-7.718906403E0,6.172252178E0
2.868468800E-1,-4.213795066E-1,-7.740454197E0,6.167463779E0
2.888612690E-1,-4.046200812E-1,-7.771578789E0,6.169857979E0
2.908444260E-1,-3.926490843E-1,-7.771578789E0,6.184223175E0
2.928594300E-1,-3.711012602E-1,-7.788338184E0,6.198588371E0
2.948431250E-1,-3.711012602E-1,-7.783549786E0,6.198588371E0
2.968560520E-1,-3.663128614E-1,-7.785943985E0,6.210559368E0
2.988401320E-1,-3.758896589E-1,-7.800309181E0,6.220136166E0
3.008533670E-1,-3.734954596E-1,-7.805097580E0,6.222530365E0
3.028379080E-1,-3.758896589E-1,-7.805097580E0,6.244078159E0
3.048517580E-1,-3.806780577E-1,-7.800309181E0,6.272808552E0
3.068364540E-1,-3.854664862E-1,-7.814674377E0,6.287173748E0
3.088499950E-1,-3.998316824E-1,-7.826645374E0,6.313509941E0
3.108327690E-1,-4.118026793E-1,-7.831433773E0,6.320692539E0
3.128477720E-1,-4.118026793E-1,-7.833827972E0,6.327875137E0
3.148631600E-1,-4.237737060E-1,-7.829039574E0,6.320692539E0
3.168456250E-1,-4.237737060E-1,-7.809885979E0,6.332663536E0
3.188592440E-1,-4.213795066E-1,-7.812280178E0,6.339846134E0
3.208431700E-1,-4.333505034E-1,-7.814674377E0,6.366182327E0
3.228576360E-1,-4.357447028E-1,-7.809885979E0,6.382941723E0
3.248417160E-1,-4.357447028E-1,-7.814674377E0,6.378153324E0
3.268552570E-1,-4.429273009E-1,-7.821856976E0,6.375759125E0
3.288388770E-1,-4.548983276E-1,-7.812280178E0,6.380547523E0
3.308531100E-1,-4.572925270E-1,-7.802703381E0,6.378153324E0
3.328364990E-1,-4.333505034E-1,-7.809885979E0,6.378153324E0
3.348508870E-1,-4.477157295E-1,-7.809885979E0,6.382941723E0
3.368349670E-1,-4.596867263E-1,-7.807491779E0,6.416460514E0
3.388481240E-1,-4.572925270E-1,-7.814674377E0,6.416460514E0
3.408625900E-1,-4.668693244E-1,-7.817068577E0,6.423643112E0
3.428463620E-1,-4.908113480E-1,-7.805097580E0,6.423643112E0
3.448568270E-1,-4.884171486E-1,-7.797914982E0,6.423643112E0
3.468432150E-1,-4.836287498E-1,-7.802703381E0,6.430825710E0
3.488589110E-1,-5.051765442E-1,-7.805097580E0,6.421248913E0
3.508422990E-1,-5.291185975E-1,-7.788338184E0,6.402095318E0
3.528567640E-1,-5.243301988E-1,-7.793126583E0,6.399701118E0
3.548408450E-1,-5.315127969E-1,-7.771578789E0,6.390124321E0
3.568543860E-1,-5.123591423E-1,-7.757213593E0,6.375759125E0
3.588380060E-1,-5.003881454E-1,-7.754819393E0,6.378153324E0
3.608518550E-1,-5.363011956E-1,-7.742848396E0,6.380547523E0
3.628352430E-1,-5.386953950E-1,-7.735665798E0,6.378153324E0
3.648500160E-1,-5.363011956E-1,-7.745242596E0,6.392518520E0
3.668340950E-1,-5.243301988E-1,-7.742848396E0,6.378153324E0
3.688473300E-1,-5.291185975E-1,-7.742848396E0,6.375759125E0
3.708617180E-1,-5.267243981E-1,-7.718906403E0,6.366182327E0
3.728454910E-1,-5.386953950E-1,-7.694964409E0,6.354211330E0
3.748604940E-1,-5.363011956E-1,-7.694964409E0,6.349422932E0
3.768432670E-1,-5.219359994E-1,-7.678205013E0,6.347028732E0
3.788581170E-1,-5.075707436E-1,-7.678205013E0,6.335057735E0
3.808408130E-1,-5.147533417E-1,-7.671022415E0,6.327875137E0
3.828549700E-1,-5.386953950E-1,-7.687781811E0,6.332663536E0
3.848378190E-1,-5.099649429E-1,-7.685387611E0,6.337451935E0
3.868535150E-1,-5.051765442E-1,-7.682993412E0,6.335057735E0
3.888371340E-1,-5.195417404E-1,-7.699752808E0,6.318298340E0
3.908500610E-1,-5.195417404E-1,-7.682993412E0,6.296750546E0
3.928350640E-1,-5.051765442E-1,-7.682993412E0,6.294356346E0
3.948494520E-1,-4.932055473E-1,-7.661445618E0,6.277596951E0
3.968629940E-1,-4.812345505E-1,-7.668628216E0,6.275202751E0
3.988461520E-1,-4.620809257E-1,-7.668628216E0,6.289567947E0
4.008602310E-1,-4.548983276E-1,-7.651868820E0,6.270414352E0
4.028448510E-1,-4.477157295E-1,-7.644686222E0,6.270414352E0
4.048590080E-1,-4.189853072E-1,-7.635109425E0,6.263231754E0
4.068423950E-1,-4.070142806E-1,-7.659051418E0,6.248866558E0
4.088565530E-1,-4.070142806E-1,-7.644686222E0,6.239289761E0
4.108394020E-1,-4.189853072E-1,-7.623138428E0,6.239289761E0
4.128537910E-1,-4.141969085E-1,-7.611167431E0,6.248866558E0
4.148375630E-1,-4.141969085E-1,-7.611167431E0,6.270414352E0
4.168513360E-1,-4.165911078E-1,-7.606379032E0,6.299144745E0
4.188351090E-1,-3.830722570E-1,-7.603984833E0,6.275202751E0
4.208495740E-1,-3.782838583E-1,-7.601590633E0,6.263231754E0
4.228637310E-1,-3.782838583E-1,-7.582436562E0,6.246472359E0
4.248467340E-1,-3.519476354E-1,-7.584830761E0,6.232107162E0
4.268612770E-1,-3.447650373E-1,-7.580042362E0,6.229712963E0
4.288452800E-1,-3.256114423E-1,-7.568071365E0,6.217741966E0
4.308588220E-1,-3.064578176E-1,-7.575253963E0,6.217741966E0
4.328430560E-1,-2.968810201E-1,-7.572859764E0,6.222530365E0
4.348581370E-1,-2.825157940E-1,-7.580042362E0,6.210559368E0
4.368416010E-1,-2.873041928E-1,-7.582436562E0,6.212953568E0
4.388544510E-1,-2.801215947E-1,-7.599195957E0,6.217741966E0
4.408388390E-1,-2.633621991E-1,-7.594407558E0,6.215347767E0
4.428523810E-1,-2.657563984E-1,-7.601590633E0,6.222530365E0
4.448363080E-1,-2.657563984E-1,-7.589619160E0,6.212953568E0
4.468507720E-1,-2.681505978E-1,-7.594407558E0,6.212953568E0
4.488342380E-1,-2.753331959E-1,-7.596801758E0,6.203376770E0
4.508483180E-1,-2.873041928E-1,-7.618350029E0,6.184223175E0
4.528624750E-1,-2.657563984E-1,-7.623138428E0,6.162675381E0
4.548468630E-1,-2.681505978E-1,-7.625532627E0,6.157886982E0
4.568609440E-1,-2.873041928E-1,-7.632715225E0,6.153098583E0
4.588434850E-1,-2.968810201E-1,-7.606379032E0,6.148310184E0
4.608579510E-1,-2.992752194E-1,-7.603984833E0,6.150704384E0
4.628421850E-1,-3.088520169E-1,-7.592013359E0,6.131550789E0
4.648554190E-1,-3.136404157E-1,-7.589619160E0,6.121973515E0
4.668404230E-1,-3.232172430E-1,-7.592013359E0,6.121973515E0
4.688541950E-1,-3.495534360E-1,-7.570465565E0,6.129156113E0
4.708363530E-1,-3.543418646E-1,-7.577648163E0,6.129156113E0
4.728514330E-1,-3.639186621E-1,-7.584830761E0,6.129156113E0
4.748360520E-1,-3.878606856E-1,-7.572859764E0,6.114790916E0
4.768493630E-1,-3.902548850E-1,-7.582436562E0,6.112396717E0
4.788632130E-1,-4.094084799E-1,-7.572859764E0,6.105214119E0
4.808474470E-1,-4.381389022E-1,-7.570465565E0,6.105214119E0
4.828613740E-1,-4.429273009E-1,-7.570465565E0,6.100425720E0
4.848456840E-1,-4.644751251E-1,-7.553706169E0,6.098031521E0
4.868592260E-1,-4.644751251E-1,-7.563282967E0,6.083666325E0
4.888425380E-1,-4.740519226E-1,-7.556100368E0,6.088454723E0
4.908566940E-1,-4.692635238E-1,-7.548917770E0,6.086060524E0
4.928410060E-1,-4.716577232E-1,-7.556100368E0,6.081272125E0
4.948560860E-1,-5.027823448E-1,-7.560888767E0,6.081272125E0
4.968383210E-1,-5.051765442E-1,-7.546523571E0,6.066906929E0
4.988530930E-1,-5.123591423E-1,-7.534552574E0,6.064512730E0
5.008361740E-1,-5.219359994E-1,-7.539340973E0,6.052541733E0
5.028502540E-1,-5.434837937E-1,-7.541735172E0,6.052541733E0
5.048334110E-1,-5.674257874E-1,-7.541735172E0,6.040570736E0
5.068475690E-1,-5.770025849E-1,-7.548917770E0,6.028599739E0
5.088626490E-1,-5.602431893E-1,-7.546523571E0,6.026205540E0
5.108462680E-1,-5.482721925E-1,-7.553706169E0,6.030993938E0
5.128598090E-1,-5.770025849E-1,-7.548917770E0,6.023811340E0
5.148441210E-1,-5.746083856E-1,-7.541735172E0,6.011840343E0
5.168579700E-1,-5.770025849E-1,-7.551311970E0,6.011840343E0
5.188416670E-1,-5.793967843E-1,-7.556100368E0,6.004657745E0
5.208555930E-1,-5.841852427E-1,-7.560888767E0,5.995080948E0
5.228395200E-1,-5.793967843E-1,-7.577648163E0,5.992686749E0
5.248546000E-1,-5.793967843E-1,-7.572859764E0,5.983109951E0
5.268365260E-1,-5.698199868E-1,-7.575253963E0,5.973533154E0
5.288512990E-1,-5.578489900E-1,-7.580042362E0,5.956773758E0
5.308356100E-1,-5.650315881E-1,-7.584830761E0,5.937620163E0
5.328490750E-1,-5.722141862E-1,-7.594407558E0,5.935225964E0
5.348636170E-1,-5.817909837E-1,-7.608773232E0,5.935225964E0
5.368466210E-1,-5.650315881E-1,-7.611167431E0,5.940014362E0
5.388605470E-1,-5.602431893E-1,-7.620744228E0,5.930437565E0
5.408445510E-1,-5.482721925E-1,-7.627926826E0,5.920860767E0
5.428589380E-1,-5.171475410E-1,-7.618350029E0,5.908889771E0
5.448426340E-1,-5.123591423E-1,-7.623138428E0,5.904101372E0
5.468580220E-1,-4.908113480E-1,-7.635109425E0,5.887341976E0
5.488402560E-1,-5.027823448E-1,-7.618350029E0,5.865794182E0
5.508543370E-1,-5.003881454E-1,-7.613561630E0,5.858611584E0
5.528383400E-1,-4.860229492E-1,-7.613561630E0,5.858611584E0
5.548531130E-1,-4.764461517E-1,-7.606379032E0,5.851428986E0
5.568365780E-1,-4.812345505E-1,-7.601590633E0,5.865794182E0
5.588503510E-1,-4.692635238E-1,-7.611167431E0,5.877765179E0
5.608334310E-1,-4.572925270E-1,-7.615955830E0,5.877765179E0
5.628476660E-1,-4.429273009E-1,-7.618350029E0,5.892130375E0
5.648627460E-1,-4.213795066E-1,-7.606379032E0,5.887341976E0
5.668463640E-1,-4.261679053E-1,-7.618350029E0,5.892130375E0
5.688605220E-1,-4.094084799E-1,-7.627926826E0,5.899312973E0
5.708439860E-1,-3.998316824E-1,-7.632715225E0,5.899312973E0
5.728578370E-1,-3.878606856E-1,-7.623138428E0,5.901707172E0
5.748421470E-1,-3.687070608E-1,-7.625532627E0,5.906495571E0
5.768565360E-1,-3.543418646E-1,-7.627926826E0,5.913678169E0
5.788390770E-1,-3.519476354E-1,-7.632715225E0,5.918466568E0
5.808534660E-1,-3.399766386E-1,-7.642292023E0,5.932831764E0
5.828371610E-1,-3.375824392E-1,-7.623138428E0,5.956773758E0
5.848507030E-1,-3.447650373E-1,-7.630321026E0,5.963956356E0
5.868350140E-1,-3.734954596E-1,-7.649474621E0,5.971138954E0
5.888486330E-1,-3.878606856E-1,-7.651868820E0,5.992686749E0
5.908637140E-1,-3.663128614E-1,-7.654263020E0,5.992686749E0
5.928467940E-1,-3.854664862E-1,-7.647080421E0,5.990292549E0
5.948621050E-1,-3.806780577E-1,-7.625532627E0,6.004657745E0
5.968445700E-1,-4.189853072E-1,-7.611167431E0,6.016628742E0
5.988588050E-1,-4.261679053E-1,-7.615955830E0,6.011840343E0
6.008421920E-1,-4.381389022E-1,-7.625532627E0,6.016628742E0
6.028562730E-1,-4.596867263E-1,-7.625532627E0,6.030993938E0
6.048406610E-1,-4.572925270E-1,-7.608773232E0,6.040570736E0
6.068548180E-1,-4.668693244E-1,-7.608773232E0,6.045359135E0
6.088375910E-1,-4.501099288E-1,-7.594407558E0,6.028599739E0
6.108517480E-1,-4.764461517E-1,-7.599195957E0,5.999869347E0
6.128354440E-1,-4.836287498E-1,-7.596801758E0,5.992686749E0
6.148504470E-1,-5.195417404E-1,-7.592013359E0,5.963956356E0
6.168341430E-1,-5.339069963E-1,-7.572859764E0,5.954379559E0
6.188474540E-1,-5.363011956E-1,-7.558494568E0,5.947196960E0
6.208628430E-1,-5.506663918E-1,-7.560888767E0,5.956773758E0
6.228461530E-1,-5.650315881E-1,-7.572859764E0,5.944802761E0
6.248593870E-1,-5.817909837E-1,-7.563282967E0,5.920860767E0
6.268449300E-1,-6.057330370E-1,-7.544129372E0,5.930437565E0
6.288579330E-1,-6.200982332E-1,-7.532158375E0,5.928043365E0
6.308403210E-1,-6.368576288E-1,-7.527369976E0,5.916072369E0
6.328563240E-1,-6.488286853E-1,-7.539340973E0,5.896918774E0
6.348403280E-1,-6.488286853E-1,-7.536946774E0,5.894524574E0
6.368544850E-1,-6.536170840E-1,-7.527369976E0,5.901707172E0
6.388370280E-1,-6.799532771E-1,-7.522581577E0,5.882553577E0
6.408505690E-1,-6.895300746E-1,-7.522581577E0,5.880159378E0
6.428342640E-1,-7.015010715E-1,-7.524975777E0,5.863399982E0
6.448502680E-1,-7.110779285E-1,-7.513004780E0,5.856217384E0
6.468332710E-1,-7.302315235E-1,-7.496245384E0,5.856217384E0
6.488465830E-1,-7.350199223E-1,-7.503427982E0,5.853823185E0
6.508609710E-1,-7.541735172E-1,-7.498639584E0,5.849034786E0
6.528441290E-1,-7.517793179E-1,-7.496245384E0,5.853823185E0
6.548592090E-1,-7.637503147E-1,-7.489062786E0,5.863399982E0
6.568425200E-1,-7.661445141E-1,-7.491456985E0,5.858611584E0
6.588566770E-1,-7.709329724E-1,-7.481880188E0,5.863399982E0
6.608403730E-1,-7.589619160E-1,-7.479485989E0,5.853823185E0
6.628546070E-1,-7.565677166E-1,-7.484274387E0,5.846640587E0
6.648370720E-1,-7.326257229E-1,-7.508216381E0,5.841852188E0
6.668518450E-1,-7.015010715E-1,-7.508216381E0,5.834669590E0
6.688355400E-1,-6.775590777E-1,-7.501033783E0,5.834669590E0
6.708505440E-1,-6.751648784E-1,-7.505822182E0,5.815515995E0
6.728339320E-1,-6.464344859E-1,-7.508216381E0,5.805939198E0
6.748493970E-1,-6.368576288E-1,-7.513004780E0,5.815515995E0
6.768616310E-1,-6.224924326E-1,-7.515398979E0,5.808333397E0
6.788459430E-1,-6.033388376E-1,-7.517793179E0,5.786785603E0
6.808601770E-1,-5.937620401E-1,-7.529764175E0,5.781997204E0
6.828441040E-1,-5.793967843E-1,-7.556100368E0,5.803544998E0
6.848583380E-1,-5.602431893E-1,-7.548917770E0,5.839457989E0
6.868407250E-1,-5.506663918E-1,-7.551311970E0,5.841852188E0
6.888555750E-1,-5.339069963E-1,-7.572859764E0,5.844246387E0
6.908392710E-1,-5.410895944E-1,-7.572859764E0,5.849034786E0
6.928533520E-1,-5.147533417E-1,-7.570465565E0,5.832275391E0
6.948374310E-1,-4.979939461E-1,-7.589619160E0,5.822698593E0
6.968515120E-1,-4.836287498E-1,-7.601590633E0,5.837063789E0
6.988352080E-1,-4.668693244E-1,-7.596801758E0,5.846640587E0
7.008481350E-1,-4.357447028E-1,-7.606379032E0,5.846640587E0
7.028632150E-1,-4.261679053E-1,-7.599195957E0,5.849034786E0
7.048459870E-1,-4.405331016E-1,-7.615955830E0,5.839457989E0
7.068613760E-1,-4.189853072E-1,-7.627926826E0,5.844246387E0
7.088444560E-1,-4.165911078E-1,-7.627926826E0,5.841852188E0
7.108579980E-1,-4.237737060E-1,-7.620744228E0,5.837063789E0
7.128429240E-1,-4.477157295E-1,-7.630321026E0,5.837063789E0
7.148573900E-1,-4.525041282E-1,-7.625532627E0,5.825092793E0
7.168402390E-1,-4.572925270E-1,-7.606379032E0,5.817910194E0
7.188540890E-1,-4.668693244E-1,-7.601590633E0,5.803544998E0
7.208374770E-1,-4.860229492E-1,-7.603984833E0,5.803544998E0
7.228521730E-1,-5.027823448E-1,-7.592013359E0,5.820304394E0
7.248358680E-1,-5.051765442E-1,-7.592013359E0,5.817910194E0
7.268497940E-1,-5.267243981E-1,-7.587224960E0,5.817910194E0
7.288635670E-1,-5.363011956E-1,-7.572859764E0,5.834669590E0
7.308478780E-1,-5.363011956E-1,-7.572859764E0,5.834669590E0
7.328621130E-1,-5.243301988E-1,-7.589619160E0,5.815515995E0
7.348469620E-1,-5.482721925E-1,-7.603984833E0,5.798756599E0
7.368598890E-1,-5.530605912E-1,-7.584830761E0,5.789179802E0
7.388433540E-1,-5.410895944E-1,-7.570465565E0,5.789179802E0
7.408574350E-1,-5.530605912E-1,-7.575253963E0,5.805939198E0
7.428412070E-1,-5.434837937E-1,-7.577648163E0,5.805939198E0
7.448553640E-1,-5.578489900E-1,-7.572859764E0,5.777208805E0
7.468383680E-1,-5.770025849E-1,-7.560888767E0,5.755661011E0
7.488531400E-1,-5.793967843E-1,-7.558494568E0,5.746084213E0
7.508377590E-1,-5.770025849E-1,-7.556100368E0,5.729324818E0
7.528503780E-1,-5.770025849E-1,-7.556100368E0,5.707777023E0
7.548343820E-1,-5.889736414E-1,-7.546523571E0,5.698200226E0
7.568491540E-1,-6.081272364E-1,-7.548917770E0,5.674258232E0
7.588626960E-1,-6.105214357E-1,-7.548917770E0,5.659893036E0
7.608463920E-1,-6.296750307E-1,-7.527369976E0,5.643133640E0
7.628602420E-1,-6.560112834E-1,-7.548917770E0,5.664681435E0
7.648451680E-1,-6.631938815E-1,-7.551311970E0,5.669469833E0
7.668584020E-1,-6.775590777E-1,-7.558494568E0,5.657498837E0
7.688415600E-1,-7.062895298E-1,-7.568071365E0,5.638344765E0
7.708557170E-1,-7.110779285E-1,-7.565677166E0,5.638344765E0
7.728402590E-1,-7.565677166E-1,-7.584830761E0,5.643133640E0
7.748553390E-1,-7.805097699E-1,-7.592013359E0,5.652710438E0
7.768375740E-1,-7.876923680E-1,-7.606379032E0,5.650316238E0
7.788514230E-1,-7.876923680E-1,-7.618350029E0,5.640739441E0
7.808353500E-1,-8.044517636E-1,-7.651868820E0,5.621585369E0
7.828495840E-1,-8.236053586E-1,-7.661445618E0,5.616796970E0
7.848631250E-1,-8.188169599E-1,-7.661445618E0,5.595249176E0
7.868480520E-1,-8.116343617E-1,-7.668628216E0,5.585672379E0
7.888619010E-1,-8.212111592E-1,-7.671022415E0,5.564124584E0
7.908446750E-1,-8.355764151E-1,-7.673416615E0,5.511452198E0
7.928596780E-1,-8.307880163E-1,-7.675810814E0,5.473145008E0
7.948440660E-1,-8.355764151E-1,-7.692570210E0,5.394136429E0
7.968575310E-1,-8.283938169E-1,-7.687781811E0,5.346252441E0
7.988409190E-1,-8.355764151E-1,-7.687781811E0,5.317522049E0
8.008551530E-1,-8.571242094E-1,-7.649474621E0,5.293580055E0
8.028387720E-1,-8.667010069E-1,-7.630321026E0,5.231330872E0
8.048536220E-1,-8.834604025E-1,-7.623138428E0,5.212177277E0
8.068363940E-1,-8.810662031E-1,-7.606379032E0,5.207388878E0
8.088505520E-1,-8.834604025E-1,-7.575253963E0,5.207388878E0
8.108350930E-1,-8.882488012E-1,-7.572859764E0,5.224148273E0
8.128486360E-1,-9.050082564E-1,-7.563282967E0,5.240907669E0
8.148637160E-1,-8.882488012E-1,-7.539340973E0,5.257667065E0
8.168465660E-1,-8.786720037E-1,-7.551311970E0,5.269638062E0
8.188601070E-1,-8.499416113E-1,-7.546523571E0,5.284003258E0
8.208446500E-1,-8.331822157E-1,-7.551311970E0,5.286397457E0
8.228584990E-1,-7.900865674E-1,-7.556100368E0,5.331887245E0
8.248415790E-1,-7.134721279E-1,-7.560888767E0,5.365406036E0
8.268555060E-1,-6.775590777E-1,-7.560888767E0,5.386953831E0
8.288400470E-1,-6.105214357E-1,-7.558494568E0,5.415684223E0
8.308538980E-1,-5.578489900E-1,-7.558494568E0,5.442020416E0
8.328373620E-1,-5.386953950E-1,-7.563282967E0,5.461174011E0
8.348533660E-1,-4.453215301E-1,-7.517793179E0,5.473145008E0
8.368354460E-1,-4.118026793E-1,-7.510610580E0,5.573701382E0
8.388496040E-1,-4.165911078E-1,-7.551311970E0,5.717353821E0
8.408629150E-1,-4.309563041E-1,-7.596801758E0,5.825092793E0
8.428475340E-1,-4.453215301E-1,-7.601590633E0,5.738901615E0
8.448625370E-1,-4.596867263E-1,-7.599195957E0,5.734113216E0
8.468450020E-1,-4.908113480E-1,-7.630321026E0,5.746084213E0
8.488591590E-1,-4.836287498E-1,-7.671022415E0,5.770026207E0
8.508431620E-1,-4.884171486E-1,-7.690176010E0,5.784391403E0
8.528570890E-1,-4.955997467E-1,-7.697358608E0,5.834669590E0
8.548416310E-1,-4.908113480E-1,-7.694964409E0,5.853823185E0
8.568545580E-1,-4.860229492E-1,-7.709329605E0,5.896918774E0
8.588388690E-1,-4.716577232E-1,-7.690176010E0,5.920860767E0
8.608521800E-1,-4.644751251E-1,-7.687781811E0,5.928043365E0
8.628361070E-1,-4.477157295E-1,-7.687781811E0,5.968744755E0
8.648503400E-1,-4.644751251E-1,-7.682993412E0,5.999869347E0
8.668654210E-1,-4.740519226E-1,-7.678205013E0,6.004657745E0
8.688491170E-1,-4.740519226E-1,-7.685387611E0,6.007051945E0
8.708619670E-1,-4.788403511E-1,-7.694964409E0,5.997475147E0
8.728472000E-1,-4.908113480E-1,-7.690176010E0,5.999869347E0
8.748622810E-1,-5.267243981E-1,-7.692570210E0,5.999869347E0
8.768438230E-1,-5.291185975E-1,-7.718906403E0,5.997475147E0
8.788585960E-1,-5.434837937E-1,-7.721300602E0,5.985504150E0
8.808419840E-1,-5.530605912E-1,-7.726089001E0,5.947196960E0
8.828552950E-1,-5.626373887E-1,-7.752425194E0,5.925649166E0
8.848408370E-1,-5.889736414E-1,-7.766790390E0,5.911283970E0
8.868543780E-1,-5.937620401E-1,-7.778761387E0,5.899312973E0
8.888367670E-1,-6.057330370E-1,-7.783549786E0,5.875370979E0
8.908509240E-1,-6.344634295E-1,-7.795520782E0,5.813121796E0
8.928346200E-1,-6.607996821E-1,-7.814674377E0,5.750872612E0
8.948503920E-1,-6.775590777E-1,-7.826645374E0,5.717353821E0
8.968638580E-1,-7.206547260E-1,-7.843404770E0,5.676652431E0
8.988481690E-1,-7.565677166E-1,-7.867346764E0,5.616796970E0
9.008608650E-1,-7.541735172E-1,-7.867346764E0,5.595249176E0
9.028450990E-1,-7.661445141E-1,-7.867346764E0,5.554547787E0
9.048587170E-1,-8.140285611E-1,-7.867346764E0,5.516240597E0
9.068421060E-1,-8.236053586E-1,-7.860164165E0,5.489904404E0
9.088571860E-1,-8.451532125E-1,-7.850587368E0,5.446808815E0
9.108411900E-1,-8.619126081E-1,-7.857769966E0,5.403713226E0
9.128550390E-1,-8.930372596E-1,-7.852981567E0,5.391742229E0
9.148408890E-1,-9.026140571E-1,-7.845798969E0,5.379771233E0
9.168525070E-1,-9.074024558E-1,-7.850587368E0,5.372588634E0
9.188362810E-1,-9.145850539E-1,-7.852981567E0,5.348646641E0
9.208504370E-1,-9.193734527E-1,-7.852981567E0,5.317522049E0
9.228651340E-1,-9.121908545E-1,-7.862558365E0,5.300762653E0
9.248488290E-1,-8.930372596E-1,-7.886500359E0,5.286397457E0
9.268627550E-1,-9.026140571E-1,-7.872135162E0,5.279214859E0
9.288455280E-1,-9.097966552E-1,-7.879317760E0,5.279214859E0
9.308599160E-1,-9.050082564E-1,-7.898471355E0,5.288791656E0
9.328442280E-1,-9.026140571E-1,-7.951143742E0,5.286397457E0
9.348581540E-1,-9.050082564E-1,-7.965508938E0,5.284003258E0
9.368417730E-1,-9.050082564E-1,-7.972691536E0,5.305551052E0
9.388560070E-1,-8.978256583E-1,-7.994239330E0,5.322310448E0
9.408390880E-1,-8.834604025E-1,-7.996633530E0,5.322310448E0
9.428532450E-1,-8.762778044E-1,-8.006210327E0,5.334281445E0
9.448363250E-1,-8.619126081E-1,-8.015787125E0,5.351040840E0
9.468520210E-1,-8.523358107E-1,-8.027758598E0,5.360617638E0
9.488351010E-1,-8.283938169E-1,-8.027758598E0,5.367800236E0
9.508482590E-1,-8.164227605E-1,-8.030152321E0,5.382165432E0
9.528639540E-1,-8.044517636E-1,-8.032546997E0,5.410895824E0
9.548477270E-1,-8.116343617E-1,-8.037335396E0,5.418078423E0
9.568611920E-1,-8.020575643E-1,-8.037335396E0,5.422866821E0
9.588452730E-1,-7.876923680E-1,-8.030152321E0,5.427655220E0
9.608590450E-1,-7.900865674E-1,-8.020575523E0,5.422866821E0
9.628422020E-1,-7.829039693E-1,-8.020575523E0,5.418078423E0
9.648578210E-1,-7.852981687E-1,-8.027758598E0,5.406107426E0
9.668403630E-1,-7.757213712E-1,-8.013393402E0,5.401319027E0
9.688544440E-1,-7.709329724E-1,-8.008605003E0,5.403713226E0
9.708378310E-1,-7.829039693E-1,-8.010998726E0,5.403713226E0
9.728529890E-1,-7.709329724E-1,-8.008605003E0,5.389348030E0
9.748369150E-1,-7.685387731E-1,-7.994239330E0,5.377377033E0
9.768501500E-1,-7.709329724E-1,-7.984662533E0,5.365406036E0
9.788646140E-1,-7.445967197E-1,-7.972691536E0,5.355829239E0
9.808483880E-1,-7.182605267E-1,-7.977479935E0,5.348646641E0
9.828625450E-1,-6.991068721E-1,-7.982268333E0,5.310339451E0
9.848455480E-1,-6.919242740E-1,-7.979874134E0,5.291185856E0
9.868590900E-1,-6.799532771E-1,-7.972691536E0,5.279214859E0
9.888434780E-1,-6.751648784E-1,-7.953537941E0,5.255272865E0
9.908573280E-1,-6.679822803E-1,-7.943961143E0,5.245696068E0
9.928416390E-1,-6.344634295E-1,-7.931990147E0,5.245696068E0
9.948570270E-1,-6.320692301E-1,-7.922413349E0,5.240907669E0
9.968403380E-1,-6.248866320E-1,-7.927201748E0,5.243301868E0
9.988530340E-1,-5.817909837E-1,-7.939172745E0,5.248090267E0
1.000837037E0,-5.602431893E-1,-7.939172745E0,5.228936672E0
1.002851118E0,-5.434837937E-1,-7.934384346E0,5.216965675E0
1.004836044E0,-4.908113480E-1,-7.920019150E0,5.185841084E0
1.006849278E0,-4.309563041E-1,-7.924807549E0,5.193023682E0
1.008863205E0,-3.974374831E-1,-7.927201748E0,5.190629482E0
1.010847439E0,-3.136404157E-1,-7.920019150E0,5.185841084E0
1.012861289E0,-2.681505978E-1,-7.941566944E0,5.173870087E0
1.014845600E0,-1.867477298E-1,-7.951143742E0,5.176264286E0
1.016858604E0,-8.619125932E-2,-7.963114738E0,5.181052685E0
1.018843222E0,-3.591302410E-2,-7.967903137E0,5.178658485E0
1.020856995E0,5.267243832E-2,-7.987056732E0,5.178658485E0
1.022840691E0,1.508347094E-1,-7.982268333E0,5.166687489E0
1.024854309E0,1.939303428E-1,-7.982268333E0,5.164293289E0
1.026839544E0,2.849099934E-1,-7.991845131E0,5.183446884E0
1.028853624E0,3.471592367E-1,-8.013393402E0,5.195417881E0
1.030835243E0,3.687070608E-1,-8.015787125E0,5.195417881E0
1.032850246E0,4.261679053E-1,-8.008605003E0,5.207388878E0
1.034865096E0,4.596867263E-1,-7.999027729E0,5.245696068E0
1.036848484E0,4.884171486E-1,-7.999027729E0,5.267243862E0
1.038861949E0,5.243301988E-1,-8.015787125E0,5.315127850E0
1.040845414E0,5.363011956E-1,-8.008605003E0,5.331887245E0
1.042859187E0,5.410895944E-1,-8.003816605E0,5.341464043E0
1.044843806E0,5.746083856E-1,-7.979874134E0,5.346252441E0
1.046857347E0,5.865794420E-1,-7.977479935E0,5.351040840E0
1.048841120E0,6.081272364E-1,-7.975085735E0,5.372588634E0
1.050855585E0,6.296750307E-1,-7.979874134E0,5.386953831E0
1.052839204E0,6.440402865E-1,-7.984662533E0,5.394136429E0
1.054854361E0,6.679822803E-1,-7.965508938E0,5.408501625E0
1.056836827E0,6.775590777E-1,-7.960720539E0,5.437232018E0
1.058851291E0,6.895300746E-1,-7.967903137E0,5.444414616E0
1.060834603E0,7.038952708E-1,-7.977479935E0,5.475539207E0
1.062848837E0,6.991068721E-1,-7.991845131E0,5.506663799E0
1.064862070E0,7.062895298E-1,-8.006210327E0,5.537788391E0
1.066847536E0,6.967126727E-1,-8.034940720E0,5.595249176E0
1.068860770E0,6.871358752E-1,-8.051700592E0,5.583278179E0
1.070844466E0,6.919242740E-1,-8.066065788E0,5.559336185E0
1.072858392E0,6.991068721E-1,-8.092401505E0,5.513846397E0
1.074843011E0,6.991068721E-1,-8.116343498E0,5.487510204E0
1.076856784E0,7.015010715E-1,-8.133103371E0,5.485116005E0
1.078840557E0,7.230489254E-1,-8.185775757E0,5.494692802E0
1.080854329E0,7.230489254E-1,-8.214506149E0,5.485116005E0
1.082838409E0,7.350199223E-1,-8.262390137E0,5.477933407E0
1.084852490E0,7.637503147E-1,-8.303091049E0,5.477933407E0
1.086835570E0,7.733271718E-1,-8.315062523E0,5.470750809E0
1.088850420E0,8.092401624E-1,-8.346187592E0,5.465962410E0
1.090864192E0,8.427590132E-1,-8.382100105E0,5.444414616E0
1.092847966E0,8.499416113E-1,-8.394071579E0,5.439626217E0
1.094863353E0,9.097966552E-1,-8.439560890E0,5.420472622E0
1.096846050E0,9.504981041E-1,-8.473079681E0,5.370194435E0
1.098859899E0,9.720458984E-1,-8.489839554E0,5.343858242E0
1.100843595E0,1.010353088E0,-8.506598473E0,5.288791656E0
1.102857136E0,1.063025594E0,-8.511386871E0,5.257667065E0
1.104840601E0,1.101332784E0,-8.516175270E0,5.250484467E0
1.106855990E0,1.170764685E0,-8.549694061E0,5.233725071E0
1.108839608E0,1.201889277E0,-8.556877136E0,5.238513470E0
1.110852535E0,1.278503656E0,-8.554482460E0,5.236119270E0
1.112837538E0,1.350329757E0,-8.549694061E0,5.228936672E0
1.114852311E0,1.393425345E0,-8.540117264E0,5.226542473E0
1.116835622E0,1.450886250E0,-8.542511940E0,5.224148273E0
1.118848626E0,1.515529633E0,-8.518569946E0,5.214571476E0
1.120862783E0,1.541865945E0,-8.499416351E0,5.214571476E0
1.122846478E0,1.608903527E0,-8.473079681E0,5.181052685E0
1.124861251E0,1.659181833E0,-8.441955566E0,5.173870087E0
1.126844331E0,1.673547029E0,-8.425195694E0,5.161899090E0
1.128858182E0,1.719036818E0,-8.377311707E0,5.128379822E0
1.130842185E0,1.781286120E0,-8.252813339E0,5.011064053E0
1.132856035E0,1.810016513E0,-8.262390137E0,5.082890034E0
1.134840576E0,1.810016513E0,-8.312667847E0,5.286397457E0
1.136854119E0,1.845929503E0,-8.298302650E0,5.228936672E0
1.138837814E0,1.860294700E0,-8.293514252E0,5.173870087E0
1.140852587E0,1.869871497E0,-8.291120529E0,5.116408825E0
1.142835436E0,1.872265697E0,-8.295908928E0,5.080495834E0
1.144848978E0,1.896207690E0,-8.286332130E0,5.020640850E0
1.146864059E0,1.908178806E0,-8.274360657E0,5.015852451E0
1.148848062E0,1.924938202E0,-8.269572258E0,5.003881454E0
1.150862143E0,1.934514999E0,-8.255207062E0,4.975151062E0
1.152845530E0,1.939303398E0,-8.269572258E0,4.941632271E0
1.154861842E0,1.946485996E0,-8.264783859E0,4.924872875E0
1.156843153E0,1.970427990E0,-8.255207062E0,4.896142483E0
1.158857003E0,1.968033791E0,-8.248024940E0,4.857835293E0
1.160840929E0,1.965639591E0,-8.269572258E0,4.853046894E0
1.162855087E0,1.958456993E0,-8.271966934E0,4.829104900E0
1.164839090E0,1.934514999E0,-8.303091049E0,4.824316502E0
1.166853247E0,1.920149803E0,-8.319850922E0,4.833893299E0
1.168836943E0,1.891419291E0,-8.307879448E0,4.838681698E0
1.170850869E0,1.886630893E0,-8.339004517E0,4.824316502E0
1.172865027E0,1.872265697E0,-8.346187592E0,4.814739704E0
1.174849645E0,1.843535304E0,-8.360552788E0,4.774038315E0
1.176862880E0,1.843535304E0,-8.386888504E0,4.752490520E0
1.178846498E0,1.829170108E0,-8.391676903E0,4.745307922E0
1.180860733E0,1.824381709E0,-8.420407295E0,4.728548527E0
1.182844428E0,1.824381709E0,-8.429984093E0,4.709394932E0
1.184858278E0,1.829170108E0,-8.444349289E0,4.702212334E0
1.186842205E0,1.814804912E0,-8.451532364E0,4.707000732E0
1.188856977E0,1.826775908E0,-8.453926086E0,4.714183331E0
1.190839750E0,1.843535304E0,-8.485051155E0,4.723760128E0
1.192854522E0,1.848323703E0,-8.511386871E0,4.718971729E0
1.194839219E0,1.860294700E0,-8.535328865E0,4.716577530E0
1.196851837E0,1.889025092E0,-8.552088737E0,4.659116745E0
1.198835457E0,1.910573006E0,-8.559270859E0,4.558559895E0
1.200849613E0,1.934514999E0,-8.556877136E0,4.525041103E0
1.202863848E0,1.996764183E0,-8.576030731E0,4.448426723E0
1.204848159E0,2.051830769E0,-8.578424454E0,4.362235546E0
1.206861700E0,2.075772762E0,-8.583212852E0,4.316745758E0
1.208844781E0,2.138022184E0,-8.588001251E0,4.237737179E0
1.210859553E0,2.171540976E0,-8.566453934E0,4.199429989E0
1.212842942E0,2.240972757E0,-8.571242332E0,4.149151325E0
1.214858253E0,2.310404539E0,-8.571242332E0,4.082113743E0
1.216841641E0,2.339135170E0,-8.564059258E0,4.053383350E0
1.218854568E0,2.370259762E0,-8.578424454E0,4.007893562E0
1.220838264E0,2.408566952E0,-8.585607529E0,3.971980572E0
1.222852113E0,2.430114746E0,-8.576030731E0,3.950432777E0
1.224836424E0,2.463633537E0,-8.590395927E0,3.928884983E0
1.226850351E0,2.477998734E0,-8.599972725E0,3.907337189E0
1.228865431E0,2.492363930E0,-8.604761124E0,3.895366192E0
1.230848512E0,2.511517525E0,-8.614337921E0,3.883395195E0
1.232862284E0,2.533065319E0,-8.635885239E0,3.885789394E0
1.234847211E0,2.530671120E0,-8.647856712E0,3.878606796E0
1.236860829E0,2.537853718E0,-8.655038834E0,3.859453201E0
1.238844141E0,2.571372509E0,-8.652645111E0,3.861847401E0
1.240857990E0,2.588132143E0,-8.659827232E0,3.859453201E0
1.242841993E0,2.590526342E0,-8.657433510E0,3.869029999E0
1.244856766E0,2.592920542E0,-8.652645111E0,3.873818398E0
1.246839616E0,2.604891539E0,-8.662221909E0,3.885789394E0
1.248853773E0,2.602497339E0,-8.674192429E0,3.883395195E0
1.250838007E0,2.597708941E0,-8.674192429E0,3.895366192E0
1.252851319E0,2.604891539E0,-8.683769226E0,3.914519787E0
1.254836168E0,2.600103140E0,-8.669404030E0,3.933673382E0
1.256849095E0,2.583343744E0,-8.669404030E0,3.943250179E0
1.258863637E0,2.549824715E0,-8.674192429E0,3.967192173E0
1.260848256E0,2.511517525E0,-8.652645111E0,3.983951569E0
1.262861490E0,2.492363930E0,-8.652645111E0,3.995922565E0
1.264844800E0,2.456450939E0,-8.657433510E0,3.986345768E0
1.266859651E0,2.408566952E0,-8.628703117E0,3.983951569E0
1.268843577E0,2.384624958E0,-8.623914719E0,3.998316765E0
1.270855965E0,2.343923569E0,-8.623914719E0,3.998316765E0
1.272841122E0,2.319981337E0,-8.623914719E0,3.995922565E0
1.274855357E0,2.267308950E0,-8.616731644E0,3.962403774E0
1.276838437E0,2.238578558E0,-8.616731644E0,3.907337189E0
1.278853210E0,2.224213362E0,-8.616731644E0,3.873818398E0
1.280836521E0,2.193088770E0,-8.628703117E0,3.825934410E0
1.282850370E0,2.164358377E0,-8.655038834E0,3.742137194E0
1.284865451E0,2.149993181E0,-8.662221909E0,3.715801001E0
1.286848839E0,2.126051188E0,-8.669404030E0,3.663128614E0
1.288862150E0,2.126051188E0,-8.681375504E0,3.600879431E0
1.290846384E0,2.121262789E0,-8.688557625E0,3.569754839E0
1.292860542E0,2.092532396E0,-8.714894295E0,3.507505417E0
1.294844545E0,2.078166962E0,-8.719682693E0,3.462015629E0
1.296858780E0,2.066195965E0,-8.726864815E0,3.435679436E0
1.298841783E0,2.054224968E0,-8.746018410E0,3.378218651E0
1.300855710E0,2.032677174E0,-8.772355080E0,3.349488258E0
1.302839405E0,2.030282974E0,-8.777143478E0,3.325546265E0
1.304851946E0,2.013523579E0,-8.767566681E0,3.275267839E0
1.306836874E0,2.013523579E0,-8.781931877E0,3.251325846E0
1.308851646E0,1.987187386E0,-8.791508675E0,3.224989653E0
1.310835034E0,1.975216389E0,-8.817844391E0,3.169923067E0
1.312849499E0,1.977610588E0,-8.815450668E0,3.165134668E0
1.314864272E0,1.975216389E0,-8.822632790E0,3.153163671E0
1.316847352E0,1.960851192E0,-8.822632790E0,3.145981073E0
1.318861510E0,1.963245392E0,-8.827422142E0,3.138798475E0
1.320844667E0,1.972822189E0,-8.856152534E0,3.141192675E0
1.322859055E0,1.972822189E0,-8.870517731E0,3.119644880E0
1.324844058E0,1.968033791E0,-8.853757858E0,3.119644880E0
1.326857215E0,1.948880196E0,-8.892065048E0,3.112462282E0
1.328840373E0,1.972822189E0,-8.963891029E0,3.124433279E0
1.330854838E0,1.975216389E0,-8.975862503E0,3.134010077E0
1.332838765E0,1.975216389E0,-8.985439301E0,3.143586874E0
1.334853229E0,1.980004787E0,-9.026140213E0,3.162740469E0
1.336836079E0,1.991975784E0,-9.050082207E0,3.179499865E0
1.338851159E0,1.996764183E0,-9.107542992E0,3.224989653E0
1.340864394E0,2.001552582E0,-9.150638580E0,3.239354849E0
1.342847705E0,2.015917778E0,-9.191340446E0,3.239354849E0
1.344862246E0,2.023100376E0,-9.222464561E0,3.227383852E0
1.346846481E0,2.032677174E0,-9.241618156E0,3.236960649E0
1.348860638E0,2.032677174E0,-9.289502144E0,3.284844637E0
1.350843104E0,2.056619167E0,-9.334992409E0,3.354276657E0
1.352858183E0,2.080561161E0,-9.337387085E0,3.375824451E0
1.354842803E0,2.118868589E0,-9.382876396E0,3.380612850E0
1.356856421E0,2.138022184E0,-9.418789864E0,3.359065056E0
1.358840118E0,2.161964178E0,-9.445125580E0,3.342305660E0
1.360853351E0,2.209848166E0,-9.452308655E0,3.313575268E0
1.362836739E0,2.260126352E0,-9.476250648E0,3.308786631E0
1.364852128E0,2.269703150E0,-9.488221169E0,3.303998232E0
1.366835131E0,2.303221941E0,-9.504981041E0,3.289633036E0
1.368849596E0,2.346317768E0,-9.519346237E0,3.272873640E0
1.370862830E0,2.355894566E0,-9.512163162E0,3.263296843E0
1.372846911E0,2.372653961E0,-9.519346237E0,3.246537447E0
1.374861683E0,2.379836559E0,-9.516951561E0,3.244143248E0
1.376844687E0,2.410961151E0,-9.500192642E0,3.234566450E0
1.378858613E0,2.401384354E0,-9.502586365E0,3.215412855E0
1.380843156E0,2.398990154E0,-9.504981041E0,3.196259260E0
1.382856774E0,2.425326347E0,-9.399636269E0,3.066972494E0
1.384839777E0,2.422932148E0,-9.425971985E0,3.210624456E0
1.386854243E0,2.418143749E0,-9.452308655E0,3.294421434E0
1.388837630E0,2.410961151E0,-9.454702377E0,3.299209833E0
1.390852173E0,2.382230759E0,-9.433155060E0,3.203441858E0
1.392836483E0,2.377442360E0,-9.430760384E0,3.189076662E0
1.394851564E0,2.339135170E0,-9.457097054E0,3.148375273E0
1.396864106E0,2.324769735E0,-9.430760384E0,3.129221678E0
1.398848417E0,2.324769735E0,-9.433155060E0,3.134010077E0
1.400862267E0,2.319981337E0,-9.433155060E0,3.138798475E0
1.402845731E0,2.305616140E0,-9.423578262E0,3.134010077E0
1.404861120E0,2.276885748E0,-9.416395187E0,3.126827478E0
1.406843584E0,2.269703150E0,-9.390059471E0,3.136404276E0
1.408858050E0,2.255337954E0,-9.373299599E0,3.145981073E0
1.410841668E0,2.214636564E0,-9.342175484E0,3.160346270E0
1.412855595E0,2.173935175E0,-9.315838814E0,3.162740469E0
1.414839829E0,2.166752577E0,-9.301473618E0,3.165134668E0
1.416853756E0,2.104503393E0,-9.248801231E0,3.184288263E0
1.418837067E0,2.059013367E0,-9.215282440E0,3.193865061E0
1.420851532E0,2.042253971E0,-9.208099365E0,3.196259260E0
1.422834689E0,2.003946781E0,-9.160215378E0,3.196259260E0
1.424849077E0,1.963245392E0,-9.126696587E0,3.208230257E0
1.426863850E0,1.929726601E0,-9.119514465E0,3.201047659E0
1.428847545E0,1.865083098E0,-9.076418877E0,3.220201254E0
1.430861088E0,1.836352706E0,-9.016563416E0,3.232172251E0
1.432845168E0,1.805228114E0,-9.021351814E0,3.236960649E0
1.434859941E0,1.740584612E0,-9.026140213E0,3.241749048E0
1.436841790E0,1.709460020E0,-9.026140213E0,3.248931646E0
1.438856563E0,1.678335428E0,-9.011775017E0,3.246537447E0
1.440840182E0,1.623268723E0,-8.985439301E0,3.246537447E0
1.442854031E0,1.599326730E0,-8.971074104E0,3.258508444E0
1.444838958E0,1.565807939E0,-8.959102631E0,3.299209833E0
1.446852269E0,1.537077546E0,-8.956708908E0,3.375824451E0
1.448836580E0,1.522712231E0,-8.971074104E0,3.414131641E0
1.450849737E0,1.520318031E0,-8.999804497E0,3.466804028E0
1.452864587E0,1.520318031E0,-8.999804497E0,3.485957623E0
1.454848283E0,1.515529633E0,-9.002198219E0,3.485957623E0
1.456861825E0,1.525106430E0,-9.004592896E0,3.485957623E0
1.458845213E0,1.544260144E0,-9.028534889E0,3.438073635E0
1.460859601E0,1.563413739E0,-9.045293808E0,3.404554844E0
1.462843066E0,1.613691926E0,-9.074024200E0,3.351882458E0
1.464854377E0,1.661576033E0,-9.083600998E0,3.320757866E0
1.466840611E0,1.680729628E0,-9.097966194E0,3.327940464E0
1.468855076E0,1.719036818E0,-9.117119789E0,3.335123062E0
1.470838695E0,1.740584612E0,-9.114726067E0,3.323152065E0
1.472853237E0,1.783680320E0,-9.124302864E0,3.299209833E0
1.474838779E0,1.821987510E0,-9.133879662E0,3.280056238E0
1.476851321E0,1.829170108E0,-9.133879662E0,3.263296843E0
1.478864940E0,1.848323703E0,-9.126696587E0,3.215412855E0
1.480848943E0,1.867477298E0,-9.133879662E0,3.205836058E0
1.482862792E0,1.872265697E0,-9.131484985E0,3.186682463E0
1.484847643E0,1.889025092E0,-9.109937668E0,3.150769472E0
1.486861261E0,1.898601890E0,-9.129091263E0,3.126827478E0
1.488844880E0,1.910573006E0,-9.124302864E0,3.102885485E0
1.490858191E0,1.922544003E0,-9.126696587E0,3.057395458E0
1.492842426E0,1.960851192E0,-9.157821655E0,3.007117271E0
1.494857198E0,1.970427990E0,-9.160215378E0,2.985569477E0
1.496840664E0,1.980004787E0,-9.179368973E0,2.925714493E0
1.498855051E0,2.001552582E0,-9.208099365E0,2.885013103E0
1.500838440E0,2.001552582E0,-9.215282440E0,2.863465309E0
1.502852366E0,2.018311977E0,-9.241618156E0,2.834734917E0
1.504835446E0,2.023100376E0,-9.265560150E0,2.815581083E0
1.506849911E0,2.042253971E0,-9.318233490E0,2.786850691E0
1.508864684E0,2.075772762E0,-9.382876396E0,2.765302896E0
1.510846841E0,2.080561161E0,-9.416395187E0,2.750937700E0
1.512862768E0,2.078166962E0,-9.464279175E0,2.715024710E0
1.514845848E0,2.075772762E0,-9.519346237E0,2.705447912E0
1.516859082E0,2.073378563E0,-9.555258751E0,2.710236311E0
1.518844086E0,2.063801765E0,-9.598354340E0,2.700659513E0
1.520857935E0,2.030282974E0,-9.689333916E0,2.681505919E0
1.522841323E0,2.015917778E0,-9.718064308E0,2.674323320E0
1.524855404E0,1.984793186E0,-9.792284966E0,2.698265314E0
1.526839099E0,1.951274395E0,-9.849745750E0,2.705447912E0
1.528852719E0,1.936909199E0,-9.868899345E0,2.717418909E0
1.530836722E0,1.891419291E0,-9.921571732E0,2.719813108E0
1.532851187E0,1.869871497E0,-9.986215591E0,2.743755102E0
1.534865575E0,1.855506301E0,-1.000776291E1,2.755726099E0
1.536849886E0,1.831564307E0,-1.003888798E1,2.791639090E0
1.538862505E0,1.821987510E0,-1.005325317E1,2.813186884E0
1.540846278E0,1.807622313E0,-1.005085850E1,2.856282711E0
1.542860743E0,1.764526606E0,-1.004367638E1,2.908955097E0
1.544843746E0,1.750161409E0,-1.007001209E1,2.937685490E0
1.546857904E0,1.735796213E0,-1.005564690E1,3.007117271E0
1.548843445E0,1.709460020E0,-1.001255131E1,3.057395458E0
1.550856064E0,1.687912226E0,-1.000058079E1,3.081337690E0
1.552839529E0,1.675941229E0,-9.964667320E0,3.157952070E0
1.554855148E0,1.649604917E0,-9.919178009E0,3.217807055E0
1.556837690E0,1.654393315E0,-9.900024414E0,3.239354849E0
1.558852386E0,1.632845521E0,-9.847352028E0,3.270479441E0
1.560835158E0,1.611297727E0,-9.792284966E0,3.303998232E0
1.562849084E0,1.601720929E0,-9.775525093E0,3.315969467E0
1.564864781E0,1.563413739E0,-9.696516991E0,3.349488258E0
1.566847553E0,1.551442742E0,-9.641449928E0,3.371036053E0
1.568861942E0,1.517923832E0,-9.617507935E0,3.380612850E0
1.570845329E0,1.515529633E0,-9.591172218E0,3.394978046E0
1.572859487E0,1.501164436E0,-9.560047150E0,3.399766445E0
1.574844721E0,1.484405041E0,-9.514557838E0,3.406949043E0
1.576857417E0,1.465251446E0,-9.485827446E0,3.416525841E0
1.578841420E0,1.450886250E0,-9.476250648E0,3.416525841E0
1.580855501E0,1.426944256E0,-9.449913979E0,3.423708439E0
1.582838043E0,1.412579060E0,-9.418789864E0,3.411737442E0
1.584853122E0,1.395819545E0,-9.404424667E0,3.404554844E0
1.586837434E0,1.379060149E0,-9.382876396E0,3.397372246E0
1.588851591E0,1.362300754E0,-9.368511200E0,3.390189648E0
1.590834057E0,1.355118155E0,-9.358934402E0,3.378218651E0
1.592849444E0,1.343147159E0,-9.334992409E0,3.366247654E0
1.594863217E0,1.309628367E0,-9.318233490E0,3.361459255E0
1.596846374E0,1.307234168E0,-9.325415611E0,3.354276657E0
1.598860224E0,1.276109457E0,-9.308655739E0,3.327940464E0
1.600843920E0,1.273715258E0,-9.289502144E0,3.323152065E0
1.602858384E0,1.271321058E0,-9.279925346E0,3.315969467E0
1.604842927E0,1.256955862E0,-9.253589630E0,3.282450438E0
1.606856468E0,1.249773264E0,-9.236829758E0,3.268085241E0
1.608839318E0,1.235408068E0,-9.222464561E0,3.227383852E0
1.610854321E0,1.225831270E0,-9.188945770E0,3.210624456E0
1.612837402E0,1.225831270E0,-9.169792175E0,3.196259260E0
1.614852559E0,1.242590666E0,-9.136273384E0,3.160346270E0
1.616836255E0,1.254561663E0,-9.121908188E0,3.131615877E0
1.618849797E0,1.259350061E0,-9.107542992E0,3.112462282E0
1.620864262E0,1.252167463E0,-9.093177795E0,3.088520288E0
1.622846958E0,1.244984865E0,-9.069235802E0,3.064578056E0
1.624858038E0,1.242590666E0,-9.052476883E0,3.062183857E0
1.626845119E0,1.264138460E0,-9.057265282E0,3.064578056E0
1.628858968E0,1.266532660E0,-9.023746490E0,3.040636063E0
1.630842741E0,1.266532660E0,-9.014169693E0,3.033453465E0
1.632857206E0,1.247379065E0,-9.009381294E0,3.035847664E0
1.634842133E0,1.233013868E0,-9.004592896E0,3.026270866E0
1.636855674E0,1.221042871E0,-9.028534889E0,3.021482468E0
1.638838678E0,1.213860273E0,-9.047688484E0,3.016694069E0
1.640852835E0,1.216254473E0,-9.066842079E0,3.016694069E0
1.642836300E0,1.211466074E0,-9.074024200E0,3.002328873E0
1.644851073E0,1.194706678E0,-9.102754593E0,2.983175278E0
1.646864845E0,1.201889277E0,-9.112331390E0,2.966415882E0
1.648848003E0,1.187524080E0,-9.124302864E0,2.954444885E0
1.650862390E0,1.154005170E0,-9.155426979E0,2.956839085E0
1.652846779E0,1.137245774E0,-9.179368973E0,2.949656487E0
1.654860321E0,1.144428372E0,-9.196128845E0,2.930502892E0
1.656843940E0,1.125274777E0,-9.229647636E0,2.930502892E0
1.658857866E0,1.120486379E0,-9.258378029E0,2.932897091E0
1.660841793E0,1.118092179E0,-9.318233490E0,2.928108692E0
1.662855719E0,1.108515382E0,-9.361329079E0,2.925714493E0
1.664839107E0,1.094150186E0,-9.385271072E0,2.911349297E0
1.666854111E0,1.101332784E0,-9.421183586E0,2.901772499E0
1.668837575E0,1.110909581E0,-9.445125580E0,2.904166698E0
1.670851426E0,1.142034173E0,-9.488221169E0,2.887407303E0
1.672866198E0,1.151610970E0,-9.536105156E0,2.863465309E0
1.674850817E0,1.132457376E0,-9.552865028E0,2.849100113E0
1.676863974E0,1.084573388E0,-9.595960617E0,2.873042107E0
1.678847363E0,1.060631394E0,-9.634267807E0,2.846705914E0
1.680861596E0,1.055842996E0,-9.639056206E0,2.834734917E0
1.682844984E0,1.046266198E0,-9.662998199E0,2.829946518E0
1.684859680E0,1.039083481E0,-9.682151794E0,2.832340717E0
1.686842529E0,1.034295082E0,-9.689333916E0,2.827552319E0
1.688857226E0,1.031900883E0,-9.715670586E0,2.849100113E0
1.690840613E0,1.027112484E0,-9.739612579E0,2.849100113E0
1.692854771E0,1.034295082E0,-9.751583099E0,2.861071110E0
1.694838774E0,1.029506683E0,-9.768342972E0,2.870647907E0
1.696852394E0,1.019929886E0,-9.770736694E0,2.880224705E0
1.698836320E0,9.935936928E-1,-9.768342972E0,2.882618904E0
1.700850554E0,9.864110947E-1,-9.816226959E0,2.894589901E0
1.702864634E0,9.696516991E-1,-9.840168953E0,2.899378300E0
1.704847484E0,9.409212470E-1,-9.859322548E0,2.913743496E0
1.706861565E0,9.217676520E-1,-9.876082420E0,2.928108692E0
1.708846491E0,9.097966552E-1,-9.888052940E0,2.930502892E0
1.710860033E0,8.954314590E-1,-9.897629738E0,2.928108692E0
1.712844113E0,8.738836050E-1,-9.914389610E0,2.928108692E0
1.714858502E0,8.595184088E-1,-9.911994934E0,2.935291290E0
1.716841889E0,8.307880163E-1,-9.876082420E0,2.944868088E0
1.718855739E0,8.236053586E-1,-9.873687744E0,2.942473888E0
1.720839127E0,8.068459630E-1,-9.868899345E0,2.942473888E0
1.722854515E0,7.685387731E-1,-9.873687744E0,2.942473888E0
1.724838288E0,7.493851185E-1,-9.844957352E0,2.937685490E0
1.726851522E0,7.517793179E-1,-9.830592155E0,2.935291290E0
1.728866295E0,7.350199223E-1,-9.809044838E0,2.937685490E0
1.730849067E0,7.230489254E-1,-9.763554573E0,2.940079689E0
1.732862840E0,7.110779285E-1,-9.734824181E0,2.940079689E0
1.734848382E0,7.086837292E-1,-9.701305389E0,2.913743496E0
1.736862232E0,6.967126727E-1,-9.684545517E0,2.906560898E0
1.738844773E0,6.775590777E-1,-9.646238327E0,2.911349297E0
1.740858547E0,6.655880809E-1,-9.603142738E0,2.906560898E0
1.742842857E0,6.536170840E-1,-9.574412346E0,2.896984100E0
1.744856707E0,6.464344859E-1,-9.533711433E0,2.894589901E0
1.746841018E0,6.607996821E-1,-9.476250648E0,2.873042107E0
1.748854867E0,6.488286853E-1,-9.464279175E0,2.863465309E0
1.750837948E0,6.368576288E-1,-9.442731857E0,2.839523315E0
1.752852413E0,6.440402865E-1,-9.411606789E0,2.791639090E0
1.754837648E0,6.392518282E-1,-9.385271072E0,2.774879694E0
1.756850651E0,6.344634295E-1,-9.346963882E0,2.758120298E0
1.758865039E0,6.392518282E-1,-9.323021889E0,2.741360903E0
1.760847888E0,6.512228847E-1,-9.308655739E0,2.734178305E0
1.762862661E0,6.464344859E-1,-9.301473618E0,2.722207308E0
1.764846972E0,6.488286853E-1,-9.289502144E0,2.712630510E0
1.766860745E0,6.512228847E-1,-9.277531624E0,2.681505919E0
1.768843826E0,6.751648784E-1,-9.258378029E0,2.659958124E0
1.770857675E0,6.751648784E-1,-9.263166428E0,2.652775526E0
1.772841448E0,6.799532771E-1,-9.258378029E0,2.626439333E0
1.774855912E0,6.799532771E-1,-9.272743225E0,2.578555346E0
1.776839532E0,6.679822803E-1,-9.277531624E0,2.554613113E0
1.778853073E0,6.943184733E-1,-9.277531624E0,2.513911724E0
1.780836538E0,7.086837292E-1,-9.272743225E0,2.487575531E0
1.782851234E0,7.134721279E-1,-9.282320023E0,2.482787132E0
1.784865160E0,7.206547260E-1,-9.294290543E0,2.468421936E0
1.786848549E0,6.991068721E-1,-9.315838814E0,2.466027737E0
1.788863321E0,6.895300746E-1,-9.318233490E0,2.470816135E0
1.790847325E0,6.775590777E-1,-9.330204010E0,2.482787132E0
1.792861482E0,6.488286853E-1,-9.346963882E0,2.473210335E0
1.794846332E0,6.296750307E-1,-9.349357605E0,2.466027737E0
1.796859335E0,6.248866320E-1,-9.370905876E0,2.482787132E0
1.798842339E0,6.224924326E-1,-9.382876396E0,2.487575531E0
1.800857419E0,5.961562395E-1,-9.370905876E0,2.492363930E0
1.802840268E0,5.674257874E-1,-9.358934402E0,2.487575531E0
1.804856195E0,5.554547906E-1,-9.361329079E0,2.489969730E0
1.806838737E0,5.506663918E-1,-9.370905876E0,2.489969730E0
1.808852587E0,5.291185975E-1,-9.363722801E0,2.485181332E0
1.810836205E0,5.219359994E-1,-9.366117477E0,2.482787132E0
1.812850055E0,4.932055473E-1,-9.370905876E0,2.492363930E0
1.814865135E0,4.477157295E-1,-9.366117477E0,2.511517525E0
1.816848832E0,4.333505034E-1,-9.373299599E0,2.518700123E0
1.818861527E0,4.261679053E-1,-9.370905876E0,2.504334927E0
1.820845531E0,4.189853072E-1,-9.356540680E0,2.497152328E0
1.822860534E0,4.046200812E-1,-9.349357605E0,2.501940727E0
1.824843306E0,3.734954596E-1,-9.368511200E0,2.513911724E0
1.826859310E0,3.615244627E-1,-9.373299599E0,2.504334927E0
1.828841775E0,3.543418646E-1,-9.370905876E0,2.499546528E0
1.830854702E0,3.351882398E-1,-9.390059471E0,2.489969730E0
1.832839936E0,3.327940404E-1,-9.390059471E0,2.501940727E0
1.834854094E0,3.232172430E-1,-9.373299599E0,2.497152328E0
1.836837558E0,3.064578176E-1,-9.406818390E0,2.492363930E0
1.838851639E0,3.064578176E-1,-9.387664795E0,2.485181332E0
1.840865257E0,2.944868207E-1,-9.358934402E0,2.499546528E0
1.842849260E0,2.753331959E-1,-9.409213066E0,2.530671120E0
1.844863649E0,2.681505978E-1,-9.423578262E0,2.542642117E0
1.846847421E0,2.585737705E-1,-9.447520256E0,2.542642117E0
1.848860656E0,2.585737705E-1,-9.457097054E0,2.525882721E0
1.850844659E0,2.489969730E-1,-9.457097054E0,2.528276920E0
1.852858432E0,2.442085743E-1,-9.471462250E0,2.525882721E0
1.854843743E0,2.274491638E-1,-9.488221169E0,2.545036316E0
1.856856901E0,2.274491638E-1,-9.493009567E0,2.557007313E0
1.858840058E0,2.346317619E-1,-9.483432770E0,2.597708941E0
1.860853908E0,2.394201756E-1,-9.481039047E0,2.619256735E0
1.862838526E0,2.513911724E-1,-9.481039047E0,2.633621931E0
1.864848991E0,2.394201756E-1,-9.495404243E0,2.650381327E0
1.866865226E0,2.370259613E-1,-9.497797966E0,2.657563925E0
1.868850536E0,2.322375625E-1,-9.509769440E0,2.669534922E0
1.870864079E0,2.418143749E-1,-9.485827446E0,2.676717520E0
1.872847466E0,2.561795712E-1,-9.473855972E0,2.679111719E0
1.874864009E0,2.777273953E-1,-9.464279175E0,2.662352324E0
1.876845627E0,2.873041928E-1,-9.447520256E0,2.659958124E0
1.878859785E0,2.849099934E-1,-9.440337181E0,2.667140722E0
1.880842865E0,2.873041928E-1,-9.445125580E0,2.695871115E0
1.882857637E0,3.088520169E-1,-9.442731857E0,2.705447912E0
1.884840949E0,3.160346150E-1,-9.447520256E0,2.703053713E0
1.886855798E0,3.303998411E-1,-9.437943459E0,2.695871115E0
1.888838494E0,3.471592367E-1,-9.425971985E0,2.710236311E0
1.890853574E0,3.495534360E-1,-9.411606789E0,2.715024710E0
1.892837347E0,3.591302633E-1,-9.414001465E0,2.707842112E0
1.894852120E0,3.567360640E-1,-9.409213066E0,2.707842112E0
1.896865355E0,3.471592367E-1,-9.397241592E0,2.710236311E0
1.898849665E0,3.303998411E-1,-9.392453194E0,2.726995707E0
1.900862592E0,3.256114423E-1,-9.382876396E0,2.738966703E0
1.902846595E0,3.040636182E-1,-9.368511200E0,2.758120298E0
1.904859829E0,2.920926213E-1,-9.370905876E0,2.779668093E0
1.906845602E0,2.920926213E-1,-9.363722801E0,2.779668093E0
1.908859221E0,2.825157940E-1,-9.344569206E0,2.767697096E0
1.910842302E0,2.609679997E-1,-9.327810287E0,2.743755102E0
1.912856458E0,2.537853718E-1,-9.323021889E0,2.748543501E0
1.914840693E0,2.466027737E-1,-9.315838814E0,2.777273893E0
1.916854542E0,2.322375625E-1,-9.325415611E0,2.782062292E0
1.918837700E0,2.346317619E-1,-9.318233490E0,2.774879694E0
1.920851857E0,2.226607651E-1,-9.315838814E0,2.794033289E0
1.922866860E0,2.106897533E-1,-9.325415611E0,2.803610086E0
1.924850941E0,2.011129409E-1,-9.334992409E0,2.810792685E0
1.926864098E0,1.843535304E-1,-9.342175484E0,2.784456491E0
1.928847871E0,1.771709323E-1,-9.337387085E0,2.772485495E0
1.930862566E0,1.699883193E-1,-9.327810287E0,2.770091295E0
1.932845724E0,1.508347094E-1,-9.339780807E0,2.770091295E0
1.934860189E0,1.292868853E-1,-9.339780807E0,2.774879694E0
1.936843808E0,1.101332754E-1,-9.334992409E0,2.760514498E0
1.938857734E0,9.576806426E-2,-9.315838814E0,2.743755102E0
1.940841353E0,9.097966552E-2,-9.315838814E0,2.738966703E0
1.942854972E0,6.224924326E-2,-9.299078941E0,2.746149302E0
1.944838667E0,4.309562966E-2,-9.306262016E0,2.736572504E0
1.946852210E0,3.830722719E-2,-9.287108421E0,2.726995707E0
1.948867521E0,1.675941236E-2,-9.270348549E0,2.722207308E0
1.950851217E0,-9.576806799E-3,-9.236829758E0,2.698265314E0
1.952865066E0,-2.154781483E-2,-9.236829758E0,2.698265314E0
1.954850301E0,-3.830722719E-2,-9.229647636E0,2.703053713E0
1.956863611E0,-5.027823523E-2,-9.212887764E0,2.700659513E0
1.958846923E0,-4.548983276E-2,-9.203310966E0,2.703053713E0
1.960861157E0,-5.506663769E-2,-9.169792175E0,2.715024710E0
1.962843852E0,-6.464344263E-2,-9.162610054E0,2.724601507E0
1.964859318E0,-7.422025502E-2,-9.181763649E0,2.748543501E0
1.966842090E0,-7.661445439E-2,-9.174580574E0,2.741360903E0
1.968856556E0,-8.140286058E-2,-9.172186852E0,2.746149302E0
1.970840251E0,-7.661445439E-2,-9.167398453E0,2.753331900E0
1.972854024E0,-7.422025502E-2,-9.169792175E0,2.774879694E0
1.974838950E0,-8.140286058E-2,-9.160215378E0,2.782062292E0
1.976851877E0,-7.182604820E-2,-9.167398453E0,2.798821688E0
1.978865726E0,-5.985504389E-2,-9.193734169E0,2.834734917E0
1.980849500E0,-5.027823523E-2,-9.203310966E0,2.846705914E0
1.982863657E0,-3.112462163E-2,-9.205705643E0,2.858676910E0
1.984847352E0,-2.394201607E-2,-9.215282440E0,2.865859509E0
1.986862125E0,-1.436521020E-2,-9.212887764E0,2.882618904E0
1.988846128E0,1.675941236E-2,-9.232041359E0,2.913743496E0
1.990859363E0,2.873042040E-2,-9.251194954E0,2.916137695E0
1.992842981E0,3.830722719E-2,-9.265560150E0,2.918531895E0
1.994858139E0,4.788403213E-2,-9.277531624E0,2.930502892E0
1.996841527E0,5.985504389E-2,-9.282320023E0,2.944868088E0
1.998854762E0,8.140286058E-2,-9.270348549E0,2.966415882E0
2.000838765E0,1.029506698E-1,-9.263166428E0,2.961627483E0
2.002852921E0,1.149216816E-1,-9.260771751E0,2.954444885E0
2.004836848E0,1.316810995E-1,-9.275136948E0,2.947262287E0
2.006851005E0,1.484405100E-1,-9.275136948E0,2.935291290E0
2.008865779E0,1.508347094E-1,-9.255983353E0,2.928108692E0
2.010848858E0,1.675941199E-1,-9.222464561E0,2.923320293E0
2.012862786E0,2.035071403E-1,-9.203310966E0,2.923320293E0
2.014847404E0,2.082955539E-1,-9.205705643E0,2.923320293E0
2.016860562E0,2.082955539E-1,-9.208099365E0,2.930502892E0
2.018843334E0,2.202665508E-1,-9.186552048E0,2.918531895E0
2.020858723E0,2.226607651E-1,-9.162610054E0,2.920926094E0
2.022842110E0,2.202665508E-1,-9.138668060E0,2.925714493E0
2.024855652E0,2.202665508E-1,-9.119514465E0,2.920926094E0
2.026839117E0,2.322375625E-1,-9.133879662E0,2.918531895E0
2.028855043E0,2.370259613E-1,-9.153033257E0,2.918531895E0
2.030837817E0,2.274491638E-1,-9.143456459E0,2.908955097E0
2.032851973E0,2.178723514E-1,-9.131484985E0,2.906560898E0
2.034866131E0,2.178723514E-1,-9.145850182E0,2.925714493E0
2.036849827E0,2.059013397E-1,-9.153033257E0,2.920926094E0
2.038863754E0,2.059013397E-1,-9.169792175E0,2.911349297E0
2.040847372E0,1.987187415E-1,-9.157821655E0,2.916137695E0
2.042860683E0,1.963245422E-1,-9.157821655E0,2.913743496E0
2.044846225E0,1.987187415E-1,-9.150638580E0,2.904166698E0
2.046859690E0,1.915361285E-1,-9.155426979E0,2.928108692E0
2.048843078E0,1.915361285E-1,-9.157821655E0,2.937685490E0
2.050856928E0,2.035071403E-1,-9.150638580E0,2.937685490E0
2.052841008E0,1.939303428E-1,-9.167398453E0,2.949656487E0
2.054855704E0,1.843535304E-1,-9.157821655E0,2.959233284E0
2.056838785E0,1.771709323E-1,-9.174580574E0,2.961627483E0
2.058852711E0,1.843535304E-1,-9.176975250E0,2.975992680E0
2.060836945E0,1.843535304E-1,-9.153033257E0,2.990357876E0
2.062850487E0,1.771709323E-1,-9.160215378E0,2.987963676E0
2.064864029E0,1.771709323E-1,-9.153033257E0,2.980781078E0
2.066849033E0,1.675941199E-1,-9.160215378E0,2.985569477E0
2.068863420E0,1.747767180E-1,-9.141061783E0,3.016694069E0
2.070845040E0,1.771709323E-1,-9.138668060E0,3.028665066E0
2.072860966E0,1.819593310E-1,-9.133879662E0,3.033453465E0
2.074844739E0,2.035071403E-1,-9.153033257E0,3.031059265E0
2.076857973E0,2.059013397E-1,-9.150638580E0,3.038241863E0
2.078842207E0,2.106897533E-1,-9.133879662E0,3.045424461E0
2.080856364E0,2.202665508E-1,-9.136273384E0,3.057395458E0
2.082840136E0,2.178723514E-1,-9.148244858E0,3.059789658E0
2.084854217E0,2.250549644E-1,-9.155426979E0,3.057395458E0
2.086838220E0,2.322375625E-1,-9.153033257E0,3.066972494E0
2.088852148E0,2.466027737E-1,-9.150638580E0,3.078943491E0
2.090865920E0,2.609679997E-1,-9.160215378E0,3.083731890E0
2.092850539E0,2.753331959E-1,-9.155426979E0,3.083731890E0
2.094864081E0,2.777273953E-1,-9.150638580E0,3.095702887E0
2.096847238E0,2.801215947E-1,-9.169792175E0,3.093308687E0
2.098861626E0,2.825157940E-1,-9.162610054E0,3.105279684E0
2.100844706E0,2.873041928E-1,-9.160215378E0,3.117250681E0
2.102859172E0,2.944868207E-1,-9.157821655E0,3.134010077E0
2.104842328E0,2.968810201E-1,-9.157821655E0,3.138798475E0
2.106856409E0,2.849099934E-1,-9.133879662E0,3.131615877E0
2.108840797E0,2.729389966E-1,-9.121908188E0,3.138798475E0
2.110854339E0,2.777273953E-1,-9.105149269E0,3.148375273E0
2.112838881E0,2.729389966E-1,-9.097966194E0,3.165134668E0
2.114853346E0,2.777273953E-1,-9.076418877E0,3.165134668E0
2.116836734E0,2.777273953E-1,-9.064447403E0,3.177105665E0
2.118850276E0,2.849099934E-1,-9.047688484E0,3.181894064E0
2.120865049E0,2.777273953E-1,-9.045293808E0,3.172317266E0
2.122847590E0,2.849099934E-1,-9.040505409E0,3.169923067E0
2.124863287E0,2.537853718E-1,-9.014169693E0,3.155557871E0
2.126846290E0,2.442085743E-1,-9.004592896E0,3.155557871E0
2.128860217E0,2.609679997E-1,-8.997409821E0,3.162740469E0
2.130843912E0,2.561795712E-1,-8.971074104E0,3.160346270E0
2.132857762E0,2.418143749E-1,-8.963891029E0,3.165134668E0
2.134841765E0,2.322375625E-1,-8.963891029E0,3.162740469E0
2.136856538E0,2.442085743E-1,-8.956708908E0,3.169923067E0
2.138839541E0,2.513911724E-1,-8.959102631E0,3.165134668E0
2.140854315E0,2.705447972E-1,-8.947132111E0,3.162740469E0
2.142836548E0,2.585737705E-1,-8.947132111E0,3.179499865E0
2.144850936E0,2.537853718E-1,-8.956708908E0,3.181894064E0
2.146866709E0,2.561795712E-1,-8.966285706E0,3.174711466E0
2.148850097E0,2.657563984E-1,-8.983044624E0,3.167528868E0
2.150862947E0,2.537853718E-1,-8.995016098E0,3.167528868E0
2.152847258E0,2.657563984E-1,-8.995016098E0,3.165134668E0
2.154862031E0,2.729389966E-1,-9.014169693E0,3.160346270E0
2.156844880E0,2.849099934E-1,-9.033323288E0,3.160346270E0
2.158859653E0,2.777273953E-1,-9.033323288E0,3.167528868E0
2.160842118E0,2.849099934E-1,-9.023746490E0,3.167528868E0
2.162856582E0,2.896983922E-1,-9.033323288E0,3.153163671E0
2.164840817E0,3.064578176E-1,-9.045293808E0,3.148375273E0
2.166854743E0,3.040636182E-1,-9.047688484E0,3.138798475E0
2.168838132E0,3.399766386E-1,-9.076418877E0,3.124433279E0
2.170852212E0,3.543418646E-1,-9.083600998E0,3.126827478E0
2.172866370E0,3.687070608E-1,-9.093177795E0,3.126827478E0
2.174851911E0,3.950432837E-1,-9.100360870E0,3.122039080E0
2.176864530E0,4.070142806E-1,-9.126696587E0,3.112462282E0
2.178848226E0,4.165911078E-1,-9.143456459E0,3.122039080E0
2.180862691E0,4.429273009E-1,-9.148244858E0,3.131615877E0
2.182845771E0,4.572925270E-1,-9.155426979E0,3.107673883E0
2.184856543E0,4.740519226E-1,-9.155426979E0,3.095702887E0
2.186843086E0,5.075707436E-1,-9.191340446E0,3.081337690E0
2.188858089E0,5.363011956E-1,-9.193734169E0,3.074155092E0
2.190842785E0,5.746083856E-1,-9.220070839E0,3.074155092E0
2.192856019E0,6.081272364E-1,-9.244012833E0,3.078943491E0
2.194840638E0,6.320692301E-1,-9.246406555E0,3.076549292E0
2.196854488E0,6.512228847E-1,-9.265560150E0,3.066972494E0
2.198837184E0,6.799532771E-1,-9.296685219E0,3.047818661E0
2.200850802E0,6.919242740E-1,-9.301473618E0,3.045424461E0
2.202865575E0,6.967126727E-1,-9.311050415E0,3.050212860E0
2.204848963E0,7.206547260E-1,-9.332598686E0,3.052607059E0
2.206862812E0,7.182605267E-1,-9.351752281E0,3.050212860E0
2.208846739E0,7.278373241E-1,-9.366117477E0,3.050212860E0
2.210861204E0,7.422025204E-1,-9.378087997E0,3.040636063E0
2.212845208E0,7.565677166E-1,-9.382876396E0,3.028665066E0
2.214860057E0,7.541735172E-1,-9.399636269E0,3.023876667E0
2.216842446E0,7.661445141E-1,-9.406818390E0,3.035847664E0
2.218856987E0,7.565677166E-1,-9.418789864E0,3.033453465E0
2.220840606E0,7.589619160E-1,-9.440337181E0,3.035847664E0
2.222854533E0,7.589619160E-1,-9.449913979E0,3.033453465E0
2.224838151E0,7.637503147E-1,-9.454702377E0,3.026270866E0
2.226853847E0,7.637503147E-1,-9.459490776E0,3.009511471E0
2.228836389E0,7.589619160E-1,-9.469067574E0,2.995146275E0
2.230849624E0,7.661445141E-1,-9.469067574E0,2.987963676E0
2.232864627E0,7.445967197E-1,-9.495404243E0,2.980781078E0
2.234849246E0,7.350199223E-1,-9.500192642E0,2.978386879E0
2.236862787E0,7.230489254E-1,-9.495404243E0,2.971204281E0
2.238845561E0,7.158663273E-1,-9.493009567E0,2.961627483E0
2.240860025E0,7.086837292E-1,-9.495404243E0,2.952050686E0
2.242844028E0,7.015010715E-1,-9.512163162E0,2.947262287E0
2.244857955E0,6.751648784E-1,-9.509769440E0,2.944868088E0
2.246840958E0,6.584054828E-1,-9.514557838E0,2.944868088E0
2.248855501E0,6.464344859E-1,-9.509769440E0,2.937685490E0
2.250839735E0,6.416460276E-1,-9.495404243E0,2.940079689E0
2.252852969E0,6.320692301E-1,-9.507374763E0,2.944868088E0
2.254868434E0,6.344634295E-1,-9.536105156E0,2.925714493E0
2.256851746E0,6.392518282E-1,-9.531316757E0,2.925714493E0
2.258865056E0,6.248866320E-1,-9.504981041E0,2.928108692E0
2.260848982E0,6.368576288E-1,-9.528923035E0,2.949656487E0
2.262863525E0,6.464344859E-1,-9.526528358E0,2.954444885E0
2.264846220E0,6.488286853E-1,-9.531316757E0,2.944868088E0
2.266860147E0,6.560112834E-1,-9.519346237E0,2.942473888E0
2.268844689E0,6.584054828E-1,-9.528923035E0,2.942473888E0
2.270858308E0,6.823474765E-1,-9.538499832E0,2.932897091E0
2.272842850E0,6.967126727E-1,-9.512163162E0,2.923320293E0
2.274857084E0,7.086837292E-1,-9.504981041E0,2.918531895E0
2.276840395E0,7.230489254E-1,-9.485827446E0,2.944868088E0
2.278854553E0,7.230489254E-1,-9.481039047E0,2.940079689E0
2.280838017E0,7.374141216E-1,-9.485827446E0,2.944868088E0
2.282851867E0,7.637503147E-1,-9.471462250E0,2.947262287E0
2.284867255E0,7.661445141E-1,-9.449913979E0,2.940079689E0
2.286850335E0,7.589619160E-1,-9.433155060E0,2.942473888E0
2.288864108E0,7.829039693E-1,-9.411606789E0,2.944868088E0
2.290847265E0,7.876923680E-1,-9.404424667E0,2.947262287E0
2.292862346E0,7.900865674E-1,-9.414001465E0,2.954444885E0
2.294846272E0,7.924807668E-1,-9.411606789E0,2.961627483E0
2.296860199E0,7.924807668E-1,-9.394847870E0,2.956839085E0
2.298843587E0,7.948749661E-1,-9.390059471E0,2.959233284E0
2.300857976E0,7.900865674E-1,-9.392453194E0,2.956839085E0
2.302841363E0,7.900865674E-1,-9.397241592E0,2.947262287E0
2.304855597E0,8.283938169E-1,-9.390059471E0,2.947262287E0
2.306839832E0,8.307880163E-1,-9.382876396E0,2.956839085E0
2.308853681E0,8.403648138E-1,-9.392453194E0,2.961627483E0
2.310836223E0,8.403648138E-1,-9.387664795E0,2.959233284E0
2.312851534E0,8.403648138E-1,-9.366117477E0,2.959233284E0
2.314867000E0,8.355764151E-1,-9.366117477E0,2.954444885E0
2.316849695E0,8.475474119E-1,-9.358934402E0,2.980781078E0
2.318862930E0,8.475474119E-1,-9.346963882E0,2.983175278E0
2.320846394E0,8.475474119E-1,-9.344569206E0,2.997540474E0
2.322861090E0,8.379706144E-1,-9.334992409E0,3.007117271E0
2.324844478E0,8.355764151E-1,-9.346963882E0,3.009511471E0
2.326858712E0,8.331822157E-1,-9.327810287E0,3.019088268E0
2.328842331E0,8.331822157E-1,-9.311050415E0,3.031059265E0
2.330856180E0,8.259995580E-1,-9.315838814E0,3.028665066E0
2.332840261E0,8.236053586E-1,-9.306262016E0,3.050212860E0
2.334854418E0,8.020575643E-1,-9.291896820E0,3.069366693E0
2.336838038E0,7.900865674E-1,-9.287108421E0,3.071760893E0
2.338851964E0,7.733271718E-1,-9.289502144E0,3.081337690E0
2.340865737E0,7.445967197E-1,-9.289502144E0,3.078943491E0
2.342849509E0,7.326257229E-1,-9.275136948E0,3.083731890E0
2.344863666E0,7.110779285E-1,-9.279925346E0,3.098097086E0
2.346847670E0,6.991068721E-1,-9.284713745E0,3.090914488E0
2.348862365E0,6.991068721E-1,-9.284713745E0,3.095702887E0
2.350845139E0,6.727706790E-1,-9.284713745E0,3.100491285E0
2.352859680E0,6.631938815E-1,-9.294290543E0,3.105279684E0
2.354844299E0,6.560112834E-1,-9.282320023E0,3.117250681E0
2.356857149E0,6.584054828E-1,-9.260771751E0,3.126827478E0
2.358841230E0,6.464344859E-1,-9.265560150E0,3.134010077E0
2.360855925E0,6.200982332E-1,-9.272743225E0,3.136404276E0
2.362838774E0,6.081272364E-1,-9.279925346E0,3.162740469E0
2.364853547E0,6.057330370E-1,-9.289502144E0,3.162740469E0
2.366837243E0,5.746083856E-1,-9.303867340E0,3.165134668E0
2.368850708E0,5.482721925E-1,-9.318233490E0,3.172317266E0
2.370865250E0,5.506663918E-1,-9.315838814E0,3.179499865E0
2.372848023E0,5.530605912E-1,-9.332598686E0,3.191470861E0
2.374863718E0,5.339069963E-1,-9.342175484E0,3.201047659E0
2.376847414E0,5.386953950E-1,-9.346963882E0,3.210624456E0
2.378860879E0,5.363011956E-1,-9.346963882E0,3.222595453E0
2.380844344E0,5.339069963E-1,-9.380482674E0,3.227383852E0
2.382858117E0,5.482721925E-1,-9.375694275E0,3.241749048E0
2.384841274E0,5.674257874E-1,-9.382876396E0,3.234566450E0
2.386856662E0,5.650315881E-1,-9.385271072E0,3.217807055E0
2.388839973E0,5.841852427E-1,-9.397241592E0,3.198653460E0
2.390853592E0,5.961562395E-1,-9.402029991E0,3.196259260E0
2.392838441E0,6.033388376E-1,-9.402029991E0,3.205836058E0
2.394852369E0,6.177040339E-1,-9.409213066E0,3.215412855E0
2.396866218E0,6.392518282E-1,-9.418789864E0,3.198653460E0
2.398849222E0,6.296750307E-1,-9.421183586E0,3.191470861E0
2.400864071E0,6.416460276E-1,-9.440337181E0,3.177105665E0
2.402847151E0,6.607996821E-1,-9.457097054E0,3.169923067E0
2.404861924E0,6.560112834E-1,-9.469067574E0,3.160346270E0
2.406845004E0,6.631938815E-1,-9.459490776E0,3.162740469E0
2.408860393E0,6.727706790E-1,-9.440337181E0,3.155557871E0
2.410843703E0,6.703764796E-1,-9.433155060E0,3.157952070E0
2.412857938E0,6.775590777E-1,-9.440337181E0,3.155557871E0
2.414841941E0,6.775590777E-1,-9.423578262E0,3.150769472E0
2.416855176E0,6.679822803E-1,-9.423578262E0,3.167528868E0
2.418838871E0,6.631938815E-1,-9.425971985E0,3.165134668E0
2.420853336E0,6.727706790E-1,-9.437943459E0,3.160346270E0
2.422836109E0,6.703764796E-1,-9.435548782E0,3.155557871E0
2.424848343E0,6.703764796E-1,-9.428366661E0,3.155557871E0
2.426865039E0,6.679822803E-1,-9.435548782E0,3.157952070E0
2.428848350E0,6.655880809E-1,-9.433155060E0,3.148375273E0
2.430862508E0,6.703764796E-1,-9.430760384E0,3.129221678E0
2.432846280E0,6.703764796E-1,-9.442731857E0,3.131615877E0
2.434860976E0,6.607996821E-1,-9.440337181E0,3.136404276E0
2.436844748E0,6.440402865E-1,-9.437943459E0,3.138798475E0
2.438859214E0,6.464344859E-1,-9.445125580E0,3.131615877E0
2.440841601E0,6.440402865E-1,-9.442731857E0,3.124433279E0
2.442856451E0,6.440402865E-1,-9.425971985E0,3.126827478E0
2.444839762E0,6.272808313E-1,-9.425971985E0,3.129221678E0
2.446854227E0,6.248866320E-1,-9.445125580E0,3.134010077E0
2.448730769E0,6.296750307E-1,-9.447520256E0,3.145981073E0
2.450744537E0,6.296750307E-1,-9.452308655E0,3.143586874E0
2.452758459E0,6.200982332E-1,-9.471462250E0,3.138798475E0
2.454742458E0,6.248866320E-1,-9.473855972E0,3.129221678E0
2.456756227E0,6.296750307E-1,-9.473855972E0,3.114856482E0
2.458739688E0,6.536170840E-1,-9.471462250E0,3.117250681E0
2.460753841E0,6.584054828E-1,-9.469067574E0,3.126827478E0
2.462737147E0,6.631938815E-1,-9.464279175E0,3.148375273E0
2.464751300E0,6.703764796E-1,-9.459490776E0,3.184288263E0
2.466735915E0,6.895300746E-1,-9.461885452E0,3.198653460E0
2.468749761E0,7.015010715E-1,-9.473855972E0,3.222595453E0
2.470732914E0,7.110779285E-1,-9.461885452E0,3.234566450E0
2.472747990E0,7.134721279E-1,-9.461885452E0,3.241749048E0
2.474732604E0,7.350199223E-1,-9.452308655E0,3.258508444E0
2.476745526E0,7.589619160E-1,-9.449913979E0,3.246537447E0
2.478759064E0,7.637503147E-1,-9.454702377E0,3.251325846E0
2.480742987E0,7.709329724E-1,-9.459490776E0,3.263296843E0
2.482757216E0,7.733271718E-1,-9.457097054E0,3.272873640E0
2.484741831E0,7.948749661E-1,-9.466673851E0,3.275267839E0
2.486755061E0,8.140285611E-1,-9.452308655E0,3.282450438E0
2.488737829E0,8.044517636E-1,-9.457097054E0,3.289633036E0
2.490752290E0,7.900865674E-1,-9.445125580E0,3.277662039E0
2.492736828E0,8.116343617E-1,-9.433155060E0,3.287238836E0
2.494751288E0,8.140285611E-1,-9.433155060E0,3.301604033E0
2.496734364E0,8.259995580E-1,-9.449913979E0,3.315969467E0
2.498748594E0,8.259995580E-1,-9.425971985E0,3.318363667E0
2.500731978E0,8.307880163E-1,-9.428366661E0,3.330334663E0
2.502746132E0,8.451532125E-1,-9.409213066E0,3.325546265E0
2.504728900E0,8.499416113E-1,-9.416395187E0,3.315969467E0
2.506743591E0,8.523358107E-1,-9.414001465E0,3.318363667E0
2.508758359E0,8.619126081E-1,-9.406818390E0,3.320757866E0
2.510741820E0,8.619126081E-1,-9.385271072E0,3.325546265E0
2.512755896E0,8.667010069E-1,-9.373299599E0,3.323152065E0
2.514740819E0,8.714894056E-1,-9.368511200E0,3.313575268E0
2.516753741E0,8.690952063E-1,-9.375694275E0,3.311181068E0
2.518737509E0,8.786720037E-1,-9.387664795E0,3.313575268E0
2.520751662E0,8.786720037E-1,-9.366117477E0,3.325546265E0
2.522735046E0,8.762778044E-1,-9.366117477E0,3.318363667E0
2.524750123E0,8.667010069E-1,-9.373299599E0,3.323152065E0
2.526732891E0,8.619126081E-1,-9.375694275E0,3.320757866E0
2.528747351E0,8.643068075E-1,-9.380482674E0,3.318363667E0
2.530730120E0,8.547300100E-1,-9.375694275E0,3.332728863E0
2.532744811E0,8.571242094E-1,-9.387664795E0,3.347094059E0
2.534760271E0,8.499416113E-1,-9.397241592E0,3.347094059E0
2.536742964E0,8.523358107E-1,-9.382876396E0,3.339911461E0
2.538757117E0,8.571242094E-1,-9.325415611E0,3.251325846E0
2.540740577E0,8.714894056E-1,-9.301473618E0,3.222595453E0
2.542754115E0,8.762778044E-1,-9.344569206E0,3.354276657E0
2.544738037E0,8.690952063E-1,-9.380482674E0,3.421314240E0
2.546753113E0,8.571242094E-1,-9.397241592E0,3.442862034E0
2.548736190E0,8.499416113E-1,-9.399636269E0,3.406949043E0
2.550749727E0,8.403648138E-1,-9.409213066E0,3.394978046E0
2.552734341E0,8.283938169E-1,-9.423578262E0,3.359065056E0
2.554749494E0,8.499416113E-1,-9.428366661E0,3.337517262E0
2.556732263E0,8.595184088E-1,-9.442731857E0,3.344699860E0
2.558745723E0,8.643068075E-1,-9.452308655E0,3.351882458E0
2.560729800E0,9.074024558E-1,-9.440337181E0,3.347094059E0
2.562744261E0,9.217676520E-1,-9.435548782E0,3.337517262E0
2.564757798E0,9.552865028E-1,-9.430760384E0,3.342305660E0
2.566741412E0,9.744400978E-1,-9.430760384E0,3.361459255E0
2.568755950E0,9.911994934E-1,-9.433155060E0,3.371036053E0
2.570739027E0,1.007958889E0,-9.409213066E0,3.366247654E0
2.572753718E0,1.041477680E0,-9.390059471E0,3.368641853E0
2.574737794E0,1.043871999E0,-9.375694275E0,3.378218651E0
2.576751562E0,1.039083481E0,-9.354146004E0,3.378218651E0
2.578735946E0,1.048660398E0,-9.339780807E0,3.375824451E0
2.580748560E0,1.055842996E0,-9.291896820E0,3.397372246E0
2.582733099E0,1.060631394E0,-9.282320023E0,3.428496838E0
2.584745790E0,1.055842996E0,-9.272743225E0,3.457227230E0
2.586761712E0,1.077390790E0,-9.267954826E0,3.495534420E0
2.588744865E0,1.082179189E0,-9.284713745E0,3.512293816E0
2.590758633E0,1.077390790E0,-9.272743225E0,3.514688015E0
2.592742325E0,1.086967587E0,-9.275136948E0,3.536235809E0
2.594757786E0,1.101332784E0,-9.287108421E0,3.555389643E0
2.596740554E0,1.098938584E0,-9.291896820E0,3.572149038E0
2.598754938E0,1.127668977E0,-9.311050415E0,3.603273630E0
2.600738014E0,1.156399369E0,-9.332598686E0,3.636792421E0
2.602752474E0,1.182735682E0,-9.337387085E0,3.655946016E0
2.604737167E0,1.223437071E0,-9.370905876E0,3.670311213E0
2.606750397E0,1.261744261E0,-9.385271072E0,3.703830004E0
2.608733780E0,1.292868972E0,-9.404424667E0,3.718195200E0
2.610747241E0,1.352723956E0,-9.435548782E0,3.746925592E0
2.612731855E0,1.379060149E0,-9.447520256E0,3.761290789E0
2.614746393E0,1.436521053E0,-9.466673851E0,3.773261786E0
2.616729700E0,1.479616642E0,-9.488221169E0,3.782838583E0
2.618743930E0,1.503558636E0,-9.490615845E0,3.794809580E0
2.620757698E0,1.539471745E0,-9.514557838E0,3.813963413E0
2.622740543E0,1.592144132E0,-9.516951561E0,3.825934410E0
2.624755004E0,1.616086125E0,-9.528923035E0,3.840299606E0
2.626739849E0,1.637633920E0,-9.545681953E0,3.861847401E0
2.628754003E0,1.651999116E0,-9.545681953E0,3.859453201E0
2.630736463E0,1.661576033E0,-9.507374763E0,3.837905407E0
2.632750924E0,1.704671621E0,-9.454702377E0,3.785232782E0
2.634735538E0,1.721431017E0,-9.516951561E0,4.015076160E0
2.636748845E0,1.726219416E0,-9.543288231E0,4.096478939E0
2.638732230E0,1.740584612E0,-9.564835548E0,4.082113743E0
2.640746998E0,1.745373011E0,-9.581595421E0,4.039018154E0
2.642730074E0,1.745373011E0,-9.593565941E0,4.015076160E0
2.644744842E0,1.776497602E0,-9.627084732E0,3.991134167E0
2.646758380E0,1.798045516E0,-9.634267807E0,3.979163170E0
2.648742302E0,1.826775908E0,-9.639056206E0,3.993528366E0
2.650756532E0,1.869871497E0,-9.653421402E0,4.007893562E0
2.652740147E0,1.896207690E0,-9.670180321E0,4.000710964E0
2.654755300E0,1.927332401E0,-9.658209801E0,3.993528366E0
2.656738068E0,1.972822189E0,-9.617507935E0,3.974374771E0
2.658752144E0,1.989581585E0,-9.593565941E0,3.971980572E0
2.660735912E0,2.013523579E0,-9.598354340E0,4.043806553E0
2.662749374E0,2.030282974E0,-9.619902611E0,4.141968727E0
2.664732757E0,2.037465572E0,-9.631873131E0,4.165910721E0
2.666746987E0,2.054224968E0,-9.610325813E0,4.161122322E0
2.668731217E0,2.025494576E0,-9.619902611E0,4.163516521E0
2.670745754E0,2.023100376E0,-9.624691010E0,4.173093796E0
2.672729139E0,2.042253971E0,-9.636661530E0,4.201824188E0
2.674744830E0,2.042253971E0,-9.658209801E0,4.244919777E0
2.676757752E0,2.049436569E0,-9.658209801E0,4.259284973E0
2.678741136E0,2.054224968E0,-9.634267807E0,4.252102375E0
2.680754904E0,2.063801765E0,-9.622296333E0,4.256890774E0
2.682739211E0,2.080561161E0,-9.655815125E0,4.386177540E0
2.684753672E0,2.111685991E0,-9.691728592E0,4.525041103E0
2.686736825E0,2.126051188E0,-9.682151794E0,4.551377296E0
2.688751286E0,2.166752577E0,-9.689333916E0,4.572925091E0
2.690733746E0,2.195482969E0,-9.734824181E0,4.611232281E0
2.692748207E0,2.200271368E0,-9.749189377E0,4.632780075E0
2.694733129E0,2.229001760E0,-9.758766174E0,4.704606533E0
2.696745975E0,2.267308950E0,-9.758766174E0,4.745307922E0
2.698729974E0,2.293645144E0,-9.751583099E0,4.774038315E0
2.700744204E0,2.339135170E0,-9.765948296E0,4.900930882E0
2.702758280E0,2.396595955E0,-9.830592155E0,5.104437828E0
2.704741356E0,2.425326347E0,-9.864110947E0,5.173870087E0
2.706756816E0,2.482787132E0,-9.911994934E0,5.240907669E0
2.708740739E0,2.525882721E0,-9.931148529E0,5.243301868E0
2.710753969E0,2.604891539E0,-9.971850395E0,5.269638062E0
2.712737737E0,2.674323320E0,-1.002452278E1,5.339069843E0
2.714752736E0,2.707842112E0,-1.004846478E1,5.391742229E0
2.716735889E0,2.796427488E0,-1.011071396E1,5.468356609E0
2.718749428E0,2.851494312E0,-1.015859795E1,5.528211594E0
2.720732811E0,2.882618904E0,-1.018493366E1,5.573701382E0
2.722747195E0,2.942473888E0,-1.025675964E1,5.643133640E0
2.724731579E0,3.002328873E0,-1.029506683E1,5.714959621E0
2.726745116E0,3.047818661E0,-1.029267311E1,5.719748020E0
2.728759269E0,3.141192675E0,-1.031900978E1,5.741295815E0
2.730742577E0,3.222595453E0,-1.036210537E1,5.817910194E0
2.732757037E0,3.265691042E0,-1.040041256E1,5.849034786E0
2.734741421E0,3.378218651E0,-1.043871975E1,5.884947777E0
2.736754958E0,3.490746021E0,-1.046026707E1,5.911283970E0
2.738738880E0,3.552995205E0,-1.047702694E1,5.944802761E0
2.740752725E0,3.684676409E0,-1.052969933E1,6.033388138E0
2.742736187E0,3.761290789E0,-1.055603504E1,6.045359135E0
2.744748724E0,3.883395195E0,-1.058476543E1,6.062118530E0
2.746734570E0,3.983951569E0,-1.061828423E1,6.117185116E0
2.748748415E0,4.031835556E0,-1.063264942E1,6.141127586E0
2.750731875E0,4.129997730E0,-1.066377449E1,6.124367714E0
2.752746337E0,4.213795185E0,-1.068532181E1,6.141127586E0
2.754730336E0,4.247313976E0,-1.069011021E1,6.126761913E0
2.756744719E0,4.340687752E0,-1.066856289E1,6.095637321E0
2.758757334E0,4.424484730E0,-1.070687008E1,6.174646378E0
2.760741948E0,4.460397720E0,-1.073320580E1,6.224924564E0
2.762755870E0,4.553771496E0,-1.074996567E1,6.265625954E0
2.764740409E0,4.635174274E0,-1.074517727E1,6.246472359E0
2.766753100E0,4.690241337E0,-1.074517727E1,6.258443356E0
2.768736791E0,4.766855717E0,-1.076672459E1,6.308721542E0
2.770751483E0,4.790797710E0,-1.078348446E1,6.332663536E0
2.772734866E0,4.865017891E0,-1.078108978E1,6.325480938E0
2.774750250E0,4.934449673E0,-1.078827286E1,6.361393929E0
2.776733327E0,4.972756863E0,-1.080263805E1,6.385335922E0
2.778747864E0,5.063736439E0,-1.083376312E1,6.402095318E0
2.780730556E0,5.137956619E0,-1.084094524E1,6.349422932E0
2.782745016E0,5.178658485E0,-1.083376312E1,6.318298340E0
2.784758015E0,5.264849663E0,-1.082179165E1,6.224924564E0
2.786743784E0,5.367800236E0,-1.078827286E1,6.148310184E0
2.788757399E0,5.418078423E0,-1.077630138E1,6.102819920E0
2.790739859E0,5.525817394E0,-1.075235939E1,6.074089527E0
2.792755551E0,5.679046631E0,-1.069250488E1,6.069301128E0
2.794739242E0,5.738901615E0,-1.065898609E1,6.040570736E0
2.796752779E0,5.834669590E0,-1.059673691E1,5.966350555E0
2.798736087E0,5.940014362E0,-1.050815105E1,5.935225964E0
2.800750548E0,5.992686749E0,-1.048181534E1,5.944802761E0
2.802733701E0,6.081272125E0,-1.040041256E1,5.985504150E0
2.804748777E0,6.119579315E0,-1.032619190E1,5.999869347E0
2.806731776E0,6.205770969E0,-1.027351952E1,5.997475147E0
2.808745313E0,6.294356346E0,-1.016338634E1,6.028599739E0
2.810760082E0,6.339846134E0,-1.012268448E1,6.050147533E0
2.812743850E0,6.416460514E0,-1.005085850E1,6.074089527E0
2.814758926E0,6.478709698E0,-9.957485199E0,6.112396717E0
2.816741002E0,6.502651691E0,-9.919178009E0,6.129156113E0
2.818755155E0,6.574477673E0,-9.818621635E0,6.162675381E0
2.820739540E0,6.631938934E0,-9.749189377E0,6.227318764E0
2.822753616E0,6.670246124E0,-9.701305389E0,6.260837555E0
2.824736384E0,6.725312710E0,-9.603142738E0,6.327875137E0
2.826750229E0,6.761225700E0,-9.519346237E0,6.380547523E0
2.828734920E0,6.799532890E0,-9.478644371E0,6.409277916E0
2.830749612E0,6.873753071E0,-9.421183586E0,6.512228489E0
2.832731843E0,6.936002254E0,-9.373299599E0,6.641515732E0
2.834747842E0,6.955155849E0,-9.342175484E0,6.706159115E0
2.836731148E0,7.007828236E0,-9.308655739E0,6.811503887E0
2.838744686E0,7.036558628E0,-9.277531624E0,6.864176273E0
2.840758531E0,7.096413612E0,-9.275136948E0,6.950367451E0
2.842742530E0,7.139509678E0,-9.229647636E0,7.022193432E0
2.844757607E0,7.161057472E0,-9.208099365E0,7.067683220E0
2.846739760E0,7.206547260E0,-9.193734169E0,7.151480675E0
2.848753989E0,7.244854450E0,-9.169792175E0,7.232883453E0
2.850737988E0,7.249642849E0,-9.157821655E0,7.275979042E0
2.852752372E0,7.271190643E0,-9.155426979E0,7.354987621E0
2.854736757E0,7.295132637E0,-9.153033257E0,7.417236805E0
2.856750294E0,7.302315235E0,-9.136273384E0,7.445967197E0
2.858733370E0,7.292738438E0,-9.107542992E0,7.469909191E0
2.860747215E0,7.307103634E0,-9.078812599E0,7.484274387E0
2.862732368E0,7.319074631E0,-9.062053680E0,7.474697590E0
2.864744752E0,7.347805023E0,-8.999804497E0,7.433996201E0
2.866760675E0,7.400477409E0,-8.959102631E0,7.390900612E0
2.868744135E0,7.417236805E0,-8.937555313E0,7.362170219E0
2.870756673E0,7.453149796E0,-8.865729332E0,7.309497833E0
2.872741287E0,7.481880188E0,-8.829815865E0,7.275979042E0
2.874756055E0,7.541735172E0,-8.750806808E0,7.228095055E0
2.876738901E0,7.596801758E0,-8.664615631E0,7.177816868E0
2.878753054E0,7.606379032E0,-8.621520042E0,7.156269073E0
2.880737053E0,7.625532627E0,-8.504204750E0,7.110779285E0
2.882750283E0,7.675810814E0,-8.391676903E0,7.012616634E0
2.884734513E0,7.690176010E0,-8.327033043E0,6.971915245E0
2.886748743E0,7.723694801E0,-8.190564156E0,6.907271862E0
2.888731511E0,7.742848396E0,-8.056488991E0,6.830657482E0
2.890746896E0,7.752425194E0,-7.972691536E0,6.782773495E0
2.892729587E0,7.728483200E0,-7.807491779E0,6.708553314E0
2.894745278E0,7.671022415E0,-7.613561630E0,6.636727333E0
2.896758508E0,7.651868820E0,-7.520187378E0,6.603208065E0
2.898741892E0,7.599195957E0,-7.345410824E0,6.564900875E0
2.900756122E0,7.536946774E0,-7.206547260E0,6.572083473E0
2.902740429E0,7.503427982E0,-7.125144482E0,6.576871872E0
2.904751120E0,7.450755596E0,-6.981492043E0,6.605602264E0
2.906737350E0,7.436390400E0,-6.931213856E0,6.617573261E0
2.908752426E0,7.412448406E0,-6.828263283E0,6.646304131E0
2.910735733E0,7.417236805E0,-6.739677906E0,6.672640324E0
2.912749887E0,7.424419403E0,-6.703764915E0,6.667851925E0
2.914734193E0,7.450755596E0,-6.636727333E0,6.653486729E0
2.916747423E0,7.501033783E0,-6.605602264E0,6.631938934E0
2.918732037E0,7.510610580E0,-6.596025467E0,6.648698330E0
2.920744652E0,7.551311970E0,-6.555324078E0,6.679822922E0
2.922759728E0,7.582436562E0,-6.540958881E0,6.701370716E0
2.924743805E0,7.584830761E0,-6.524199486E0,6.698976517E0
2.926757034E0,7.603984833E0,-6.509834290E0,6.706159115E0
2.928741341E0,7.611167431E0,-6.490680695E0,6.754043102E0
2.930755494E0,7.620744228E0,-6.478709698E0,6.770802498E0
2.932738570E0,7.608773232E0,-6.464344501E0,6.797138691E0
2.934753032E0,7.608773232E0,-6.442796707E0,6.878541470E0
2.936736954E0,7.608773232E0,-6.426037312E0,6.938396454E0
2.938750260E0,7.608773232E0,-6.409277916E0,7.036558628E0
2.940734567E0,7.603984833E0,-6.411672115E0,7.074865818E0
2.942748951E0,7.620744228E0,-6.394912720E0,7.137115479E0
2.944731796E0,7.678205013E0,-6.373364925E0,7.161057472E0
2.946746565E0,7.709329605E0,-6.358999729E0,7.177816868E0
2.948730564E0,7.785943985E0,-6.339846134E0,7.201758862E0
2.950743409E0,7.855375767E0,-6.291962147E0,7.194576263E0
2.952758562E0,7.891288757E0,-6.277596951E0,7.184999466E0
2.954743099E0,7.977479935E0,-6.239289761E0,7.187393665E0
2.956756406E0,8.056488991E0,-6.179434776E0,7.189787865E0
2.958739406E0,8.109161377E0,-6.150704384E0,7.201758862E0
2.960753636E0,8.214506149E0,-6.114790916E0,7.230489254E0
2.962737250E0,8.317456245E0,-6.069301128E0,7.259219646E0
2.964752019E0,8.355764389E0,-6.050147533E0,7.273584843E0
2.966734787E0,8.456320763E0,-6.019022942E0,7.264008045E0
2.968749556E0,8.497021675E0,-5.961562157E0,7.232883453E0
2.970733017E0,8.580819130E0,-5.930437565E0,7.134721279E0
2.972747708E0,8.676587105E0,-5.841852188E0,7.036558628E0
2.974731399E0,8.717288017E0,-5.805939198E0,7.003039837E0
2.976745244E0,8.789113998E0,-5.712565422E0,6.895300865E0
2.978758859E0,8.817844391E0,-5.597643375E0,6.777985096E0
2.980743166E0,8.834604263E0,-5.544970989E0,6.742072105E0
2.982756704E0,8.863334656E0,-5.439626217E0,6.677428722E0
2.984739703E0,8.863334656E0,-5.312733650E0,6.605602264E0
2.986753548E0,8.863334656E0,-5.248090267E0,6.564900875E0
2.988737932E0,8.839392662E0,-5.116408825E0,6.495469093E0
2.990752931E0,8.810662270E0,-4.982333660E0,6.409277916E0
2.992736315E0,8.791508675E0,-4.905719280E0,6.368576527E0
2.994751468E0,8.755595207E0,-4.757278919E0,6.270414352E0
2.996733852E0,8.693346024E0,-4.613626480E0,6.186617374E0
2.998747774E0,8.669404030E0,-4.541800499E0,6.157886982E0
3.000731465E0,8.631096840E0,-4.390965939E0,6.105214119E0
3.002745927E0,8.602366447E0,-4.321534157E0,6.086060524E0
3.004730233E0,8.547300339E0,-4.163516521E0,6.052541733E0
3.006744617E0,8.508993149E0,-4.017470360E0,6.038176537E0
3.008757847E0,8.497021675E0,-3.955221176E0,6.016628742E0
3.010741307E0,8.480262756E0,-3.818751812E0,6.009446144E0
3.012755691E0,8.461109161E0,-3.715801001E0,6.011840343E0
3.014740306E0,8.461109161E0,-3.670311213E0,6.016628742E0
3.016753921E0,8.453926086E0,-3.603273630E0,6.033388138E0
3.018737612E0,8.456320763E0,-3.543418407E0,6.050147533E0
3.020751150E0,8.458714485E0,-3.521870613E0,6.076483727E0
3.022735149E0,8.463502884E0,-3.478775024E0,6.129156113E0
3.024748917E0,8.506598473E0,-3.454833031E0,6.155492783E0
3.026733532E0,8.513781548E0,-3.435679436E0,6.160281181E0
3.028747070E0,8.520963669E0,-3.423708439E0,6.150704384E0
3.030730146E0,8.523358345E0,-3.394978046E0,6.138733387E0
3.032744914E0,8.506598473E0,-3.366247654E0,6.121973515E0
3.034759759E0,8.504204750E0,-3.327940464E0,6.054935932E0
3.036742758E0,8.497021675E0,-3.308786631E0,6.026205540E0
3.038756604E0,8.456320763E0,-3.265691042E0,6.002263546E0
3.040740680E0,8.386888504E0,-3.205836058E0,5.966350555E0
3.042753910E0,8.355764389E0,-3.172317266E0,5.949591160E0
3.044739140E0,8.259995461E0,-3.095702887E0,5.894524574E0
3.046752369E0,8.125920296E0,-2.997540474E0,5.834669590E0
3.048735446E0,8.058882713E0,-2.947262287E0,5.801150799E0
3.050750215E0,7.903259754E0,-2.827552319E0,5.758055210E0
3.052733906E0,7.738059998E0,-2.717418909E0,5.736507416E0
3.054748366E0,7.651868820E0,-2.643198729E0,5.719748020E0
3.056731673E0,7.465120792E0,-2.489969730E0,5.686229229E0
3.058745903E0,7.314286232E0,-2.339135170E0,5.657498837E0
3.060728672E0,7.228095055E0,-2.272097349E0,5.635950565E0
3.062743440E0,7.086836815E0,-2.121262789E0,5.595249176E0
3.064756978E0,6.971915245E0,-1.977610588E0,5.561730385E0
3.066741592E0,6.933608055E0,-1.903390408E0,5.547365189E0
3.068755053E0,6.861782074E0,-1.778891921E0,5.499481201E0
3.070739129E0,6.835445881E0,-1.707065821E0,5.477933407E0
3.072752975E0,6.816292286E0,-1.587355733E0,5.408501625E0
3.074738743E0,6.794744492E0,-1.455674648E0,5.305551052E0
3.076751973E0,6.813898087E0,-1.391031146E0,5.257667065E0
3.078735049E0,6.835445881E0,-1.268926859E0,5.161899090E0
3.080749509E0,6.845022678E0,-1.156399369E0,5.066130638E0
3.082732279E0,6.842628479E0,-1.094150186E0,5.025429249E0
3.084747124E0,6.849811077E0,-9.983820915E-1,4.948814869E0
3.086729892E0,6.849811077E0,-8.834604025E-1,4.869806290E0
3.088744660E0,6.833051682E0,-8.355764151E-1,4.829104900E0
3.090758736E0,6.806715488E0,-7.326257229E-1,4.764461517E0
3.092741274E0,6.775590897E0,-6.081272364E-1,4.709394932E0
3.094757812E0,6.751648903E0,-5.578489900E-1,4.680664539E0
3.096739965E0,6.670246124E0,-4.477157295E-1,4.630385876E0
3.098753579E0,6.641515732E0,-3.351882398E-1,4.601655483E0
3.100737886E0,6.540958881E0,-2.873041928E-1,4.534617901E0
3.102751962E0,6.473921299E0,-1.819593310E-1,4.508281708E0
3.104735346E0,6.449979305E0,-1.460463107E-1,4.513070107E0
3.106750807E0,6.404489517E0,-5.746084079E-2,4.532223701E0
3.108733268E0,6.368576527E0,1.915361360E-2,4.493916512E0
3.110746728E0,6.337451935E0,5.746084079E-2,4.481945515E0
3.112731650E0,6.222530365E0,1.077390760E-1,4.371812344E0
3.114746418E0,6.244078159E0,2.394201756E-1,4.333505154E0
3.116729188E0,6.244078159E0,2.992752194E-1,4.359841347E0
3.118743648E0,6.227318764E0,4.333505034E-1,4.235342979E0
3.120757570E0,6.212953568E0,5.554547906E-1,4.060565948E0
3.122740339E0,6.198588371E0,6.081272364E-1,3.998316765E0
3.124755645E0,6.191405773E0,6.967126727E-1,3.907337189E0
3.126738490E0,6.186617374E0,8.092401624E-1,3.883395195E0
3.128752644E0,6.193799973E0,8.643068075E-1,3.890577793E0
3.130736951E0,6.210559368E0,9.696516991E-1,3.871424198E0
3.132750412E0,6.217741966E0,1.031900883E0,3.830722809E0
3.134734795E0,6.232107162E0,1.151610970E0,3.730166197E0
3.136748640E0,6.239289761E0,1.266532660E0,3.603273630E0
3.138732024E0,6.239289761E0,1.316810966E0,3.564966440E0
3.140746716E0,6.246472359E0,1.429338455E0,3.505111217E0
3.142730100E0,6.272808552E0,1.534683347E0,3.512293816E0
3.144739945E0,6.277596951E0,1.572990537E0,3.531447411E0
3.146759021E0,6.251260757E0,1.678335428E0,3.526659012E0
3.148742097E0,6.253654957E0,1.783680320E0,3.483563423E0
3.150755712E0,6.253654957E0,1.833958507E0,3.476380825E0
3.152740327E0,6.232107162E0,1.934514999E0,3.471592426E0
3.154755326E0,6.200982571E0,2.047042370E0,3.394978046E0
3.156738094E0,6.181828976E0,2.104503393E0,3.363853455E0
3.158751631E0,6.110002518E0,2.195482969E0,3.330334663E0
3.160735092E0,6.062118530E0,2.308010340E0,3.294421434E0
3.162750400E0,5.963956356E0,2.375048161E0,3.294421434E0
3.164733552E0,5.849034786E0,2.454056740E0,3.323152065E0
3.166747628E0,5.789179802E0,2.497152328E0,3.335123062E0
3.168731089E0,5.695806026E0,2.578555346E0,3.301604033E0
3.170745549E0,5.600037575E0,2.645592928E0,3.337517262E0
3.172728625E0,5.547365189E0,2.671929121E0,3.366247654E0
3.174744241E0,5.475539207E0,2.767697096E0,3.311181068E0
3.176757778E0,5.379771233E0,2.853888512E0,3.189076662E0
3.178741239E0,5.341464043E0,2.908955097E0,3.138798475E0
3.180754699E0,5.269638062E0,2.990357876E0,3.031059265E0
3.182738698E0,5.169081688E0,3.057395458E0,2.880224705E0
3.184752313E0,5.142745018E0,3.078943491E0,2.906560898E0
3.186736544E0,5.173870087E0,3.129221678E0,3.220201254E0
3.188751004E0,5.245696068E0,3.150769472E0,3.471592426E0
3.190733542E0,5.257667065E0,3.179499865E0,3.469198227E0
3.192748848E0,5.274426460E0,3.253720045E0,3.263296843E0
3.194732847E0,5.300762653E0,3.371036053E0,3.145981073E0
3.196746078E0,5.336675644E0,3.423708439E0,2.930502892E0
3.198729539E0,5.384559631E0,3.512293816E0,2.837129116E0
3.200744307E0,5.406107426E0,3.531447411E0,2.817975283E0
3.202758460E0,5.444414616E0,3.596091032E0,2.786850691E0
3.204742459E0,5.430049419E0,3.646369219E0,2.772485495E0
3.206755919E0,5.442020416E0,3.658340216E0,2.726995707E0
3.208739611E0,5.422866821E0,3.703830004E0,2.616862535E0
3.210753457E0,5.374982834E0,3.763684988E0,2.509123325E0
3.212737148E0,5.348646641E0,3.794809580E0,2.463633537E0
3.214751993E0,5.279214859E0,3.866635799E0,2.372653961E0
3.216735607E0,5.176264286E0,3.948038578E0,2.346317768E0
3.218749145E0,5.111620426E0,3.986345768E0,2.343923569E0
3.220733145E0,4.977545261E0,4.077325344E0,2.377442360E0
3.222746990E0,4.848258495E0,4.146757126E0,2.439691544E0
3.224730143E0,4.793191910E0,4.170699596E0,2.480392933E0
3.226744296E0,4.683058739E0,4.220977783E0,2.530671120E0
3.228759372E0,4.627991676E0,4.302380562E0,2.585737944E0
3.230743064E0,4.517858505E0,4.335899353E0,2.602497339E0
3.232756525E0,4.405331135E0,4.400542736E0,2.616862535E0
3.234741216E0,4.355052948E0,4.426878929E0,2.631227732E0
3.236755061E0,4.259284973E0,4.496310711E0,2.655169725E0
3.238737829E0,4.151545525E0,4.599261284E0,2.636016130E0
3.240752290E0,4.101267338E0,4.647145271E0,2.631227732E0
3.242736213E0,4.029441357E0,4.733336926E0,2.614468336E0
3.244751289E0,3.962403774E0,4.786009312E0,2.568978310E0
3.246734672E0,3.931279182E0,4.819528103E0,2.561795712E0
3.248747979E0,3.859453201E0,4.879383087E0,2.590526342E0
3.250731594E0,3.758896589E0,4.958391666E0,2.616862535E0
3.252745746E0,3.713406801E0,5.013458252E0,2.628833532E0
3.254730439E0,3.641580820E0,5.063736439E0,2.633621931E0
3.256743976E0,3.548206806E0,5.082890034E0,2.683900118E0
3.258757437E0,3.509899616E0,5.104437828E0,2.731784105E0
3.260740897E0,3.414131641E0,5.169081688E0,2.784456491E0
3.262755973E0,3.380612850E0,5.243301868E0,2.767697096E0
3.264738973E0,3.332728863E0,5.276820660E0,2.738966703E0
3.266753818E0,3.287238836E0,5.300762653E0,2.719813108E0
3.268737817E0,3.275267839E0,5.303156853E0,2.731784105E0
3.270750663E0,3.229778051E0,5.339069843E0,2.738966703E0
3.272735277E0,3.213018656E0,5.367800236E0,2.753331900E0
3.274750737E0,3.193865061E0,5.384559631E0,2.758120298E0
3.276733122E0,3.162740469E0,5.432443619E0,2.774879694E0
3.278746429E0,3.160346270E0,5.458779812E0,2.784456491E0
3.280730120E0,3.145981073E0,5.473145008E0,2.801215887E0
3.282744811E0,3.098097086E0,5.487510204E0,2.815581083E0
3.284759580E0,3.052607059E0,5.497087002E0,2.846705914E0
3.286742425E0,3.019088268E0,5.518634796E0,2.870647907E0
3.288757117E0,2.980781078E0,5.559336185E0,2.896984100E0
3.290741116E0,2.954444885E0,5.614402771E0,2.908955097E0
3.292754346E0,2.908955097E0,5.640739441E0,2.923320293E0
3.294738960E0,2.839523315E0,5.650316238E0,2.985569477E0
3.296752575E0,2.801215887E0,5.664681435E0,3.023876667E0
3.298735575E0,2.712630510E0,5.707777023E0,3.100491285E0
3.300749804E0,2.616862535E0,5.758055210E0,3.138798475E0
3.302733111E0,2.568978310E0,5.789179802E0,3.167528868E0
3.304744264E0,2.492363930E0,5.851428986E0,3.203441858E0
3.306761801E0,2.408566952E0,5.896918774E0,3.224989653E0
3.308745724E0,2.370259762E0,5.923254967E0,3.234566450E0
3.310729185E0,2.279279947E0,5.971138954E0,3.263296843E0
3.312743569E0,2.183511972E0,6.019022942E0,3.296815634E0
3.314758722E0,2.138022184E0,6.045359135E0,3.320757866E0
3.316741490E0,2.037465572E0,6.088454723E0,3.387795448E0
3.318755027E0,1.920149803E0,6.112396717E0,3.445256233E0
3.320739565E0,1.862688899E0,6.129156113E0,3.473986626E0
3.322752872E0,1.742978811E0,6.169857979E0,3.485957623E0
3.324736871E0,1.687912226E0,6.189011574E0,3.509899616E0
3.326750640E0,1.577778935E0,6.208165169E0,3.529053211E0
3.328734639E0,1.474828243E0,6.229712963E0,3.569754839E0
3.330748484E0,1.429338455E0,6.253654957E0,3.574543238E0
3.332732253E0,1.333570361E0,6.306327343E0,3.545812607E0
3.334747560E0,1.235408068E0,6.342240334E0,3.497928619E0
3.336731328E0,1.192312479E0,6.361393929E0,3.490746021E0
3.338744558E0,1.086967587E0,6.430825710E0,3.462015629E0
3.340758711E0,9.959878922E-1,6.502651691E0,3.440467834E0
3.342742325E0,9.457096457E-1,6.531382084E0,3.433285236E0
3.344756171E0,8.954314590E-1,6.574477673E0,3.397372246E0
3.346740247E0,8.571242094E-1,6.607996464E0,3.387795448E0
3.348754708E0,8.523358107E-1,6.634333134E0,3.378218651E0
3.350736861E0,8.379706144E-1,6.696582317E0,3.383007050E0
3.352752167E0,8.236053586E-1,6.744466305E0,3.402160645E0
3.354736551E0,8.236053586E-1,6.763619900E0,3.399766445E0
3.356750628E0,8.307880163E-1,6.794744492E0,3.390189648E0
3.358733165E0,8.403648138E-1,6.845022678E0,3.397372246E0
3.360747626E0,8.643068075E-1,6.861782074E0,3.469198227E0
3.362731240E0,8.954314590E-1,6.866570473E0,3.581725836E0
3.364745162E0,8.930372596E-1,6.866570473E0,3.620033026E0
3.366759854E0,9.002198577E-1,6.871358871E0,3.658340216E0
3.368742623E0,9.026140571E-1,6.878541470E0,3.677493811E0
3.370757468E0,9.169792533E-1,6.856993675E0,3.694253206E0
3.372740852E0,9.193734527E-1,6.823474884E0,3.749319792E0
3.374755312E0,9.361328483E-1,6.782773495E0,3.799597979E0
3.376738926E0,9.528923035E-1,6.749254704E0,3.825934410E0
3.378753388E0,9.624691010E-1,6.689399719E0,3.888183594E0
3.380736156E0,9.672574997E-1,6.636727333E0,4.007893562E0
3.382750925E0,9.696516991E-1,6.610390663E0,4.053383350E0
3.384734000E0,9.888052940E-1,6.562506676E0,4.141968727E0
3.386747538E0,9.888052940E-1,6.507440090E0,4.228160381E0
3.388731922E0,9.864110947E-1,6.485892296E0,4.261679173E0
3.390746614E0,9.888052940E-1,6.418854713E0,4.331110954E0
3.392729459E0,9.792284966E-1,6.392518520E0,4.374206543E0
3.394745381E0,9.696516991E-1,6.354211330E0,4.472368717E0
3.396758611E0,9.481038451E-1,6.301538944E0,4.568136692E0
3.398741456E0,9.265560508E-1,6.287173748E0,4.611232281E0
3.400755301E0,8.930372596E-1,6.258443356E0,4.690241337E0
3.402739840E0,8.092401624E-1,6.253654957E0,4.776432514E0
3.404754069E0,7.589619160E-1,6.251260757E0,4.812345505E0
3.406737453E0,6.536170840E-1,6.212953568E0,4.891354084E0
3.408751221E0,5.650315881E-1,6.217741966E0,4.927267075E0
3.410735528E0,5.123591423E-1,6.232107162E0,4.941632271E0
3.412749143E0,4.046200812E-1,6.229712963E0,4.991910458E0
3.414733989E0,3.399766386E-1,6.212953568E0,5.011064053E0
3.416747295E0,2.944868207E-1,6.222530365E0,4.999093056E0
3.418730987E0,2.250549644E-1,6.268020153E0,5.006275654E0
3.420744832E0,1.771709323E-1,6.282385349E0,4.984727859E0
3.422759523E0,1.699883193E-1,6.294356346E0,4.982333660E0
3.424742600E0,1.795651317E-1,6.332663536E0,4.967968464E0
3.426758060E0,1.795651317E-1,6.351817131E0,4.955997467E0
3.428741059E0,1.987187415E-1,6.414066315E0,4.948814869E0
3.430754289E0,2.394201756E-1,6.476315498E0,4.932055473E0
3.432738365E0,2.657563984E-1,6.495469093E0,4.917690277E0
3.434753749E0,3.232172430E-1,6.560112476E0,4.896142483E0
3.436736133E0,4.022258818E-1,6.622362137E0,4.893748283E0
3.438750286E0,4.429273009E-1,6.651092529E0,4.888959885E0
3.440733439E0,4.908113480E-1,6.703764915E0,4.879383087E0
3.442748438E0,5.506663918E-1,6.775590897E0,4.845864296E0
3.444732745E0,5.961562395E-1,6.799532890E0,4.831499100E0
3.446746283E0,6.655880809E-1,6.845022678E0,4.809951305E0
3.448729744E0,7.445967197E-1,6.888118267E0,4.795586109E0
3.450744204E0,7.900865674E-1,6.914454460E0,4.795586109E0
3.452757742E0,8.930372596E-1,6.931213856E0,4.757278919E0
3.454742895E0,9.481038451E-1,6.957550049E0,4.747702122E0
3.456757048E0,1.041477680E0,6.964732647E0,4.738125324E0
3.458740124E0,1.149216771E0,6.971915245E0,4.730942726E0
3.460753123E0,1.199495077E0,6.967126846E0,4.733336926E0
3.462737122E0,1.292868972E0,6.959944248E0,4.745307922E0
3.464748506E0,1.383848548E0,6.945579052E0,4.764461517E0
3.466734659E0,1.426944256E0,6.950367451E0,4.764461517E0
3.468749735E0,1.493981838E0,6.964732647E0,4.790797710E0
3.470732812E0,1.561019540E0,6.962338448E0,4.819528103E0
3.472747580E0,1.582567334E0,6.962338448E0,4.831499100E0
3.474731579E0,1.637633920E0,6.974309444E0,4.850652695E0
3.476745424E0,1.640028119E0,6.969521046E0,4.884171486E0
3.478728808E0,1.649604917E0,6.979097843E0,4.903325081E0
3.480742269E0,1.663970232E0,6.998251438E0,4.953603268E0
3.482756807E0,1.673547029E0,7.048529625E0,4.991910458E0
3.484741037E0,1.678335428E0,7.065289021E0,5.020640850E0
3.486754651E0,1.692700624E0,7.086836815E0,5.070919037E0
3.488738265E0,1.704671621E0,7.117961884E0,5.102043629E0
3.490752726E0,1.692700624E0,7.129932880E0,5.181052685E0
3.492736495E0,1.728613615E0,7.161057472E0,5.255272865E0
3.494750879E0,1.740584612E0,7.168240070E0,5.288791656E0
3.496734032E0,1.800439715E0,7.196970463E0,5.334281445E0
3.498747569E0,1.848323703E0,7.244854450E0,5.360617638E0
3.500731491E0,1.843535304E0,7.261613846E0,5.360617638E0
3.502746259E0,1.819593310E0,7.285555840E0,5.377377033E0
3.504728721E0,1.735796213E0,7.309497833E0,5.446808815E0
3.506744105E0,1.673547029E0,7.316680431E0,5.487510204E0
3.508758027E0,1.491587639E0,7.340622425E0,5.549759388E0
3.510741103E0,1.271321058E0,7.371747017E0,5.588066578E0
3.512755563E0,1.144428372E0,7.390900612E0,5.607220173E0
3.514739255E0,8.714894056E-1,7.400477409E0,5.635950565E0
3.516753639E0,5.841852427E-1,7.429207802E0,5.655104637E0
3.518737330E0,4.525041282E-1,7.433996201E0,5.664681435E0
3.520750868E0,2.011129409E-1,7.443572998E0,5.659893036E0
3.522734636E0,8.619125932E-2,7.450755596E0,5.647922039E0
3.524749097E0,-9.576806426E-2,7.469909191E0,5.612008572E0
3.526732789E0,-2.394201756E-1,7.513004780E0,5.580883980E0
3.528746865E0,-2.825157940E-1,7.536946774E0,5.566518784E0
3.530730325E0,-3.447650373E-1,7.568071365E0,5.523423195E0
3.532744094E0,-3.399766386E-1,7.625532627E0,5.497087002E0
3.534759246E0,-3.280056417E-1,7.644686222E0,5.475539207E0
3.536742553E0,-2.777273953E-1,7.702147007E0,5.456385612E0
3.538756169E0,-1.819593310E-1,7.742848396E0,5.442020416E0
3.540740168E0,-1.197100878E-1,7.762001991E0,5.442020416E0
3.542754551E0,2.394201700E-3,7.807491779E0,5.413290024E0
3.544737012E0,1.316810995E-1,7.867346764E0,5.391742229E0
3.546751549E0,2.106897533E-1,7.881711960E0,5.389348030E0
3.548736164E0,3.687070608E-1,7.927201748E0,5.367800236E0
3.550749933E0,5.506663918E-1,7.960720539E0,5.353435040E0
3.552733624E0,6.248866320E-1,7.979874134E0,5.355829239E0
3.554748469E0,7.685387731E-1,7.999027729E0,5.358223438E0
3.556732084E0,8.403648138E-1,8.006210327E0,5.363011837E0
3.558745698E0,1.000776291E0,8.015787125E0,5.394136429E0
3.560729006E0,1.108515382E0,8.046912193E0,5.439626217E0
3.562743466E0,1.156399369E0,8.049305916E0,5.453991413E0
3.564758311E0,1.237802267E0,8.066065788E0,5.489904404E0
3.566741926E0,1.312022567E0,8.075642586E0,5.516240597E0
3.568755156E0,1.343147159E0,8.073247910E0,5.537788391E0
3.570738616E0,1.405396342E0,8.078036308E0,5.578489780E0
3.572753924E0,1.434126854E0,8.092401505E0,5.612008572E0
3.574736769E0,1.443703651E0,8.104372978E0,5.633556366E0
3.576751460E0,1.453280449E0,8.106766701E0,5.664681435E0
3.578734921E0,1.474828243E0,8.113949776E0,5.693411827E0
3.580748151E0,1.482010841E0,8.140285492E0,5.707777023E0
3.582732150E0,1.525106430E0,8.185775757E0,5.714959621E0
3.584745688E0,1.541865945E0,8.219294548E0,5.736507416E0
3.586730841E0,1.582567334E0,8.240841866E0,5.736507416E0
3.588744148E0,1.594538331E0,8.269572258E0,5.731719017E0
3.590757608E0,1.604115129E0,8.281543732E0,5.724536419E0
3.592742223E0,1.649604917E0,8.293514252E0,5.700594425E0
3.594757069E0,1.716642618E0,8.307879448E0,5.693411827E0
3.596740375E0,1.747767210E0,8.300697327E0,5.683835030E0
3.598754913E0,1.793257117E0,8.300697327E0,5.674258232E0
3.600737373E0,1.881842494E0,8.300697327E0,5.650316238E0
3.602751142E0,1.922544003E0,8.295908928E0,5.638344765E0
3.604735833E0,2.008735180E0,8.267178535E0,5.609614372E0
3.606749602E0,2.111685991E0,8.238448143E0,5.585672379E0
3.608733371E0,2.164358377E0,8.224082947E0,5.571307182E0
3.610747216E0,2.238578558E0,8.197746277E0,5.573701382E0
3.612731753E0,2.293645144E0,8.157045364E0,5.571307182E0
3.614746521E0,2.324769735E0,8.147468567E0,5.564124584E0
3.616728982E0,2.334346771E0,8.109161377E0,5.554547787E0
3.618743213E0,2.336740971E0,8.075642586E0,5.559336185E0
3.620757366E0,2.319981337E0,8.063671112E0,5.556941986E0
3.622740749E0,2.284068346E0,8.025363922E0,5.544970989E0
3.624754287E0,2.262520552E0,8.018181801E0,5.530605793E0
3.626737901E0,2.214636564E0,7.994239330E0,5.511452198E0
3.628753055E0,2.152387381E0,7.960720539E0,5.497087002E0
3.630736131E0,2.123656988E0,7.946355343E0,5.494692802E0
3.632750899E0,2.066195965E0,7.946355343E0,5.485116005E0
3.634734283E0,2.023100376E0,7.915230751E0,5.477933407E0
3.636748666E0,1.996764183E0,7.903259754E0,5.480327606E0
3.638731511E0,1.958456993E0,7.905653954E0,5.473145008E0
3.640745973E0,1.944091797E0,7.886500359E0,5.456385612E0
3.642729587E0,1.946485996E0,7.876923561E0,5.456385612E0
3.644743817E0,1.941697598E0,7.852981567E0,5.463568211E0
3.646757970E0,1.924938202E0,7.836222172E0,5.463568211E0
3.648741892E0,1.929726601E0,7.824251175E0,5.465962410E0
3.650756353E0,1.927332401E0,7.802703381E0,5.461174011E0
3.652739737E0,1.924938202E0,7.752425194E0,5.453991413E0
3.654755121E0,1.951274395E0,7.745242596E0,5.461174011E0
3.656738504E0,1.932120800E0,7.723694801E0,5.446808815E0
3.658751734E0,1.922544003E0,7.714118004E0,5.446808815E0
3.660735810E0,1.903390408E0,7.687781811E0,5.442020416E0
3.662748964E0,1.903390408E0,7.659051418E0,5.415684223E0
3.664732040E0,1.900996208E0,7.647080421E0,5.406107426E0
3.666748424E0,1.891419291E0,7.613561630E0,5.384559631E0
3.668731192E0,1.886630893E0,7.601590633E0,5.374982834E0
3.670744345E0,1.884236693E0,7.606379032E0,5.363011837E0
3.672759498E0,1.879448295E0,7.618350029E0,5.348646641E0
3.674743421E0,1.879448295E0,7.601590633E0,5.341464043E0
3.676756958E0,1.867477298E0,7.606379032E0,5.331887245E0
3.678740419E0,1.855506301E0,7.596801758E0,5.303156853E0
3.680755187E0,1.845929503E0,7.615955830E0,5.272032261E0
3.682738186E0,1.841141105E0,7.618350029E0,5.260061264E0
3.684753646E0,1.800439715E0,7.627926826E0,5.245696068E0
3.686736339E0,1.774103403E0,7.644686222E0,5.243301868E0
3.688750492E0,1.740584612E0,7.680599213E0,5.224148273E0
3.690734567E0,1.711854219E0,7.690176010E0,5.209783077E0
3.692748413E0,1.692700624E0,7.699752808E0,5.204994678E0
3.694732412E0,1.678335428E0,7.728483200E0,5.193023682E0
3.696745949E0,1.663970232E0,7.757213593E0,5.152322292E0
3.698729257E0,1.654393315E0,7.766790390E0,5.142745018E0
3.700744102E0,1.651999116E0,7.778761387E0,5.133168221E0
3.702757870E0,1.611297727E0,7.795520782E0,5.123591423E0
3.704740715E0,1.613691926E0,7.793126583E0,5.118803024E0
3.706754868E0,1.620874524E0,7.795520782E0,5.109226227E0
3.708740099E0,1.623268723E0,7.805097580E0,5.099649429E0
3.710753636E0,1.628057122E0,7.800309181E0,5.087678432E0
3.712737020E0,1.630451322E0,7.805097580E0,5.073313236E0
3.714752634E0,1.628057122E0,7.805097580E0,5.073313236E0
3.716734557E0,1.635239720E0,7.802703381E0,5.063736439E0
3.718749325E0,1.632845521E0,7.788338184E0,5.049371243E0
3.720733248E0,1.651999116E0,7.781155586E0,5.046977043E0
3.722747170E0,1.683123827E0,7.776367188E0,5.042188644E0
3.724731400E0,1.716642618E0,7.769184589E0,5.044582844E0
3.726745014E0,1.719036818E0,7.764396191E0,5.054159641E0
3.728758475E0,1.726219416E0,7.742848396E0,5.056553841E0
3.730741935E0,1.754949808E0,7.752425194E0,5.042188644E0
3.732756320E0,1.757344007E0,7.742848396E0,5.035006046E0
3.734741011E0,1.774103403E0,7.730877399E0,5.006275654E0
3.736754472E0,1.790862918E0,7.738059998E0,5.023035049E0
3.738737855E0,1.795651317E0,7.735665798E0,5.023035049E0
3.740752008E0,1.805228114E0,7.730877399E0,5.027823448E0
3.742736008E0,1.805228114E0,7.745242596E0,5.049371243E0
3.744749238E0,1.795651317E0,7.750030994E0,5.049371243E0
3.746733545E0,1.781286120E0,7.752425194E0,5.044582844E0
3.748748697E0,1.764526606E0,7.771578789E0,5.051765442E0
3.750731081E0,1.731007814E0,7.773972988E0,5.049371243E0
3.752745849E0,1.695094824E0,7.773972988E0,5.061342239E0
3.754731157E0,1.673547029E0,7.781155586E0,5.063736439E0
3.756744002E0,1.620874524E0,7.795520782E0,5.080495834E0
3.758757617E0,1.561019540E0,7.802703381E0,5.085284233E0
3.760741616E0,1.529894829E0,7.807491779E0,5.097255230E0
3.762755461E0,1.493981838E0,7.836222172E0,5.094861031E0
3.764739690E0,1.436521053E0,7.850587368E0,5.114014626E0
3.766752998E0,1.426944256E0,7.850587368E0,5.123591423E0
3.768736613E0,1.412579060E0,7.886500359E0,5.149928093E0
3.770750842E0,1.407790542E0,7.910442352E0,5.166687489E0
3.772734764E0,1.414973259E0,7.910442352E0,5.169081688E0
3.774748917E0,1.426944256E0,7.934384346E0,5.166687489E0
3.776732994E0,1.458068848E0,7.972691536E0,5.181052685E0
3.778747378E0,1.470039845E0,7.979874134E0,5.181052685E0
3.780729838E0,1.491587639E0,8.006210327E0,5.171475887E0
3.782744684E0,1.496376038E0,8.022970200E0,5.166687489E0
3.784759452E0,1.522712231E0,8.032546997E0,5.164293289E0
3.786741605E0,1.525106430E0,8.054094315E0,5.164293289E0
3.788756066E0,1.534683347E0,8.078036308E0,5.154716492E0
3.790740681E0,1.534683347E0,8.078036308E0,5.149928093E0
3.792753910E0,1.513135433E0,8.082824707E0,5.166687489E0
3.794738832E0,1.513135433E0,8.099584579E0,5.164293289E0
3.796751985E0,1.513135433E0,8.125920296E0,5.181052685E0
3.798735446E0,1.493981838E0,8.121131897E0,5.173870087E0
3.800749600E0,1.484405041E0,8.118738174E0,5.171475887E0
3.802732983E0,1.479616642E0,8.152256966E0,5.176264286E0
3.804748675E0,1.453280449E0,8.166622162E0,5.181052685E0
3.806731981E0,1.455674648E0,8.188169479E0,5.166687489E0
3.808745211E0,1.460463047E0,8.216899872E0,5.152322292E0
3.810759442E0,1.465251446E0,8.214506149E0,5.123591423E0
3.812743364E0,1.470039845E0,8.216899872E0,5.109226227E0
3.814758132E0,1.474828243E0,8.243236542E0,5.094861031E0
3.816740900E0,1.474828243E0,8.250418663E0,5.092466831E0
3.818755976E0,1.522712231E0,8.250418663E0,5.075707436E0
3.820739052E0,1.577778935E0,8.238448143E0,5.039794445E0
3.822753591E0,1.596932530E0,8.248024940E0,5.027823448E0
3.824736282E0,1.637633920E0,8.274360657E0,5.018246651E0
3.826752666E0,1.687912226E0,8.257601738E0,4.994304657E0
3.828735665E0,1.711854219E0,8.259995461E0,4.987122059E0
3.830748048E0,1.766920805E0,8.276755333E0,4.999093056E0
3.832732355E0,1.817199111E0,8.276755333E0,5.003881454E0
3.834746817E0,1.845929503E0,8.274360657E0,5.008669853E0
3.836729816E0,1.905784607E0,8.281543732E0,5.011064053E0
3.838743968E0,1.953668594E0,8.274360657E0,5.011064053E0
3.840758121E0,1.980004787E0,8.276755333E0,5.011064053E0
3.842742428E0,2.032677174E0,8.276755333E0,5.011064053E0
3.844756273E0,2.066195965E0,8.288725853E0,5.013458252E0
3.846739965E0,2.094926596E0,8.293514252E0,5.013458252E0
3.848753811E0,2.123656988E0,8.269572258E0,5.027823448E0
3.850736963E0,2.142810583E0,8.262390137E0,5.027823448E0
3.852751962E0,2.185906172E0,8.250418663E0,5.027823448E0
3.854735961E0,2.188300371E0,8.245630264E0,5.042188644E0
3.856749884E0,2.202665567E0,8.240841866E0,5.044582844E0
3.858732576E0,2.202665567E0,8.233659744E0,5.056553841E0
3.860747344E0,2.188300371E0,8.219294548E0,5.085284233E0
3.862731035E0,2.178723574E0,8.209717751E0,5.090072632E0
3.864744342E0,2.147598982E0,8.195352554E0,5.085284233E0
3.866759110E0,2.133233786E0,8.195352554E0,5.097255230E0
3.868743033E0,2.109291792E0,8.183381081E0,5.109226227E0
3.870757186E0,2.090138197E0,8.145073891E0,5.121197224E0
3.872740647E0,2.063801765E0,8.123526573E0,5.145139217E0
3.874755646E0,2.054224968E0,8.118738174E0,5.159504890E0
3.876739106E0,2.027888775E0,8.101978302E0,5.188235283E0
3.878752567E0,2.023100376E0,8.097189903E0,5.209783077E0
3.880736259E0,1.999158382E0,8.087613106E0,5.224148273E0
3.882750181E0,1.965639591E0,8.063671112E0,5.231330872E0
3.884733796E0,1.958456993E0,8.063671112E0,5.243301868E0
3.886748641E0,1.934514999E0,8.066065788E0,5.262455463E0
3.888731717E0,1.900996208E0,8.063671112E0,5.276820660E0
3.890746101E0,1.898601890E0,8.066065788E0,5.295974255E0
3.892729177E0,1.889025092E0,8.054094315E0,5.310339451E0
3.894745176E0,1.869871497E0,8.073247910E0,5.319916248E0
3.896758175E0,1.857900500E0,8.085219383E0,5.327098846E0
3.898741482E0,1.836352706E0,8.094796181E0,5.339069843E0
3.900755096E0,1.829170108E0,8.097189903E0,5.360617638E0
3.902739635E0,1.824381709E0,8.092401505E0,5.370194435E0
3.904752942E0,1.819593310E0,8.101978302E0,5.379771233E0
3.906738710E0,1.805228114E0,8.106766701E0,5.377377033E0
3.908751709E0,1.812410712E0,8.111555099E0,5.379771233E0
3.910734400E0,1.812410712E0,8.111555099E0,5.386953831E0
3.912749784E0,1.819593310E0,8.113949776E0,5.374982834E0
3.914734091E0,1.829170108E0,8.109161377E0,5.370194435E0
3.916747013E0,1.817199111E0,8.099584579E0,5.374982834E0
3.918730782E0,1.819593310E0,8.101978302E0,5.372588634E0
3.920745473E0,1.826775908E0,8.094796181E0,5.355829239E0
3.922727934E0,1.826775908E0,8.075642586E0,5.355829239E0
3.924743703E0,1.826775908E0,8.075642586E0,5.355829239E0
3.926757240E0,1.829170108E0,8.073247910E0,5.346252441E0
3.928740547E0,1.841141105E0,8.061277390E0,5.334281445E0
3.930755008E0,1.850717902E0,8.058882713E0,5.322310448E0
3.932738699E0,1.900996208E0,8.042123795E0,5.317522049E0
3.934753236E0,1.944091797E0,8.008605003E0,5.310339451E0
3.936736544E0,1.951274395E0,7.999027729E0,5.298368454E0
3.938750081E0,1.984793186E0,7.999027729E0,5.288791656E0
3.940733542E0,2.020706177E0,7.991845131E0,5.284003258E0
3.942748003E0,2.035071373E0,7.987056732E0,5.274426460E0
3.944730694E0,2.073378563E0,7.975085735E0,5.274426460E0
3.946745462E0,2.090138197E0,7.958326340E0,5.264849663E0
3.948729847E0,2.114080191E0,7.965508938E0,5.269638062E0
3.950744538E0,2.123656988E0,7.960720539E0,5.252878666E0
3.952757537E0,2.133233786E0,7.965508938E0,5.252878666E0
3.954742151E0,2.126051188E0,7.963114738E0,5.252878666E0
3.956755689E0,2.142810583E0,7.965508938E0,5.255272865E0
3.958739381E0,2.147598982E0,7.970297337E0,5.250484467E0
3.960752919E0,2.126051188E0,7.970297337E0,5.260061264E0
3.962736918E0,2.087743998E0,7.982268333E0,5.295974255E0
3.964752840E0,2.082955360E0,7.977479935E0,5.307945251E0
3.966735685E0,2.049436569E0,7.965508938E0,5.312733650E0
3.968748607E0,2.006340981E0,7.972691536E0,5.312733650E0
3.970732530E0,1.982398987E0,7.989450932E0,5.324704647E0
3.972746760E0,1.951274395E0,8.020575523E0,5.341464043E0
3.974731374E0,1.920149803E0,8.003816605E0,5.355829239E0
3.976744527E0,1.874659896E0,8.006210327E0,5.365406036E0
3.978758680E0,1.826775908E0,8.020575523E0,5.382165432E0
3.980742140E0,1.795651317E0,8.015787125E0,5.391742229E0
3.982756525E0,1.745373011E0,8.025363922E0,5.394136429E0
3.984739909E0,1.709460020E0,8.013393402E0,5.403713226E0
3.986754985E0,1.697489023E0,8.003816605E0,5.410895824E0
3.988738984E0,1.699883223E0,7.996633530E0,5.401319027E0
3.990751060E0,1.697489023E0,7.987056732E0,5.410895824E0
3.992736598E0,1.699883223E0,7.984662533E0,5.408501625E0
3.994751674E0,1.719036818E0,7.989450932E0,5.410895824E0
3.996733519E0,1.731007814E0,7.984662533E0,5.420472622E0
3.998747980E0,1.750161409E0,7.989450932E0,5.420472622E0
4.000731902E0,1.788468719E0,7.965508938E0,5.403713226E0
4.002745516E0,1.814804912E0,7.943961143E0,5.394136429E0
4.004729747E0,1.831564307E0,7.943961143E0,5.389348030E0
4.006743977E0,1.850717902E0,7.946355343E0,5.379771233E0
4.008757130E0,1.857900500E0,7.970297337E0,5.363011837E0
4.010741513E0,1.908178806E0,7.965508938E0,5.346252441E0
4.012754974E0,1.941697598E0,7.946355343E0,5.315127850E0
4.014739280E0,1.956062794E0,7.951143742E0,5.300762653E0
4.016752896E0,1.996764183E0,7.958326340E0,5.284003258E0
4.018737202E0,2.025494576E0,7.975085735E0,5.255272865E0
4.020750971E0,2.039859772E0,7.977479935E0,5.236119270E0
4.022734354E0,2.049436569E0,8.001421928E0,5.195417881E0
4.024748815E0,2.054224968E0,8.001421928E0,5.200206280E0
4.026731968E0,2.066195965E0,7.999027729E0,5.190629482E0
4.028746352E0,2.068590164E0,8.027758598E0,5.142745018E0
4.030730736E0,2.075772762E0,8.032546997E0,5.133168221E0
4.032744812E0,2.082955360E0,8.025363922E0,5.123591423E0
4.034759888E0,2.070984364E0,8.034940720E0,5.080495834E0
4.036742118E0,2.056619167E0,8.044517517E0,5.070919037E0
4.038756195E0,2.054224968E0,8.051700592E0,5.068524837E0
4.040740194E0,2.056619167E0,8.068459511E0,5.056553841E0
4.042754116E0,2.056619167E0,8.037335396E0,5.039794445E0
4.044738115E0,2.070984364E0,8.042123795E0,5.030217648E0
4.046752498E0,2.080561161E0,8.051700592E0,5.015852451E0
4.048735651E0,2.078166962E0,8.049305916E0,5.020640850E0
4.050750343E0,2.080561161E0,8.049305916E0,5.025429249E0
4.052733189E0,2.097320795E0,8.034940720E0,5.037400246E0
4.054748188E0,2.099714994E0,8.037335396E0,5.037400246E0
4.056731648E0,2.087743998E0,8.032546997E0,5.042188644E0
4.058746032E0,2.063801765E0,8.025363922E0,5.039794445E0
4.060729185E0,2.047042370E0,8.015787125E0,5.039794445E0
4.062743262E0,2.023100376E0,8.018181801E0,5.032611847E0
4.064757184E0,1.968033791E0,8.037335396E0,5.015852451E0
4.066742106E0,1.934514999E0,8.034940720E0,5.018246651E0
4.068755643E0,1.900996208E0,8.044517517E0,5.030217648E0
4.070738104E0,1.845929503E0,8.044517517E0,5.030217648E0
4.072752488E0,1.810016513E0,8.037335396E0,5.025429249E0
4.074738103E0,1.757344007E0,8.027758598E0,5.035006046E0
4.076750332E0,1.728613615E0,8.022970200E0,5.051765442E0
4.078734639E0,1.668758631E0,8.027758598E0,5.042188644E0
4.080749100E0,1.620874524E0,8.051700592E0,5.042188644E0
4.082731560E0,1.599326730E0,8.066065788E0,5.037400246E0
4.084747253E0,1.561019540E0,8.061277390E0,5.037400246E0
4.086730021E0,1.525106430E0,8.070854187E0,5.032611847E0
4.088744174E0,1.520318031E0,8.063671112E0,5.032611847E0
4.090759019E0,1.513135433E0,8.073247910E0,5.049371243E0
4.092741710E0,1.486799240E0,8.068459511E0,5.037400246E0
4.094756863E0,1.470039845E0,8.075642586E0,5.032611847E0
4.096739940E0,1.453280449E0,8.070854187E0,5.037400246E0
4.098754400E0,1.410184860E0,8.061277390E0,5.042188644E0
4.100737399E0,1.403002143E0,8.061277390E0,5.051765442E0
4.102751860E0,1.405396342E0,8.051700592E0,5.068524837E0
4.104734705E0,1.383848548E0,8.027758598E0,5.087678432E0
4.106749397E0,1.371877551E0,8.027758598E0,5.099649429E0
4.108733166E0,1.364694953E0,8.032546997E0,5.130774021E0
4.110747626E0,1.359906554E0,8.020575523E0,5.135562420E0
4.112730318E0,1.376665950E0,8.008605003E0,5.178658485E0
4.114746009E0,1.395819545E0,7.991845131E0,5.188235283E0
4.116729392E0,1.414973259E0,7.984662533E0,5.188235283E0
4.118743623E0,1.465251446E0,7.982268333E0,5.207388878E0
4.120757161E0,1.517923832E0,7.958326340E0,5.228936672E0
4.122740544E0,1.544260144E0,7.958326340E0,5.240907669E0
4.124755236E0,1.584961534E0,7.943961143E0,5.252878666E0
4.126738619E0,1.611297727E0,7.941566944E0,5.269638062E0
4.128753157E0,1.623268723E0,7.939172745E0,5.269638062E0
4.130736157E0,1.661576033E0,7.934384346E0,5.260061264E0
4.132750387E0,1.697489023E0,7.927201748E0,5.272032261E0
4.134735616E0,1.704671621E0,7.924807549E0,5.291185856E0
4.136748769E0,1.702277422E0,7.931990147E0,5.315127850E0
4.138732845E0,1.695094824E0,7.924807549E0,5.310339451E0
4.140745999E0,1.716642618E0,7.922413349E0,5.315127850E0
4.142730075E0,1.699883223E0,7.929595947E0,5.331887245E0
4.144743305E0,1.692700624E0,7.931990147E0,5.339069843E0
4.146758611E0,1.707065821E0,7.931990147E0,5.360617638E0
4.148742303E0,1.723825216E0,7.939172745E0,5.374982834E0
4.150755532E0,1.731007814E0,7.948749542E0,5.374982834E0
4.152740148E0,1.740584612E0,7.939172745E0,5.372588634E0
