"Time (s)","Linear Acceleration x (m/s^2)","Linear Acceleration y (m/s^2)","Linear Acceleration z (m/s^2)"
1.484356500E-2,6.280645728E-3,2.276663780E-1,-1.905813217E-1
2.283811700E-2,1.223183647E-1,1.892261505E-1,-2.449684143E-1
3.083351600E-2,1.240869612E-1,1.516070366E-1,-1.853904724E-1
3.886022200E-2,7.700520009E-2,1.292986870E-1,-1.841521263E-1
4.685569700E-2,-2.645920217E-2,1.607375145E-1,-1.357817650E-1
5.485255700E-2,-1.338304728E-1,1.627974510E-1,-7.189035416E-2
6.284710900E-2,-1.595182866E-1,1.587185860E-1,1.116895676E-2
7.084212300E-2,-1.109056622E-1,1.212835312E-1,8.572578430E-3
7.883844500E-2,-1.006891578E-1,1.109476089E-1,-1.663017273E-2
8.683391900E-2,-1.097296178E-1,1.088738441E-1,-7.347679138E-2
9.486001000E-2,-1.371568441E-1,1.459889412E-1,-1.783514023E-1
1.028547940E-1,-1.508993506E-1,2.135930061E-1,-2.900714874E-1
1.108511920E-1,-1.701593399E-1,2.420902252E-1,-3.655524254E-1
1.188465140E-1,-1.552432775E-1,2.437415123E-1,-4.850821495E-1
1.268426040E-1,-1.198439598E-1,2.493987083E-1,-4.481253624E-1
1.348388490E-1,-1.238944530E-1,2.653203011E-1,-4.345130920E-1
1.428342470E-1,-8.662196994E-2,2.861928940E-1,-3.579397202E-1
1.508592610E-1,-3.700506687E-2,2.518496513E-1,-2.496857643E-1
1.588558140E-1,2.163982391E-2,2.603082657E-1,-2.030906677E-1
1.668509040E-1,6.621930003E-2,2.347722054E-1,-1.648979187E-1
1.748479180E-1,6.079870462E-2,2.148928642E-1,-1.309351921E-1
1.828427010E-1,1.841509342E-2,1.704483032E-1,-1.231193542E-1
1.908380230E-1,-7.876628637E-2,1.804871559E-1,-1.174287796E-1
1.988334980E-1,-1.305349171E-1,1.381554604E-1,-8.485841751E-2
2.068598960E-1,-1.509473622E-1,1.177868843E-1,-1.104736328E-1
2.148556790E-1,-1.547763050E-1,8.370113373E-2,-1.063060760E-1
2.228513860E-1,-1.076164246E-1,3.254795074E-2,-9.283733368E-2
2.308458610E-1,-5.030232668E-2,-6.525993347E-3,-1.031904221E-1
2.388421830E-1,-3.353828192E-2,-3.795862198E-2,-6.764173508E-2
2.468384270E-1,-6.334185600E-4,-5.322790146E-2,-2.419185638E-2
2.549218250E-1,1.024943590E-2,-4.848289490E-2,-7.713317871E-3
2.628599930E-1,8.499503136E-3,-7.201433182E-2,4.049301147E-3
2.708550840E-1,3.014975786E-2,-7.071113586E-2,1.780986786E-2
2.788514060E-1,5.817374587E-2,-1.072487831E-1,5.984783173E-2
2.868468800E-1,7.267400622E-2,-1.136093140E-1,2.274703979E-2
2.948431250E-1,1.057372391E-1,-1.514091492E-1,5.908775330E-2
3.028379080E-1,8.710882068E-2,-1.701130867E-1,1.070566177E-1
3.108327690E-1,5.859425664E-2,-1.901121140E-1,1.921253204E-1
3.188592440E-1,5.727034807E-2,-1.653690338E-1,2.188944817E-1
3.268552570E-1,4.377940297E-2,-1.699337959E-1,2.617101669E-1
3.348508870E-1,4.640293121E-2,-1.535582542E-1,2.750062943E-1
3.428463620E-1,9.693682194E-3,-1.450920105E-1,3.208422661E-1
3.508422990E-1,-2.345693111E-2,-1.255064011E-1,3.032674789E-1
3.588380060E-1,9.131133556E-3,-9.000587463E-2,2.821359634E-1
3.668340950E-1,-1.214110851E-2,-7.661628723E-2,2.841448784E-1
3.748604940E-1,-2.289366722E-2,-2.807378769E-2,2.563457489E-1
3.828549700E-1,-2.529478073E-2,-2.072906494E-2,2.397890091E-1
3.908500610E-1,-7.451534271E-3,-1.612997055E-2,2.035269737E-1
3.988461520E-1,4.753395915E-2,-2.238750458E-3,1.955413818E-1
4.068423950E-1,9.933546185E-2,6.774425507E-3,1.538591385E-1
4.148375630E-1,8.839857578E-2,5.395364761E-2,1.742105484E-1
4.228637310E-1,1.202672422E-1,8.169555664E-2,1.486921310E-1
4.308588220E-1,1.879798174E-1,8.750438690E-2,1.179003716E-1
4.388544510E-1,2.101890445E-1,6.202888489E-2,1.156425476E-1
4.468507720E-1,2.181599438E-1,6.495237350E-2,1.081929207E-1
4.548468630E-1,2.147372365E-1,3.195858002E-2,5.051183701E-2
4.628421850E-1,1.715929508E-1,6.363344193E-2,2.167129517E-2
4.708363530E-1,1.251189411E-1,7.619857788E-2,1.694345474E-2
4.788632130E-1,7.078707218E-2,7.936429977E-2,-8.971691132E-3
4.868592260E-1,1.811271906E-2,8.760118484E-2,-3.200721741E-2
4.948560860E-1,-1.663365960E-2,8.900642395E-2,-3.535652161E-2
5.028502540E-1,-5.327880383E-2,1.076912880E-1,-6.434917450E-2
5.108462680E-1,-5.417200923E-2,9.568452835E-2,-8.562803268E-2
5.188416670E-1,-8.205026388E-2,9.356689453E-2,-1.113567352E-1
5.268365260E-1,-7.021626830E-2,7.478046417E-2,-1.418371201E-1
5.348636170E-1,-8.098709583E-2,4.168796539E-2,-1.795125008E-1
5.428589380E-1,-1.619970798E-2,3.224277496E-2,-2.056722641E-1
5.508543370E-1,8.404254913E-6,3.710603714E-2,-2.559013367E-1
5.588503510E-1,3.055179119E-2,3.966140747E-2,-2.365956306E-1
5.668463640E-1,7.327523828E-2,3.295373917E-2,-2.216658592E-1
5.748421470E-1,1.310510635E-1,2.656936646E-2,-2.062759399E-1
5.828371610E-1,1.631489098E-1,3.002500534E-2,-1.545882225E-1
5.908637140E-1,1.362550855E-1,1.940727234E-4,-1.169042587E-1
5.988588050E-1,7.960671186E-2,3.984117508E-2,-9.580612183E-2
6.068548180E-1,4.349389672E-2,4.825258255E-2,-6.036615372E-2
6.148504470E-1,-3.810644150E-3,6.604766846E-2,-1.400175095E-1
6.228461530E-1,-4.370886087E-2,8.621931076E-2,-1.574187279E-1
6.308403210E-1,-1.101139784E-1,1.326470375E-1,-1.845073700E-1
6.388370280E-1,-1.483703852E-1,1.381864548E-1,-2.166624069E-1
6.468332710E-1,-1.950406432E-1,1.653413773E-1,-2.416558266E-1
6.548592090E-1,-2.261251807E-1,1.735501289E-1,-2.329688072E-1
6.628546070E-1,-2.173779607E-1,1.794724464E-1,-2.481646538E-1
6.708505440E-1,-1.354442835E-1,1.593222618E-1,-2.774853706E-1
6.788459430E-1,-6.421750784E-2,1.494326591E-1,-3.036484718E-1
6.868407250E-1,-1.273018122E-2,1.182756424E-1,-2.457108498E-1
6.948374310E-1,3.851109743E-2,8.258771896E-2,-2.616906166E-1
7.028632150E-1,1.083253026E-1,7.592916489E-2,-2.318487167E-1
7.108579980E-1,1.079809666E-1,5.755805969E-2,-2.400479317E-1
7.188540890E-1,6.170681119E-2,8.031845093E-2,-2.692856789E-1
7.268497940E-1,-1.505911350E-3,9.861040115E-2,-2.502427101E-1
7.348469620E-1,-2.660763264E-2,8.602285385E-2,-2.644143105E-1
7.428412070E-1,-2.552968264E-2,1.165318489E-1,-2.522554398E-1
7.508377590E-1,-6.302171946E-2,1.424131393E-1,-3.236985207E-1
7.588626960E-1,-1.010499597E-1,1.542520523E-1,-3.875861168E-1
7.668584020E-1,-1.732998490E-1,1.496143341E-1,-3.841204643E-1
7.748553390E-1,-2.815200686E-1,1.210274696E-1,-3.830499649E-1
7.828495840E-1,-3.300075233E-1,5.661010742E-2,-4.129920006E-1
7.908446750E-1,-3.474300802E-1,5.018329620E-2,-5.116796494E-1
7.988409190E-1,-3.534839749E-1,4.344749451E-2,-6.963009834E-1
8.068363940E-1,-4.065450430E-1,1.350436211E-1,-7.939095497E-1
8.148637160E-1,-4.226532876E-1,2.143607140E-1,-7.284598351E-1
8.228584990E-1,-3.331440687E-1,2.114443779E-1,-6.369347572E-1
8.308538980E-1,-1.089533269E-1,2.237687111E-1,-5.082101822E-1
8.388496040E-1,2.435496449E-2,2.459139824E-1,-2.138547897E-1
8.468450020E-1,-5.850514770E-2,1.812276840E-1,-1.668848991E-1
8.548416310E-1,-6.679174304E-2,1.301746368E-1,-4.175138474E-2
8.628361070E-1,-3.327971697E-2,1.500110626E-1,8.932065964E-2
8.708619670E-1,-7.570937276E-2,1.545038223E-1,1.328587532E-1
8.788585960E-1,-1.531056464E-1,1.387391090E-1,1.341986656E-1
8.868543780E-1,-2.169895768E-1,9.074401855E-2,5.985116959E-2
8.948503920E-1,-3.145139515E-1,5.172920227E-2,-1.110086441E-1
9.028450990E-1,-4.161358774E-1,2.007150650E-2,-2.623686790E-1
9.108411900E-1,-5.224118829E-1,3.963947296E-2,-4.002566338E-1
9.188362810E-1,-5.850129724E-1,5.581617355E-2,-4.403676987E-1
9.268627550E-1,-5.825829506E-1,4.933261871E-2,-4.929881096E-1
9.348581540E-1,-5.946010351E-1,-3.006982803E-2,-4.695057869E-1
9.428532450E-1,-5.754791498E-1,-5.614852905E-2,-3.995161057E-1
9.508482590E-1,-5.256603956E-1,-6.540727615E-2,-3.317379951E-1
9.588452730E-1,-5.077164173E-1,-5.099153519E-2,-2.666406631E-1
9.668403630E-1,-5.078263283E-1,-2.038955688E-2,-2.741117477E-1
9.748369150E-1,-5.148791075E-1,1.217508316E-2,-2.797760963E-1
9.828625450E-1,-4.624102712E-1,3.746223450E-2,-3.286581039E-1
9.908573280E-1,-4.519050717E-1,8.927536011E-2,-3.748745918E-1
9.988530340E-1,-3.899254799E-1,1.081695557E-1,-3.531489372E-1
1.006849278E0,-2.676030993E-1,1.377716064E-1,-3.871655464E-1
1.014845600E0,-5.698913336E-2,1.281723976E-1,-3.805518150E-1
1.022840691E0,2.410296500E-1,1.149206161E-1,-3.648386002E-1
1.030835243E0,4.131649137E-1,1.002311707E-1,-3.090038300E-1
1.038861949E0,5.168738961E-1,1.191282272E-1,-1.615028381E-1
1.046857347E0,5.218563676E-1,1.759157181E-1,-9.765911102E-2
1.054854361E0,5.443123579E-1,2.059988976E-1,-1.197338104E-2
1.062848837E0,5.176534653E-1,1.970767975E-1,1.141657829E-1
1.070844466E0,4.550938308E-1,1.389293671E-1,1.934843063E-1
1.078840557E0,4.334846735E-1,3.384685516E-2,1.538739204E-1
1.086835570E0,4.327591360E-1,-8.178424835E-2,1.540288925E-1
1.094863353E0,5.188102722E-1,-1.932153702E-1,1.275238991E-1
1.102857136E0,6.221362352E-1,-2.519092560E-1,-1.082849503E-2
1.110852535E0,7.887749672E-1,-2.821121216E-1,-7.777690887E-3
1.118848626E0,9.767121077E-1,-2.342805862E-1,-5.640029907E-3
1.126844331E0,1.083389282E0,-1.302986145E-1,-3.586769104E-2
1.134840576E0,1.163609505E0,-9.422302246E-3,1.086902618E-1
1.142835436E0,1.168901443E0,1.567935944E-2,-7.635974884E-2
1.150862143E0,1.173128486E0,6.505012512E-2,-1.594376564E-1
1.158857003E0,1.147406578E0,8.155918121E-2,-2.524480820E-1
1.166853247E0,1.039184570E0,1.961135864E-2,-2.501659393E-1
1.174849645E0,9.020203352E-1,-1.059055328E-2,-2.818565369E-1
1.182844428E0,8.226418495E-1,-6.906604767E-2,-3.167343140E-1
1.190839750E0,7.819552422E-1,-1.128931046E-1,-2.712788582E-1
1.198835457E0,7.884806395E-1,-1.755962372E-1,-4.038295746E-1
1.206861700E0,8.907039165E-1,-1.871747971E-1,-6.099734306E-1
1.214858253E0,1.058547020E0,-1.612300873E-1,-8.040838242E-1
1.222852113E0,1.108142138E0,-1.502046585E-1,-8.898410797E-1
1.230848512E0,1.118798852E0,-1.710357666E-1,-9.063215256E-1
1.238844141E0,1.109290004E0,-1.908750534E-1,-8.743047714E-1
1.246839616E0,1.076298952E0,-1.814517975E-1,-7.950568199E-1
1.254836168E0,1.009121895E0,-1.697168350E-1,-6.917448044E-1
1.262861490E0,8.446320295E-1,-1.344900131E-1,-5.753378868E-1
1.270855965E0,6.462382078E-1,-8.776473999E-2,-5.207986832E-1
1.278853210E0,4.834507704E-1,-6.241703033E-2,-5.942726135E-1
1.286848839E0,3.482679129E-1,-9.569740295E-2,-7.529127598E-1
1.294844545E0,2.683690786E-1,-1.249179840E-1,-8.997550011E-1
1.302839405E0,1.924400330E-1,-1.593589783E-1,-9.786982536E-1
1.310835034E0,1.131570339E-1,-1.748828888E-1,-1.072993517E0
1.318861510E0,8.049678802E-2,-1.573724747E-1,-1.039226770E0
1.326857215E0,4.907000065E-2,-1.934499741E-1,-9.979169369E-1
1.334853229E0,6.605124474E-2,-2.977743149E-1,-8.774092197E-1
1.342847705E0,9.046196938E-2,-4.325561523E-1,-7.288539410E-1
1.350843104E0,1.221327782E-1,-5.459365845E-1,-5.419604778E-1
1.358840118E0,2.205842733E-1,-6.268377304E-1,-4.838206768E-1
1.366835131E0,3.569370508E-1,-6.595354080E-1,-4.707467556E-1
1.374861683E0,4.300705194E-1,-6.460857391E-1,-4.540362358E-1
1.382856774E0,4.728665352E-1,-5.044040680E-1,-5.707669258E-1
1.390852173E0,4.290525913E-1,-5.147676468E-1,-3.767611980E-1
1.398848417E0,3.735257387E-1,-4.923896790E-1,-3.910090923E-1
1.406843584E0,3.228603601E-1,-4.276065826E-1,-3.355727196E-1
1.414839829E0,2.268941402E-1,-3.181352615E-1,-2.564086914E-1
1.422834689E0,7.458376884E-2,-1.568546295E-1,-1.782681942E-1
1.430861088E0,-7.875585556E-2,6.137847900E-3,-9.853291512E-2
1.438856563E0,-2.189875841E-1,3.000354767E-2,-4.235577583E-2
1.446852269E0,-3.399686813E-1,1.040105820E-1,1.276788712E-1
1.454848283E0,-3.408628702E-1,7.699871063E-2,2.777831554E-1
1.462843066E0,-2.232110500E-1,2.220916748E-2,1.809642315E-1
1.470838695E0,-7.831430435E-2,-3.195762634E-3,1.859545708E-1
1.478864940E0,4.598021507E-2,-1.419067383E-3,1.087658405E-1
1.486861261E0,1.122684479E-1,8.769035339E-3,4.804277420E-2
1.494857198E0,2.006274462E-1,-1.026725769E-2,-6.674838066E-2
1.502852366E0,2.666079998E-1,-7.940673828E-2,-1.911191940E-1
1.510846841E0,3.490582705E-1,-2.414436340E-1,-2.478215694E-1
1.518844086E0,3.547439575E-1,-4.100608826E-1,-2.699923515E-1
1.526839099E0,2.688672543E-1,-6.469802856E-1,-2.354722023E-1
1.534865575E0,2.047752142E-1,-7.894897461E-1,-1.544184685E-1
1.542860743E0,1.498143673E-1,-8.093805313E-1,2.956342697E-2
1.550856064E0,1.124889851E-1,-7.502937317E-1,2.316660881E-1
1.558852386E0,9.739243984E-2,-5.819606781E-1,4.481942654E-1
1.566847553E0,5.443048477E-2,-3.625211716E-1,5.726733208E-1
1.574844721E0,2.226126194E-2,-2.242279053E-1,6.280436516E-1
1.582838043E0,-1.766276360E-2,-1.187829971E-1,6.486444473E-1
1.590834057E0,-4.675090313E-2,-5.101013184E-2,6.272737980E-1
1.598860224E0,-1.005351543E-1,5.542755127E-3,5.855069160E-1
1.606856468E0,-1.043378115E-1,8.215808868E-2,5.307075977E-1
1.614852559E0,-9.147739410E-2,1.861076355E-1,4.246795177E-1
1.622846958E0,-7.095682621E-2,2.553272247E-1,3.275682926E-1
1.630842741E0,-3.304719925E-2,3.113660812E-1,2.919476032E-1
1.638838678E0,-6.978809834E-2,2.780265808E-1,2.683000565E-1
1.646864845E0,-6.571841240E-2,2.130537033E-1,2.094700336E-1
1.654860321E0,-1.060110331E-1,1.289491653E-1,1.646895409E-1
1.662855719E0,-1.233102083E-1,-3.623104095E-2,1.516299248E-1
1.670851426E0,-6.935155392E-2,-1.617774963E-1,1.088476181E-1
1.678847363E0,-1.285752058E-1,-3.052225113E-1,6.729841232E-2
1.686842529E0,-1.313683987E-1,-3.568763733E-1,4.962778091E-2
1.694838774E0,-1.120929718E-1,-4.320974350E-1,9.545898438E-2
1.702864634E0,-1.479007006E-1,-5.000572205E-1,1.274125576E-1
1.710860033E0,-1.985778213E-1,-5.536766052E-1,1.597025394E-1
1.718855739E0,-2.481353879E-1,-5.262050629E-1,1.772680283E-1
1.726851522E0,-2.997246981E-1,-4.799633026E-1,1.729583740E-1
1.734848382E0,-3.249871731E-1,-3.480415344E-1,1.536037922E-1
1.742842857E0,-3.654559255E-1,-2.191629410E-1,1.381471157E-1
1.750837948E0,-3.705445528E-1,-8.612728119E-2,8.099484444E-2
1.758865039E0,-3.593854308E-1,3.438186646E-2,-1.764917374E-2
1.766860745E0,-3.409568667E-1,8.028602600E-2,-7.842302322E-2
1.774855912E0,-3.077493310E-1,8.523082733E-2,-1.824531555E-1
1.782851234E0,-2.711296082E-1,7.577419281E-2,-2.789180279E-1
1.790847325E0,-3.035691381E-1,2.822208405E-2,-2.790365219E-1
1.798842339E0,-3.532192707E-1,-2.370834351E-2,-2.736496925E-1
1.806838737E0,-4.163026214E-1,-1.035785675E-2,-2.696511745E-1
1.814865135E0,-5.059615374E-1,-3.341674805E-3,-2.451710701E-1
1.822860534E0,-5.320087671E-1,1.642322540E-2,-2.503826618E-1
1.830854702E0,-5.811293125E-1,-2.050209045E-2,-2.563297749E-1
1.838851639E0,-5.886775851E-1,-1.400947571E-2,-2.541098595E-1
1.846847421E0,-6.143772602E-1,-6.952857971E-2,-1.889550686E-1
1.854843743E0,-6.222714782E-1,-1.056518555E-1,-1.781535149E-1
1.862838526E0,-5.744590759E-1,-9.402275085E-2,-8.157467842E-2
1.870864079E0,-5.596432090E-1,-9.467887878E-2,-3.149294853E-2
1.878859785E0,-4.925871193E-1,-4.552936554E-2,-3.535699844E-2
1.886855798E0,-4.238540828E-1,-4.001998901E-2,-2.373933792E-3
1.894852120E0,-3.750675321E-1,-8.768081665E-3,1.219606400E-2
1.902846595E0,-4.053983688E-1,3.381538391E-2,6.306982040E-2
1.910842302E0,-4.256798327E-1,7.588291168E-2,4.756093025E-2
1.918837700E0,-4.289765358E-1,8.629608154E-2,7.583570480E-2
1.926864098E0,-4.556982517E-1,6.282901764E-2,8.137989044E-2
1.934860189E0,-4.866375923E-1,6.551074982E-2,6.719851494E-2
1.942854972E0,-5.287258029E-1,1.064414978E-1,3.371119499E-2
1.950851217E0,-5.752063394E-1,1.690311432E-1,-1.839423180E-2
1.958846923E0,-5.854244232E-1,2.029867172E-1,-1.732182503E-2
1.966842090E0,-5.905909538E-1,2.320880890E-1,1.724743843E-2
1.974838950E0,-5.694838762E-1,2.466630936E-1,5.391025543E-2
1.982863657E0,-4.938143194E-1,2.009868622E-1,1.254620552E-1
1.990859363E0,-4.099544287E-1,1.548070908E-1,1.766016483E-1
1.998854762E0,-3.349380493E-1,1.343822479E-1,2.190337181E-1
2.006851005E0,-2.486909628E-1,1.278467178E-1,1.791017056E-1
2.014847404E0,-1.737199128E-1,1.952590942E-1,1.581237316E-1
2.022842110E0,-1.494947076E-1,2.600955963E-1,1.513824463E-1
2.030837817E0,-1.321148127E-1,2.530088425E-1,1.255121231E-1
2.038863754E0,-1.444692761E-1,2.243633270E-1,1.189565659E-1
2.046859690E0,-1.503109932E-1,2.363414764E-1,1.266400814E-1
2.054855704E0,-1.491673589E-1,2.314882278E-1,1.485404968E-1
2.062850487E0,-1.482680738E-1,2.265033722E-1,1.676828861E-1
2.070845040E0,-1.403837502E-1,2.452707291E-1,1.982493401E-1
2.078842207E0,-9.945464134E-2,2.470903397E-1,2.043654919E-1
2.086838220E0,-7.103781402E-2,2.247972488E-1,2.148332596E-1
2.094864081E0,-1.936930418E-2,2.238817215E-1,2.320513725E-1
2.102859172E0,2.887547016E-3,2.131652832E-1,2.582559586E-1
2.110854339E0,-8.581966162E-3,2.619962692E-1,2.596020699E-1
2.118850276E0,3.822177649E-3,3.152856827E-1,2.791206837E-1
2.126846290E0,-3.160393238E-2,3.539600372E-1,2.380588055E-1
2.134841765E0,-3.819529712E-2,3.901262283E-1,2.302303314E-1
2.142836548E0,-6.634622812E-3,4.022359848E-1,2.317237854E-1
2.150862947E0,-6.589025259E-3,3.496923447E-1,2.045850754E-1
2.158859653E0,2.161678672E-2,3.068075180E-1,1.898148060E-1
2.166854743E0,5.144202709E-2,2.880373001E-1,1.470108032E-1
2.174851911E0,1.450473517E-1,2.311315536E-1,1.168518066E-1
2.182845771E0,2.090580612E-1,1.720390320E-1,8.986759186E-2
2.190842785E0,3.269169331E-1,1.034793854E-1,4.422688484E-2
2.198837184E0,4.311547279E-1,2.303791046E-2,6.232738495E-3
2.206862812E0,4.661813676E-1,-3.571510315E-2,-2.375364304E-3
2.214860057E0,4.962006211E-1,-8.711433411E-2,-3.892755508E-2
2.222854533E0,4.922325909E-1,-1.405715942E-1,-3.825402260E-2
2.230849624E0,4.877712131E-1,-1.623725891E-1,-9.072613716E-2
2.238845561E0,4.237605631E-1,-1.882619858E-1,-1.216750145E-1
2.246840958E0,3.522153795E-1,-2.109422684E-1,-1.404790878E-1
2.254868434E0,3.147404790E-1,-2.329216003E-1,-1.595644951E-1
2.262863525E0,3.131672740E-1,-2.232961655E-1,-1.292524338E-1
2.270858308E0,3.348042071E-1,-2.348413467E-1,-1.479353905E-1
2.278854553E0,3.595359325E-1,-1.767330170E-1,-1.369557381E-1
2.286850335E0,3.779877722E-1,-1.281042099E-1,-1.301929951E-1
2.294846272E0,3.929734826E-1,-1.058378220E-1,-1.065080166E-1
2.302841363E0,3.718786836E-1,-9.086894989E-2,-1.165490150E-1
2.310836223E0,4.033566713E-1,-8.083438873E-2,-1.005628109E-1
2.318862930E0,3.920651376E-1,-3.994464874E-2,-7.334589958E-2
2.326858712E0,3.601382971E-1,-2.097034454E-2,-3.531122208E-2
2.334854418E0,3.127627671E-1,1.424980164E-2,1.541781425E-2
2.342849509E0,2.290408015E-1,2.982425690E-2,2.849197388E-2
2.350845139E0,1.569079161E-1,1.869487762E-2,4.257106781E-2
2.358841230E0,1.197001934E-1,3.588581085E-2,7.197403908E-2
2.366837243E0,3.835660219E-2,-4.709243774E-3,9.780859947E-2
2.374863718E0,-1.113569736E-2,-4.564857483E-2,1.273026466E-1
2.382858117E0,-5.602657795E-3,-8.220481873E-2,1.604044437E-1
2.390853592E0,3.281831741E-2,-1.120004654E-1,1.062142849E-1
2.398849222E0,5.572861433E-2,-1.349878311E-1,9.186720848E-2
2.406845004E0,7.766103745E-2,-1.774501801E-1,5.287504196E-2
2.414841941E0,7.975393534E-2,-1.459493637E-1,3.009009361E-2
2.422836109E0,6.006544828E-2,-1.625881195E-1,2.344584465E-2
2.430862508E0,4.751020670E-2,-1.626653671E-1,-1.479649544E-2
2.438859214E0,1.096159220E-2,-1.820039749E-1,-2.451419830E-2
2.446854227E0,-2.313041687E-2,-1.869640350E-1,-3.409814835E-2
2.454742458E0,-3.540247679E-2,-2.205543518E-1,-5.053186417E-2
2.462737147E0,-9.408175945E-3,-2.158269882E-1,-4.288220406E-2
2.470732914E0,2.581745386E-2,-2.184267044E-1,3.155565262E-2
2.478759064E0,6.528669596E-2,-2.165088654E-1,3.599977493E-2
2.486755061E0,1.016781330E-1,-2.196416855E-1,5.432176590E-2
2.494751288E0,8.719956875E-2,-2.063198090E-1,6.005692482E-2
2.502746132E0,1.029144526E-1,-1.885738373E-1,6.989026070E-2
2.510741820E0,1.031903028E-1,-1.712369919E-1,5.502343178E-2
2.518737509E0,1.027632952E-1,-1.804656982E-1,2.787184715E-2
2.526732891E0,6.804859638E-2,-1.755943298E-1,1.949501038E-2
2.534760271E0,3.755700588E-2,-2.044649124E-1,2.997493744E-2
2.542754115E0,4.496055841E-2,-1.593542099E-1,2.093958855E-2
2.550749727E0,-1.031416655E-2,-2.318582535E-1,4.491710663E-2
2.558745723E0,-5.888164043E-3,-2.829780579E-1,-1.509165764E-2
2.566741412E0,8.367902040E-2,-2.697305679E-1,-2.269482613E-2
2.574737794E0,1.310420036E-1,-2.231435776E-1,-2.295184135E-2
2.582733099E0,1.240876317E-1,-1.385812759E-1,1.011943817E-2
2.590758633E0,1.156330705E-1,-1.384286880E-1,7.816171646E-2
2.598754938E0,1.390556693E-1,-1.870460510E-1,1.470348835E-1
2.606750397E0,2.438002825E-1,-2.727127075E-1,2.259767056E-1
2.614746393E0,3.861176968E-1,-3.668546677E-1,2.717857361E-1
2.622740543E0,5.054597855E-1,-4.313278198E-1,2.987608910E-1
2.630736463E0,5.341168642E-1,-4.372749329E-1,2.836799622E-1
2.638732230E0,5.677516460E-1,-5.118227005E-1,4.991235733E-1
2.646758380E0,5.752313137E-1,-6.000165939E-1,3.656575680E-1
2.654755300E0,6.505886316E-1,-6.441679001E-1,3.483462334E-1
2.662749374E0,6.951183081E-1,-6.277227402E-1,4.638669491E-1
2.670745754E0,6.251794100E-1,-6.562604904E-1,4.604847431E-1
2.678741136E0,5.901341438E-1,-6.916570663E-1,5.028953552E-1
2.686736825E0,5.930899382E-1,-7.673711777E-1,7.636179924E-1
2.694733129E0,6.239935160E-1,-8.742837906E-1,8.757283688E-1
2.702758280E0,7.151526213E-1,-9.792995453E-1,1.231743574E0
2.710753969E0,8.414565325E-1,-1.157312393E0,1.349865198E0
2.718749428E0,9.984532595E-1,-1.385215759E0,1.557773352E0
2.726745116E0,1.095681548E0,-1.565659523E0,1.694975853E0
2.734741421E0,1.316663980E0,-1.763875961E0,1.802365303E0
2.742736187E0,1.579961777E0,-1.939435005E0,1.902125359E0
2.750731875E0,1.818122387E0,-2.112006187E0,1.918076515E0
2.758757334E0,1.970038176E0,-2.227311134E0,1.903444767E0
2.766753100E0,2.081222773E0,-2.345683098E0,1.921174049E0
2.774750250E0,2.159517765E0,-2.477250099E0,1.957185745E0
2.782745016E0,2.227456570E0,-2.620653152E0,1.845533848E0
2.790739859E0,2.389416933E0,-2.647666931E0,1.530152798E0
2.798736087E0,2.613404751E0,-2.521817684E0,1.317592621E0
2.806731776E0,2.686687946E0,-2.415524960E0,1.302969933E0
2.814758926E0,2.767167568E0,-2.237511635E0,1.337790966E0
2.822753616E0,2.768146276E0,-2.128962040E0,1.402481079E0
2.830749612E0,2.783553123E0,-2.005544662E0,1.567639828E0
2.838744686E0,2.759887695E0,-2.027758121E0,1.832154751E0
2.846739760E0,2.742629051E0,-2.119826794E0,2.032528877E0
2.854736757E0,2.642038822E0,-2.264737129E0,2.214304924E0
2.862732368E0,2.472915173E0,-2.370391846E0,2.192009449E0
2.870756673E0,2.410804272E0,-2.382170200E0,1.951457024E0
2.878753054E0,2.366855145E0,-2.357522488E0,1.726711273E0
2.886748743E0,2.288432598E0,-2.157280922E0,1.409288883E0
2.894745278E0,2.044284344E0,-1.821430206E0,1.072427273E0
2.902740429E0,1.692154884E0,-1.583999634E0,9.470224380E-1
2.910735733E0,1.432364464E0,-1.455972672E0,9.775428772E-1
2.918732037E0,1.363134861E0,-1.576267719E0,8.884067535E-1
2.926757034E0,1.303231716E0,-1.760585785E0,8.824553490E-1
2.934753032E0,1.161831379E0,-1.971358776E0,9.952111244E-1
2.942748951E0,1.032108307E0,-2.209284306E0,1.200720787E0
2.950743409E0,1.127168179E0,-2.401040316E0,1.214414120E0
2.958739406E0,1.241300106E0,-2.565010309E0,1.189631939E0
2.966734787E0,1.450048923E0,-2.747501135E0,1.232450485E0
2.974731399E0,1.575435638E0,-2.859740734E0,9.628210068E-1
2.982756704E0,1.591872215E0,-2.828743696E0,6.376013756E-1
2.990752931E0,1.418933868E0,-2.714700937E0,3.768172264E-1
2.998747774E0,1.170858383E0,-2.623185396E0,1.361656189E-1
3.006744617E0,9.197807312E-1,-2.451150417E0,2.811193466E-2
3.014740306E0,7.988529205E-1,-2.458448410E0,1.732873917E-2
3.022735149E0,7.452354431E-1,-2.620714188E0,1.406288147E-1
3.030730146E0,7.636823654E-1,-2.893028259E0,1.632947922E-1
3.038756604E0,6.670632362E-1,-3.122644424E0,4.597234726E-2
3.046752369E0,3.166122437E-1,-3.215193987E0,-9.303951263E-2
3.054748366E0,-1.696753502E-1,-3.221277714E0,-1.674971581E-1
3.062743440E0,-7.393379211E-1,-3.057643414E0,-2.395243645E-1
3.070739129E0,-9.903459549E-1,-2.969707966E0,-2.955489159E-1
3.078735049E0,-9.889841080E-1,-2.797891617E0,-5.487008095E-1
3.086729892E0,-9.759845734E-1,-2.621996880E0,-7.786273956E-1
3.094757812E0,-1.080726147E0,-2.450634003E0,-9.087605476E-1
3.102751962E0,-1.357101917E0,-2.281046391E0,-1.008900166E0
3.110746728E0,-1.482089043E0,-2.293452501E0,-9.492950439E-1
3.118743648E0,-1.567685127E0,-2.212989092E0,-1.094308376E0
3.126738490E0,-1.568845272E0,-2.158288956E0,-1.333592892E0
3.134734795E0,-1.472233295E0,-2.127807140E0,-1.374630690E0
3.142730100E0,-1.367325306E0,-2.048796177E0,-1.483447552E0
3.150755712E0,-1.308468342E0,-2.045381546E0,-1.416001320E0
3.158751631E0,-1.360914707E0,-1.971055746E0,-1.465054512E0
3.166747628E0,-1.578750134E0,-1.946378708E0,-1.370090961E0
3.174744241E0,-1.779076099E0,-1.942653418E0,-1.309811115E0
3.182738698E0,-1.963164330E0,-1.909132957E0,-1.662356853E0
3.190733542E0,-1.745908737E0,-2.029692888E0,-1.001216888E0
3.198729539E0,-1.484677315E0,-1.929138660E0,-1.564550400E0
3.206755919E0,-1.287767410E0,-2.004599810E0,-1.610223532E0
3.214751993E0,-1.305718422E0,-2.007551670E0,-1.905542374E0
3.222746990E0,-1.585611343E0,-1.928021908E0,-1.787928104E0
3.230743064E0,-1.758924007E0,-1.928747654E0,-1.583980322E0
3.238737829E0,-1.964039326E0,-1.843669415E0,-1.518335581E0
3.246734672E0,-2.019651890E0,-1.790353298E0,-1.569338799E0
3.254730439E0,-2.142465830E0,-1.702130318E0,-1.481985807E0
3.262755973E0,-2.235947132E0,-1.667604446E0,-1.338885069E0
3.270750663E0,-2.219585180E0,-1.706422806E0,-1.364185572E0
3.278746429E0,-2.123516798E0,-1.710378170E0,-1.320948839E0
3.286742425E0,-2.100524902E0,-1.764568329E0,-1.242124557E0
3.294738960E0,-2.118109703E0,-1.737558842E0,-1.138941288E0
3.302733111E0,-2.228876591E0,-1.694707870E0,-9.728090763E-1
3.310729185E0,-2.361983061E0,-1.600291729E0,-8.963305950E-1
3.318755027E0,-2.568807602E0,-1.538092613E0,-7.368087769E-1
3.326750640E0,-2.764194012E0,-1.513594151E0,-6.771445274E-1
3.334747560E0,-2.964993238E0,-1.443922043E0,-7.332282066E-1
3.342742325E0,-3.119224072E0,-1.312144279E0,-8.241591454E-1
3.350736861E0,-3.099134445E0,-1.196879387E0,-9.021854401E-1
3.358733165E0,-2.976479530E0,-1.091732979E0,-9.165582657E-1
3.366759854E0,-2.803391218E0,-1.102996349E0,-6.848533154E-1
3.374755312E0,-2.661647320E0,-1.223931789E0,-5.729358196E-1
3.382750925E0,-2.528860807E0,-1.424004555E0,-3.488087654E-1
3.390746614E0,-2.416082621E0,-1.639417648E0,-1.007475853E-1
3.398741456E0,-2.390218735E0,-1.791810513E0,1.503567696E-1
3.406737453E0,-2.582437515E0,-1.883495331E0,4.029393196E-1
3.414733989E0,-2.824357033E0,-1.898227692E0,4.981789589E-1
3.422759523E0,-2.931748152E0,-1.829463005E0,4.487743378E-1
3.430754289E0,-2.806764603E0,-1.658568382E0,3.807015419E-1
3.438750286E0,-2.553616047E0,-1.493389130E0,3.218441010E-1
3.446746283E0,-2.286084175E0,-1.307723522E0,2.283859253E-1
3.454742895E0,-1.962986231E0,-1.202225685E0,1.527023315E-1
3.462737122E0,-1.581229568E0,-1.205535412E0,1.371736526E-1
3.470732812E0,-1.277707934E0,-1.207898140E0,1.979217529E-1
3.478728808E0,-1.153293967E0,-1.195182323E0,2.670245171E-1
3.486754651E0,-1.072030067E0,-1.090801239E0,4.176511765E-1
3.494750879E0,-9.831497669E-1,-1.012178898E0,6.162757874E-1
3.502746259E0,-8.613728285E-1,-8.976030350E-1,6.849665642E-1
3.510741103E0,-1.366530657E0,-8.141241074E-1,8.759927750E-1
3.518737330E0,-2.144983530E0,-7.542381287E-1,9.343237877E-1
3.526732789E0,-2.801384926E0,-6.768012047E-1,8.339037895E-1
3.534759246E0,-2.861161232E0,-5.456786156E-1,7.140865326E-1
3.542754551E0,-2.498990297E0,-3.821730614E-1,6.338677406E-1
3.550749933E0,-1.913589716E0,-2.271161079E-1,5.516467094E-1
3.558745698E0,-1.421062469E0,-1.689901352E-1,5.656251907E-1
3.566741926E0,-1.061003566E0,-1.047163010E-1,6.561102867E-1
3.574736769E0,-8.741054535E-1,-7.047462463E-2,7.376360893E-1
3.582732150E0,-7.318520546E-1,1.782798767E-2,7.792568207E-1
3.590757608E0,-5.885652304E-1,1.218738556E-1,7.463517189E-1
3.598754913E0,-3.368531466E-1,1.506156921E-1,6.533827782E-1
3.606749602E0,3.754520416E-2,9.938144684E-2,5.236635208E-1
3.614746521E0,2.978358269E-1,2.092647552E-2,4.630217552E-1
3.622740749E0,2.966347933E-1,-8.761692047E-2,4.068746567E-1
3.630736131E0,1.707395315E-1,-1.529450417E-1,3.218951225E-1
3.638731511E0,3.635907173E-2,-1.802434921E-1,2.679352760E-1
3.646757970E0,2.894473076E-2,-2.361330986E-1,2.278556824E-1
3.662748964E0,4.093647003E-2,-3.869481087E-1,1.276264191E-1
3.670744345E0,3.178036213E-2,-4.280104637E-1,5.383205414E-2
3.678740419E0,1.087033749E-2,-4.271802902E-1,-2.445173264E-2
3.686736339E0,-6.397306919E-2,-3.702530861E-1,-1.001625061E-1
3.694732412E0,-1.537237167E-1,-2.788286209E-1,-1.639256477E-1
3.702757870E0,-2.151926756E-1,-2.053422928E-1,-2.448844910E-1
3.710753636E0,-1.935849190E-1,-1.949052811E-1,-2.908506393E-1
3.718749325E0,-1.842682362E-1,-2.017779350E-1,-3.382573128E-1
3.726745014E0,-9.329843521E-2,-2.210936546E-1,-3.419308662E-1
3.734741011E0,-3.256988525E-2,-2.506027222E-1,-3.976392746E-1
3.742736008E0,6.029725075E-3,-2.330546379E-1,-3.617315292E-1
3.750731081E0,-5.879557133E-2,-2.020740509E-1,-3.681626320E-1
3.758757617E0,-2.181055546E-1,-1.720409393E-1,-3.376817703E-1
3.766752998E0,-3.413048983E-1,-1.236801147E-1,-3.036303520E-1
3.774748917E0,-3.308281898E-1,-4.021978378E-2,-2.634444237E-1
3.782744684E0,-2.521291971E-1,4.720640182E-2,-2.647318840E-1
3.790740681E0,-2.064635754E-1,1.003179550E-1,-2.809829712E-1
3.798735446E0,-2.423396111E-1,1.406908035E-1,-2.545866966E-1
3.806731981E0,-2.786114216E-1,2.040591240E-1,-2.570223808E-1
3.814758132E0,-2.601900101E-1,2.540626526E-1,-3.211517334E-1
3.822753591E0,-1.422179937E-1,2.527008057E-1,-3.777790070E-1
3.830748048E0,2.019631863E-2,2.743644714E-1,-3.935942650E-1
3.838743968E0,1.962128878E-1,2.647771835E-1,-3.674421310E-1
3.846739965E0,3.243591785E-1,2.767562866E-1,-3.500385284E-1
3.854735961E0,4.029945135E-1,2.222824097E-1,-3.065466881E-1
3.862731035E0,3.786196709E-1,1.805715561E-1,-2.449836731E-1
3.870757186E0,2.766958475E-1,1.112308502E-1,-2.022581100E-1
3.878752567E0,1.984626055E-1,6.042766571E-2,-1.054348946E-1
3.886748641E0,1.004574299E-1,2.804946899E-2,-4.762220383E-2
3.894745176E0,2.762997150E-2,3.554534912E-2,1.219749451E-2
3.902739635E0,-2.561056614E-2,5.632781982E-2,6.270503998E-2
3.910734400E0,-4.527556896E-2,7.799911499E-2,7.834196091E-2
3.918730782E0,-4.620814323E-2,7.161903381E-2,6.198501587E-2
3.926757240E0,-4.505491257E-2,4.648590088E-2,3.317737579E-2
3.934753236E0,6.093811989E-2,-1.411724091E-2,-5.679130554E-3
3.942748003E0,1.428149939E-1,-3.135585785E-2,-4.486036301E-2
3.950744538E0,2.226810455E-1,-5.329179764E-2,-6.992864609E-2
3.958739381E0,2.388491631E-1,-3.932237625E-2,-7.615184784E-2
3.966735685E0,1.345095634E-1,-3.978490829E-2,-1.818799973E-2
3.974731374E0,1.110672951E-3,2.643585205E-3,2.020215988E-2
3.982756525E0,-1.760846376E-1,2.816343307E-2,5.342626572E-2
3.990751060E0,-2.258601189E-1,-6.449222565E-3,6.533765793E-2
3.998747980E0,-1.752972603E-1,-7.915496826E-4,7.079792023E-2
4.006743977E0,-7.730269432E-2,-4.098510742E-2,2.668571472E-2
4.014739280E0,2.517366409E-2,-3.389406204E-2,-5.472421646E-2
4.022734354E0,1.156984568E-1,1.803159714E-2,-1.614975929E-1
4.030730736E0,1.393990517E-1,4.996967316E-2,-2.240052223E-1
4.038756195E0,1.155847311E-1,6.891059875E-2,-2.875118256E-1
4.046752498E0,1.399102211E-1,6.764221191E-2,-3.375649452E-1
4.054748188E0,1.574848890E-1,5.113410950E-2,-3.122482300E-1
4.062743262E0,7.995927334E-2,2.901935577E-2,-3.122801781E-1
4.070738104E0,-9.695172310E-2,5.163192749E-2,-3.092012405E-1
4.078734639E0,-2.725139856E-1,3.081226349E-2,-2.917304039E-1
4.086730021E0,-4.134067297E-1,6.925487518E-2,-2.953300476E-1
4.094756863E0,-4.654208422E-1,6.876659393E-2,-2.885079384E-1
4.102751860E0,-5.264927149E-1,3.921318054E-2,-2.454419136E-1
4.110747626E0,-5.673314333E-1,2.345085144E-3,-1.714248657E-1
4.118743623E0,-4.572398663E-1,-4.104900360E-2,-9.362983704E-2
4.126738619E0,-3.081406355E-1,-8.531713486E-2,-2.708673477E-2
4.134735616E0,-2.139428854E-1,-1.042108536E-1,-2.601623535E-3
4.142730075E0,-2.193541527E-1,-1.003160477E-1,3.968191147E-2
4.150755532E0,-1.897653341E-1,-8.116340637E-2,8.333587646E-2
4.158751529E0,-1.731345654E-1,-7.313776016E-2,1.117043495E-1
4.166746603E0,-1.028037071E-1,-6.646585464E-2,1.868762970E-1
4.174743522E0,-4.390001297E-2,-8.997631073E-2,2.445397377E-1
4.182738289E0,1.175124645E-1,-6.745815277E-2,2.042732239E-1
4.190733670E0,2.476350069E-1,-2.324438095E-2,1.527709961E-1
4.198729437E0,3.283399343E-1,2.305984497E-2,9.753561020E-2
4.206755817E0,3.753727674E-1,5.232238770E-2,5.717802048E-2
4.214752199E0,4.852522612E-1,2.148437500E-2,7.425308228E-3
4.222746581E0,4.881794453E-1,1.681613922E-2,1.033115387E-2
4.230741961E0,4.008004665E-1,4.864692688E-3,3.230905533E-2
4.238738035E0,2.947921753E-1,-2.155637741E-2,1.117281914E-1
4.246733955E0,2.341918945E-1,-5.038642883E-2,1.672821045E-1
4.254730260E0,2.585754395E-1,-6.248044968E-2,1.539239883E-1
4.262755487E0,3.167016506E-1,-3.387689590E-2,1.198949814E-1
4.270750945E0,3.346798420E-1,-1.743602753E-2,5.818510056E-2
4.278746250E0,3.441107273E-1,1.302242279E-2,2.375602722E-3
4.286742554E0,3.245363235E-1,9.325313568E-2,-2.377319336E-2
4.294738551E0,3.103640079E-1,1.155104637E-1,-4.214334488E-2
4.302733625E0,2.994134426E-1,1.276559830E-1,-2.407503128E-2
4.310729005E0,3.087391853E-1,1.372070312E-1,-1.315593719E-3
4.318755156E0,2.954227924E-1,1.058301926E-1,-1.461458206E-2
4.326750922E0,1.745786667E-1,1.291794777E-1,5.057191849E-2
4.334747227E0,1.016523838E-1,1.114735603E-1,9.855175018E-2
4.342741992E0,1.025776863E-1,1.222496033E-1,1.077737808E-1
4.350736989E0,1.000249386E-1,1.640415192E-1,1.381702423E-1
4.358733602E0,1.054849625E-1,1.721401215E-1,1.708874702E-1
4.366729059E0,1.279337406E-1,2.422704697E-1,1.176543236E-1
4.374755210E0,2.072989941E-1,2.501788139E-1,8.137559891E-2
4.382750592E0,2.810485363E-1,3.012142181E-1,4.301500320E-2
4.390745588E0,2.752480507E-1,3.259048462E-1,2.645444870E-2
4.398742200E0,2.644684315E-1,3.098974228E-1,9.138774872E-2
4.406737582E0,2.444272041E-1,2.914075851E-1,1.276011467E-1
4.414733887E0,2.249310017E-1,2.083673477E-1,1.682419777E-1
4.422759113E0,2.587845325E-1,7.511901855E-2,1.965117455E-1
4.430754572E0,3.100957870E-1,-3.392362595E-2,2.097215652E-1
4.438750184E0,3.044891357E-1,-8.995246887E-2,2.030186653E-1
4.446745642E0,2.491378784E-1,-1.407914162E-1,1.571626663E-1
4.454742562E0,1.898174286E-1,-9.343957901E-2,1.133012772E-1
4.462736636E0,9.584736824E-2,-4.874706268E-2,3.578424454E-2
4.470731787E0,3.648114204E-2,-9.412765503E-3,-3.653526306E-2
4.478727398E0,-7.781505585E-3,1.512527466E-2,-9.174728394E-2
4.486753934E0,-6.596660614E-2,2.499580383E-2,-1.227431297E-1
4.494751161E0,-7.384729385E-2,-5.849838257E-3,-1.345701218E-1
4.502745004E0,-4.871296883E-2,-1.001930237E-2,-1.179742813E-1
4.510740385E0,-1.472139359E-2,2.921390533E-2,-1.135082245E-1
4.518736998E0,8.992195129E-3,5.202102661E-2,-1.164355278E-1
4.526732686E0,3.029084206E-2,1.205186844E-1,-9.093713760E-2
4.534758529E0,5.405306816E-2,1.652336121E-1,-6.092596054E-2
4.542753911E0,2.757859230E-2,1.909637451E-1,-2.640438080E-2
4.550749216E0,-2.954244614E-2,1.809549332E-1,-9.120464325E-3
4.558745212E0,-7.447767258E-2,1.375656128E-1,1.024580002E-2
4.566740978E0,-8.832669258E-2,6.807994843E-2,4.123353958E-2
4.574737283E0,-2.574539185E-2,1.546573639E-2,3.860330582E-2
4.582731355E0,-3.511929512E-2,-3.223752975E-2,2.147388458E-2
4.590758199E0,-3.981876373E-2,-3.435325623E-2,2.818346024E-2
4.598753273E0,-3.255009651E-2,-1.495647430E-2,2.537488937E-2
4.606749807E0,1.768398285E-2,1.394081116E-2,2.513647079E-2
4.614745804E0,5.611896515E-3,9.258270264E-3,-6.111621857E-3
4.622740647E0,5.568575859E-2,-1.219367981E-2,-6.362867355E-2
4.630736029E0,1.128945351E-1,-4.941940308E-3,-7.799339294E-2
4.638731640E0,1.195344925E-1,-2.884960175E-2,-1.137228012E-1
4.646757868E0,7.800269127E-2,-5.520677567E-2,-1.229062080E-1
4.654753865E0,4.366874695E-2,-4.572153091E-2,-1.248049736E-1
4.662749476E0,5.934929848E-2,-6.738567352E-2,-9.542083740E-2
4.670744012E0,8.898448944E-2,-6.529569626E-2,-1.182436943E-1
4.678740317E0,1.227784157E-1,-8.010339737E-2,-1.286001205E-1
4.686735697E0,1.679091454E-1,-4.242277145E-2,-1.623382568E-1
4.694732310E0,1.789722443E-1,9.452819824E-3,-1.452860832E-1
4.702757845E0,1.820695400E-1,6.337165833E-2,-1.800112724E-1
4.710752535E0,1.632096767E-1,8.113574982E-2,-1.950268745E-1
4.718749146E0,1.300632954E-1,6.031990051E-2,-2.072463036E-1
4.726744528E0,2.832603455E-2,4.402256012E-2,-2.265868187E-1
4.734740602E0,-5.567193031E-2,-1.777839661E-2,-2.271809578E-1
4.742735059E0,-1.362733841E-1,-2.438259125E-2,-1.661739349E-1
4.750731364E0,-1.664636135E-1,-3.552818298E-2,-1.463074684E-1
4.758757515E0,-1.443846226E-1,-2.483272552E-2,-1.243243217E-1
4.766753512E0,-1.304261684E-1,-6.707191467E-3,-6.879138947E-2
4.774748585E0,-1.391184330E-1,-9.925842285E-3,-4.899406433E-2
4.782743659E0,-7.492661476E-2,-2.009868622E-2,-2.176713943E-2
4.790738963E0,9.460926056E-3,-1.096343994E-2,1.041412354E-3
4.798735267E0,5.738949776E-2,-1.608848572E-2,-1.435995102E-2
4.806730341E0,4.578161240E-2,2.175617218E-2,-1.772642136E-2
4.814758030E0,-3.427505493E-3,3.558349609E-2,-2.367544174E-2
4.822752180E0,-2.036333084E-2,3.251743317E-2,-8.387088776E-3
4.830748254E0,-1.008629799E-2,4.136562347E-2,1.857376099E-2
4.838743328E0,7.704854012E-2,3.108215332E-2,6.454563141E-2
4.846739556E0,8.277678490E-2,-3.192901611E-2,9.385299683E-2
4.854735552E0,7.439947128E-2,-2.333545685E-2,8.748197556E-2
4.862730626E0,6.459951401E-3,-7.651329041E-3,5.718564987E-2
4.870756546E0,-3.528761864E-2,2.474784851E-2,2.463626862E-2
4.878751850E0,-3.936600685E-2,7.403182983E-2,2.330875397E-2
4.886748539E0,-4.901146889E-2,8.745861053E-2,-6.465911865E-3
4.894744228E0,-3.034758568E-2,1.320896149E-1,6.932258606E-3
4.902738917E0,-3.796100616E-2,1.407356262E-1,-1.548767090E-2
4.910734067E0,-4.021167755E-2,1.206083298E-1,3.612232208E-2
4.918730295E0,-3.925561905E-2,1.171913147E-1,6.348896027E-2
4.926755831E0,-6.367278099E-2,1.018190384E-1,5.926084518E-2
4.934752519E0,-6.085681915E-2,1.056156158E-1,3.303861618E-2
4.942747824E0,-4.767608643E-2,7.835769653E-2,2.549123764E-2
4.950742282E0,-1.977682114E-2,5.597114563E-2,1.525020599E-2
4.958738894E0,-1.791882515E-2,6.235790253E-2,9.592056274E-3
4.966734660E0,-2.796816826E-2,5.444526672E-2,-1.775074005E-2
4.974730888E0,2.476930618E-3,6.347084045E-2,-3.570175171E-2
4.982756422E0,-2.032756805E-2,3.429985046E-2,-4.637336731E-2
4.990752419E0,-3.876566887E-2,-1.400661469E-2,-6.884384155E-2
4.998746955E0,-5.974388123E-2,-5.267810822E-2,-7.218503952E-2
5.006743182E0,-1.072041988E-1,-6.503057480E-2,-7.303380966E-2
5.014739486E0,-1.497011185E-1,-8.939313889E-2,-6.911611557E-2
5.022733945E0,-2.275426388E-1,-9.468412399E-2,-4.857444763E-2
5.030729326E0,-3.233816624E-1,-1.048674583E-1,-5.235815048E-2
5.038755553E0,-3.866186142E-1,-1.128530502E-1,-4.455661774E-2
5.046751242E0,-5.120543242E-1,-1.187677383E-1,-8.289337158E-2
5.054747778E0,-6.458396912E-1,-1.443862915E-1,-1.124773026E-1
5.062742544E0,-8.267930746E-1,-1.686425209E-1,-1.860895157E-1
5.070738617E0,-1.024745584E0,-1.842889786E-1,-2.865777016E-1
5.078733383E0,-1.192678332E0,-2.669568062E-1,-3.780474663E-1
5.086729611E0,-1.431416392E0,-3.467679024E-1,-4.131927490E-1
5.094756376E0,-1.580017567E0,-4.496350288E-1,-5.378718376E-1
5.102751450E0,-1.664863229E0,-5.603284836E-1,-6.637964249E-1
5.110745986E0,-1.728851557E0,-7.232222557E-1,-6.768646240E-1
5.118741905E0,-1.853894234E0,-8.442611694E-1,-8.570017815E-1
5.126738210E0,-1.994436979E0,-9.676423073E-1,-9.083275795E-1
5.134733976E0,-2.091704845E0,-1.094492435E0,-1.044244766E0
5.142729050E0,-2.264066935E0,-1.241126537E0,-1.195869923E0
5.150755200E0,-2.476477623E0,-1.477040768E0,-1.272634029E0
5.158750504E0,-2.724566460E0,-1.725329876E0,-1.068691730E0
5.166746578E0,-2.977152586E0,-1.913531780E0,-1.081673622E0
5.174742805E0,-3.159304380E0,-2.059835434E0,-1.055703163E0
5.182737341E0,-3.336232662E0,-2.125861645E0,-1.124214172E0
5.190732415E0,-3.466007233E0,-2.072452068E0,-1.150844574E0
5.198728949E0,-3.594448566E0,-2.009204865E0,-1.171408653E0
5.206755408E0,-3.714929581E0,-1.944814205E0,-1.250675201E0
5.214751174E0,-3.836116076E0,-1.943148136E0,-1.322177887E0
5.222746479E0,-3.961121082E0,-2.008703232E0,-1.467531204E0
5.230741628E0,-4.097999573E0,-2.106075764E0,-1.603840351E0
5.238737933E0,-4.295291424E0,-2.268891811E0,-1.725798130E0
5.246733238E0,-4.464966297E0,-2.516951084E0,-1.786027908E0
5.254729926E0,-4.555595398E0,-2.730590820E0,-1.793141365E0
5.262754539E0,-4.589712143E0,-2.968675613E0,-1.592853069E0
5.270750228E0,-4.481590748E0,-3.130873442E0,-1.357587337E0
5.278745839E0,-4.121273041E0,-3.354671717E0,-1.012478828E0
5.286741298E0,-3.636553764E0,-3.482227802E0,-7.321629524E-1
5.294737603E0,-2.903638363E0,-3.681316376E0,-4.703950882E-1
5.302732984E0,-2.200992107E0,-3.832564592E0,-2.249155045E-1
5.310728673E0,-1.750554800E0,-3.930467129E0,-2.709999084E-1
5.318755054E0,-1.332263231E0,-3.985023022E0,-3.716893196E-1
5.326750436E0,-1.158047199E0,-3.924424171E0,-5.195732117E-1
5.334746432E0,-1.052606583E0,-3.716955185E0,-9.654636383E-1
5.342740583E0,-1.081978321E0,-3.419793606E0,-1.275492668E0
5.350736349E0,-1.110608101E0,-3.165163994E0,-1.288728237E0
5.358732269E0,-1.083738327E0,-3.024430513E0,-1.588326931E0
5.366728265E0,-9.811992645E-1,-3.014466047E0,-1.669170856E0
5.374755416E0,-7.794170380E-1,-3.119982719E0,-2.044311523E0
5.382750105E0,-6.388502121E-1,-3.200556040E0,-1.908983707E0
5.390745563E0,-3.273668289E-1,-3.377913475E0,-1.849163055E0
5.398741868E0,-8.903503418E-3,-3.498646021E0,-1.498167515E0
5.406737172E0,2.428021431E-1,-3.509636879E0,-1.415447712E0
5.414733168E0,3.399219513E-1,-3.412848949E0,-1.614451885E0
5.422728242E0,2.423276901E-1,-3.288115025E0,-1.431103706E0
5.430753547E0,2.152466774E-1,-3.268798828E0,-1.267161369E0
5.438749852E0,2.155499458E-1,-3.223040581E0,-1.519667149E0
5.446744925E0,1.201477051E-1,-3.238768339E0,-1.435197353E0
5.454741845E0,5.474376678E-2,-3.389700413E0,-1.164800167E0
5.462736226E0,2.719841003E-1,-3.526534319E0,-1.156135082E0
5.470732299E0,6.454019547E-1,-3.745579958E0,-1.147948742E0
5.478758373E0,6.644358635E-1,-3.775037766E0,-1.263529301E0
5.486754063E0,3.648023605E-1,-3.770910263E0,-1.117131233E0
5.494750366E0,1.887645721E-1,-3.762144089E0,-8.068962097E-1
5.502745132E0,2.961125374E-1,-3.736295700E0,-8.218798637E-1
5.510740514E0,3.533554077E-1,-3.716036797E0,-6.020355225E-1
5.518736203E0,2.788395882E-1,-3.648679733E0,-5.004572868E-1
5.526732199E0,1.224246025E-1,-3.618398190E0,-4.831547737E-1
5.534757812E0,5.071258545E-2,-3.662167549E0,-3.314652443E-1
5.542753424E0,2.808523178E-1,-3.812712908E0,-4.290390015E-2
5.550749113E0,6.716570854E-1,-4.091794968E0,-9.145736694E-2
5.558744879E0,1.007853031E0,-4.279682636E0,-5.833864212E-2
5.566740184E0,1.241875648E0,-4.496938705E0,-1.814293861E-1
5.574736873E0,1.365257740E0,-4.557638645E0,-3.964710236E-2
5.582731946E0,1.587448597E0,-4.536925793E0,2.320871353E-1
5.590757404E0,1.819233894E0,-4.495862961E0,1.489229202E-1
5.598753478E0,1.780589104E0,-4.307496548E0,1.097660065E-1
5.606749397E0,1.515561581E0,-4.069025517E0,3.485488892E-1
5.614745087E0,1.443646431E0,-3.792170525E0,4.000172615E-1
5.622740468E0,1.428652287E0,-3.626617432E0,4.802560806E-1
5.630735926E0,1.424160480E0,-3.521716595E0,6.540122032E-1
5.638731231E0,1.516846657E0,-3.510935783E0,8.694791794E-1
5.646757458E0,1.598977089E0,-3.499228477E0,9.136376381E-1
5.654754071E0,1.659881592E0,-3.381974220E0,9.785428047E-1
5.662748451E0,1.625963211E0,-3.276034355E0,9.904432297E-1
5.670743833E0,1.592186928E0,-3.077879429E0,8.271079063E-1
5.678739907E0,1.414296865E0,-2.733242989E0,6.725893021E-1
5.686735211E0,1.251542807E0,-2.388045311E0,4.891247749E-1
5.694731823E0,1.140885830E0,-2.155797958E0,4.720005989E-1
5.702757436E0,1.298207521E0,-2.192115784E0,7.886557579E-1
5.710753124E0,1.781019688E0,-2.364418030E0,1.023829460E0
5.718748429E0,2.330052614E0,-2.508056641E0,1.285178185E0
5.726743887E0,2.579013586E0,-2.530527115E0,1.716117382E0
5.734740423E0,2.673448563E0,-2.436272621E0,2.072943687E0
5.742735496E0,2.649948835E0,-2.255870819E0,2.264741898E0
5.750729954E0,2.572894573E0,-2.011971474E0,2.330762863E0
5.758757336E0,2.448904991E0,-1.731877327E0,2.249993801E0
5.766752409E0,2.372681379E0,-1.467456818E0,2.240098953E0
5.774748483E0,2.385932684E0,-1.342505455E0,2.224452496E0
5.782743480E0,2.381062984E0,-1.255894661E0,2.272780657E0
5.790738860E0,2.343446732E0,-1.180788994E0,2.416626453E0
5.798734857E0,2.282302618E0,-1.112248421E0,2.555037260E0
5.806730624E0,2.243390560E0,-9.924058914E-1,2.654544115E0
5.814757621E0,2.205490351E0,-8.594312668E-1,2.659483433E0
5.822751770E0,2.182626247E0,-7.252159119E-1,2.598086357E0
5.830747152E0,2.172010422E0,-5.991468430E-1,2.585126638E0
5.838742841E0,2.147559881E0,-5.240745544E-1,2.455236197E0
5.846738530E0,2.142224312E0,-4.281749725E-1,2.291651011E0
5.854735527E0,2.136770964E0,-4.644689560E-1,2.168514729E0
5.862730601E0,2.117294073E0,-4.556274414E-1,2.119076252E0
5.870756444E0,2.115687847E0,-4.517478943E-1,2.009064436E0
5.878752055E0,2.080370426E0,-4.047269821E-1,1.859989405E0
5.886747514E0,2.076955795E0,-3.741760254E-1,1.724742889E0
5.894744049E0,1.988856792E0,-2.853937149E-1,1.580536127E0
5.902738815E0,1.890568495E0,-1.860351562E-1,1.451840401E0
5.910733581E0,1.760828972E0,-8.057594299E-2,1.286843061E0
5.918729578E0,1.608631968E0,-3.114509583E-2,1.153037786E0
5.926756035E0,1.495812058E0,-1.589775085E-3,1.044054270E0
5.934751802E0,1.323902607E0,2.974033356E-2,9.267506599E-1
5.942746876E0,1.174042463E0,6.066799164E-2,8.976428509E-1
5.950743103E0,1.017540097E0,8.401203156E-2,9.423563480E-1
5.958737869E0,8.925350904E-1,1.153383255E-1,8.884575367E-1
5.966733020E0,8.338470459E-1,1.005182266E-1,9.134202003E-1
5.974730170E0,8.061708212E-1,7.121944427E-2,8.344893456E-1
5.982755474E0,7.896514535E-1,3.759574890E-2,7.255232334E-1
5.990750856E0,7.796692252E-1,3.622913361E-2,6.962769032E-1
5.998747776E0,8.115745187E-1,4.583644867E-2,6.827878952E-1
6.006742541E0,8.850123882E-1,5.461215973E-2,6.277420521E-1
6.014739692E0,9.375904202E-1,5.556201935E-2,5.957529545E-1
6.022733843E0,9.763017893E-1,2.509498596E-2,5.464394093E-1
6.030729301E0,9.166703224E-1,1.762390137E-3,5.396738052E-1
6.038755759E0,8.411278725E-1,-1.426219940E-2,5.682034492E-1
6.046751448E0,6.853008270E-1,1.536655426E-2,5.743381977E-1
6.054747676E0,5.250804424E-1,5.225563049E-2,5.818369389E-1
6.062742441E0,4.045253992E-1,7.715034485E-2,5.668935776E-1
6.070736977E0,2.348129749E-1,6.860446930E-2,5.848817825E-1
6.078734128E0,1.421025991E-1,2.201080322E-2,5.551800728E-1
6.086729201E0,-9.958505630E-3,-3.850460052E-2,5.596163273E-1
6.094756582E0,-8.264350891E-2,-1.152086258E-1,5.099508762E-1
6.102750810E0,-1.523973942E-1,-2.365274429E-1,4.931068420E-1
6.110745576E0,-2.175868750E-1,-2.661409378E-1,4.083321095E-1
6.118742418E0,-2.261117697E-1,-3.356151581E-1,3.518874645E-1
6.126738185E0,-2.333092690E-1,-3.867225647E-1,2.757165432E-1
6.134734105E0,-2.378326654E-1,-3.984527588E-1,2.169537544E-1
6.142728947E0,-2.354948521E-1,-3.689279556E-1,1.623868942E-1
6.150754713E0,-2.123115063E-1,-3.535451889E-1,9.208583832E-2
6.158750479E0,-2.232817411E-1,-3.357181549E-1,1.749229431E-2
6.166746707E0,-2.488511801E-1,-3.010301590E-1,-7.337951660E-2
6.174743703E0,-2.835410833E-1,-2.589206696E-1,-1.637027264E-1
6.182737239E0,-2.928209305E-1,-1.706790924E-1,-2.456367016E-1
6.190732928E0,-3.165919781E-1,-1.149415970E-1,-3.161280155E-1
6.198728847E0,-3.608253002E-1,-7.689380646E-2,-3.553712368E-1
6.206754767E0,-3.746048212E-1,-6.107044220E-2,-3.677520752E-1
6.214751303E0,-3.853998184E-1,-7.974529266E-2,-3.919284344E-1
6.222746145E0,-3.799391985E-1,-9.025382996E-2,-3.878934383E-1
6.230741142E0,-3.916896582E-1,-8.301448822E-2,-4.131059647E-1
6.238737139E0,-3.564215899E-1,-4.626083374E-2,-3.841352463E-1
6.246732597E0,-3.197405338E-1,-2.076435089E-2,-3.824915886E-1
6.254729209E0,-3.086705208E-1,3.615951538E-2,-3.706996441E-1
6.262754437E0,-2.925449610E-1,8.105182648E-2,-3.495528698E-1
6.270749741E0,-3.117389679E-1,1.495590210E-1,-2.959754467E-1
6.278745737E0,-3.227149248E-1,1.865720749E-1,-2.270364761E-1
6.286741119E0,-3.585556746E-1,2.351446152E-1,-1.525900364E-1
6.294737193E0,-3.960193992E-1,2.446279526E-1,-7.337808609E-2
6.302731881E0,-4.160807729E-1,2.007350922E-1,1.312255859E-3
6.310727032E0,-4.184458256E-1,1.230173111E-1,-1.750707626E-3
6.318754952E0,-4.247601032E-1,5.007362366E-2,-1.227355003E-2
6.326750411E0,-4.328746796E-1,2.763271332E-2,-5.822038651E-2
6.334745791E0,-4.120697975E-1,7.919311523E-3,-8.405804634E-2
6.342740788E0,-3.513126373E-1,-2.615356445E-2,-2.091407776E-2
6.350737093E0,-2.706924081E-1,-2.946853638E-2,-5.954980850E-3
6.358732166E0,-1.545845270E-1,-8.371448517E-2,1.548075676E-2
6.366728163E0,-6.093060970E-2,-8.357238770E-2,-4.033637047E-2
6.374754929E0,1.117110252E-3,-9.114646912E-2,-8.460378647E-2
6.382749387E0,-7.850050926E-3,-1.181411743E-1,-1.026859283E-1
6.390744538E0,-7.908344269E-4,-1.140832901E-1,-1.374626160E-1
6.398740766E0,-1.289343834E-2,-8.843612671E-2,-1.529574394E-1
6.406736532E0,-1.024782658E-2,-7.691383362E-2,-1.846697330E-1
6.414732836E0,-4.812836647E-2,-7.232189178E-2,-1.822266579E-1
6.422757756E0,-7.628273964E-2,-1.033601761E-1,-1.575036049E-1
6.430754060E0,-9.508121014E-2,-1.056747437E-1,-1.111655235E-1
6.438749441E0,-6.670176983E-2,-1.511812210E-1,-9.357357025E-2
6.446744130E0,-6.558740139E-2,-1.537294388E-1,-8.560633659E-2
6.454741358E0,-5.332005024E-2,-1.517210007E-1,-4.208779335E-2
6.462736432E0,-6.815147400E-2,-1.117210388E-1,-1.831531525E-2
6.470731505E0,-7.380223274E-2,-1.055755615E-1,2.143335342E-2
6.478758041E0,-7.983720303E-2,-4.224395752E-2,-6.468772888E-3
6.486753345E0,-6.958413124E-2,-1.979827881E-2,-2.752733231E-2
6.494749418E0,-6.930172443E-2,-3.320598602E-2,-8.180308342E-2
6.502744184E0,-6.028497219E-2,6.237983704E-3,-1.161510944E-1
6.510740797E0,-4.246783257E-2,-3.550148010E-2,-1.041548252E-1
6.518735485E0,-2.546525002E-2,-3.154659271E-2,-1.272423267E-1
6.526731251E0,2.734303474E-3,4.187202454E-2,-1.116664410E-1
6.534757633E0,1.585221291E-2,1.462497711E-1,-1.154541969E-1
6.542752784E0,5.004942417E-2,2.264518738E-1,-9.337210655E-2
6.550747857E0,8.893823624E-2,2.944250107E-1,-9.110593796E-2
6.558744392E0,7.773435116E-2,3.166894913E-1,-7.032537460E-2
6.566740082E0,1.005607843E-1,3.676061630E-1,-1.145682335E-1
6.574735539E0,6.161534786E-2,3.562936783E-1,-1.253921986E-1
6.582731459E0,2.776455879E-2,3.426790237E-1,-1.647984982E-1
6.590757687E0,-1.561844349E-2,2.742481232E-1,-2.083225250E-1
6.598752683E0,-3.518712521E-2,2.085466385E-1,-2.245674133E-1
6.606749065E0,-4.534339905E-2,1.408157349E-1,-2.373807430E-1
6.614744677E0,-3.151059151E-3,9.503555298E-2,-2.537798882E-1
6.622739828E0,1.717472076E-2,1.286191940E-1,-2.499668598E-1
6.630734901E0,4.716181755E-2,8.592605591E-2,-2.476613522E-1
6.638730898E0,9.668517113E-2,6.740093231E-2,-1.969950199E-1
6.646757587E0,1.277587414E-1,7.543468475E-2,-1.938507557E-1
6.654752968E0,1.237541437E-1,4.289913177E-2,-1.523363590E-1
6.662748119E0,1.017370224E-1,-1.105785370E-2,-1.156573296E-1
6.670744347E0,7.380115986E-2,-4.808712006E-2,-1.005184650E-1
6.678739497E0,3.013586998E-2,-5.873203278E-2,-4.489994049E-2
6.686734493E0,-7.269322872E-2,-1.677608490E-2,3.100872040E-3
6.694731721E0,-1.036839485E-1,2.033424377E-2,3.418874741E-2
6.702756718E0,-1.328600645E-1,6.453132629E-2,8.915948868E-2
6.710751099E0,-1.081405878E-1,5.360889435E-2,7.736897469E-2
6.718748327E0,-4.642534256E-2,7.138442993E-2,1.305897236E-1
6.726743478E0,7.123589516E-3,7.234573364E-2,1.169745922E-1
6.734740012E0,5.270457268E-2,7.788562775E-2,1.078536510E-1
6.742734778E0,9.093904495E-2,5.934238434E-2,9.601950645E-2
6.750730468E0,7.436668873E-2,5.022335052E-2,1.028337479E-1
6.758756926E0,7.022702694E-2,2.416610718E-2,1.281530857E-1
6.766751768E0,3.812801838E-2,7.568359375E-3,1.456949711E-1
6.774748919E0,2.102935314E-2,-2.829551697E-2,1.627097130E-1
6.782743070E0,1.741886139E-3,-7.397747040E-2,2.101135254E-1
6.790738220E0,6.313443184E-3,-6.953430176E-2,1.470036507E-1
6.798734448E0,4.832327366E-2,-5.331039429E-2,1.459288597E-1
6.806729522E0,5.576598644E-2,1.053810120E-3,1.735041142E-1
6.814757287E0,3.825461864E-2,4.318428040E-2,1.863617897E-1
6.822751438E0,6.022095680E-3,2.042007446E-2,2.202129364E-1
6.830747973E0,3.138208389E-2,-3.125858307E-2,2.343690395E-1
6.838742740E0,5.475938320E-2,-1.093463898E-1,2.314300537E-1
6.846738736E0,5.222237110E-2,-1.396398544E-1,2.400672436E-1
6.854735117E0,1.618862152E-4,-1.172618866E-1,2.268893719E-1
6.862729883E0,-6.017720699E-2,-9.479522705E-2,2.302572727E-1
6.870755418E0,-8.567106724E-2,-1.224670410E-1,2.287397385E-1
6.878750492E0,-1.145981550E-1,-1.570749283E-1,2.345912457E-1
6.886747104E0,-1.231979132E-1,-1.867599487E-1,2.379992008E-1
6.894742485E0,-9.739446640E-2,-1.683635712E-1,2.129056454E-1
6.902738405E0,-9.230744839E-2,-1.569480896E-1,2.215900421E-1
6.910734479E0,-9.559357166E-2,-1.500272751E-1,2.210731506E-1
6.918729553E0,-7.606613636E-2,-1.142978668E-1,2.730190754E-1
6.926755318E0,-6.937515736E-2,-1.072664261E-1,3.149602413E-1
6.934752007E0,-4.193043709E-2,-1.123542786E-1,3.631739616E-1
6.942746466E0,-6.325256824E-2,-8.659267426E-2,3.886346817E-1
6.950741847E0,-1.024229527E-1,-3.731060028E-2,4.006214142E-1
6.958738074E0,-1.520005465E-1,1.886844635E-2,3.778836727E-1
6.966734148E0,-1.839001775E-1,7.691669464E-2,3.846709728E-1
6.974729453E0,-2.198413610E-1,1.560173035E-1,3.541076183E-1
6.982755064E0,-1.984230280E-1,1.604099274E-1,3.463542461E-1
6.990750446E0,-1.608899236E-1,1.478738785E-1,2.858071327E-1
6.998746751E0,-8.446836472E-2,8.051490784E-2,2.241613865E-1
7.006742131E0,-5.033016205E-3,1.817131042E-2,2.116098404E-1
7.014738436E0,7.260489464E-2,-6.256103516E-4,1.242091656E-1
7.022733433E0,1.393690109E-1,1.912212372E-2,9.530806541E-2
7.030728814E0,1.812328100E-1,9.637737274E-2,6.444644928E-2
7.038755888E0,1.628208756E-1,2.045564651E-1,5.237197876E-2
7.046750731E0,1.487324238E-1,2.743082047E-1,6.634235382E-3
7.054747266E0,1.416623592E-1,3.179264069E-1,-6.005144119E-2
7.062741801E0,8.887982368E-2,2.851667404E-1,-6.858015060E-2
7.070738029E0,6.941044331E-2,2.215795517E-1,-9.063005447E-2
7.078732795E0,3.549420834E-2,1.606388092E-1,-8.566117287E-2
7.086728868E0,5.379879475E-2,1.189374924E-1,-7.075619698E-2
7.094755250E0,6.451481581E-2,1.083469391E-1,-4.139947891E-2
7.102750708E0,7.681989670E-2,1.215639114E-1,-5.764389038E-2
7.110746089E0,1.313353777E-1,1.466789246E-1,-8.819413185E-2
7.118741778E0,1.605357528E-1,1.644973755E-1,-1.306419373E-1
7.126737160E0,1.835892797E-1,1.630744934E-1,-1.777365208E-1
7.134734311E0,1.836459637E-1,1.712903976E-1,-2.721774578E-1
7.142728460E0,1.633382440E-1,1.318483353E-1,-3.250308037E-1
7.150754304E0,1.706239581E-1,1.239652634E-1,-3.908529282E-1
7.158750070E0,1.391007304E-1,8.073329926E-2,-4.144144058E-1
7.166746912E0,1.382610798E-1,5.017375946E-2,-4.336843491E-1
7.174742678E0,1.133736372E-1,3.711128235E-2,-4.342956543E-1
7.182737752E0,9.322738647E-2,2.226161957E-2,-4.165921211E-1
7.190731517E0,7.046437263E-2,-3.030490875E-2,-4.092741013E-1
7.198728438E0,3.307253122E-2,-3.695583344E-2,-3.888127804E-1
7.206754281E0,4.966974258E-3,-5.273818970E-2,-4.030225277E-1
7.214750047E0,5.001485348E-3,-5.851650238E-2,-4.183335304E-1
7.222745658E0,-9.742796421E-3,-6.377220154E-2,-4.345290661E-1
7.230742040E0,6.026446819E-3,1.523685455E-2,-4.852037430E-1
7.238737037E0,-2.389252186E-3,6.358146667E-2,-5.225634575E-1
7.246732725E0,-2.244096994E-2,8.616542816E-2,-5.656125546E-1
7.254758953E0,-3.486084938E-2,7.112979889E-2,-6.140642166E-1
7.262754335E0,-3.931635618E-2,2.548885345E-2,-6.205415726E-1
7.270749024E0,-4.537057877E-2,-1.233863831E-2,-6.158506870E-1
7.278745635E0,-7.456547022E-2,-5.438137054E-2,-5.761833191E-1
7.286741633E0,-9.099286795E-2,-5.537033081E-2,-4.901251793E-1
7.294737399E0,-1.181892157E-1,-6.101608276E-2,-4.038825035E-1
7.302732087E0,-1.392375231E-1,-4.783439636E-2,-2.924098969E-1
7.310727469E0,-1.281403303E-1,-4.756450653E-2,-2.507162094E-1
7.318753927E0,-1.305389404E-1,-1.252365112E-2,-1.548774242E-1
7.326749385E0,-1.892231703E-1,6.214714050E-2,-1.053934097E-1
7.334745382E0,-2.321346998E-1,1.263465881E-1,-4.920983315E-2
7.342740687E0,-3.211532831E-1,2.114763260E-1,1.910591125E-2
7.350735530E0,-3.601449728E-1,2.388648987E-1,3.574275970E-2
7.358731449E0,-4.087643623E-1,2.756567001E-1,8.954572678E-2
7.366727215E0,-4.546718001E-1,2.645816803E-1,8.758497238E-2
7.374754289E0,-4.526247978E-1,2.390937805E-1,1.255507469E-1
7.382749285E0,-4.606266320E-1,2.469663620E-1,1.530361176E-1
7.390744744E0,-4.459495842E-1,2.425584793E-1,1.842200756E-1
7.398740125E0,-3.955874443E-1,2.641124725E-1,1.474804878E-1
7.406735814E0,-3.581114411E-1,3.020753860E-1,1.436243057E-1
7.414732657E0,-2.936930060E-1,3.373832703E-1,1.276240349E-1
7.422757885E0,-2.334305644E-1,3.438081741E-1,9.974908829E-2
7.430753035E0,-1.913125515E-1,3.312129974E-1,5.352163315E-2
7.438748416E0,-9.966892004E-2,3.260087967E-1,7.756614685E-2
7.446744952E0,-3.951454163E-2,2.994871140E-1,9.523177147E-2
7.454740641E0,-1.253366470E-2,2.850570679E-1,1.347601414E-1
7.462735714E0,2.236908674E-2,2.923345566E-1,1.458976269E-1
7.470731711E0,5.310702324E-2,3.042774200E-1,2.020900249E-1
7.478757246E0,7.179945707E-2,3.087587357E-1,2.288284302E-1
7.486753012E0,5.415070057E-2,3.081731796E-1,2.429497242E-1
7.494749855E0,2.653670311E-2,3.478794098E-1,2.895572186E-1
7.502744082E0,3.161501884E-2,4.348802567E-1,3.227205276E-1
7.510739464E0,6.195348501E-2,5.858755112E-1,3.495037556E-1
7.518735691E0,9.613573551E-2,7.058639526E-1,3.409500122E-1
7.526731380E0,1.603375673E-1,7.973432541E-1,3.620305061E-1
7.534757916E0,2.070107460E-1,8.291158676E-1,4.004826546E-1
7.542752912E0,2.748907208E-1,8.228349686E-1,4.062323570E-1
7.550747755E0,3.570022583E-1,7.496471405E-1,4.028356075E-1
7.558743983E0,4.008282423E-1,6.859407425E-1,4.494538307E-1
7.566739441E0,4.423542023E-1,6.076164246E-1,4.498555660E-1
7.574736360E0,5.191629529E-1,5.697708130E-1,3.899044991E-1
7.582731127E0,5.805428028E-1,5.916614532E-1,3.801052570E-1
7.590756277E0,5.885364413E-1,6.927165985E-1,3.589332104E-1
7.598753504E0,5.773381591E-1,7.870340347E-1,3.486399651E-1
7.606748347E0,5.471805334E-1,8.148670197E-1,3.375306129E-1
7.614744575E0,5.719277263E-1,7.714014053E-1,3.399586678E-1
7.622738725E0,5.718733668E-1,6.180477142E-1,3.624351025E-1
7.630734799E0,5.914844871E-1,5.005197525E-1,3.682618141E-1
7.638731104E0,6.516276598E-1,4.378795624E-1,4.051737785E-1
7.646756562E0,7.035887837E-1,3.770093918E-1,4.887754917E-1
7.654753174E0,7.853910923E-1,3.848438263E-1,5.422201157E-1
7.662747709E0,8.298063278E-1,3.893899918E-1,5.746443272E-1
7.670742706E0,8.607102633E-1,3.833904266E-1,5.930607319E-1
7.678738471E0,8.806032538E-1,3.499746323E-1,6.187326908E-1
7.686735007E0,8.752510548E-1,3.416967392E-1,6.561474800E-1
7.694730773E0,8.477595448E-1,3.201913834E-1,6.883199215E-1
7.702757231E0,8.179541826E-1,2.904520035E-1,6.296017170E-1
7.710752305E0,7.346209884E-1,2.358989716E-1,6.334986687E-1
7.718747379E0,7.082678080E-1,2.378606796E-1,6.662323475E-1
7.726743914E0,6.416875720E-1,2.437620163E-1,6.752297878E-1
7.734739372E0,5.806330442E-1,2.151832581E-1,7.128024101E-1
7.742735061E0,4.872729778E-1,2.454442978E-1,7.356271744E-1
7.750728904E0,4.263681769E-1,2.054662704E-1,7.251279354E-1
7.758755669E0,3.414630890E-1,2.060070038E-1,6.995360851E-1
7.766751666E0,2.494468093E-1,1.969242096E-1,7.022666931E-1
7.774748202E0,1.355436444E-1,1.638431549E-1,6.615364552E-1
7.782742660E0,5.961275101E-2,1.023416519E-1,5.830969810E-1
7.790738118E0,-3.126317263E-2,6.044101715E-2,5.415530205E-1
7.798734115E0,-8.475303650E-2,-1.668643951E-2,4.992787838E-1
7.806730112E0,-9.213083982E-2,-1.001615524E-1,4.041795731E-1
7.814756570E0,-8.023911715E-2,-2.089405060E-1,3.238911629E-1
7.822752182E0,-5.412793159E-2,-3.402853012E-1,2.353942394E-1
7.830746102E0,-1.163494587E-2,-5.553808212E-1,1.510288715E-1
7.838742406E0,-2.456343174E-2,-9.089679718E-1,5.721664429E-2
7.846737787E0,2.299904823E-3,-1.220580101E0,6.278181076E-2
7.854734323E0,3.308451176E-2,-1.244964600E0,6.128597260E-2
7.862729705E0,6.703698635E-2,-9.468097687E-1,4.184198380E-2
7.870755854E0,5.292904377E-2,-6.686906815E-1,4.733324051E-2
7.878750698E0,-2.834677696E-3,-5.708990097E-1,4.484224319E-2
7.886746002E0,-7.554793358E-2,-6.964225769E-1,3.337860107E-3
7.894742383E0,-1.019312143E-1,-8.487701416E-1,-4.350781441E-2
7.902737765E0,-8.650398254E-2,-9.082117081E-1,-1.531777382E-1
7.910733146E0,-1.336641312E-1,-8.074245453E-1,-2.270600796E-1
7.918729450E0,-1.399801970E-1,-6.968965530E-1,-2.907588482E-1
7.926755832E0,-1.749348640E-1,-6.268720627E-1,-3.609430790E-1
7.934751521E0,-2.694700956E-1,-6.788196564E-1,-3.851730824E-1
7.942746287E0,-3.349150419E-1,-8.599500656E-1,-4.018712044E-1
7.950742591E0,-3.859949112E-1,-1.041292191E0,-3.997478485E-1
7.958737665E0,-3.759222031E-1,-1.208989143E0,-4.395265579E-1
7.966733662E0,-3.483463526E-1,-1.294081688E0,-4.359698296E-1
7.974730581E0,-3.300030231E-1,-1.339787483E0,-5.447967052E-1
7.982754578E0,-3.273012638E-1,-1.252361298E0,-5.522329807E-1
7.990749960E0,-3.294996023E-1,-1.096015930E0,-5.773293972E-1
7.998745417E0,-2.920228243E-1,-8.796300888E-1,-5.351684093E-1
8.006742337E0,-2.736555338E-1,-6.525421143E-1,-7.231669426E-1
8.014738334E0,-2.810323238E-1,-4.619874954E-1,-7.305982113E-1
8.022733408E0,-3.515318632E-1,-3.865222931E-1,-7.675251961E-1
8.030728404E0,-4.154202938E-1,-3.134193420E-1,-8.121128082E-1
8.038754632E0,-4.579585791E-1,-2.904787064E-1,-8.500113487E-1
8.046750244E0,-4.747378826E-1,-2.797746658E-1,-8.508870602E-1
8.054747471E0,-5.378493071E-1,-2.815494537E-1,-8.343863487E-1
8.062741391E0,-6.020066738E-1,-3.009967804E-1,-7.990276814E-1
8.078733001E0,-6.654192209E-1,-3.260822296E-1,-8.294479847E-1
8.086727843E0,-6.621198654E-1,-3.441438675E-1,-8.592989445E-1
8.094755763E0,-6.436349154E-1,-3.707571030E-1,-9.057457447E-1
8.102749683E0,-5.707186460E-1,-4.041519165E-1,-9.146058559E-1
8.110745371E0,-5.008172989E-1,-4.297046661E-1,-1.021613121E0
8.118741599E0,-4.174512625E-1,-4.258594513E-1,-1.054148674E0
8.126736442E0,-3.374704123E-1,-4.381361008E-1,-1.119896889E0
8.134733054E0,-2.865668535E-1,-4.328823090E-1,-1.158855677E0
8.142728358E0,-2.502741814E-1,-4.534702301E-1,-1.154991388E0
8.150753586E0,-2.187067270E-1,-4.400644302E-1,-1.153926134E0
8.158749968E0,-2.042549849E-1,-4.145517349E-1,-1.141983032E0
8.166745349E0,-1.970908642E-1,-3.649644852E-1,-1.102483511E0
8.174741653E0,-2.208267450E-1,-2.864046097E-1,-1.073519945E0
8.182736958E0,-2.322568893E-1,-2.268009186E-1,-1.036065578E0
8.190731723E0,-2.577157021E-1,-1.670875549E-1,-9.807500839E-1
8.198728028E0,-2.928249836E-1,-5.290794373E-2,-9.191758633E-1
8.206753563E0,-3.337248564E-1,7.393646240E-2,-8.472843170E-1
8.214750175E0,-3.709735870E-1,2.085304260E-1,-8.303020000E-1
8.222744941E0,-4.024114609E-1,3.390197754E-1,-8.128859997E-1
8.230739477E0,-4.233183861E-1,4.512443542E-1,-8.112019300E-1
8.238736012E0,-4.289221764E-1,5.167322159E-1,-8.293217421E-1
8.246731777E0,-3.998086452E-1,5.357904434E-1,-8.257046938E-1
8.254728928E0,-3.928358555E-1,5.255336761E-1,-8.450298309E-1
8.262752925E0,-3.880527020E-1,5.006713867E-1,-8.626677990E-1
8.270749229E0,-3.871507645E-1,4.541826248E-1,-8.282222748E-1
8.278744918E0,-3.751096725E-1,4.125528336E-1,-7.775094509E-1
8.286740915E0,-3.876403570E-1,3.687133789E-1,-7.820813656E-1
8.294737527E0,-3.788801432E-1,3.372163773E-1,-7.409305573E-1
8.302730831E0,-3.613023758E-1,3.061370850E-1,-7.038109303E-1
8.310727136E0,-3.690241575E-1,2.731304169E-1,-6.701035500E-1
8.318753210E0,-3.642629385E-1,2.238645554E-1,-6.225031614E-1
8.326749514E0,-3.644018173E-1,1.774253845E-1,-5.871068239E-1
8.334745588E0,-3.581953049E-1,1.624345779E-1,-5.422130823E-1
8.342740354E0,-3.247486353E-1,2.384452820E-1,-4.956792593E-1
8.350735350E0,-2.146583796E-1,3.117494583E-1,-4.960669279E-1
8.358731116E0,-7.643437386E-2,3.701591492E-1,-4.695756435E-1
8.366727036E0,2.349221706E-2,3.562583923E-1,-4.403724670E-1
8.374753879E0,1.149637699E-1,3.802509308E-1,-4.544599056E-1
8.382748029E0,2.365106344E-1,3.484401703E-1,-4.368181229E-1
8.390744257E0,3.485190868E-1,3.709802628E-1,-3.954687119E-1
8.398739716E0,4.280171394E-1,3.811159134E-1,-3.611636162E-1
8.406735404E0,4.516847134E-1,3.861808777E-1,-3.098773956E-1
8.414731939E0,4.694175720E-1,3.982162476E-1,-2.793745995E-1
8.422757475E0,4.209640026E-1,3.597564697E-1,-2.287120819E-1
8.430752240E0,4.203882217E-1,3.113002777E-1,-1.390547752E-1
8.438748929E0,3.643066883E-1,2.432136536E-1,-1.013309956E-1
8.446744619E0,3.617310524E-1,1.912517548E-1,-6.751382351E-2
8.454739924E0,3.309197426E-1,8.361244202E-2,-3.003013134E-2
8.462735073E0,2.935310602E-1,-5.318737030E-2,-7.669126987E-2
8.470730455E0,2.532391548E-1,-1.733522415E-1,-7.543337345E-2
8.478726683E0,2.727478743E-1,-3.245573044E-1,-1.117640734E-1
8.486751987E0,2.667714357E-1,-4.491968155E-1,-9.719729424E-2
8.494748599E0,2.960883379E-1,-5.136499405E-1,-1.398029327E-1
8.502743904E0,3.152453899E-1,-5.276050568E-1,-1.085524559E-1
8.510739669E0,3.301589489E-1,-4.386396408E-1,-1.088800430E-1
8.518735666E0,3.302819729E-1,-3.307752609E-1,-5.487728119E-2
8.526731048E0,3.482164145E-1,-2.376451492E-1,-2.048373222E-2
8.534757737E0,3.753919601E-1,-9.007453918E-2,-1.289248466E-2
8.542751887E0,3.989663124E-1,2.557754517E-2,-1.054358482E-2
8.550747038E0,3.638994694E-1,1.595354080E-1,7.846355438E-3
8.558743342E0,3.231623173E-1,2.663135529E-1,1.331245899E-2
8.566739031E0,2.727520466E-1,3.460121155E-1,3.201043606E-2
8.574734951E0,2.400617599E-1,3.843650818E-1,6.815433502E-2
8.582729794E0,2.151924372E-1,4.129047394E-1,1.170040369E-1
8.590756559E0,2.458636761E-1,4.506959915E-1,1.087321043E-1
8.598752479E0,3.192874193E-1,4.903945923E-1,1.055436134E-1
8.606747630E0,3.653564453E-1,5.223035812E-1,8.362460136E-2
8.614743550E0,3.772096634E-1,4.963274002E-1,2.449846268E-2
8.622738623E0,3.129500151E-1,4.798812866E-1,-4.000544548E-3
8.630734082E0,1.772696972E-1,3.849821091E-1,-4.913461208E-2
8.638729463E0,2.188873291E-2,2.958478928E-1,-8.642721176E-2
8.646756536E0,-9.047555923E-2,2.602577209E-2,-2.082176208E-1
8.654752226E0,-1.939774752E-1,-3.598566055E-1,-1.768698692E-1
8.662746607E0,-2.900199890E-1,-6.874523163E-1,6.845951080E-3
8.670743220E0,-4.028011560E-1,-9.043283463E-1,1.526890993E-1
8.678738370E0,-4.280079603E-1,-9.456119537E-1,3.344737291E-1
8.686734674E0,-4.095877409E-1,-8.713722229E-1,3.652926683E-1
8.694730364E0,-3.757476807E-1,-8.039588928E-1,3.897708654E-1
8.702755590E0,-3.135769367E-1,-8.297748566E-1,3.391500711E-1
8.710751587E0,-2.762775421E-1,-9.416742325E-1,3.384133577E-1
8.718746969E0,-2.421611547E-1,-1.017564774E0,3.155468702E-1
8.726742657E0,-1.703287363E-1,-1.011999130E0,3.322960138E-1
8.734739193E0,-6.482577324E-2,-9.249591827E-1,4.045616388E-1
8.742734036E0,-3.028178215E-2,-7.708587646E-1,5.142956972E-1
8.750729648E0,-4.660248756E-2,-5.257892609E-1,6.312146187E-1
8.758755567E0,-7.763099670E-2,-2.736940384E-1,7.204338312E-1
8.766751795E0,-1.831756830E-1,-2.908325195E-2,8.287631273E-1
8.774747869E0,-2.843006849E-1,1.288156509E-1,9.476661682E-1
8.782742865E0,-4.238131046E-1,2.478132248E-1,9.829258919E-1
8.790737631E0,-5.130798817E-1,2.919683456E-1,1.032651186E0
8.798733398E0,-5.830538273E-1,3.570175171E-1,1.053585172E0
8.806729317E0,-6.051079035E-1,4.548759460E-1,1.050729156E0
8.814756160E0,-6.055970192E-1,5.925655365E-1,1.009241223E0
8.822750926E0,-5.614434481E-1,7.196578979E-1,9.490302801E-1
8.830746308E0,-4.756374359E-1,7.531576157E-1,8.838809729E-1
8.838742612E0,-4.364520311E-1,7.482757568E-1,7.683050632E-1
8.846737916E0,-3.334776163E-1,6.570444107E-1,6.609946489E-1
8.854734221E0,-2.880659103E-1,5.249862671E-1,5.323514938E-1
8.862728755E0,-2.490144968E-1,3.737106323E-1,4.366406202E-1
8.870754522E0,-2.509208918E-1,2.129306793E-1,3.420367241E-1
8.878750596E0,-2.806187868E-1,3.805351257E-2,2.890295982E-1
8.886745900E0,-2.751497030E-1,-1.101093292E-1,2.176243067E-1
8.894743127E0,-3.034015894E-1,-1.930513382E-1,1.594768763E-1
8.902737893E0,-3.483198881E-1,-2.344779968E-1,1.011569500E-1
8.910733352E0,-3.526347876E-1,-2.414760590E-1,5.286240578E-2
8.918728733E0,-3.693602085E-1,-2.283782959E-1,1.988196373E-2
8.926754883E0,-3.581703901E-1,-1.497631073E-1,-6.513929367E-2
8.934751496E0,-3.579471111E-1,-5.363750458E-2,-1.186373234E-1
8.942746492E0,-3.518143892E-1,6.468009949E-2,-1.771873236E-1
8.950740643E0,-3.469319344E-1,1.739511490E-1,-2.103070021E-1
8.958737255E0,-2.998304367E-1,1.855525970E-1,-2.280601263E-1
8.966732945E0,-2.907835245E-1,1.592350006E-1,-1.696531773E-1
8.974728710E0,-2.192225456E-1,9.971332550E-2,-3.011983633E-1
8.982753938E0,-6.608581543E-2,5.949497223E-2,-3.121664524E-1
8.990749858E0,3.761601448E-2,7.926750183E-2,-2.965412140E-1
8.998746546E0,8.534193039E-2,1.111049652E-1,-2.454652786E-1
9.006740697E0,1.237119436E-1,4.978370667E-2,-1.663689613E-1
9.014737540E0,1.600961685E-1,2.946567535E-2,-1.450816393E-1
9.022732305E0,1.551406384E-1,1.410388947E-2,-1.190871000E-1
9.030727687E0,1.314280033E-1,4.420661926E-2,-9.545767307E-2
9.038754222E0,4.303455353E-2,1.173057556E-1,-1.173291206E-1
9.046750142E0,-3.826975822E-2,2.118053436E-1,-1.370288134E-1
9.054746215E0,-6.756460667E-2,2.486600876E-1,-1.759022474E-1
9.062740982E0,-4.573011398E-2,2.733640671E-1,-2.572089434E-1
9.070736902E0,-3.566956520E-2,1.925706863E-1,-3.468449116E-1
9.078732667E0,1.006102562E-2,5.420112610E-2,-3.581501245E-1
9.086728664E0,9.630846977E-2,-5.553436279E-2,-3.629221916E-1
9.094755430E0,2.226698399E-1,-1.702136993E-1,-3.468713760E-1
9.102749272E0,3.360296488E-1,-2.588138580E-1,-2.863312960E-1
9.110744269E0,4.029085636E-1,-4.173164368E-1,-1.754180193E-1
9.118740959E0,4.091787338E-1,-5.236320496E-1,-1.000691652E-1
9.126736571E0,3.939645290E-1,-6.087474823E-1,-9.366333485E-2
9.134733260E0,3.506275415E-1,-6.677894592E-1,-7.475137711E-2
9.142728257E0,3.195586205E-1,-6.648216248E-1,-6.694900990E-2
9.150753869E0,2.644464970E-1,-5.926828384E-1,-7.491266727E-2
9.158749480E0,2.469480038E-1,-4.777402878E-1,-7.445168495E-2
9.166744939E0,2.519158125E-1,-3.392038345E-1,-1.036829948E-1
9.174741474E0,2.502639294E-1,-1.843271255E-1,-5.744540691E-2
9.182735702E0,3.010138273E-1,-8.510017395E-2,-5.109465122E-2
9.190731698E0,3.839981556E-1,3.027057648E-2,-1.487351656E-1
9.198727080E0,4.876061678E-1,1.352777481E-1,-2.253224850E-1
9.206753846E0,5.729644299E-1,2.443265915E-1,-3.088027239E-1
9.214749227E0,5.813964605E-1,3.479442596E-1,-3.537815809E-1
9.222744531E0,5.402795076E-1,4.079122543E-1,-3.483788967E-1
9.230740221E0,5.021481514E-1,4.292297363E-1,-3.599712849E-1
9.238735909E0,4.249532223E-1,4.169254303E-1,-3.396642208E-1
9.246731598E0,3.687710762E-1,3.878507614E-1,-3.326334953E-1
9.254727365E0,2.763274908E-1,2.990007401E-1,-3.170092106E-1
9.262753131E0,2.025392056E-1,2.223062515E-1,-3.135969639E-1
9.270748896E0,1.234524250E-1,9.314155579E-2,-2.768613100E-1
9.278745124E0,5.826663971E-2,-2.855968475E-2,-2.614797354E-1
9.286740198E0,-2.539575100E-2,-1.691331863E-1,-2.374703884E-1
9.294737117E0,-4.270815849E-2,-2.878551483E-1,-2.728527784E-1
9.302730652E0,-5.172693729E-2,-4.038696289E-1,-2.665133476E-1
9.310726649E0,-2.881956100E-2,-5.196504593E-1,-3.383868933E-1
9.318753492E0,1.358139515E-2,-6.088485718E-1,-3.754147291E-1
9.326748566E0,5.617308617E-2,-6.666574478E-1,-4.132502079E-1
9.334745716E0,7.984089851E-2,-7.195081711E-1,-4.357761145E-1
9.342739560E0,1.085673571E-1,-7.388639450E-1,-4.443084002E-1
9.350734402E0,1.326677799E-1,-7.343540192E-1,-4.223154783E-1
9.358730322E0,1.423988342E-1,-7.347640991E-1,-4.083236456E-1
9.366757396E0,1.042460203E-1,-7.760629654E-1,-3.476479053E-1
9.374753392E0,5.421268940E-2,-8.199825287E-1,-3.148479462E-1
9.382748543E0,-3.041863441E-3,-7.875032425E-1,-2.882044315E-1
9.390743617E0,-9.128594398E-2,-7.551937103E-1,-2.053477764E-1
9.398740229E0,-1.675552130E-1,-6.943187714E-1,-2.145198584E-1
9.406735302E0,-2.082154751E-1,-6.072816849E-1,-1.957641840E-1
9.414731607E0,-2.349096537E-1,-5.298957825E-1,-2.153445482E-1
9.422757988E0,-3.019990921E-1,-3.901252747E-1,-2.175580263E-1
9.430751600E0,-3.445148468E-1,-2.764654160E-1,-2.212929726E-1
9.438747520E0,-3.786793947E-1,-1.888341904E-1,-1.787292957E-1
9.446743286E0,-3.877013922E-1,-9.853839874E-2,-1.164966822E-1
9.454739898E0,-3.694330454E-1,-4.406261444E-2,-4.266405106E-2
9.462734971E0,-3.313479424E-1,4.622364044E-2,3.936624527E-2
9.470730353E0,-3.570662737E-1,1.291494370E-1,9.299588203E-2
9.478756504E0,-3.626130819E-1,1.015949249E-1,2.007596493E-1
9.486752115E0,-3.744773865E-1,1.754760742E-3,2.352342606E-1
9.494749112E0,-3.214051723E-1,-1.968021393E-1,2.707300186E-1
9.502743879E0,-2.902344465E-1,-3.912639618E-1,3.119264841E-1
9.510738875E0,-3.001313210E-1,-5.002117157E-1,3.351161480E-1
9.518734872E0,-3.554027081E-1,-5.809917450E-1,3.886085749E-1
9.526730330E0,-3.843952417E-1,-6.288166046E-1,4.319903851E-1
9.534756788E0,-3.712198734E-1,-6.677122116E-1,4.394545555E-1
9.542751477E0,-3.368722200E-1,-7.984075546E-1,4.717221260E-1
9.550746936E0,-3.141407967E-1,-9.324493408E-1,4.746325016E-1
9.558742933E0,-2.327075005E-1,-1.103467941E0,4.467049837E-1
9.566738621E0,-1.991002560E-1,-1.201513290E0,4.312510490E-1
9.574734310E0,-1.933870316E-1,-1.188091278E0,4.431737661E-1
9.582729923E0,-1.287453175E-1,-1.137429237E0,4.844969511E-1
9.590755150E0,-4.225385189E-2,-1.044673920E0,4.805124998E-1
9.598751839E0,1.048371792E-1,-1.017595291E0,5.841460228E-1
9.606747451E0,2.052247524E-1,-9.916515350E-1,6.367816925E-1
9.614744063E0,3.454145193E-1,-9.717311859E-1,6.331336498E-1
9.622738598E0,4.106800556E-1,-8.526258469E-1,6.637058258E-1
9.630734518E0,4.855200052E-1,-6.846246719E-1,6.706573963E-1
9.638729900E0,4.790959358E-1,-4.558620453E-1,5.315959454E-1
9.646755742E0,3.683116436E-1,-2.139406204E-1,3.957440853E-1
9.654752124E0,1.619842052E-1,7.738494873E-2,3.230385780E-1
9.662747121E0,3.657317162E-2,2.387371063E-1,2.624087334E-1
9.670742194E0,-1.148700714E-2,4.092206955E-1,2.950482368E-1
9.678737652E0,-3.996539116E-2,5.743560791E-1,3.130142689E-1
9.686733342E0,-9.359574318E-2,6.864509583E-1,3.881256580E-1
9.694730492E0,-9.399247169E-2,7.904071808E-1,5.330951214E-1
9.702755719E0,-1.060640812E-1,8.403396606E-1,6.079816818E-1
9.710751409E0,-9.154987335E-2,8.595886230E-1,6.419723034E-1
9.718746175E0,-1.153647900E-1,8.629188538E-1,5.844390392E-1
9.726743171E0,-1.265237331E-1,8.411655426E-1,5.536830425E-1
9.734739091E0,-1.411674023E-1,8.257408142E-1,5.309929848E-1
9.742733319E0,-1.363162994E-1,7.980575562E-1,4.977469444E-1
9.750728315E0,-9.475469589E-2,7.031927109E-1,4.562509060E-1
9.758755696E0,-7.107496262E-2,6.516885757E-1,3.401811123E-1
9.766751078E0,-7.691955566E-2,6.009101868E-1,2.270481586E-1
9.774747460E0,-1.125161648E-1,5.967025757E-1,1.202619076E-1
9.782742148E0,-1.842138767E-1,5.865640640E-1,7.432389259E-2
9.790738145E0,-2.268564701E-1,5.776042938E-1,9.543204308E-2
9.798732988E0,-2.566502094E-1,5.339870453E-1,8.247613907E-2
9.806729215E0,-2.597861290E-1,4.672832489E-1,1.448009014E-1
9.814755366E0,-2.321937084E-1,3.868341446E-1,1.314420700E-1
9.822750209E0,-1.514420509E-1,2.780017853E-1,8.606791496E-2
9.830745282E0,-1.338698864E-1,2.532052994E-1,-4.733562469E-3
9.838741894E0,-1.987836361E-1,2.864389420E-1,-9.692430496E-2
9.846737584E0,-3.073697090E-1,3.515472412E-1,-1.211643219E-1
9.854734119E0,-3.968126774E-1,4.224338531E-1,-2.115378380E-1
9.862728654E0,-3.864600658E-1,5.462713242E-1,-2.040393353E-1
9.870754112E0,-3.005456924E-1,6.269001961E-1,-1.999723911E-1
9.878750417E0,-2.375235558E-1,6.639604568E-1,-1.616466045E-1
9.886746413E0,-1.784532070E-1,6.475872993E-1,-1.038949490E-1
9.894742410E0,-1.740255356E-1,6.374802589E-1,-1.296072006E-1
9.902737484E0,-1.877992153E-1,5.860710144E-1,-1.761858463E-1
9.910732018E0,-2.565231323E-1,5.613098145E-1,-2.357199192E-1
9.918727631E0,-3.168818951E-1,5.612068176E-1,-2.795839310E-1
9.926754397E0,-3.655474186E-1,5.693278313E-1,-3.894014359E-1
9.934751625E0,-3.899209499E-1,5.760798454E-1,-4.126844406E-1
9.942745544E0,-3.507931232E-1,5.097026825E-1,-2.760636806E-1
9.950741541E0,-2.695021629E-1,3.986959457E-1,4.794597626E-4
9.958737769E0,-6.355214119E-2,1.822881699E-1,2.939524651E-1
9.966732303E0,1.416008472E-1,-2.404212952E-3,7.114310265E-1
9.974729146E0,2.225844860E-1,-1.946964264E-1,1.079616785E0
9.982754374E0,2.274467945E-1,-4.096212387E-1,1.385149240E0
9.990749525E0,2.601518631E-1,-5.810537338E-1,1.476784229E0
9.998745136E0,3.452844620E-1,-7.197494507E-1,1.406966209E0
1.000674144E1,4.223699570E-1,-7.747240067E-1,1.393545628E0
1.001473775E1,5.703687668E-1,-7.627525330E-1,1.297997236E0
1.002273190E1,7.514531612E-1,-7.243595123E-1,1.154154301E0
1.003072820E1,8.730483055E-1,-6.693210602E-1,1.076232672E0
1.003875343E1,1.024685860E0,-6.383719444E-1,1.023061991E0
1.004675004E1,1.163845062E0,-5.933713913E-1,1.032615423E0
1.005474581E1,1.369775772E0,-5.752120018E-1,1.071376801E0
1.006274057E1,1.642964840E0,-6.711063385E-1,1.206917763E0
1.007073565E1,1.905790329E0,-7.481260300E-1,1.191919327E0
1.007873164E1,2.188246727E0,-8.118405342E-1,1.036074877E0
1.008672787E1,2.325281620E0,-8.194913864E-1,1.004467487E0
1.009475433E1,2.453773499E0,-7.630548477E-1,1.002378225E0
1.010274917E1,2.453454018E0,-6.754298210E-1,9.834306240E-1
1.011074548E1,2.420888424E0,-5.510182381E-1,1.065549612E0
1.011874117E1,2.338649273E0,-3.774871826E-1,1.118630409E0
1.012673624E1,2.310482025E0,-2.985167503E-1,1.190342903E0
1.013473339E1,2.334787846E0,-1.865167618E-1,1.281867981E0
1.014272754E1,2.364728928E0,-1.646008492E-1,1.420727730E0
1.015075277E1,2.437978745E0,-1.764025688E-1,1.554773331E0
1.015874969E1,2.523326874E0,-1.993880272E-1,1.573582172E0
1.016674391E1,2.603221893E0,-2.517385483E-1,1.649775982E0
1.017474076E1,2.770142078E0,-2.583823204E-1,1.488306999E0
1.018273614E1,2.865087986E0,-1.880311966E-1,1.286627293E0
1.019073183E1,3.050022602E0,-2.078008652E-2,1.151322365E0
1.019872659E1,3.134570599E0,2.588362694E-1,9.500269890E-1
1.020675374E1,3.210195541E0,5.209002495E-1,8.463034630E-1
1.021474943E1,3.245459080E0,8.071184158E-1,8.692426682E-1
1.022274389E1,3.312117100E0,9.264206886E-1,9.476027489E-1
1.023073920E1,3.508277416E0,9.302501678E-1,9.402208328E-1
1.023873581E1,3.688715458E0,8.587608337E-1,8.231010437E-1
1.024673088E1,3.777512074E0,7.386903763E-1,7.386083603E-1
1.025472726E1,3.729380131E0,6.189393997E-1,6.641564369E-1
1.026275249E1,3.601325512E0,5.088529587E-1,6.713738441E-1
1.027074879E1,3.350217819E0,4.789614677E-1,6.146082878E-1
1.027874356E1,3.043450356E0,4.776551723E-1,5.602450371E-1
1.028673925E1,2.684152126E0,5.967552662E-1,4.510407448E-1
1.029473555E1,2.328513145E0,7.532360554E-1,4.344353676E-1
1.030273155E1,2.034933090E0,8.078074455E-1,2.927265167E-1
1.031072570E1,1.791616440E0,8.492062092E-1,2.291345596E-1
1.031875270E1,1.628635406E0,7.810347080E-1,2.329664230E-1
1.032674839E1,1.478197098E0,6.311297417E-1,2.641525269E-1
1.033474477E1,1.357404709E0,4.628443718E-1,1.633238792E-1
1.034273976E1,1.347812653E0,3.103959560E-1,1.169385910E-1
1.035073492E1,1.361732483E0,1.999877691E-1,-1.569747925E-2
1.035873060E1,1.233017921E0,1.072455645E-1,-1.071209908E-1
1.036672599E1,1.022250175E0,7.227635384E-2,-1.925320625E-1
1.037475329E1,8.497028351E-1,-2.096760273E-2,-2.667961121E-1
1.038274752E1,7.653198242E-1,-8.510261774E-2,-2.541432381E-1
1.039074290E1,7.216291428E-1,-1.862541437E-1,-2.652330399E-1
1.039873920E1,7.013187408E-1,-3.209932446E-1,-3.445715904E-1
1.040673482E1,6.478900909E-1,-3.905100822E-1,-4.412837029E-1
1.041473051E1,5.201768875E-1,-4.310746193E-1,-5.466141701E-1
1.042275612E1,3.286256790E-1,-4.174224138E-1,-5.907392502E-1
1.043075150E1,3.556213379E-1,-4.491950274E-1,-6.834137440E-1
1.043874773E1,3.950853348E-1,-4.350806475E-1,-9.678292274E-1
1.044674342E1,3.183317184E-1,-4.468936324E-1,-9.421787262E-1
1.045473972E1,1.540946960E-1,-4.524617195E-1,-9.369935989E-1
1.046273479E1,-2.340602875E-2,-4.277827740E-1,-7.854771614E-1
1.047072894E1,-2.463226318E-1,-3.914698362E-1,-8.401398659E-1
1.047872563E1,-6.322383881E-1,-2.889864445E-1,-9.912660122E-1
1.048675209E1,-1.110301495E0,-1.859667301E-1,-1.183383465E0
1.049474863E1,-1.475969791E0,-1.532797813E-1,-1.318727493E0
1.050274316E1,-1.871860504E0,-8.649039268E-2,-1.332504749E0
1.051073908E1,-2.163334846E0,-4.756951332E-2,-1.342044830E0
1.051873392E1,-2.384108543E0,6.876611710E-2,-1.299087524E0
1.052673046E1,-2.479075909E0,9.809660912E-2,-1.375856638E0
1.053475661E1,-2.606544971E0,1.198704243E-1,-1.505872965E0
1.054275076E1,-2.805510044E0,1.257355213E-1,-1.488639116E0
1.055074622E1,-2.943171978E0,-2.888679504E-3,-1.410073996E0
1.055874252E1,-2.922688961E0,-1.604070663E-1,-1.333875179E0
1.056673875E1,-2.797729015E0,-3.621926308E-1,-1.363778114E0
1.057473482E1,-2.828568935E0,-5.069203377E-1,-1.328829765E0
1.058272990E1,-3.077528477E0,-5.475940704E-1,-1.399181604E0
1.059075605E1,-3.302825928E0,-5.795660019E-1,-1.270031452E0
1.059875135E1,-3.502047300E0,-5.261645317E-1,-1.299421310E0
1.060674650E1,-3.565542698E0,-4.869480133E-1,-1.285553455E0
1.061474342E1,-3.584488153E0,-4.521570206E-1,-1.220093727E0
1.062273811E1,-3.456280470E0,-4.291152954E-1,-1.184970379E0
1.063073265E1,-3.292399645E0,-5.010428429E-1,-1.014911175E0
1.063872949E1,-3.063807487E0,-5.424828529E-1,-8.747823238E-1
1.064675510E1,-2.803627968E0,-6.188693047E-1,-7.650744915E-1
1.065475164E1,-2.602045298E0,-7.407140732E-1,-6.984376907E-1
1.066274671E1,-2.628425598E0,-7.982358932E-1,-7.406513691E-1
1.067074209E1,-2.739081144E0,-8.581080437E-1,-6.487913132E-1
1.067873724E1,-2.835527420E0,-8.824715614E-1,-6.650013924E-1
1.068673293E1,-2.842190266E0,-9.018292427E-1,-6.624536514E-1
1.069473016E1,-2.864053488E0,-8.861060143E-1,-5.183157921E-1
1.070275508E1,-2.830025911E0,-8.858852386E-1,-4.086630344E-1
1.071075008E1,-2.793223619E0,-8.227448463E-1,-3.802001476E-1
1.071874638E1,-2.826399803E0,-7.782044411E-1,-2.763357162E-1
1.072674207E1,-2.860540390E0,-6.954898834E-1,-2.394628525E-1
1.073473814E1,-2.970082045E0,-5.822958946E-1,-2.545137405E-1
1.074273352E1,-3.108775139E0,-3.881020546E-1,-3.491168022E-1
1.075072883E1,-3.240714312E0,-1.899394989E-1,-4.560420513E-1
1.075875498E1,-3.333207607E0,-1.179933548E-2,-5.867145061E-1
1.076675075E1,-3.426544666E0,1.053037643E-1,-7.080330849E-1
1.077474666E1,-3.427842379E0,1.159286499E-1,-7.218117714E-1
1.078274205E1,-3.286624908E0,5.318641663E-2,-6.423285007E-1
1.079073658E1,-3.090615749E0,-9.781408310E-2,-3.286895752E-1
1.079873281E1,-2.956881046E0,-2.656488419E-1,-1.039357185E-1
1.080672850E1,-2.877013206E0,-3.672771454E-1,-2.331352234E-2
1.081475557E1,-2.824102402E0,-4.078178406E-1,-4.388952255E-2
1.082274972E1,-2.843292236E0,-3.491148949E-1,-1.586947441E-1
1.083074572E1,-2.947146893E0,-2.243151665E-1,-2.577733994E-1
1.083874148E1,-3.079141378E0,-1.359810829E-1,-1.757969856E-1
1.084673687E1,-3.208445549E0,-2.170610428E-2,-1.403460503E-1
1.085473402E1,-3.249619007E0,8.840560913E-3,-1.181397438E-1
1.086272794E1,-3.221204758E0,3.174829483E-2,-1.448602676E-1
1.087075401E1,-3.106530666E0,1.305885315E-1,-1.937637329E-1
1.087874978E1,-2.959964991E0,2.357525826E-1,-2.245745659E-1
1.088674508E1,-2.818510532E0,3.877410889E-1,-2.143425941E-1
1.089474146E1,-2.685987949E0,4.906635284E-1,-1.374940872E-1
1.090273715E1,-2.455479383E0,4.991493225E-1,1.113815308E-1
1.091073246E1,-2.154291630E0,4.176154137E-1,3.256392479E-1
1.091872761E1,-2.070192814E0,3.545002937E-1,5.431866646E-1
1.092675468E1,-2.349331379E0,2.877521515E-1,7.275476456E-1
1.093475037E1,-2.739550352E0,2.578253746E-1,7.832856178E-1
1.094274567E1,-2.912475586E0,2.799587250E-1,7.063126564E-1
1.095074013E1,-2.720524549E0,3.161592484E-1,6.025481224E-1
1.095873651E1,-2.330158234E0,3.590574265E-1,3.493375778E-1
1.096673243E1,-1.949554801E0,3.789081573E-1,3.175258636E-2
1.097472881E1,-1.763967752E0,3.741235733E-1,-1.169791222E-1
1.098275373E1,-1.694161654E0,3.021793365E-1,-2.354602814E-1
1.099074935E1,-1.631955624E0,2.262878418E-1,-1.880073547E-1
1.099874480E1,-1.504635692E0,1.037101746E-1,-1.326560974E-1
1.100674103E1,-1.296615839E0,-1.076297760E-1,-8.583593369E-2
1.101473672E1,-1.072709084E0,-3.283567429E-1,-6.107234955E-2
1.102273126E1,-7.572178841E-1,-6.012883186E-1,-2.970218658E-2
1.103072664E1,-5.123796463E-1,-8.405480385E-1,6.593227386E-2
1.103875340E1,-4.112906456E-1,-1.068680286E0,4.843382835E-1
1.104674848E1,-6.083505154E-1,-1.181868076E0,1.178933620E0
1.105474570E1,-9.650211334E-1,-1.212862015E0,1.558431625E0
1.106273986E1,-9.940395355E-1,-1.259804726E0,1.813575745E0
1.107073616E1,-7.256062031E-1,-1.322482586E0,1.796953678E0
1.107873085E1,-4.840729237E-1,-1.175656796E0,1.597640514E0
1.108672723E1,-4.581863880E-1,-1.066065788E0,1.279450417E0
1.109475515E1,-4.589321613E-1,-8.528246880E-1,7.610645294E-1
1.110274899E1,-2.184486389E-1,-6.917266846E-1,2.003483772E-1
1.111074353E1,3.887529373E-1,-6.892929077E-1,-1.983175278E-1
1.111874006E1,1.264758110E0,-8.070540428E-1,-5.213792324E-1
1.112673575E1,1.976972103E0,-8.289828300E-1,-5.783691406E-1
1.113473113E1,2.401034117E0,-8.169460297E-1,-4.844810963E-1
1.114272682E1,2.226608992E0,-6.352038383E-1,-3.894402981E-1
1.115075305E1,1.596950054E0,-4.051442146E-1,-3.369271755E-1
1.115874843E1,9.589488506E-1,-1.382188797E-1,-3.509538174E-1
1.116674404E1,5.593404770E-1,7.229328156E-2,-3.267338276E-1
1.117474096E1,2.590594292E-1,1.806573868E-1,-3.093068600E-1
1.118273542E1,4.662227631E-2,1.940135956E-1,-2.513470650E-1
1.119072996E1,-2.441325188E-1,2.562627792E-1,-2.554507256E-1
1.119872688E1,-4.958236217E-1,4.241790771E-1,-3.012726307E-1
1.120675241E1,-6.922812462E-1,6.792306900E-1,-3.466069698E-1
1.121474841E1,-8.041658401E-1,1.014954567E0,-3.314235210E-1
1.122274410E1,-6.728074551E-1,1.239694595E0,-2.513356209E-1
1.123073940E1,-3.462796211E-1,1.357326508E0,-1.138877869E-1
1.123873486E1,-2.142190933E-2,1.283708572E0,9.404802322E-2
1.124673055E1,1.802830696E-1,1.098077774E0,2.948026657E-1
1.125472678E1,2.800068855E-1,8.212480545E-1,4.304246902E-1
1.126275208E1,2.845733166E-1,5.744776726E-1,5.437345505E-1
1.127074769E1,2.057480812E-1,3.296608925E-1,6.840176582E-1
1.127874338E1,8.806872368E-2,1.718182564E-1,7.803874016E-1
1.128673976E1,-1.150949001E-1,8.559179306E-2,8.599538803E-1
1.129473576E1,-3.495752811E-1,5.354213715E-2,8.819608688E-1
1.130273014E1,-5.763871670E-1,1.209588051E-1,8.031225204E-1
1.131075568E1,-7.272834778E-1,1.893229485E-1,5.654430389E-1
1.131875236E1,-7.544841766E-1,2.325549126E-1,3.862462044E-1
1.132674736E1,-5.809462070E-1,2.745447159E-1,9.261178970E-2
1.133474405E1,-2.473769188E-1,2.343573570E-1,-1.514339447E-1
1.134273936E1,1.227464676E-1,1.446475983E-1,-2.640843391E-1
1.135073351E1,5.155758858E-1,-3.354072571E-2,-3.307862282E-1
1.135873081E1,7.879903316E-1,-2.104568481E-1,-3.611674309E-1
1.136672581E1,9.405221939E-1,-3.637838364E-1,-3.236894608E-1
1.137475196E1,9.852941036E-1,-4.684715271E-1,-2.881479263E-1
1.138274711E1,8.259234428E-1,-5.041527748E-1,-3.355035782E-1
1.139074241E1,5.546402931E-1,-4.150929451E-1,-3.625211716E-1
1.139873872E1,2.580258846E-1,-3.151345253E-1,-3.955903053E-1
1.140673387E1,2.252769470E-2,-1.670742035E-1,-3.919706345E-1
1.141473079E1,-3.360939026E-2,-1.023139954E-1,-3.868069649E-1
1.142275563E1,1.014633179E-1,-6.742048264E-2,-3.984112740E-1
1.143075132E1,2.865023613E-1,-6.846427917E-2,-3.237171173E-1
1.143874732E1,4.304723740E-1,-2.613592148E-2,-2.350177765E-1
1.144674247E1,5.460512638E-1,9.796142578E-3,-9.793996811E-2
1.145473908E1,5.317959785E-1,1.065206528E-2,-7.307052612E-3
1.146273408E1,4.937965870E-1,1.915311813E-2,8.016777039E-2
1.147072946E1,4.177083969E-1,1.750469208E-3,2.652254105E-1
1.147875507E1,2.632200718E-1,7.877349854E-4,2.926759720E-1
1.148675137E1,1.597592831E-1,4.687404633E-2,3.189563751E-1
1.149474760E1,4.458355904E-2,8.943510056E-2,3.594489098E-1
1.150274275E1,-6.900954247E-2,1.427469254E-1,4.129409790E-1
1.151073806E1,-1.730408669E-1,2.260541916E-1,4.328637123E-1
1.151873405E1,-2.936003208E-1,2.750353813E-1,4.134221077E-1
1.152672943E1,-4.012048244E-1,2.902874947E-1,3.980817795E-1
1.153475597E1,-4.435238838E-1,2.386388779E-1,3.003125191E-1
1.154275097E1,-4.297168255E-1,1.871809959E-1,2.082104683E-1
1.155074666E1,-4.095406532E-1,1.262493134E-1,1.645579338E-1
1.155874273E1,-3.422284126E-1,2.707719803E-2,1.047058105E-1
1.156673811E1,-2.284657955E-1,-5.258846283E-2,5.029153824E-2
1.157473434E1,-1.283490658E-1,-8.633327484E-2,4.686403275E-2
1.158272880E1,-4.159569740E-2,-7.663917542E-2,2.489614487E-2
1.159075464E1,-7.982230186E-2,-5.959510803E-2,7.840633392E-3
1.159875125E1,-1.087391376E-1,-4.719018936E-2,-1.882171631E-2
1.160674640E1,-7.598495483E-2,-6.562376022E-2,-3.352308273E-2
1.161474271E1,1.826238632E-2,-1.460356712E-1,-3.607034683E-2
1.162273778E1,8.336710930E-2,-2.357988358E-1,-5.781555176E-2
1.163073347E1,6.711602211E-2,-2.728600502E-1,-5.331611633E-2
1.163872877E1,2.255988121E-2,-2.762031555E-1,1.031112671E-2
1.164675462E1,-7.503747940E-3,-2.339062691E-1,2.806758881E-2
1.165475161E1,7.195782661E-2,-1.388096809E-1,3.042221069E-3
1.166274538E1,1.908993721E-1,-1.969194412E-2,-4.500484467E-2
1.167074114E1,2.270205021E-1,5.387258530E-2,-2.466201782E-2
1.167873714E1,2.047739029E-1,1.056785583E-1,-7.018566132E-2
1.168673275E1,2.010474205E-1,1.118288040E-1,-7.654714584E-2
1.169472975E1,2.420961857E-1,5.091953278E-2,-8.942413330E-2
1.170275498E1,2.301173210E-1,-4.352188110E-2,-5.886888504E-2
1.171074997E1,2.038419247E-1,-1.282634735E-1,9.724617004E-3
1.171874574E1,1.564898491E-1,-2.557411194E-1,8.444929123E-2
1.172674135E1,1.054289341E-1,-2.967238426E-1,1.888070107E-1
1.173473712E1,5.358695984E-3,-3.133683205E-1,2.793736458E-1
1.174273219E1,-8.391380310E-2,-2.746291161E-1,3.108482361E-1
1.175072811E1,-1.548559666E-1,-1.689677238E-1,3.052406311E-1
1.175875426E1,-2.100949287E-1,-2.778148651E-2,2.847938538E-1
1.176675034E1,-2.572357655E-1,7.459592819E-2,2.764196396E-1
1.177474626E1,-2.728815079E-1,8.564567566E-2,2.252564430E-1
1.178274110E1,-2.268960476E-1,1.055812836E-2,1.817255020E-1
1.179073710E1,-2.032437325E-1,-8.113718033E-2,1.386213303E-1
1.179873278E1,-1.731889248E-1,-1.724386215E-1,1.314148903E-1
1.180672816E1,-1.035566330E-1,-2.465014458E-1,1.195545197E-1
1.181475524E1,-1.784086227E-3,-2.745571136E-1,1.295328140E-1
1.182274993E1,7.716012001E-2,-2.640719414E-1,1.019120216E-1
1.183074469E1,1.007514000E-1,-2.080864906E-1,1.248016357E-1
1.183874161E1,8.858561516E-2,-1.521697044E-1,1.333189011E-1
1.184673638E1,7.696008682E-2,-6.792497635E-2,1.348991394E-1
1.185473245E1,3.988885880E-2,2.041816711E-2,1.225543022E-1
1.186272714E1,-4.852890968E-2,9.349727631E-2,1.082448959E-1
1.187075460E1,-1.501021385E-1,1.369705200E-1,8.723926544E-2
1.187874990E1,-2.602138519E-1,1.486806870E-1,6.645774841E-2
1.188674475E1,-3.455820084E-1,1.143798828E-1,2.434396744E-2
1.189474159E1,-3.586928844E-1,7.500267029E-2,-5.661010742E-3
1.190273605E1,-3.354382515E-1,4.246854782E-2,5.246162415E-3
1.191073089E1,-2.265756130E-1,4.584074020E-2,4.698276520E-3
1.191872781E1,-1.262152195E-1,4.928064346E-2,-6.805419922E-3
1.192675358E1,-7.238316536E-2,7.909631729E-2,6.456375122E-3
1.193474988E1,-7.420420647E-2,8.483314514E-2,-4.657316208E-2
1.194274465E1,-2.904510498E-2,6.674051285E-2,-1.181731224E-1
1.195074011E1,5.585670471E-3,3.686714172E-2,-1.845016479E-1
1.195873602E1,1.517534256E-3,-2.631616592E-2,-1.933922768E-1
1.196673272E1,-3.129100800E-2,-1.227355003E-1,-1.812205315E-1
1.197472802E1,-5.217099190E-2,-2.213735580E-1,-1.812901497E-1
1.198275332E1,-7.076478004E-2,-2.671589851E-1,-1.169395447E-1
1.199074832E1,-7.527685165E-2,-3.223433495E-1,-1.053242683E-1
1.199874501E1,-3.233194351E-2,-2.984910011E-1,-7.183694839E-2
1.200674031E1,-9.024739265E-2,-2.411541939E-1,-9.070158005E-2
1.201473662E1,-1.724026203E-1,-1.621794701E-1,-9.509277344E-2
1.202273115E1,-2.331743240E-1,-1.070446968E-1,-8.275699615E-2
1.203072715E1,-2.534427643E-1,-7.572698593E-2,-6.328392029E-2
1.203875353E1,-2.783684731E-1,-1.018457413E-1,-2.959918976E-2
1.204674807E1,-2.694902420E-1,-1.590991020E-1,-3.325939178E-3
1.205474614E1,-3.056964874E-1,-1.946730614E-1,3.912878036E-2
1.206273975E1,-3.291938305E-1,-1.751379967E-1,9.043645859E-2
1.207073483E1,-3.634021282E-1,-1.795725822E-1,1.526627541E-1
1.207873082E1,-3.580904007E-1,-1.362581253E-1,1.709723473E-1
1.208672713E1,-3.135237694E-1,-1.423072815E-2,1.674280167E-1
1.209475412E1,-2.306084633E-1,8.333063126E-2,1.168894768E-1
1.210274827E1,-1.932740211E-1,2.134404182E-1,6.814384460E-2
1.211074427E1,-1.773979664E-1,2.777204514E-1,2.620506287E-2
1.211873996E1,-1.259593964E-1,3.217592239E-1,-4.940557480E-2
1.212673450E1,-5.895614624E-2,2.837038040E-1,-9.160661697E-2
1.213473226E1,-7.736444473E-3,2.192068100E-1,-9.165477753E-2
1.214272641E1,2.076077461E-2,1.453323364E-1,-6.226491928E-2
1.215075225E1,7.470583916E-2,1.005401611E-1,-3.748178482E-2
1.215874794E1,6.118226051E-2,4.179286957E-2,1.571369171E-2
1.216674456E1,3.079676628E-2,6.532669067E-5,7.573890686E-2
1.217474055E1,-5.893063545E-2,2.302169800E-2,1.232948303E-1
1.218273540E1,-1.431436539E-1,4.833793640E-2,1.559205055E-1
1.219073008E1,-1.313977242E-1,9.054040909E-2,1.307072639E-1
1.219872516E1,-1.126430035E-1,1.304969788E-1,1.221561432E-1
1.220675200E1,-6.823348999E-2,1.037812233E-1,1.327342987E-1
1.221474892E1,-5.334544182E-2,6.565523148E-2,1.501998901E-1
1.222274330E1,-2.961397171E-2,-5.299091339E-3,1.694879532E-1
1.223073868E1,5.509328842E-2,-8.732461929E-2,1.883029938E-1
1.223873407E1,1.480846405E-1,-1.444325447E-1,1.825881004E-1
1.224673037E1,2.780404091E-1,-1.695022583E-1,1.740531921E-1
1.225472667E1,3.928921223E-1,-1.436133385E-1,1.577906609E-1
1.226275221E1,4.526722431E-1,-1.051030159E-1,1.690955162E-1
1.227074759E1,4.270195961E-1,-2.327585220E-2,1.577701569E-1
1.227874305E1,3.261847496E-1,-1.554870605E-2,1.688547134E-1
1.228673928E1,2.173194885E-1,-3.884840012E-2,1.807341576E-1
1.229473473E1,7.898831367E-2,-8.127880096E-2,1.742763519E-1
1.230273004E1,-3.146839142E-2,-1.162953377E-1,1.994910240E-1
1.231075565E1,-1.856391430E-1,-1.368918419E-1,2.301430702E-1
1.231875165E1,-3.359396458E-1,-1.406340599E-1,2.496800423E-1
1.232674757E1,-4.704036713E-1,-1.416959763E-1,2.793164253E-1
1.233474426E1,-5.914683342E-1,-1.425361633E-1,2.713441849E-1
1.234273841E1,-6.225428581E-1,-1.695036888E-1,2.760958672E-1
1.235073379E1,-6.332211494E-1,-2.323608398E-1,2.294335365E-1
1.235872971E1,-6.224491596E-1,-2.760553360E-1,1.900758743E-1
1.236672578E1,-6.008875370E-1,-3.340311050E-1,1.445102692E-1
1.237475224E1,-6.357111931E-1,-4.512615204E-1,1.589584351E-1
1.238274662E1,-7.176356316E-1,-5.985999107E-1,1.659002304E-1
1.239074200E1,-8.755230904E-1,-8.379793167E-1,2.103934288E-1
1.239873862E1,-1.081777573E0,-1.066109180E0,2.401895523E-1
1.240673376E1,-1.390365362E0,-1.323565960E0,2.897610664E-1
1.241472999E1,-1.681353092E0,-1.528820515E0,3.273434639E-1
1.242275560E1,-1.988435984E0,-1.622029781E0,3.649001122E-1
1.243075129E1,-2.244584560E0,-1.607065201E0,4.725785255E-1
1.243874660E1,-2.377704382E0,-1.471181870E0,5.632739067E-1
1.244674260E1,-2.517447472E0,-1.326626778E0,6.298785210E-1
1.245473921E1,-2.616342068E0,-1.235192299E0,6.578965187E-1
1.246273313E1,-2.743400574E0,-1.254047394E0,6.563405991E-1
1.247072851E1,-2.901434422E0,-1.344022751E0,5.646615028E-1
1.247875520E1,-3.035216331E0,-1.391902924E0,4.203090668E-1
1.248675150E1,-3.213270426E0,-1.524236679E0,2.199373245E-1
1.249474727E1,-3.369135141E0,-1.610411167E0,1.038265228E-2
1.250274265E1,-3.526041031E0,-1.719140530E0,-2.406635284E-1
1.251073772E1,-3.688991547E0,-1.808241844E0,-4.483633041E-1
1.251873334E1,-3.822697163E0,-1.818209171E0,-5.866780281E-1
1.252672941E1,-3.964834690E0,-1.777155399E0,-6.825766563E-1
1.253475587E1,-4.086172104E0,-1.679198265E0,-7.012276649E-1
1.254275117E1,-4.339876652E0,-1.597881794E0,-6.232290268E-1
1.255074594E1,-4.681537151E0,-1.565506458E0,-5.649671555E-1
1.255874132E1,-5.091182232E0,-1.626455784E0,-5.388221741E-1
1.256673762E1,-5.362860203E0,-1.845448494E0,-5.623450279E-1
1.257473393E1,-5.456242085E0,-2.103613853E0,-5.549545288E-1
1.258272877E1,-5.187502384E0,-2.523058891E0,-5.303859711E-1
1.259075461E1,-4.745049477E0,-2.917357922E0,-3.976526260E-1
1.259875115E1,-4.031679153E0,-3.375573874E0,-2.461214066E-1
1.260674538E1,-3.319298744E0,-3.658622503E0,-1.343083382E-1
1.261474191E1,-2.859233141E0,-3.838812828E0,-8.695888519E-2
1.262273675E1,-2.403411388E0,-3.976539135E0,-1.471748352E-1
1.263073152E1,-1.983800888E0,-4.038722992E0,-1.726355553E-1
1.263872836E1,-1.508915424E0,-4.113534927E0,-4.662160873E-1
1.264675490E1,-1.220324516E0,-4.098145485E0,-6.168050766E-1
1.265475082E1,-9.768934250E-1,-4.082828522E0,-9.009060860E-1
1.266274589E1,-8.397483826E-1,-4.085571289E0,-1.098228455E0
1.267074158E1,-7.038421631E-1,-4.089010239E0,-1.226529598E0
1.267873696E1,-2.847356796E-1,-4.203035831E0,-1.240970373E0
1.268673234E1,2.525973320E-1,-4.288027763E0,-1.318291426E0
1.269472842E1,8.194093704E-1,-4.407573223E0,-1.496653080E0
1.270275426E1,1.090004921E0,-4.410212517E0,-1.548540115E0
1.271074895E1,1.042215347E0,-4.330105782E0,-1.514360428E0
1.271874564E1,8.720178604E-1,-4.325347900E0,-1.313024282E0
1.272674133E1,8.236684799E-1,-4.319300652E0,-1.304526567E0
1.273473786E1,9.565467834E-1,-4.444955349E0,-1.122603416E0
1.274273240E1,1.054130554E0,-4.442698002E0,-1.287863016E0
1.275072809E1,8.904561996E-1,-4.355039120E0,-1.660093546E0
1.275875416E1,3.591737747E-1,-4.198985577E0,-1.455506325E0
1.276674931E1,-4.417705536E-2,-4.013931274E0,-1.362327337E0
1.277474592E1,-2.067813873E-1,-3.856508732E0,-1.245129824E0
1.278274069E1,-1.245536804E-1,-3.696961880E0,-1.071554899E0
1.279073569E1,1.853752136E-1,-3.636455536E0,-9.346394539E-1
1.279873176E1,5.368175507E-1,-3.583341599E0,-1.073630095E0
1.280672799E1,6.783370972E-1,-3.441783905E0,-1.170568943E0
1.281475391E1,6.207227707E-1,-3.304895639E0,-1.093991280E0
1.282274929E1,5.861997604E-1,-3.151923895E0,-9.876832962E-1
1.283074490E1,5.635404587E-1,-2.967061281E0,-9.642887115E-1
1.283874067E1,5.065517426E-1,-2.791436195E0,-6.732904911E-1
1.284673628E1,4.198045731E-1,-2.629940748E0,-3.618793488E-1
1.285473258E1,4.544177055E-1,-2.537473202E0,-1.976256371E-1
1.286272743E1,5.824937820E-1,-2.472682953E0,-1.852164268E-1
1.287075235E1,5.370230675E-1,-2.392101765E0,-3.552939892E-1
1.287874926E1,3.288984299E-1,-2.235382557E0,-5.059597492E-1
1.288674495E1,-3.303575516E-2,-2.076028347E0,-6.868748665E-1
1.289474087E1,-4.343485832E-1,-1.929866314E0,-7.728288174E-1
1.290273564E1,-6.582922935E-1,-1.837162018E0,-7.925167084E-1
1.291073194E1,-9.151148796E-1,-1.922959328E0,-7.380416393E-1
1.291872763E1,-1.054913998E0,-2.024025440E0,-6.410863400E-1
1.292675317E1,-1.215131283E0,-2.270804882E0,-4.755561352E-1
1.293474986E1,-1.305547237E0,-2.501420975E0,-4.331681728E-1
1.294274485E1,-1.320918083E0,-2.677381039E0,-1.123068333E-1
1.295073962E1,-1.135097027E0,-3.175935268E0,6.978359222E-1
1.295873569E1,-5.680270195E-1,-3.612072468E0,6.781103611E-1
1.296673131E1,9.033775330E-2,-4.153795719E0,6.464791298E-1
1.297472823E1,5.348730087E-1,-4.457827568E0,5.602035522E-1
1.298275291E1,7.564330101E-1,-4.742491722E0,4.141094685E-1
1.299074853E1,7.997627258E-1,-4.600728989E0,-3.728818893E-2
1.299874398E1,8.438117504E-1,-4.894865036E0,-2.504491806E-2
1.300674021E1,1.132960558E0,-5.123079300E0,-1.678538322E-2
1.301473621E1,1.531991005E0,-5.434146881E0,1.402926445E-1
1.302273097E1,2.127131939E0,-5.640874863E0,4.141263962E-1
1.303072574E1,2.798011065E0,-5.947182655E0,5.540490150E-1
1.303875343E1,3.490621328E0,-5.957880020E0,8.237371445E-1
1.304674797E1,4.148054123E0,-5.773683548E0,1.117463350E0
1.305474450E1,4.658894539E0,-5.298496246E0,1.097903490E0
1.306273934E1,5.076322079E0,-4.535876274E0,1.001334906E0
1.307073496E1,5.301064968E0,-3.741212845E0,7.802069187E-1
1.307873064E1,5.375578403E0,-2.953541756E0,6.578993797E-1
1.308672633E1,5.356381416E0,-2.437653542E0,6.626653671E-1
1.309475341E1,5.319043636E0,-2.228333473E0,7.337703705E-1
1.310274848E1,5.153730392E0,-2.238165855E0,8.504347801E-1
1.311074325E1,5.040846825E0,-2.233770370E0,9.218487740E-1
1.311873901E1,4.869632721E0,-2.178264618E0,1.091225386E0
1.312673470E1,4.810236454E0,-2.097495079E0,1.263556719E0
1.313473093E1,4.764548779E0,-1.864115715E0,1.171685219E0
1.314272546E1,4.607675076E0,-1.477143288E0,1.019686937E0
1.315075215E1,4.434187889E0,-1.191772461E0,9.450516701E-1
1.315874730E1,4.167516232E0,-8.901157379E-1,8.261153698E-1
1.316674330E1,3.928527832E0,-7.487983704E-1,7.400546074E-1
1.317473953E1,3.625614643E0,-6.815042496E-1,6.076486111E-1
1.318273429E1,3.317785740E0,-5.993595123E-1,5.556583405E-1
1.319072968E1,3.197208881E0,-5.768728256E-1,6.066951752E-1
1.319872606E1,3.158797026E0,-5.283136368E-1,4.309561253E-1
1.320675151E1,3.207495451E0,-5.303335190E-1,2.697119713E-1
1.321474936E1,3.279340267E0,-4.967193604E-1,1.467657089E-1
1.322274258E1,3.358677626E0,-4.394474030E-1,-6.713891029E-2
1.323073866E1,3.363862514E0,-3.872604370E-1,-8.423137665E-2
1.323873458E1,3.397894859E0,-3.665637970E-1,-1.505992413E-1
1.324673035E1,3.405475140E0,-3.031320572E-1,-2.367846966E-1
1.325472665E1,3.414505959E0,-2.351264954E-1,-2.316932678E-1
1.326275149E1,3.437632084E0,-1.648111343E-1,-2.663652897E-1
1.327074634E1,3.427399635E0,-1.106853485E-1,-2.997720242E-1
1.327874233E1,3.349517822E0,-4.601573944E-2,-3.362135887E-1
1.328673802E1,3.152964592E0,5.544662476E-3,-3.966853619E-1
1.329473456E1,2.897137642E0,6.306648254E-2,-3.949596882E-1
1.330272940E1,2.749761343E0,6.587123871E-2,-3.914103508E-1
1.331072563E1,2.689163208E0,2.290725708E-2,-4.913308620E-1
1.331875085E1,2.661686420E0,1.999568939E-2,-5.193867683E-1
1.332674693E1,2.571877718E0,1.337051392E-3,-4.660491943E-1
1.333474292E1,2.385222912E0,8.851528168E-2,-3.844532967E-1
1.334273823E1,2.132745981E0,1.206474304E-1,-3.439292908E-1
1.335073307E1,1.799096465E0,1.954669952E-1,-3.274400234E-1
1.335872991E1,1.503892183E0,2.113885880E-1,-3.542819023E-1
1.336672468E1,1.222037196E0,2.181529999E-1,-3.817310333E-1
1.337475237E1,9.553717971E-1,2.210063934E-1,-4.930944443E-1
1.338274660E1,6.901350617E-1,2.033815384E-1,-4.956576824E-1
1.339074259E1,4.656962156E-1,1.729106903E-1,-4.690392017E-1
1.339873767E1,3.647889793E-1,1.611413956E-1,-5.089993477E-1
1.340673359E1,2.502855659E-1,1.347284317E-1,-4.553036690E-1
1.341472935E1,1.842351854E-1,1.175994873E-1,-3.969404697E-1
1.342275512E1,1.218126416E-1,1.097288132E-1,-3.533570766E-1
1.343075112E1,-1.400530338E-3,1.182060242E-1,-3.108141422E-1
1.343874650E1,-1.419900060E-1,1.790418625E-1,-3.053333759E-1
1.344674226E1,-2.707943618E-1,2.109680176E-1,-2.914056778E-1
1.345473795E1,-3.805766702E-1,2.346591949E-1,-2.125108242E-1
1.346273326E1,-4.279524088E-1,2.312011719E-1,-9.845161438E-2
1.347072894E1,-4.589748085E-1,1.841335297E-1,-7.687568665E-3
1.347872410E1,-5.098550916E-1,1.705884933E-1,-1.289701462E-2
1.348675048E1,-6.191519499E-1,1.979627609E-1,4.884004593E-2
1.349474678E1,-7.264803648E-1,2.304515839E-1,2.341747284E-3
1.350274155E1,-8.378531337E-1,2.297573090E-1,-1.872777939E-3
1.351073731E1,-9.415811896E-1,2.316513062E-1,2.441477776E-2
1.351873270E1,-9.706211090E-1,2.025251389E-1,7.615447044E-2
1.352672831E1,-9.430977106E-1,2.091455460E-1,1.648659706E-1
1.353475515E1,-9.244377613E-1,2.057914734E-1,2.421762943E-1
1.354275015E1,-8.708274364E-1,2.136936188E-1,3.386690617E-1
1.355074653E1,-7.621694803E-1,2.158517838E-1,3.701565266E-1
1.355874129E1,-7.451239824E-1,1.981296539E-1,3.039290905E-1
1.356673668E1,-7.482780218E-1,2.421531677E-1,2.413070202E-1
1.357473359E1,-8.422908187E-1,2.504701614E-1,8.839344978E-2
1.358272500E1,-1.070567369E0,3.361024857E-1,9.074211121E-3
1.359075115E1,-1.234471679E0,3.722410202E-1,1.520180702E-2
1.359874799E1,-1.352162600E0,3.347301483E-1,8.451318741E-2
1.360674430E1,-1.341595888E0,2.831535339E-1,1.587920189E-1
1.361473945E1,-1.273026705E0,2.218999863E-1,2.563319206E-1
1.362273568E1,-1.127010226E0,1.625680923E-1,3.549520969E-1
1.363073075E1,-9.870391488E-1,1.550846100E-1,4.563932419E-1
1.363872582E1,-7.815917134E-1,1.224260330E-1,5.478191376E-1
1.364675228E1,-6.224181652E-1,6.676197052E-2,6.023268700E-1
1.365474866E1,-4.849322438E-1,3.613758087E-2,5.797491074E-1
1.366274273E1,-3.552940488E-1,-7.210731506E-3,4.600465298E-1
1.367073819E1,-3.191466331E-1,-5.209922791E-3,3.549475670E-1
1.367873442E1,-3.252022862E-1,-5.283355713E-4,2.942407131E-1
1.368672957E1,-3.996869922E-1,9.616851807E-3,2.046089172E-1
1.369472618E1,-4.329685271E-1,3.757476807E-3,1.771233082E-1
1.370275110E1,-4.164499342E-1,3.358840942E-3,1.803629398E-1
1.371074733E1,-3.253746927E-1,-6.834220886E-2,2.498834133E-1
1.371874271E1,-2.305284142E-1,-9.435176849E-2,3.321225643E-1
1.372673871E1,-1.546472460E-1,-9.671401978E-2,4.759571552E-1
1.373473501E1,-3.458148241E-2,-1.690263748E-1,5.897674561E-1
1.374273008E1,1.065922529E-1,-2.995119095E-1,7.424144745E-1
1.375072431E1,1.611348540E-1,-3.705091476E-1,6.571075916E-1
1.375875161E1,1.183271036E-1,-4.415493011E-1,6.340010166E-1
1.376674738E1,8.456073701E-2,-4.740591049E-1,5.565087795E-1
1.377474361E1,3.234335035E-2,-4.414358139E-1,4.852097034E-1
1.378273845E1,-2.087561414E-2,-3.534641266E-1,4.458563328E-1
1.379073406E1,-5.294248462E-2,-2.581510544E-1,4.261257648E-1
1.379872952E1,-4.222790897E-2,-1.272869110E-1,4.892334938E-1
1.380672452E1,2.246025577E-2,-2.333259583E-2,4.622459412E-1
1.381475259E1,1.162523478E-1,1.012773514E-1,4.784197807E-1
1.382274643E1,2.214148641E-1,1.532287598E-1,4.733281136E-1
1.383074150E1,3.105047345E-1,1.660251617E-1,4.925198555E-1
1.383873781E1,3.379281759E-1,1.325740814E-1,4.980242252E-1
1.384673373E1,3.492369354E-1,7.218933105E-2,4.999377728E-1
1.385473003E1,3.239236474E-1,1.851654053E-2,4.890944958E-1
1.386272426E1,3.289350271E-1,-1.889324188E-2,4.631173611E-1
1.387075095E1,3.381412327E-1,-1.080513000E-2,3.300404549E-1
1.387874702E1,3.139408529E-1,-4.386901855E-3,2.281963825E-1
1.388674202E1,3.024313450E-1,5.286788940E-2,1.810798645E-1
1.389473863E1,2.895721197E-1,1.149940491E-1,2.161910534E-1
1.390273347E1,3.065218031E-1,1.628046036E-1,1.491267681E-1
1.391072855E1,2.870853245E-1,1.581830978E-1,1.143763065E-1
1.391872447E1,2.507815361E-1,1.634168625E-1,6.650543213E-2
1.392675123E1,2.171510458E-1,1.762266159E-1,3.925943375E-2
1.393474692E1,1.530318856E-1,1.533946991E-1,6.816053391E-2
1.394274169E1,1.134989262E-1,1.569452286E-1,9.276366234E-2
1.395073738E1,7.208526134E-2,1.198139191E-1,8.187890053E-2
1.395873314E1,7.411211729E-2,1.210289001E-1,6.668114662E-2
1.396672844E1,6.187921762E-2,1.534481049E-1,7.843136787E-2
1.397472513E1,6.670677662E-2,1.644458771E-1,7.170915604E-2
1.398275098E1,4.352962971E-2,1.540260315E-1,8.233475685E-2
1.399074574E1,3.360301256E-2,1.844415665E-1,8.861923218E-2
1.399874143E1,2.802783251E-2,2.032165527E-1,5.493211746E-2
1.400673735E1,1.272362471E-2,2.223453522E-1,4.585742950E-2
1.401473342E1,-7.350325584E-3,2.587347031E-1,4.009461403E-2
1.402272788E1,-1.285600662E-2,3.122835159E-1,5.644369125E-2
1.403072349E1,-8.634805679E-3,3.949098587E-1,8.036065102E-2
1.403874995E1,-4.974138737E-2,4.610538483E-1,9.008121490E-2
1.404674625E1,-8.586102724E-2,5.535497665E-1,1.495511532E-1
1.405474225E1,-1.096916795E-1,5.669240952E-1,2.009181976E-1
1.406273679E1,-1.314715743E-1,5.850162506E-1,1.510703564E-1
1.407073186E1,-1.393178105E-1,5.264616013E-1,1.700854301E-1
1.407872816E1,-1.479670405E-1,5.133953094E-1,1.455988884E-1
1.408672378E1,-1.789236069E-1,4.884548187E-1,1.209254265E-1
1.409475085E1,-2.199310064E-1,4.494276047E-1,7.725405693E-2
1.410274538E1,-2.563988566E-1,4.156332016E-1,5.320882797E-2
1.411074100E1,-2.785025239E-1,3.990306854E-1,4.389095306E-2
1.411873615E1,-3.175100088E-1,3.877382278E-1,1.363539696E-2
1.412673268E1,-3.848372102E-1,3.314590454E-1,2.209162712E-2
1.413472875E1,-4.092202783E-1,2.756509781E-1,9.488344193E-3
1.414272383E1,-4.460194111E-1,1.891078949E-1,2.359986305E-2
1.415074875E1,-4.669312239E-1,1.221055984E-1,-4.870414734E-3
1.415874536E1,-4.942772985E-1,4.134368896E-2,-3.208398819E-2
1.416674128E1,-5.096434951E-1,2.578258514E-2,-5.315971375E-2
1.417473704E1,-4.469324350E-1,4.681968689E-2,-1.249887943E-1
1.418273173E1,-3.430989385E-1,5.645942688E-2,-1.493980885E-1
1.419072750E1,-2.375286222E-1,5.721092224E-2,-2.359359264E-1
1.419872349E1,-6.708788872E-2,-7.278442383E-2,-3.596515656E-1
1.420674988E1,4.325115681E-2,-3.330116272E-1,-4.766957760E-1
1.421474618E1,1.487205029E-1,-6.582765579E-1,-5.169534683E-1
1.422274102E1,1.986830235E-1,-1.050603867E0,-4.440793991E-1
1.423073571E1,2.357387543E-1,-1.298501015E0,-3.335890770E-1
1.423873171E1,2.864732742E-1,-1.403499603E0,-1.222884655E-1
1.424672686E1,2.702964544E-1,-1.211103439E0,1.412079334E-1
1.425472370E1,3.040677309E-1,-6.378431320E-1,3.100640774E-1
1.426274924E1,3.484214544E-1,5.309200287E-2,4.136946201E-1
1.427074492E1,4.009966850E-1,5.460929871E-1,3.412768841E-1
1.427874038E1,4.171166420E-1,9.079408646E-1,1.938347816E-1
1.428673599E1,3.481429815E-1,1.090106487E0,1.614665985E-2
1.429473145E1,2.168061733E-1,1.082031727E0,-1.939888000E-1
1.430272714E1,6.074762344E-2,9.330129623E-1,-3.767051697E-1
1.431072191E1,-8.437776566E-2,6.960182190E-1,-3.618988991E-1
1.431874890E1,-9.856939316E-2,3.657903671E-1,-2.322638035E-1
1.432674467E1,2.005815506E-2,1.069955826E-1,-7.998371124E-2
1.433474028E1,1.243213415E-1,-1.622800827E-1,1.059756279E-1
1.434273566E1,1.701766253E-1,-3.513956070E-1,7.846856117E-2
1.435073112E1,1.400434971E-1,-4.458198547E-1,3.451919556E-2
1.435872704E1,9.494650364E-2,-5.266332626E-1,-4.857420921E-2
1.436672242E1,2.501320839E-2,-5.452861786E-1,-1.019799709E-1
1.437474926E1,-4.892945290E-3,-5.657587051E-1,-1.767606735E-1
1.438274457E1,3.427255154E-2,-5.253181458E-1,-2.334749699E-1
1.439073872E1,1.282945871E-1,-5.003204346E-1,-2.906634808E-1
1.439873594E1,3.146040440E-1,-4.074878693E-1,-2.798006535E-1
1.440673040E1,4.635274410E-1,-3.144512177E-1,-2.643635273E-1
1.441472794E1,6.178673506E-1,-1.996936798E-1,-3.375823498E-1
1.442272209E1,6.867864132E-1,-8.704090118E-2,-3.841326237E-1
1.443074824E1,7.640929222E-1,4.515361786E-2,-4.229409695E-1
1.443874339E1,8.075654507E-1,1.392860413E-1,-5.167934895E-1
1.444673961E1,8.303329945E-1,2.406568527E-1,-5.324513912E-1
1.445473630E1,8.407616615E-1,2.655115128E-1,-5.827779770E-1
1.446273014E1,8.009928465E-1,2.736988068E-1,-6.499125957E-1
1.447072576E1,7.342588902E-1,2.678251266E-1,-6.743934155E-1
1.447872214E1,6.175366640E-1,2.291107178E-1,-7.037508488E-1
1.448674798E1,4.943026304E-1,2.390489578E-1,-6.543319225E-1
1.449474429E1,3.719903231E-1,2.925977707E-1,-5.917289257E-1
1.450273867E1,2.692843676E-1,3.154964447E-1,-5.303328037E-1
1.451073497E1,1.713420153E-1,3.506755829E-1,-4.656531811E-1
1.451873012E1,8.471095562E-2,3.359060287E-1,-4.380986691E-1
1.452672604E1,6.547939777E-2,3.117456436E-1,-4.018619061E-1
1.453475280E1,5.290746689E-2,2.782106400E-1,-3.851945400E-1
1.454274880E1,6.049311161E-2,2.615470886E-1,-4.333574772E-1
1.455074241E1,7.804417610E-2,2.619266510E-1,-4.737257957E-1
1.455873864E1,6.764757633E-2,2.866191864E-1,-4.775660038E-1
1.456673441E1,8.926439285E-2,2.949476242E-1,-5.166859627E-1
1.457473063E1,9.773170948E-2,2.870473862E-1,-5.454208851E-1
1.458272632E1,1.290111542E-1,2.056274414E-1,-5.657150745E-1
1.459075163E1,1.160316467E-1,1.895160675E-1,-5.489156246E-1
1.459874755E1,1.234798431E-1,1.834497452E-1,-5.027480125E-1
1.460674262E1,1.364111900E-1,2.493762970E-1,-4.731805325E-1
1.461473931E1,1.425089836E-1,2.984418869E-1,-3.937163353E-1
1.462273407E1,1.676666737E-1,3.256587982E-1,-3.723907471E-1
1.463072876E1,1.424568892E-1,3.452873230E-1,-3.688259125E-1
1.463872599E1,1.410576105E-1,3.238363266E-1,-3.494098186E-1
1.464675245E1,1.297219992E-1,3.524169922E-1,-3.710970879E-1
1.465474791E1,1.017397642E-1,3.161687851E-1,-3.693711758E-1
1.466274290E1,8.350849152E-2,3.014364243E-1,-3.965079784E-1
1.467073867E1,5.158078671E-2,3.082466125E-1,-3.761262894E-1
1.467873397E1,5.854833126E-2,2.672004700E-1,-3.727195263E-1
1.468672905E1,3.748393059E-2,2.310800552E-1,-3.836486340E-1
1.469472666E1,3.395569324E-2,1.855735779E-1,-3.561441898E-1
1.470275150E1,5.481147766E-2,1.881389618E-1,-3.642089367E-1
1.471074634E1,6.189143658E-2,1.598386765E-1,-3.502616882E-1
1.471874234E1,7.446742058E-2,1.101417542E-1,-2.811732292E-1
1.472673764E1,9.009492397E-2,4.367065430E-2,-2.052824497E-1
1.473473464E1,9.673368931E-2,-1.339912415E-2,-1.182398796E-1
1.474272879E1,9.909653664E-2,-1.379985809E-1,5.325460434E-2
1.475072471E1,1.039437056E-1,-2.034988403E-1,1.578154564E-1
1.475875147E1,1.318701506E-1,-3.104448318E-1,1.984522343E-1
1.476674601E1,1.435462236E-1,-3.821620941E-1,1.759932041E-1
1.477474285E1,1.673833132E-1,-3.968496323E-1,6.743645668E-2
1.478273793E1,1.551574469E-1,-3.352069855E-1,3.626179695E-2
1.479073277E1,1.551141739E-1,-2.521762848E-1,7.306289673E-2
1.479872930E1,1.846227646E-1,-1.598491669E-1,1.770737171E-1
1.480672407E1,2.675886154E-1,-1.230707169E-1,2.064652443E-1
1.481475083E1,2.915797234E-1,-1.471338272E-1,4.780511856E-1
1.482274629E1,4.137924910E-1,-2.429170609E-1,7.920405865E-1
1.483074190E1,5.465101004E-1,-3.661632538E-1,1.054687500E0
1.483873767E1,7.341753244E-1,-4.570140839E-1,1.341081619E0
1.484673305E1,9.102714062E-1,-4.789180756E-1,1.551695108E0
1.485472966E1,1.029780865E0,-4.244756699E-1,1.674422264E0
1.486272381E1,9.853851795E-1,-3.008928299E-1,1.548103333E0
1.487074988E1,7.378458977E-1,-1.341447830E-1,1.367268085E0
1.487874557E1,5.191071033E-1,-4.376602173E-2,1.231997013E0
1.488674157E1,4.141950607E-1,-4.124450684E-2,1.165463924E0
1.489473764E1,4.812963009E-1,-5.429267883E-2,1.178885460E0
1.490273272E1,6.360502243E-1,-8.022975922E-2,1.271765709E0
1.491072864E1,9.160864353E-1,-1.258955002E-1,1.604123354E0
1.491872371E1,1.285527945E0,-2.390413284E-1,1.845775366E0
1.492675025E1,1.571828842E0,-3.472280502E-1,1.914638042E0
1.493474747E1,1.823403120E0,-4.947233200E-1,1.995391846E0
1.494274132E1,1.910196543E0,-5.724201202E-1,1.985434532E0
1.495073608E1,1.858435869E0,-6.543569565E-1,1.974081278E0
1.495873239E1,1.800195694E0,-7.353620529E-1,1.957361698E0
1.496672830E1,1.791631937E0,-8.601646423E-1,1.960366964E0
1.497472438E1,1.856868744E0,-1.052669525E0,1.978253841E0
1.498274984E1,1.970798254E0,-1.255951881E0,1.907732964E0
1.499074552E1,2.155640364E0,-1.461005211E0,1.636415958E0
1.499874091E1,2.223052025E0,-1.570226669E0,1.454188585E0
1.500673698E1,2.265836000E0,-1.581576347E0,1.214895964E0
1.501473290E1,2.198504925E0,-1.463669777E0,1.021795034E0
1.502272774E1,2.134127140E0,-1.290891647E0,8.671278954E-1
1.503072312E1,2.039853096E0,-1.065653801E0,5.733814240E-1
1.503874981E1,1.961841822E0,-8.840188980E-1,4.388811588E-1
1.504674488E1,1.852544785E0,-7.270431519E-1,8.730387688E-2
1.505474219E1,1.650262356E0,-5.900239944E-1,-1.871886253E-1
1.506273688E1,1.367444277E0,-5.252742767E-1,-4.246551991E-1
1.507073141E1,1.092718840E0,-4.800786972E-1,-6.271495819E-1
1.507872795E1,9.365630150E-1,-4.947252274E-1,-7.723755836E-1
1.508672371E1,7.688894272E-1,-5.481185913E-1,-1.001547575E0
1.509474955E1,6.135449409E-1,-5.969281197E-1,-1.131942987E0
1.510274524E1,4.322571754E-1,-6.626558304E-1,-1.251893282E0
1.511074024E1,1.792974472E-1,-6.918058395E-1,-1.370239496E0
1.511873654E1,-3.962588310E-2,-7.238640785E-1,-1.464767218E0
1.512673223E1,-2.328007221E-1,-7.012381554E-1,-1.564172029E0
1.513472861E1,-3.844249249E-1,-6.785001755E-1,-1.641760826E0
1.514272369E1,-5.131230354E-1,-6.108689308E-1,-1.717555523E0
1.515074976E1,-6.705641747E-1,-5.439863205E-1,-1.818112850E0
1.515874483E1,-7.998743057E-1,-4.553112984E-1,-1.883826971E0
1.516674083E1,-9.180476665E-1,-3.876361847E-1,-1.868202925E0
1.517473660E1,-1.049873114E0,-3.569345474E-1,-1.928166151E0
1.518273128E1,-1.210702181E0,-2.914910316E-1,-1.968103170E0
1.519072705E1,-1.373489380E0,-2.055683136E-1,-1.919338465E0
1.519872266E1,-1.591702223E0,-1.536264420E-1,-1.576673985E0
1.521474481E1,-2.026819706E0,-1.697068214E-1,-1.165160656E0
1.522273957E1,-1.996338844E0,-2.629566193E-1,-9.860212803E-1
1.523073588E1,-1.948214054E0,-2.820038795E-1,-8.960492611E-1
1.523873072E1,-2.002005100E0,-1.229500771E-1,-8.284606934E-1
1.524672787E1,-2.059034348E0,2.288961411E-1,-9.107215405E-1
1.525472302E1,-2.063426971E0,5.596785545E-1,-9.736397266E-1
1.526274817E1,-1.940893412E0,9.174041748E-1,-1.010960340E0
1.527074332E1,-1.819198370E0,1.113508224E0,-1.053017855E0
1.527873932E1,-1.780433178E0,1.241162300E0,-1.173722267E0
1.528673470E1,-1.765192509E0,1.293516636E0,-1.298018932E0
1.529473162E1,-1.821590424E0,1.292253494E0,-1.353826046E0
1.530272631E1,-1.873412132E0,1.197230816E0,-1.493371725E0
1.531072207E1,-1.882922173E0,1.121517181E0,-1.670037746E0
1.531874784E1,-1.779789686E0,9.575839043E-1,-1.587759256E0
1.532674330E1,-1.561755896E0,8.171677589E-1,-1.326741695E0
1.533473991E1,-1.342842102E0,6.415734291E-1,-8.634190559E-1
1.534273490E1,-1.177726984E0,4.703292847E-1,-2.980422974E-1
1.535073006E1,-1.090741396E0,3.575096130E-1,2.842903137E-2
1.535872667E1,-9.955539703E-1,2.404112816E-1,3.379139900E-1
1.536675243E1,-8.866157532E-1,1.572456360E-1,4.882850647E-1
1.537474874E1,-8.247494698E-1,1.340227127E-1,5.279107094E-1
1.538274389E1,-7.794651985E-1,1.228003502E-1,5.554881096E-1
1.539073919E1,-7.697191238E-1,1.226444244E-1,5.514116287E-1
1.539873488E1,-7.527174950E-1,7.550239563E-2,6.239948273E-1
1.540673065E1,-6.647338867E-1,4.226827621E-2,6.883835793E-1
1.541472626E1,-5.189580917E-1,-1.432561874E-2,7.270584106E-1
1.542275248E1,-4.225516319E-1,-1.890707016E-2,6.873297691E-1
1.543074687E1,-2.644648552E-1,-6.827211380E-2,7.151861191E-1
1.543874379E1,-5.102300644E-2,-8.476734161E-2,7.406778336E-1
1.544673947E1,6.020498276E-2,-7.126808167E-2,6.165318489E-1
1.545473555E1,2.015213966E-1,3.562927246E-3,4.357333183E-1
1.546273062E1,2.555522919E-1,6.640720367E-2,2.523164749E-1
1.547072592E1,2.523660660E-1,9.451627731E-2,1.385631561E-1
1.547875215E1,2.700433731E-1,7.166147232E-2,1.034154892E-1
1.548674807E1,2.483315468E-1,4.418325424E-2,1.341390610E-1
1.549474438E1,2.722206116E-1,3.092718124E-2,1.884474754E-1
1.550273891E1,3.678393364E-1,4.339981079E-2,2.443289757E-1
1.551073429E1,5.846409798E-1,8.233261108E-2,4.294819832E-1
1.551872929E1,7.584829330E-1,1.123638153E-1,6.013255119E-1
1.552672536E1,9.260759354E-1,1.386613846E-1,8.304443359E-1
1.553475236E1,9.817390442E-1,2.268071175E-1,1.027739048E0
1.554274743E1,9.983434677E-1,3.229713440E-1,1.155863762E0
1.555074258E1,1.055967808E0,3.727722168E-1,1.322674274E0
1.555873850E1,1.133594513E0,3.485589027E-1,1.469494820E0
1.556673388E1,1.343753815E0,2.492260933E-1,1.631830215E0
1.557472965E1,1.545301914E0,7.624244690E-2,1.735165596E0
1.558272526E1,1.749471188E0,-1.144132614E-1,1.724247456E0
1.559075110E1,1.912608147E0,-3.403129578E-1,1.616166592E0
1.559874679E1,1.958554268E0,-4.790887833E-1,1.645163059E0
1.560674279E1,1.980682850E0,-5.049629211E-1,1.394556522E0
1.561473886E1,1.965986252E0,-4.107141495E-1,1.124600410E0
1.562273363E1,1.869554996E0,-2.340040207E-1,9.148817062E-1
1.563072962E1,1.863709450E0,-1.028757095E-1,9.128427505E-1
1.563872431E1,1.920265675E0,-7.879114151E-2,1.039526463E0
1.564675169E1,2.047381401E0,-6.053209305E-2,1.225139618E0
1.565474746E1,2.170303822E0,-7.931852341E-2,1.381555557E0
1.566274253E1,2.200924873E0,-6.359148026E-2,1.532433510E0
1.567073722E1,2.163902760E0,-7.364225388E-2,1.710671902E0
1.567873352E1,2.119663239E0,-5.302906036E-2,1.747686386E0
1.568672890E1,2.139893055E0,-5.919790268E-2,1.711193562E0
1.569472490E1,2.130517006E0,-5.755090714E-2,1.538781643E0
1.570275021E1,2.140439510E0,-2.222061157E-4,1.318237305E0
1.571074651E1,2.137518883E0,1.749038696E-2,1.230738163E0
1.571874243E1,2.161375999E0,-3.951501846E-2,1.220790386E0
1.572673789E1,2.080648899E0,-3.940868378E-2,1.302842140E0
1.573473388E1,1.919057846E0,-8.435249329E-3,1.425033569E0
1.574272888E1,1.823799610E0,-1.205015182E-2,1.544637203E0
1.575072395E1,1.839705467E0,-1.112132072E-1,1.616212845E0
1.575875010E1,2.015999794E0,-1.848039627E-1,1.624003887E0
1.576674618E1,2.308000088E0,-2.323622704E-1,1.571538448E0
1.577474179E1,2.509143353E0,-2.332243919E-1,1.462300777E0
1.578273717E1,2.643587589E0,-1.087937355E-1,1.382799149E0
1.579073294E1,2.731106758E0,-2.466344833E-2,1.287321568E0
1.579872793E1,2.736355305E0,1.391692162E-1,1.126444817E0
1.580672485E1,2.678265572E0,1.796841621E-1,1.093863964E0
1.581475108E1,2.743126392E0,8.350467682E-2,1.242543221E0
1.582274608E1,2.881114006E0,-9.732580185E-2,1.403906345E0
1.583074084E1,2.871132851E0,-3.208816051E-1,1.514404297E0
1.583873684E1,2.738397598E0,-5.638194084E-1,1.650548458E0
1.584673314E1,2.673453331E0,-8.062565327E-1,1.651233196E0
1.585472883E1,2.793429375E0,-1.061713696E0,1.638157368E0
1.586272367E1,2.922535896E0,-1.227218866E0,1.471990108E0
1.587075044E1,3.008513451E0,-1.336321950E0,1.266147614E0
1.587874520E1,2.906716347E0,-1.268215060E0,1.044082165E0
1.588674143E1,2.633231163E0,-1.196497679E0,8.547167778E-1
1.589473720E1,2.109373093E0,-1.041950703E0,6.444697380E-1
1.590273196E1,1.728087425E0,-9.830106497E-1,5.742502213E-1
1.591072819E1,1.428838730E0,-1.087711811E0,6.032848358E-1
1.591872365E1,1.285710335E0,-1.213888288E0,6.741714478E-1
1.592675034E1,1.252581596E0,-1.372416377E0,6.879234314E-1
1.593474579E1,1.062412262E0,-1.451299787E0,7.555594444E-1
1.594274118E1,8.026533127E-1,-1.464571953E0,7.676525116E-1
1.595073717E1,4.894313812E-1,-1.390224814E0,9.106192589E-1
1.595873217E1,4.619159698E-1,-1.483856678E0,9.490203857E-1
1.596672732E1,4.091405869E-1,-1.598342419E0,8.735365868E-1
1.597472454E1,6.853199005E-2,-1.677874923E0,5.991563797E-1
1.598274908E1,-3.720626831E-1,-1.723195553E0,3.245315552E-1
1.599074446E1,-8.701748848E-1,-1.616240025E0,7.967662811E-2
1.599873961E1,-1.237047672E0,-1.473531008E0,-5.625820160E-2
