"Time (s)","Acceleration x (m/s^2)","Acceleration y (m/s^2)","Acceleration z (m/s^2)"
5.587389000E-3,-7.103596210E0,4.242525578E0,5.231330872E0
7.632548000E-3,-7.117961884E0,4.223371983E0,5.216965675E0
9.738168000E-3,-7.144298077E0,4.209006786E0,5.207388878E0
1.172117300E-2,-7.158663273E0,4.163516521E0,5.181052685E0
1.373602300E-2,-7.151480675E0,4.151545525E0,5.164293289E0
1.571933500E-2,-7.153874874E0,4.141968727E0,5.152322292E0
1.773472400E-2,-7.141903877E0,4.122815132E0,5.137956619E0
1.971749700E-2,-7.134721279E0,4.125209332E0,5.142745018E0
2.173165500E-2,-7.125144482E0,4.120420933E0,5.145139217E0
2.371504500E-2,-7.113173485E0,4.120420933E0,5.128379822E0
2.573012600E-2,-7.103596210E0,4.129997730E0,5.097255230E0
2.771236100E-2,-7.105990410E0,4.129997730E0,5.068524837E0
2.972675000E-2,-7.113173485E0,4.137180328E0,5.058948040E0
3.171113900E-2,-7.139509678E0,4.146757126E0,5.044582844E0
3.372468100E-2,-7.144298077E0,4.182670593E0,5.046977043E0
3.573914800E-2,-7.149086475E0,4.197035789E0,5.042188644E0
3.772407500E-2,-7.196970463E0,4.220977783E0,5.032611847E0
3.973731000E-2,-7.235277653E0,4.244919777E0,5.044582844E0
4.172069900E-2,-7.256825447E0,4.237737179E0,5.054159641E0
4.373508800E-2,-7.321468830E0,4.232948780E0,5.044582844E0
4.571763000E-2,-7.357381821E0,4.242525578E0,5.042188644E0
4.773148200E-2,-7.381323814E0,4.237737179E0,5.030217648E0
4.971640900E-2,-7.412448406E0,4.218583584E0,5.027823448E0
5.173110500E-2,-7.445967197E0,4.201824188E0,5.018246651E0
5.371387800E-2,-7.474697590E0,4.201824188E0,5.015852451E0
5.572780600E-2,-7.524975777E0,4.168305397E0,5.013458252E0
5.771304100E-2,-7.524975777E0,4.161122322E0,5.001487255E0
5.972566000E-2,-7.536946774E0,4.144362926E0,4.989516258E0
6.173981900E-2,-7.527369976E0,4.137180328E0,4.960785866E0
6.372382300E-2,-7.534552574E0,4.132391930E0,4.944026470E0
6.573828900E-2,-7.536946774E0,4.101267338E0,4.939238071E0
6.772160200E-2,-7.515398979E0,4.084507942E0,4.927267075E0
6.973575900E-2,-7.508216381E0,4.079719543E0,4.922478676E0
7.171976300E-2,-7.505822182E0,4.050989151E0,4.915296078E0
7.373330700E-2,-7.477091789E0,4.031835556E0,4.905719280E0
7.571677200E-2,-7.472303391E0,4.022258759E0,4.900930882E0
7.773216100E-2,-7.457938194E0,4.005499363E0,4.900930882E0
7.971555100E-2,-7.457938194E0,3.979163170E0,4.881777287E0
8.172847800E-2,-7.443572998E0,3.974374771E0,4.860229492E0
8.371402000E-2,-7.443572998E0,3.976768970E0,4.829104900E0
8.572717900E-2,-7.433996201E0,3.938461781E0,4.800374508E0
8.771126000E-2,-7.422025204E0,3.924096584E0,4.783615112E0
8.972595600E-2,-7.445967197E0,3.931279182E0,4.750096321E0
9.170842300E-2,-7.455543995E0,3.931279182E0,4.740519524E0
9.372288800E-2,-7.457938194E0,3.948038578E0,4.735731125E0
9.573612300E-2,-7.469909191E0,3.950432777E0,4.721365929E0
9.772174400E-2,-7.467514992E0,3.945644379E0,4.723760128E0
9.973497800E-2,-7.460332394E0,3.936067581E0,4.742913723E0
1.017183670E-1,-7.414842606E0,3.933673382E0,4.735731125E0
1.037322180E-1,-7.407660007E0,3.933673382E0,4.730942726E0
1.057171450E-1,-7.405265808E0,3.931279182E0,4.742913723E0
1.077303800E-1,-7.388506413E0,3.919308186E0,4.728548527E0
1.097146160E-1,-7.383718014E0,3.916913986E0,4.740519524E0
1.117281580E-1,-7.374141216E0,3.919308186E0,4.762067318E0
1.137116240E-1,-7.326257229E0,3.909731388E0,4.802768707E0
1.157257060E-1,-7.319074631E0,3.892971992E0,4.826710701E0
1.177404790E-1,-7.314286232E0,3.861847401E0,4.850652695E0
1.197235600E-1,-7.304709435E0,3.869029999E0,4.865017891E0
1.217380260E-1,-7.304709435E0,3.866635799E0,4.884171486E0
1.237221070E-1,-7.285555840E0,3.866635799E0,4.903325081E0
1.257349570E-1,-7.287950039E0,3.876212597E0,4.920084476E0
1.277195780E-1,-7.299921036E0,3.909731388E0,4.934449673E0
1.297335050E-1,-7.316680431E0,3.936067581E0,4.944026470E0
1.317177400E-1,-7.319074631E0,3.933673382E0,4.944026470E0
1.337319750E-1,-7.345410824E0,3.936067581E0,4.951209068E0
1.357144410E-1,-7.359776020E0,3.971980572E0,4.979939461E0
1.377301370E-1,-7.374141216E0,3.979163170E0,4.989516258E0
1.397122960E-1,-7.405265808E0,3.986345768E0,5.011064053E0
1.417264540E-1,-7.424419403E0,4.010287762E0,5.011064053E0
1.437101500E-1,-7.429207802E0,4.019864559E0,4.999093056E0
1.457246170E-1,-7.467514992E0,4.007893562E0,4.989516258E0
1.477393130E-1,-7.498639584E0,4.024652958E0,4.994304657E0
1.497227790E-1,-7.513004780E0,4.027047157E0,4.991910458E0
1.517366300E-1,-7.563282967E0,4.036623955E0,4.987122059E0
1.537203260E-1,-7.589619160E0,4.043806553E0,4.979939461E0
1.557344840E-1,-7.611167431E0,4.034229755E0,4.963180065E0
1.577190270E-1,-7.625532627E0,4.053383350E0,4.936843872E0
1.597325700E-1,-7.632715225E0,4.060565948E0,4.929661274E0
1.617154200E-1,-7.661445618E0,4.046200752E0,4.915296078E0
1.637298860E-1,-7.678205013E0,4.041412354E0,4.893748283E0
1.657131980E-1,-7.690176010E0,4.034229755E0,4.886565685E0
1.677283560E-1,-7.702147007E0,4.029441357E0,4.869806290E0
1.697111290E-1,-7.723694801E0,4.017470360E0,4.855441093E0
1.717246730E-1,-7.728483200E0,4.027047157E0,4.838681698E0
1.737394460E-1,-7.730877399E0,4.022258759E0,4.824316502E0
1.757234500E-1,-7.745242596E0,4.029441357E0,4.824316502E0
1.777387630E-1,-7.752425194E0,4.019864559E0,4.819528103E0
1.797216130E-1,-7.750030994E0,4.022258759E0,4.797980309E0
1.817354630E-1,-7.726089001E0,4.010287762E0,4.793191910E0
1.837190840E-1,-7.716512203E0,4.000710964E0,4.788403511E0
1.857338570E-1,-7.711723804E0,4.010287762E0,4.783615112E0
1.877167070E-1,-7.706935406E0,4.007893562E0,4.781220913E0
1.897311740E-1,-7.690176010E0,4.003105164E0,4.781220913E0
1.917145620E-1,-7.668628216E0,4.022258759E0,4.795586109E0
1.937287200E-1,-7.656657219E0,4.022258759E0,4.793191910E0
1.957121100E-1,-7.637503624E0,4.005499363E0,4.778826714E0
1.977278060E-1,-7.613561630E0,4.010287762E0,4.786009312E0
1.997108100E-1,-7.594407558E0,4.017470360E0,4.797980309E0
2.017246610E-1,-7.565677166E0,4.046200752E0,4.829104900E0
2.037385880E-1,-7.544129372E0,4.043806553E0,4.826710701E0
2.057216690E-1,-7.529764175E0,4.041412354E0,4.831499100E0
2.077354430E-1,-7.484274387E0,4.060565948E0,4.829104900E0
2.097207550E-1,-7.457938194E0,4.082113743E0,4.821922302E0
2.117346050E-1,-7.441178799E0,4.084507942E0,4.817133904E0
2.137176870E-1,-7.419631004E0,4.072536945E0,4.819528103E0
2.157321530E-1,-7.412448406E0,4.053383350E0,4.848258495E0
2.177170800E-1,-7.400477409E0,4.043806553E0,4.855441093E0
2.197300080E-1,-7.405265808E0,4.036623955E0,4.884171486E0
2.217143200E-1,-7.412448406E0,4.034229755E0,4.891354084E0
2.237271700E-1,-7.405265808E0,4.017470360E0,4.908113480E0
2.257124050E-1,-7.388506413E0,3.986345768E0,4.941632271E0
2.277257170E-1,-7.400477409E0,3.971980572E0,4.951209068E0
2.297401060E-1,-7.402871609E0,3.976768970E0,4.972756863E0
2.317238030E-1,-7.383718014E0,3.971980572E0,4.991910458E0
2.337379610E-1,-7.378929615E0,3.960009575E0,5.001487255E0
2.357216570E-1,-7.364564419E0,3.943250179E0,5.011064053E0
2.377361240E-1,-7.354987621E0,3.948038578E0,5.015852451E0
2.397198200E-1,-7.364564419E0,3.936067581E0,5.023035049E0
2.417330550E-1,-7.352593422E0,3.924096584E0,5.054159641E0
2.437170600E-1,-7.352593422E0,3.931279182E0,5.063736439E0
2.457309100E-1,-7.357381821E0,3.926490784E0,5.080495834E0
2.477149140E-1,-7.350199223E0,3.907337189E0,5.123591423E0
2.497285340E-1,-7.345410824E0,3.900154591E0,5.154716492E0
2.517118460E-1,-7.328651428E0,3.909731388E0,5.161899090E0
2.537266960E-1,-7.285555840E0,3.916913986E0,5.193023682E0
2.557100860E-1,-7.266402245E0,3.931279182E0,5.202600479E0
2.577251670E-1,-7.244854450E0,3.957615376E0,5.207388878E0
2.597386320E-1,-7.201758862E0,3.983951569E0,5.226542473E0
2.617220220E-1,-7.194576263E0,3.998316765E0,5.233725071E0
2.637368720E-1,-7.175422668E0,4.031835556E0,5.245696068E0
2.657205680E-1,-7.156269073E0,4.070142746E0,5.269638062E0
2.677346500E-1,-7.144298077E0,4.094084740E0,5.291185856E0
2.697181160E-1,-7.113173485E0,4.146757126E0,5.322310448E0
2.717310430E-1,-7.105990410E0,4.170699596E0,5.351040840E0
2.737158930E-1,-7.103596210E0,4.192247391E0,5.358223438E0
2.757301290E-1,-7.113173485E0,4.244919777E0,5.363011837E0
2.777141330E-1,-7.098807812E0,4.288015366E0,5.370194435E0
2.797273680E-1,-7.094019413E0,4.297592163E0,5.372588634E0
2.817113730E-1,-7.089231014E0,4.321534157E0,5.374982834E0
2.837246080E-1,-7.079654217E0,4.338293552E0,5.365406036E0
2.857387650E-1,-7.096413612E0,4.359841347E0,5.365406036E0
2.877227700E-1,-7.091625214E0,4.393360138E0,5.355829239E0
2.897377740E-1,-7.079654217E0,4.398148537E0,5.365406036E0
2.917215480E-1,-7.050923824E0,4.426878929E0,5.374982834E0
2.937359370E-1,-7.026981831E0,4.431667328E0,5.401319027E0
2.957187100E-1,-7.019799232E0,4.431667328E0,5.427655220E0
2.977337910E-1,-6.971915245E0,4.419696331E0,5.521028996E0
2.997166430E-1,-6.892906666E0,4.412513733E0,5.604825974E0
3.017304930E-1,-6.842628479E0,4.400542736E0,5.655104637E0
3.037147280E-1,-6.737283707E0,4.376600742E0,5.738901615E0
3.057298860E-1,-6.631938934E0,4.364629745E0,5.801150799E0
3.077125830E-1,-6.562506676E0,4.357447147E0,5.825092793E0
3.097271250E-1,-6.457161903E0,4.345476151E0,5.851428986E0
3.117110530E-1,-6.406883717E0,4.345476151E0,5.887341976E0
3.137243650E-1,-6.303933144E0,4.350264549E0,5.906495571E0
3.157387540E-1,-6.210559368E0,4.350264549E0,5.940014362E0
3.177227590E-1,-6.179434776E0,4.359841347E0,5.963956356E0
3.197363010E-1,-6.121973515E0,4.378994942E0,5.999869347E0
3.217191510E-1,-6.076483727E0,4.388571739E0,6.016628742E0
3.237336180E-1,-6.057330132E0,4.402936935E0,6.021417141E0
3.257176220E-1,-6.042964935E0,4.429273129E0,6.040570736E0
3.277320870E-1,-6.023811340E0,4.412513733E0,6.047753334E0
3.297160150E-1,-6.014234543E0,4.410119534E0,6.059724331E0
3.317287120E-1,-6.028599739E0,4.410119534E0,6.090848923E0
3.337132540E-1,-6.009446144E0,4.398148537E0,6.114790916E0
3.357277210E-1,-6.004657745E0,4.388571739E0,6.121973515E0
3.377121090E-1,-5.992686749E0,4.386177540E0,6.136339188E0
3.397258830E-1,-5.990292549E0,4.364629745E0,6.169857979E0
3.417398110E-1,-5.995080948E0,4.338293552E0,6.191405773E0
3.437231220E-1,-6.011840343E0,4.321534157E0,6.208165169E0
3.457376650E-1,-6.009446144E0,4.309563160E0,6.212953568E0
3.477204390E-1,-6.004657745E0,4.314351559E0,6.227318764E0
3.497357510E-1,-5.995080948E0,4.314351559E0,6.234501362E0
3.517194470E-1,-5.973533154E0,4.311957359E0,6.256049156E0
3.537320670E-1,-5.940014362E0,4.323928356E0,6.284779549E0
3.557166870E-1,-5.913678169E0,4.307168961E0,6.296750546E0
3.577315370E-1,-5.889736176E0,4.316745758E0,6.299144745E0
3.597148500E-1,-5.815515995E0,4.328716755E0,6.301538944E0
3.617281610E-1,-5.762843609E0,4.357447147E0,6.313509941E0
3.637120880E-1,-5.731719017E0,4.362235546E0,6.325480938E0
3.657237860E-1,-5.669469833E0,4.395754337E0,6.332663536E0
3.677397900E-1,-5.607220173E0,4.429273129E0,6.318298340E0
3.697244090E-1,-5.573701382E0,4.448426723E0,6.320692539E0
3.717385680E-1,-5.509057999E0,4.489128113E0,6.327875137E0
3.737231870E-1,-5.465962410E0,4.529829502E0,6.318298340E0
3.757364220E-1,-5.444414616E0,4.541800499E0,6.308721542E0
3.777205030E-1,-5.384559631E0,4.587290287E0,6.320692539E0
3.797340470E-1,-5.360617638E0,4.606443882E0,6.325480938E0
3.817174350E-1,-5.310339451E0,4.616020679E0,6.325480938E0
3.837321320E-1,-5.248090267E0,4.637568474E0,6.337451935E0
3.857158290E-1,-5.212177277E0,4.651933670E0,6.349422932E0
3.877294480E-1,-5.164293289E0,4.663905144E0,6.356605530E0
3.897137600E-1,-5.118803024E0,4.683058739E0,6.370970726E0
3.917278420E-1,-5.114014626E0,4.690241337E0,6.378153324E0
3.937106920E-1,-5.092466831E0,4.709394932E0,6.418854713E0
3.957254650E-1,-5.058948040E0,4.695029736E0,6.454767704E0
3.977401630E-1,-5.058948040E0,4.695029736E0,6.469132900E0
3.997232430E-1,-5.056553841E0,4.704606533E0,6.519411087E0
4.017367860E-1,-5.049371243E0,4.709394932E0,6.576871872E0
4.037208680E-1,-5.051765442E0,4.704606533E0,6.607996464E0
4.057341030E-1,-5.066130638E0,4.695029736E0,6.658275127E0
4.077199530E-1,-5.092466831E0,4.671087742E0,6.682217121E0
4.097331120E-1,-5.099649429E0,4.678270340E0,6.689399719E0
4.117161930E-1,-5.154716492E0,4.685452938E0,6.694188118E0
4.137306580E-1,-5.183446884E0,4.687847137E0,6.703764915E0
4.157144320E-1,-5.233725071E0,4.680664539E0,6.722918510E0
4.177292060E-1,-5.267243862E0,4.695029736E0,6.742072105E0
4.197122100E-1,-5.295974255E0,4.699818134E0,6.746860504E0
4.217258300E-1,-5.355829239E0,4.726154327E0,6.756437302E0
4.237402950E-1,-5.422866821E0,4.766855717E0,6.749254704E0
4.257255300E-1,-5.444414616E0,4.781220913E0,6.742072105E0
4.277380740E-1,-5.482721806E0,4.805162907E0,6.742072105E0
4.297217700E-1,-5.523423195E0,4.836287498E0,6.720524311E0
4.317368510E-1,-5.544970989E0,4.862623692E0,6.727706909E0
4.337197020E-1,-5.588066578E0,4.910507679E0,6.720524311E0
4.357344750E-1,-5.628767967E0,4.946420670E0,6.713341713E0
4.377184020E-1,-5.640739441E0,4.965574265E0,6.694188118E0
4.397319460E-1,-5.676652431E0,4.996698856E0,6.679822922E0
4.417154110E-1,-5.683835030E0,5.015852451E0,6.631938934E0
4.437298770E-1,-5.700594425E0,5.025429249E0,6.610390663E0
4.457125740E-1,-5.712565422E0,5.075707436E0,6.574477673E0
4.477261940E-1,-5.707777023E0,5.097255230E0,6.560112476E0
4.497418900E-1,-5.702988625E0,5.094861031E0,6.533776283E0
4.517249720E-1,-5.705382824E0,5.128379822E0,6.543353081E0
4.537388220E-1,-5.700594425E0,5.133168221E0,6.548141479E0
4.557227490E-1,-5.671864033E0,5.140350819E0,6.562506676E0
4.577376000E-1,-5.623979568E0,5.185841084E0,6.569689274E0
4.597212200E-1,-5.614402771E0,5.202600479E0,6.572083473E0
4.617345310E-1,-5.595249176E0,5.228936672E0,6.588842869E0
4.637184600E-1,-5.571307182E0,5.250484467E0,6.579266071E0
4.657330020E-1,-5.554547787E0,5.272032261E0,6.564900875E0
4.677153910E-1,-5.521028996E0,5.300762653E0,6.574477673E0
4.697305490E-1,-5.497087002E0,5.327098846E0,6.615179062E0
4.717145530E-1,-5.487510204E0,5.334281445E0,6.641515732E0
4.737284040E-1,-5.437232018E0,5.343858242E0,6.660669327E0
4.757117160E-1,-5.418078423E0,5.365406036E0,6.641515732E0
4.777271050E-1,-5.382165432E0,5.370194435E0,6.617573261E0
4.797400320E-1,-5.334281445E0,5.384559631E0,6.584054470E0
4.817237290E-1,-5.322310448E0,5.391742229E0,6.569689274E0
4.837385030E-1,-5.312733650E0,5.403713226E0,6.562506676E0
4.857212760E-1,-5.307945251E0,5.384559631E0,6.555324078E0
4.877364350E-1,-5.303156853E0,5.391742229E0,6.557718277E0
4.897200540E-1,-5.312733650E0,5.394136429E0,6.548141479E0
4.917330580E-1,-5.331887245E0,5.386953831E0,6.533776283E0
4.937176770E-1,-5.336675644E0,5.386953831E0,6.509834290E0
4.957320670E-1,-5.353435040E0,5.379771233E0,6.466738701E0
4.977164560E-1,-5.377377033E0,5.382165432E0,6.430825710E0
4.997293830E-1,-5.379771233E0,5.386953831E0,6.411672115E0
5.017127720E-1,-5.360617638E0,5.394136429E0,6.382941723E0
5.037272380E-1,-5.341464043E0,5.396530628E0,6.368576527E0
5.057118570E-1,-5.341464043E0,5.401319027E0,6.358999729E0
5.077250930E-1,-5.331887245E0,5.401319027E0,6.320692539E0
5.097385590E-1,-5.324704647E0,5.425261021E0,6.291962147E0
5.117234860E-1,-5.305551052E0,5.430049419E0,6.272808552E0
5.137371060E-1,-5.288791656E0,5.427655220E0,6.222530365E0
5.157207250E-1,-5.279214859E0,5.427655220E0,6.196194172E0
5.177348830E-1,-5.267243862E0,5.432443619E0,6.143521786E0
5.197188880E-1,-5.233725071E0,5.434837818E0,6.112396717E0
5.217322000E-1,-5.231330872E0,5.446808815E0,6.105214119E0
5.237158190E-1,-5.207388878E0,5.453991413E0,6.071695328E0
5.257293630E-1,-5.204994678E0,5.434837818E0,6.014234543E0
5.277155980E-1,-5.190629482E0,5.437232018E0,5.990292549E0
5.297279090E-1,-5.176264286E0,5.446808815E0,5.961562157E0
5.317124530E-1,-5.145139217E0,5.449203014E0,5.935225964E0
5.337260720E-1,-5.140350819E0,5.451597214E0,5.911283970E0
5.357399220E-1,-5.123591423E0,5.446808815E0,5.863399982E0
5.377245430E-1,-5.114014626E0,5.489904404E0,5.832275391E0
5.397377010E-1,-5.114014626E0,5.504269600E0,5.825092793E0
5.417217820E-1,-5.099649429E0,5.516240597E0,5.808333397E0
5.437352480E-1,-5.094861031E0,5.523423195E0,5.801150799E0
5.457205600E-1,-5.082890034E0,5.537788391E0,5.750872612E0
5.477340250E-1,-5.078101635E0,5.564124584E0,5.714959621E0
5.497171840E-1,-5.085284233E0,5.566518784E0,5.698200226E0
5.517318800E-1,-5.073313236E0,5.607220173E0,5.710171223E0
5.537152690E-1,-5.051765442E0,5.626373768E0,5.750872612E0
5.557295050E-1,-5.027823448E0,5.638344765E0,5.801150799E0
5.577137400E-1,-4.996698856E0,5.628767967E0,5.928043365E0
5.597278980E-1,-4.939238071E0,5.631162167E0,6.045359135E0
5.617112870E-1,-4.900930882E0,5.640739441E0,6.078877926E0
5.637245220E-1,-4.855441093E0,5.633556366E0,6.119579315E0
5.657393720E-1,-4.824316502E0,5.614402771E0,6.112396717E0
5.677239920E-1,-4.805162907E0,5.602431774E0,6.098031521E0
5.697371500E-1,-4.771644115E0,5.568912983E0,6.078877926E0
5.717196930E-1,-4.742913723E0,5.528211594E0,6.095637321E0
5.737347750E-1,-4.738125324E0,5.528211594E0,6.110002518E0
5.757180860E-1,-4.740519524E0,5.489904404E0,6.157886982E0
5.777332440E-1,-4.726154327E0,5.473145008E0,6.169857979E0
5.797163260E-1,-4.707000732E0,5.449203014E0,6.220136166E0
5.817304070E-1,-4.685452938E0,5.415684223E0,6.253654957E0
5.837138730E-1,-4.683058739E0,5.406107426E0,6.284779549E0
5.857286470E-1,-4.683058739E0,5.374982834E0,6.344634533E0
5.877116510E-1,-4.671087742E0,5.358223438E0,6.382941723E0
5.897255780E-1,-4.659116745E0,5.348646641E0,6.404489517E0
5.917397370E-1,-4.644751072E0,5.346252441E0,6.452373505E0
5.937240490E-1,-4.625597477E0,5.329493046E0,6.485892296E0
5.957375910E-1,-4.618414879E0,5.317522049E0,6.497863293E0
5.977227500E-1,-4.599261284E0,5.307945251E0,6.540958881E0
5.997356770E-1,-4.620809078E0,5.293580055E0,6.596025467E0
6.017188350E-1,-4.623203278E0,5.284003258E0,6.617573261E0
6.037335320E-1,-4.596867085E0,5.255272865E0,6.658275127E0
6.057163820E-1,-4.565742493E0,5.209783077E0,6.725312710E0
6.077310790E-1,-4.565742493E0,5.202600479E0,6.758831501E0
6.097154670E-1,-4.541800499E0,5.147533417E0,6.821080685E0
6.117290110E-1,-4.525041103E0,5.133168221E0,6.845022678E0
6.137126300E-1,-4.472368717E0,5.097255230E0,6.904877663E0
6.157267880E-1,-4.434061527E0,5.042188644E0,6.940790653E0
6.177419470E-1,-4.417302132E0,5.008669853E0,6.952761650E0
6.197246430E-1,-4.376600742E0,4.970362663E0,6.991068840E0
6.217388780E-1,-4.331110954E0,4.929661274E0,7.046135426E0
6.237222670E-1,-4.321534157E0,4.910507679E0,7.065289021E0
6.257379640E-1,-4.276044369E0,4.857835293E0,7.103596210E0
6.277206600E-1,-4.252102375E0,4.802768707E0,7.134721279E0
6.297339730E-1,-4.247313976E0,4.781220913E0,7.141903877E0
6.317185920E-1,-4.235342979E0,4.757278919E0,7.146692276E0
6.337320580E-1,-4.242525578E0,4.723760128E0,7.163451672E0
6.357160630E-1,-4.240131378E0,4.709394932E0,7.184999466E0
6.377308360E-1,-4.240131378E0,4.685452938E0,7.232883453E0
6.397139940E-1,-4.244919777E0,4.647145271E0,7.261613846E0
6.417286910E-1,-4.244919777E0,4.642356873E0,7.321468830E0
6.437112340E-1,-4.242525578E0,4.606443882E0,7.388506413E0
6.457256220E-1,-4.232948780E0,4.592078686E0,7.424419403E0
6.477404730E-1,-4.209006786E0,4.582501888E0,7.426813602E0
6.497235540E-1,-4.182670593E0,4.565742493E0,7.412448406E0
6.517370200E-1,-4.153939724E0,4.556165695E0,7.400477409E0
6.537213320E-1,-4.122815132E0,4.565742493E0,7.395689011E0
6.557349520E-1,-4.082113743E0,4.556165695E0,7.433996201E0
6.577201870E-1,-4.048594952E0,4.553771496E0,7.460332394E0
6.597334220E-1,-3.995922565E0,4.563348293E0,7.496245384E0
6.617179650E-1,-3.931279182E0,4.577713490E0,7.484274387E0
6.637312000E-1,-3.885789394E0,4.582501888E0,7.469909191E0
6.657152050E-1,-3.835511208E0,4.616020679E0,7.398083210E0
6.677291320E-1,-3.794809580E0,4.637568474E0,7.297526836E0
6.697124430E-1,-3.770867586E0,4.644751072E0,7.247248650E0
6.717266790E-1,-3.727771997E0,4.683058739E0,7.163451672E0
6.737411450E-1,-3.722983599E0,4.692635536E0,7.084442616E0
6.757250720E-1,-3.720589399E0,4.683058739E0,7.041347027E0
6.777396150E-1,-3.703830004E0,4.680664539E0,6.991068840E0
6.797226190E-1,-3.694253206E0,4.675876141E0,6.955155849E0
6.817367770E-1,-3.672705412E0,4.651933670E0,6.895300865E0
6.837202440E-1,-3.682282209E0,4.613626480E0,6.794744492E0
6.857316320E-1,-3.694253206E0,4.594472885E0,6.751648903E0
6.877180210E-1,-3.722983599E0,4.570530891E0,6.698976517E0
6.897322570E-1,-3.732560396E0,4.529829502E0,6.663063526E0
6.917155680E-1,-3.749319792E0,4.513070107E0,6.651092529E0
6.937301110E-1,-3.756502390E0,4.443638325E0,6.639121532E0
6.957134240E-1,-3.775655985E0,4.410119534E0,6.607996464E0
6.977281970E-1,-3.790021181E0,4.376600742E0,6.603208065E0
6.997109700E-1,-3.804386616E0,4.345476151E0,6.596025467E0
7.017252060E-1,-3.845088005E0,4.319139957E0,6.586448669E0
7.037395940E-1,-3.852270603E0,4.299986362E0,6.574477673E0
7.057236750E-1,-3.861847401E0,4.268861771E0,6.560112476E0
7.077377570E-1,-3.857059002E0,4.264073372E0,6.550535679E0
7.097211460E-1,-3.859453201E0,4.244919777E0,6.531382084E0
7.117356110E-1,-3.857059002E0,4.228160381E0,6.524199486E0
7.137193850E-1,-3.840299606E0,4.235342979E0,6.519411087E0
7.157337740E-1,-3.828328609E0,4.244919777E0,6.524199486E0
7.177172400E-1,-3.813963413E0,4.266467571E0,6.519411087E0
7.197310130E-1,-3.813963413E0,4.288015366E0,6.545747280E0
7.217144030E-1,-3.792415380E0,4.321534157E0,6.591237068E0
7.237283300E-1,-3.770867586E0,4.374206543E0,6.610390663E0
7.257122570E-1,-3.756502390E0,4.386177540E0,6.615179062E0
7.277282620E-1,-3.722983599E0,4.405331135E0,6.629544735E0
7.297114200E-1,-3.687070608E0,4.465186119E0,6.641515732E0
7.317237310E-1,-3.667917013E0,4.479551315E0,6.651092529E0
7.337378900E-1,-3.634398222E0,4.527435303E0,6.643909931E0
7.357221250E-1,-3.622427225E0,4.575319290E0,6.648698330E0
7.377372060E-1,-3.608062029E0,4.589684486E0,6.648698330E0
7.397199800E-1,-3.598485231E0,4.627991676E0,6.653486729E0
7.417339070E-1,-3.608062029E0,4.644751072E0,6.658275127E0
7.437178340E-1,-3.610456228E0,4.683058739E0,6.663063526E0
7.457323010E-1,-3.622427225E0,4.702212334E0,6.653486729E0
7.477156900E-1,-3.622427225E0,4.702212334E0,6.636727333E0
7.497298470E-1,-3.651157618E0,4.730942726E0,6.629544735E0
7.517139290E-1,-3.675099611E0,4.721365929E0,6.653486729E0
7.537277030E-1,-3.677493811E0,4.709394932E0,6.665457726E0
7.557108600E-1,-3.691859007E0,4.714183331E0,6.739677906E0
7.577268650E-1,-3.701435804E0,4.683058739E0,6.904877663E0
7.597394850E-1,-3.703830004E0,4.663905144E0,6.998251438E0
7.617231810E-1,-3.713406801E0,4.611232281E0,7.149086475E0
7.637378780E-1,-3.694253206E0,4.577713490E0,7.184999466E0
7.657204210E-1,-3.696647406E0,4.563348293E0,7.153874874E0
7.677345790E-1,-3.679888010E0,4.558559895E0,6.988674641E0
7.697191990E-1,-3.672705412E0,4.582501888E0,6.787561893E0
7.717327420E-1,-3.639186621E0,4.592078686E0,6.706159115E0
7.737172840E-1,-3.579331636E0,4.620809078E0,6.622362137E0
7.757305970E-1,-3.552995205E0,4.642356873E0,6.627150536E0
7.777154470E-1,-3.473986626E0,4.668693542E0,6.677428722E0
7.797286820E-1,-3.392583847E0,4.680664539E0,6.715735912E0
7.817123790E-1,-3.356670856E0,4.709394932E0,6.727706909E0
7.837263060E-1,-3.311181068E0,4.754884720E0,6.691793919E0
7.857401560E-1,-3.287238836E0,4.790797710E0,6.598419666E0
7.877240840E-1,-3.272873640E0,4.812345505E0,6.536170483E0
7.897382420E-1,-3.258508444E0,4.843470097E0,6.392518520E0
7.917222460E-1,-3.265691042E0,4.865017891E0,6.272808552E0
7.937361740E-1,-3.263296843E0,4.865017891E0,6.224924564E0
7.957201780E-1,-3.260902643E0,4.884171486E0,6.131550789E0
7.977351820E-1,-3.246537447E0,4.896142483E0,6.069301128E0
7.997177260E-1,-3.246537447E0,4.905719280E0,6.054935932E0
8.017315760E-1,-3.217807055E0,4.893748283E0,6.030993938E0
8.037152720E-1,-3.203441858E0,4.905719280E0,6.021417141E0
8.057293540E-1,-3.181894064E0,4.917690277E0,6.023811340E0
8.077136660E-1,-3.165134668E0,4.946420670E0,6.014234543E0
8.097278240E-1,-3.162740469E0,4.963180065E0,6.016628742E0
8.117112130E-1,-3.160346270E0,4.970362663E0,6.011840343E0
8.137256790E-1,-3.179499865E0,5.013458252E0,5.990292549E0
8.157398370E-1,-3.186682463E0,5.023035049E0,5.985504150E0
8.177251490E-1,-3.203441858E0,5.061342239E0,5.966350555E0
8.197374610E-1,-3.220201254E0,5.121197224E0,5.961562157E0
8.217216960E-1,-3.227383852E0,5.149928093E0,5.951985359E0
8.237355470E-1,-3.272873640E0,5.195417881E0,5.942408562E0
8.257198590E-1,-3.306392431E0,5.243301868E0,5.956773758E0
8.277328630E-1,-3.327940464E0,5.269638062E0,5.959167957E0
8.297165590E-1,-3.373430252E0,5.303156853E0,5.961562157E0
8.317307180E-1,-3.394978046E0,5.346252441E0,5.949591160E0
8.337147220E-1,-3.414131641E0,5.358223438E0,5.951985359E0
8.357285720E-1,-3.435679436E0,5.379771233E0,5.928043365E0
8.377125000E-1,-3.445256233E0,5.382165432E0,5.906495571E0
8.397267350E-1,-3.459621429E0,5.384559631E0,5.858611584E0
8.417402770E-1,-3.457227230E0,5.379771233E0,5.825092793E0
8.437248210E-1,-3.454833031E0,5.379771233E0,5.803544998E0
8.457352860E-1,-3.438073635E0,5.351040840E0,5.741295815E0
8.477209060E-1,-3.416525841E0,5.312733650E0,5.686229229E0
8.497365260E-1,-3.409343243E0,5.293580055E0,5.662287235E0
8.517202230E-1,-3.383007050E0,5.245696068E0,5.616796970E0
8.537337650E-1,-3.339911461E0,5.197812080E0,5.604825974E0
8.557178470E-1,-3.323152065E0,5.183446884E0,5.592854977E0
8.577335430E-1,-3.282450438E0,5.116408825E0,5.585672379E0
8.597153930E-1,-3.248931646E0,5.070919037E0,5.600037575E0
8.617295520E-1,-3.234566450E0,5.039794445E0,5.614402771E0
8.637131720E-1,-3.213018656E0,4.979939461E0,5.647922039E0
8.657280220E-1,-3.177105665E0,4.927267075E0,5.669469833E0
8.677116420E-1,-3.167528868E0,4.903325081E0,5.698200226E0
8.697249540E-1,-3.160346270E0,4.843470097E0,5.750872612E0
8.717399580E-1,-3.155557871E0,4.809951305E0,5.786785603E0
8.737230400E-1,-3.129221678E0,4.750096321E0,5.865794182E0
8.757368900E-1,-3.095702887E0,4.690241337E0,5.968744755E0
8.777215860E-1,-3.088520288E0,4.659116745E0,6.026205540E0
8.797353600E-1,-3.071760893E0,4.632780075E0,6.148310184E0
8.817188260E-1,-3.069366693E0,4.587290287E0,6.268020153E0
8.837325990E-1,-3.059789658E0,4.565742493E0,6.323086739E0
8.857154500E-1,-3.035847664E0,4.527435303E0,6.449979305E0
8.877311470E-1,-3.014299870E0,4.491522312E0,6.579266071E0
8.897148430E-1,-2.990357876E0,4.477157116E0,6.643909931E0
8.917280020E-1,-2.966415882E0,4.446032524E0,6.758831501E0
8.937120060E-1,-2.923320293E0,4.410119534E0,6.871358871E0
8.957262410E-1,-2.906560898E0,4.390965939E0,6.933608055E0
8.977416300E-1,-2.863465309E0,4.357447147E0,7.043741226E0
8.997243270E-1,-2.844311714E0,4.328716755E0,7.146692276E0
9.017385610E-1,-2.806004286E0,4.304774761E0,7.187393665E0
9.037218740E-1,-2.767697096E0,4.232948780E0,7.273584843E0
9.057363400E-1,-2.748543501E0,4.201824188E0,7.319074631E0
9.077194970E-1,-2.729389906E0,4.156333923E0,7.381323814E0
9.097332720E-1,-2.686294317E0,4.110844135E0,7.422025204E0
9.117179680E-1,-2.659958124E0,4.098873138E0,7.450755596E0
9.137317410E-1,-2.628833532E0,4.031835556E0,7.501033783E0
9.157151310E-1,-2.592920542E0,3.971980572E0,7.565677166E0
9.177296730E-1,-2.568978310E0,3.950432777E0,7.601590633E0
9.197132930E-1,-2.549824715E0,3.885789394E0,7.651868820E0
9.217271440E-1,-2.523488522E0,3.830722809E0,7.704541206E0
9.237410710E-1,-2.511517525E0,3.813963413E0,7.750030994E0
9.257244600E-1,-2.494758129E0,3.768473387E0,7.829039574E0
9.277385420E-1,-2.485181332E0,3.720589399E0,7.900865555E0
9.297231610E-1,-2.473210335E0,3.684676409E0,7.948749542E0
9.317376260E-1,-2.444479942E0,3.622427225E0,8.034940720E0
9.337207070E-1,-2.434903145E0,3.562572241E0,8.073247910E0
9.357339430E-1,-2.439691544E0,3.529053211E0,8.147468567E0
9.377195630E-1,-2.430114746E0,3.459621429E0,8.216899872E0
9.397331050E-1,-2.422932148E0,3.433285236E0,8.255207062E0
9.417164180E-1,-2.422932148E0,3.380612850E0,8.307879448E0
9.437302680E-1,-2.430114746E0,3.325546265E0,8.372523308E0
9.457151950E-1,-2.442085743E0,3.287238836E0,8.394071579E0
9.477281230E-1,-2.458845139E0,3.241749048E0,8.453926086E0
9.497122040E-1,-2.499546528E0,3.203441858E0,8.523358345E0
9.517262850E-1,-2.511517525E0,3.167528868E0,8.559270859E0
9.537398280E-1,-2.528276920E0,3.112462282E0,8.623914719E0
9.557239090E-1,-2.542642117E0,3.052607059E0,8.705317497E0
9.577389130E-1,-2.554613113E0,3.026270866E0,8.736441612E0
9.597223030E-1,-2.559401512E0,2.978386879E0,8.815450668E0
9.617352300E-1,-2.576161146E0,2.920926094E0,8.901641846E0
9.637198490E-1,-2.578555346E0,2.882618904E0,8.935160637E0
9.657328540E-1,-2.583343744E0,2.813186884E0,8.978256226E0
9.677180890E-1,-2.600103140E0,2.786850691E0,9.004592896E0
9.697321700E-1,-2.614468336E0,2.722207308E0,9.066842079E0
9.717146370E-1,-2.614468336E0,2.626439333E0,9.136273384E0
9.737297940E-1,-2.619256735E0,2.597708941E0,9.160215378E0
9.757128750E-1,-2.619256735E0,2.521094322E0,9.210494041E0
9.777279570E-1,-2.631227732E0,2.434903145E0,9.248801231E0
9.797104230E-1,-2.633621931E0,2.403778553E0,9.265560150E0
9.817248880E-1,-2.616862535E0,2.334346771E0,9.306262016E0
9.837386630E-1,-2.612074137E0,2.274491549E0,9.330204010E0
9.857232820E-1,-2.597708941E0,2.233790159E0,9.346963882E0
9.877371320E-1,-2.552218914E0,2.154781580E0,9.387664795E0
9.897214450E-1,-2.535459518E0,2.068590164E0,9.414001465E0
9.917344490E-1,-2.513911724E0,2.037465572E0,9.433155060E0
9.937178380E-1,-2.454056740E0,1.953668594E0,9.476250648E0
9.957323040E-1,-2.382230759E0,1.879448295E0,9.519346237E0
9.977171540E-1,-2.346317768E0,1.850717902E0,9.538499832E0
9.997310810E-1,-2.267308950E0,1.800439715E0,9.605537415E0
1.001713856E0,-2.248155355E0,1.774103403E0,9.636661530E0
1.003728013E0,-2.188300371E0,1.699883223E0,9.696516991E0
1.005711094E0,-2.114080191E0,1.644816518E0,9.744400978E0
1.007725253E0,-2.075772762E0,1.623268723E0,9.780313492E0
1.009740642E0,-2.003946781E0,1.563413739E0,9.847352028E0
1.011724030E0,-1.941697598E0,1.498770237E0,9.892841339E0
1.013738189E0,-1.898601890E0,1.486799240E0,9.916783333E0
1.015721270E0,-1.843535304E0,1.450886250E0,9.967061996E0
1.017736351E0,-1.788468719E0,1.405396342E0,1.002212811E1
1.019719356E0,-1.769315004E0,1.383848548E0,1.003409958E1
1.021734437E0,-1.685518026E0,1.338358760E0,1.006043530E1
1.023717518E0,-1.604115129E0,1.312022567E0,1.007480049E1
1.025731369E0,-1.580173135E0,1.290474772E0,1.007240677E1
1.027715142E0,-1.508347034E0,1.252167463E0,1.007958889E1
1.029728608E0,-1.472434044E0,1.216254473E0,1.008198357E1
1.031713613E0,-1.405396342E0,1.185129881E0,1.009395409E1
1.033726848E0,-1.335964561E0,1.156399369E0,1.010592556E1
1.035741621E0,-1.292868972E0,1.137245774E0,1.011071396E1
1.037725549E0,-1.235408068E0,1.098938584E0,1.014183807E1
1.039739476E0,-1.180341482E0,1.051054597E0,1.019451046E1
1.041722865E0,-1.149216771E0,1.039083481E0,1.021605873E1
1.043736716E0,-1.106121182E0,1.039083481E0,1.025675964E1
1.045719797E0,-1.060631394E0,1.039083481E0,1.029746151E1
1.047735724E0,-1.036689281E0,1.048660398E0,1.033098030E1
1.049718574E0,-1.005564690E0,1.079784989E0,1.039562416E1
1.051732041E0,-9.792284966E-1,1.139639974E0,1.048181534E1
1.053715737E0,-9.552865028E-1,1.173158884E0,1.052012253E1
1.055730895E0,-8.978256583E-1,1.240196466E0,1.060391903E1
1.057714515E0,-8.355764151E-1,1.347935557E0,1.071884060E1
1.059728365E0,-8.116343617E-1,1.383848548E0,1.076672459E1
1.061712062E0,-7.134721279E-1,1.503558636E0,1.087685871E1
1.063725913E0,-6.703764796E-1,1.608903527E0,1.094389629E1
1.065741071E0,-5.865794420E-1,1.659181833E0,1.109233665E1
1.067724152E0,-5.075707436E-1,1.752555609E0,1.123359394E1
1.069738310E0,-4.668693244E-1,1.798045516E0,1.129823780E1
1.071722237E0,-3.687070608E-1,1.900996208E0,1.143949604E1
1.073735242E0,-2.944868207E-1,1.987187386E0,1.156159973E1
1.075719170E0,-2.585737705E-1,2.032677174E0,1.163821411E1
1.077734020E0,-2.082955539E-1,2.090138197E0,1.178904915E1
1.079717331E0,-1.364694983E-1,2.164358377E0,1.192073059E1
1.081730644E0,-1.077390760E-1,2.188300371E0,1.198058510E1
1.083714033E0,-5.506663769E-2,2.226607561E0,1.212423706E1
1.085728498E0,-2.394201607E-2,2.238578558E0,1.226070690E1
1.087712503E0,-1.197100803E-2,2.231395960E0,1.230140877E1
1.089727507E0,2.394201700E-3,2.202665567E0,1.237084007E1
1.091741127E0,1.436521020E-2,2.154781580E0,1.242830086E1
1.093724439E0,1.436521020E-2,2.130839586E0,1.244745445E1
1.095738674E0,-9.576806799E-3,2.068590164E0,1.247139645E1
1.097723601E0,-1.915361360E-2,2.035071373E0,1.247379112E1
1.099736452E0,-1.915361360E-2,1.958456993E0,1.247618484E1
1.101720456E0,-5.506663769E-2,1.867477298E0,1.249055004E1
1.103734383E0,-6.943184882E-2,1.793257117E0,1.250252151E1
1.105718619E0,-8.619125932E-2,1.668758631E0,1.251688671E1
1.107733393E0,-1.077390760E-1,1.565807939E0,1.250252151E1
1.109715935E0,-1.173158810E-1,1.496376038E0,1.249055004E1
1.111731325E0,-1.484405100E-1,1.381454349E0,1.244266605E1
1.113714021E0,-1.819593310E-1,1.264138460E0,1.238281155E1
1.115728179E0,-1.939303428E-1,1.201889277E0,1.234929276E1
1.117742415E0,-2.130839527E-1,1.098938584E0,1.228225517E1
1.119726111E0,-2.537853718E-1,1.005564690E0,1.223437023E1
1.121739961E0,-2.609679997E-1,9.696516991E-1,1.220563984E1
1.123723581E0,-2.561795712E-1,8.690952063E-1,1.214339066E1
1.125736585E0,-2.944868207E-1,7.948749661E-1,1.205719948E1
1.127722436E0,-3.184288144E-1,7.733271718E-1,1.199973869E1
1.129735287E0,-3.471592367E-1,7.182605267E-1,1.189918232E1
1.131718752E0,-3.567360640E-1,6.847416759E-1,1.184890461E1
1.133733218E0,-3.543418646E-1,6.033388376E-1,1.175074196E1
1.135716607E0,-3.854664862E-1,5.410895944E-1,1.165497398E1
1.137732304E0,-3.878606856E-1,5.147533417E-1,1.159990692E1
1.139714692E0,-3.830722570E-1,4.740519226E-1,1.149935055E1
1.141729159E0,-3.639186621E-1,4.261679053E-1,1.138921738E1
1.143712932E0,-3.495534360E-1,4.022258818E-1,1.132457447E1
1.145727090E0,-3.351882398E-1,3.687070608E-1,1.117613316E1
1.147741172E0,-3.088520169E-1,3.303998411E-1,1.103966427E1
1.149724330E0,-2.944868207E-1,3.016694188E-1,1.097980881E1
1.151739026E0,-2.729389966E-1,2.561795712E-1,1.085291672E1
1.153722722E0,-2.489969730E-1,2.082955539E-1,1.072841740E1
1.155737266E0,-2.322375625E-1,1.795651317E-1,1.066137981E1
1.157720654E0,-1.867477298E-1,1.460463107E-1,1.052491093E1
1.159734121E0,-1.771709323E-1,1.053448766E-1,1.040759468E1
1.161717817E0,-1.532289088E-1,8.140286058E-2,1.034534550E1
1.163732591E0,-1.221042871E-1,3.830722719E-2,1.026394272E1
1.165714748E0,-1.029506698E-1,7.182605099E-3,1.021845245E1
1.167729215E0,-8.379705995E-2,-3.351882473E-2,1.014183807E1
1.169714142E0,-5.027823523E-2,-9.337386489E-2,1.007719517E1
1.171728377E0,-2.633621916E-2,-1.029506698E-1,1.005564690E1
1.173711766E0,1.197100803E-2,-1.292868853E-1,1.005325317E1
1.175725617E0,3.591302410E-2,-1.651999205E-1,1.006282997E1
1.177740928E0,5.267243832E-2,-1.771709323E-1,1.007480049E1
1.179723472E0,6.464344263E-2,-2.274491638E-1,1.012268448E1
1.181737937E0,7.661445439E-2,-2.633621991E-1,1.018732834E1
1.183721249E0,9.576806426E-2,-2.657563984E-1,1.022324085E1
1.185735485E0,1.244984865E-1,-2.992752194E-1,1.028549004E1
1.187719104E0,1.244984865E-1,-3.375824392E-1,1.034295177E1
1.189732954E0,1.388636976E-1,-3.447650373E-1,1.035492229E1
1.191717036E0,1.580173075E-1,-3.711012602E-1,1.036689377E1
1.193730809E0,1.628057212E-1,-4.022258818E-1,1.037886429E1
1.195714506E0,1.699883193E-1,-4.141969085E-1,1.040759468E1
1.197730203E0,2.154781520E-1,-4.022258818E-1,1.041717148E1
1.199713284E0,2.394201756E-1,-3.998316824E-1,1.041956615E1
1.201726903E0,2.585737705E-1,-3.878606856E-1,1.044590187E1
1.203740678E0,3.064578176E-1,-3.806780577E-1,1.046266174E1
1.205724066E0,3.327940404E-1,-3.711012602E-1,1.047702694E1
1.207739763E0,3.902548850E-1,-3.447650373E-1,1.050815105E1
1.209722614E0,4.357447028E-1,-3.208230138E-1,1.051772785E1
1.211735849E0,4.548983276E-1,-3.160346150E-1,1.052012253E1
1.213720160E0,5.003881454E-1,-2.777273953E-1,1.049857426E1
1.215734550E0,5.458779931E-1,-2.657563984E-1,1.049857426E1
1.217718554E0,5.746083856E-1,-2.537853718E-1,1.048660374E1
1.219732481E0,5.913678408E-1,-1.843535304E-1,1.046266174E1
1.221715794E0,6.129156351E-1,-1.580173075E-1,1.045547867E1
1.223729644E0,6.224924326E-1,-1.460463107E-1,1.045069027E1
1.225713725E0,6.248866320E-1,-1.221042871E-1,1.045069027E1
1.227727807E0,6.368576288E-1,-8.379705995E-2,1.045069027E1
1.229741349E0,6.607996821E-1,-7.422025502E-2,1.045069027E1
1.231725661E0,6.512228847E-1,-4.548983276E-2,1.047463226E1
1.233739512E0,6.512228847E-1,-3.112462163E-2,1.047223854E1
1.235722362E0,6.488286853E-1,-1.436521020E-2,1.047463226E1
1.237738289E0,6.320692301E-1,9.576806799E-3,1.047702694E1
1.239721371E0,6.320692301E-1,1.675941236E-2,1.048420906E1
1.241735221E0,6.536170840E-1,1.197100803E-2,1.049139214E1
1.243718918E0,6.464344859E-1,3.351882473E-2,1.047702694E1
1.245732538E0,6.368576288E-1,2.633621916E-2,1.046984386E1
1.247715542E0,6.440402865E-1,3.351882473E-2,1.047702694E1
1.249730931E0,6.320692301E-1,6.703764945E-2,1.049857426E1
1.251715243E0,6.320692301E-1,8.140286058E-2,1.050096893E1
1.253729093E0,6.153098345E-1,7.661445439E-2,1.052969933E1
1.255711944E0,6.033388376E-1,9.337386489E-2,1.055842972E1
1.257727333E0,5.937620401E-1,9.576806426E-2,1.057758331E1
1.259740876E0,5.961562395E-1,1.053448766E-1,1.060152531E1
1.261724187E0,6.057330370E-1,1.149216816E-1,1.061589050E1
1.263738346E0,5.578489900E-1,9.576806426E-2,1.064940929E1
1.265723043E0,5.171475410E-1,9.097966552E-2,1.067813969E1
1.267736508E0,5.051765442E-1,8.858546615E-2,1.068771648E1
1.269719666E0,4.692635238E-1,7.900865376E-2,1.070447540E1
1.271734671E0,4.261679053E-1,5.506663769E-2,1.072841740E1
1.273717444E0,4.165911078E-1,4.548983276E-2,1.073799419E1
1.275731602E0,3.806780577E-1,3.112462163E-2,1.075475407E1
1.277716530E0,3.184288144E-1,1.915361360E-2,1.076672459E1
1.279729842E0,2.944868207E-1,1.197100803E-2,1.077390766E1
1.281713154E0,2.561795712E-1,2.394201700E-3,1.075475407E1
1.283727389E0,2.226607651E-1,0.000000000E0,1.075235939E1
1.285742086E0,2.106897533E-1,-7.182605099E-3,1.074278259E1
1.287725782E0,1.771709323E-1,-2.394201700E-3,1.071884060E1
1.289740018E0,1.723825186E-1,-3.351882473E-2,1.071405220E1
1.291722483E0,1.819593310E-1,-4.309562966E-2,1.071884060E1
1.293737256E0,2.035071403E-1,-6.464344263E-2,1.072841740E1
1.295721185E0,2.130839527E-1,-6.943184882E-2,1.073320580E1
1.297735958E0,2.298433632E-1,-1.484405100E-1,1.077151299E1
1.299719039E0,2.561795712E-1,-2.106897533E-1,1.079784966E1
1.301732890E0,2.585737705E-1,-2.585737705E-1,1.081700325E1
1.303716894E0,2.896983922E-1,-3.734954596E-1,1.084812832E1
1.305731436E0,3.232172430E-1,-4.955997467E-1,1.090798283E1
1.307714211E0,3.351882398E-1,-5.602431893E-1,1.094629002E1
1.309728907E0,3.471592367E-1,-6.871358752E-1,1.106121159E1
1.311712680E0,3.615244627E-1,-7.972691655E-1,1.119049835E1
1.313726147E0,3.782838583E-1,-8.427590132E-1,1.126950741E1
1.315740074E0,3.878606856E-1,-9.265560508E-1,1.146343803E1
1.317725616E0,3.567360640E-1,-1.031900883E0,1.170764637E1
1.319738852E0,3.351882398E-1,-1.094150186E0,1.183932781E1
1.321721856E0,2.394201756E-1,-1.206677675E0,1.209790134E1
1.323736014E0,1.747767180E-1,-1.307234168E0,1.232535076E1
1.325719096E0,1.436521020E-2,-1.347935557E0,1.243069553E1
1.327734254E0,-2.274491638E-1,-1.482010841E0,1.242830086E1
1.329717873E0,-2.753331959E-1,-1.455674648E0,1.264138508E1
1.331732109E0,-4.836287498E-1,-1.508347034E0,1.261983681E1
1.333715497E0,-6.584054828E-1,-1.551442742E0,1.255279922E1
1.335729271E0,-7.350199223E-1,-1.568202138E0,1.246421432E1
1.337714891E0,-8.667010069E-1,-1.580173135E0,1.227986050E1
1.339726895E0,-9.217676520E-1,-1.587355733E0,1.208353615E1
1.341741361E0,-9.481038451E-1,-1.577778935E0,1.199016190E1
1.343725289E0,-9.648633003E-1,-1.556231141E0,1.183932781E1
1.345739139E0,-9.313444495E-1,-1.501164436E0,1.174355888E1
1.347722835E0,-9.169792533E-1,-1.472434044E0,1.170285797E1
1.349737071E0,-8.834604025E-1,-1.407790542E0,1.164779091E1
1.351720998E0,-8.690952063E-1,-1.338358760E0,1.157596493E1
1.353734925E0,-8.595184088E-1,-1.295263171E0,1.152329254E1
1.355718853E0,-8.523358107E-1,-1.216254473E0,1.142273617E1
1.357733396E0,-8.523358107E-1,-1.122880578E0,1.136288166E1
1.359716169E0,-8.667010069E-1,-1.079784989E0,1.121683502E1
1.361730251E0,-8.786720037E-1,-9.888052940E-1,1.109473038E1
1.363713947E0,-8.858546019E-1,-9.433154464E-1,1.103726959E1
1.365728182E0,-8.906430602E-1,-8.595184088E-1,1.092713642E1
1.367742956E0,-8.834604025E-1,-7.829039693E-1,1.078348446E1
1.369726960E0,-8.810662031E-1,-7.422025204E-1,1.071165848E1
1.371739503E0,-8.379706144E-1,-7.015010715E-1,1.059673691E1
1.373724738E0,-7.876923680E-1,-6.512228847E-1,1.045547867E1
1.375738281E0,-7.637503147E-1,-6.296750307E-1,1.038365269E1
1.377723208E0,-7.230489254E-1,-6.009446383E-1,1.024957752E1
1.379736136E0,-6.560112834E-1,-5.746083856E-1,1.011071396E1
1.381719832E0,-6.200982332E-1,-5.626373887E-1,1.003170490E1
1.383733452E0,-5.315127969E-1,-5.434837937E-1,9.864110947E0
1.385718686E0,-4.812345505E-1,-5.578489900E-1,9.739612579E0
1.387731230E0,-4.525041282E-1,-5.554547906E-1,9.672574997E0
1.389715234E0,-3.974374831E-1,-5.315127969E-1,9.545681953E0
1.391729699E0,-3.711012602E-1,-5.171475410E-1,9.485827446E0
1.393713397E0,-3.136404157E-1,-4.908113480E-1,9.380482674E0
1.395727632E0,-2.801215947E-1,-4.955997467E-1,9.272743225E0
1.397742636E0,-2.633621991E-1,-4.908113480E-1,9.229647636E0
1.399725410E0,-2.537853718E-1,-4.429273009E-1,9.150638580E0
1.401738722E0,-2.513911724E-1,-4.141969085E-1,9.090784073E0
1.403722418E0,-2.633621991E-1,-3.950432837E-1,9.066842079E0
1.405734115E0,-2.777273953E-1,-3.639186621E-1,9.030928612E0
1.407719965E0,-3.280056417E-1,-3.256114423E-1,8.995016098E0
1.409735046E0,-3.591302633E-1,-3.064578176E-1,8.985439301E0
1.411719051E0,-4.022258818E-1,-2.537853718E-1,8.978256226E0
1.413733209E0,-4.572925270E-1,-2.154781520E-1,8.973467827E0
1.415716290E0,-4.740519226E-1,-1.939303428E-1,8.973467827E0
1.417732218E0,-5.195417404E-1,-1.723825186E-1,8.966285706E0
1.419714453E0,-5.267243981E-1,-1.268926859E-1,8.966285706E0
1.421728303E0,-5.458779931E-1,-1.125274822E-1,8.975862503E0
1.423742462E0,-5.554547906E-1,-8.619125932E-2,8.995016098E0
1.425726389E0,-5.602431893E-1,-8.379705995E-2,9.004592896E0
1.427740547E0,-5.363011956E-1,-6.943184882E-2,9.042900085E0
1.429724013E0,-4.860229492E-1,-4.788403213E-2,9.085995674E0
1.431738710E0,-4.572925270E-1,-5.027823523E-2,9.105149269E0
1.433721252E0,-3.782838583E-1,-7.422025502E-2,9.155426979E0
1.435736334E0,-3.184288144E-1,-1.125274822E-1,9.220070839E0
1.437720338E0,-2.873041928E-1,-1.197100878E-1,9.263166428E0
1.439734111E0,-2.154781520E-1,-1.556231081E-1,9.339780807E0
1.441717270E0,-1.436520964E-1,-1.771709323E-1,9.404424667E0
1.443731659E0,-1.125274822E-1,-1.915361285E-1,9.445125580E0
1.445714509E0,-5.746084079E-2,-1.963245422E-1,9.509769440E0
1.447730129E0,-4.788403399E-3,-2.178723514E-1,9.574412346E0
1.449713826E0,2.394201607E-2,-2.418143749E-1,9.607931137E0
1.451726753E0,6.224924326E-2,-2.681505978E-1,9.674968719E0
1.453740988E0,8.858546615E-2,-2.920926213E-1,9.737217903E0
1.455724377E0,1.221042871E-1,-3.088520169E-1,9.761159897E0
1.457739996E0,1.244984865E-1,-3.327940404E-1,9.844957352E0
1.459722540E0,1.340752989E-1,-3.423708379E-1,9.883264542E0
1.461737544E0,1.268926859E-1,-3.806780577E-1,9.943120003E0
1.463720394E0,1.221042871E-1,-4.213795066E-1,9.993397713E0
1.465736015E0,1.053448766E-1,-4.381389022E-1,1.002691650E1
1.467717634E0,8.140286058E-2,-4.644751251E-1,1.011071396E1
1.469732407E0,1.197100803E-2,-4.932055473E-1,1.019211674E1
1.471716335E0,-2.873042040E-2,-5.051765442E-1,1.023042393E1
1.473730570E0,-1.029506698E-1,-5.458779931E-1,1.029267311E1
1.475714266E0,-1.771709323E-1,-5.698199868E-1,1.034295177E1
1.477728348E0,-2.106897533E-1,-5.674257874E-1,1.037886429E1
1.479742891E0,-2.873041928E-1,-6.081272364E-1,1.044350815E1
1.481726279E0,-3.878606856E-1,-6.248866320E-1,1.049139214E1
1.483741054E0,-4.213795066E-1,-6.320692301E-1,1.051293945E1
1.485722904E0,-4.836287498E-1,-6.655880809E-1,1.054166985E1
1.487737292E0,-5.075707436E-1,-6.751648784E-1,1.055842972E1
1.489721989E0,-5.650315881E-1,-6.799532771E-1,1.054885292E1
1.491736071E0,-6.129156351E-1,-6.775590777E-1,1.053448772E1
1.493719459E0,-6.320692301E-1,-6.847416759E-1,1.052491093E1
1.495733925E0,-6.679822803E-1,-6.967126727E-1,1.048899746E1
1.497718930E0,-6.799532771E-1,-7.062895298E-1,1.046505547E1
1.499731549E0,-6.895300746E-1,-6.991068721E-1,1.044829655E1
1.501715245E0,-7.038952708E-1,-7.062895298E-1,1.041717148E1
1.503729020E0,-7.134721279E-1,-6.991068721E-1,1.038604736E1
1.505714562E0,-7.038952708E-1,-6.943184733E-1,1.036210537E1
1.507727258E0,-6.943184733E-1,-6.751648784E-1,1.029506683E1
1.509741110E0,-6.895300746E-1,-6.584054828E-1,1.023042393E1
1.511725037E0,-6.799532771E-1,-6.488286853E-1,1.019690514E1
1.513739810E0,-6.536170840E-1,-6.344634295E-1,1.014423275E1
1.515722892E0,-6.440402865E-1,-6.129156351E-1,1.006282997E1
1.517737665E0,-6.416460276E-1,-6.057330370E-1,1.002212811E1
1.519720746E0,-6.560112834E-1,-5.793967843E-1,9.959878922E0
1.521734674E0,-6.655880809E-1,-5.578489900E-1,9.931148529E0
1.523718293E0,-6.871358752E-1,-5.315127969E-1,9.852140427E0
1.525732528E0,-6.823474765E-1,-4.955997467E-1,9.792284966E0
1.527716456E0,-6.847416759E-1,-4.860229492E-1,9.761159897E0
1.529730614E0,-7.062895298E-1,-4.596867263E-1,9.684545517E0
1.531713464E0,-7.230489254E-1,-4.405331016E-1,9.619902611E0
1.533728546E0,-7.206547260E-1,-4.333505034E-1,9.595960617E0
1.535741704E0,-7.398083210E-1,-4.070142806E-1,9.552865028E0
1.537726400E0,-7.589619160E-1,-4.070142806E-1,9.507374763E0
1.539740252E0,-7.565677166E-1,-3.902548850E-1,9.500192642E0
1.541724179E0,-7.613561153E-1,-3.782838583E-1,9.478644371E0
1.543737490E0,-7.637503147E-1,-3.734954596E-1,9.464279175E0
1.545722034E0,-7.541735172E-1,-3.734954596E-1,9.464279175E0
1.547735346E0,-7.254431248E-1,-3.806780577E-1,9.459490776E0
1.549719350E0,-7.230489254E-1,-3.806780577E-1,9.452308655E0
1.551733739E0,-7.086837292E-1,-3.854664862E-1,9.454702377E0
1.553717205E0,-6.919242740E-1,-3.902548850E-1,9.476250648E0
1.555730978E0,-6.799532771E-1,-4.022258818E-1,9.490615845E0
1.557715598E0,-6.584054828E-1,-4.118026793E-1,9.509769440E0
1.559729218E0,-6.320692301E-1,-4.309563041E-1,9.540893555E0
1.561712529E0,-6.272808313E-1,-4.333505034E-1,9.552865028E0
1.563726688E0,-6.272808313E-1,-4.453215301E-1,9.579200745E0
1.565737462E0,-6.033388376E-1,-4.261679053E-1,9.624691010E0
1.567723927E0,-5.913678408E-1,-4.309563041E-1,9.651026726E0
1.569738778E0,-5.841852427E-1,-4.716577232E-1,9.686940193E0
1.571723090E0,-5.889736414E-1,-4.764461517E-1,9.720458984E0
1.573736632E0,-5.913678408E-1,-4.764461517E-1,9.742006302E0
1.575720560E0,-5.698199868E-1,-4.596867263E-1,9.780313492E0
1.577735718E0,-5.841852427E-1,-4.764461517E-1,9.828198433E0
1.579717876E0,-5.841852427E-1,-4.812345505E-1,9.844957352E0
1.581732266E0,-6.033388376E-1,-4.932055473E-1,9.900024414E0
1.583715962E0,-6.081272364E-1,-4.788403511E-1,9.921571732E0
1.585731120E0,-6.248866320E-1,-4.788403511E-1,9.959878922E0
1.587713279E0,-6.464344859E-1,-4.716577232E-1,9.993397713E0
1.589728590E0,-6.584054828E-1,-4.740519226E-1,1.000297451E1
1.591742210E0,-6.631938815E-1,-4.812345505E-1,1.003170490E1
1.593726138E0,-6.775590777E-1,-4.548983276E-1,1.006282997E1
1.595740065E0,-6.895300746E-1,-4.620809257E-1,1.005564690E1
1.597724300E0,-6.943184733E-1,-4.812345505E-1,1.005564690E1
1.599737613E0,-7.182605267E-1,-4.860229492E-1,1.007480049E1
1.601721847E0,-7.110779285E-1,-4.836287498E-1,1.007719517E1
1.603735390E0,-6.847416759E-1,-5.003881454E-1,1.008916569E1
1.605719086E0,-6.871358752E-1,-5.027823448E-1,1.008677197E1
1.607734168E0,-6.823474765E-1,-5.051765442E-1,1.007958889E1
1.609717634E0,-6.440402865E-1,-5.099649429E-1,1.008198357E1
1.611730253E0,-6.200982332E-1,-5.003881454E-1,1.008198357E1
1.613715489E0,-6.129156351E-1,-5.027823448E-1,1.008198357E1
1.615729647E0,-5.985504389E-1,-5.051765442E-1,1.007719517E1
1.617713881E0,-5.937620401E-1,-4.979939461E-1,1.006761837E1
1.619726886E0,-5.817909837E-1,-4.884171486E-1,1.004128170E1
1.621740736E0,-5.650315881E-1,-4.812345505E-1,1.001015759E1
1.623724741E0,-5.554547906E-1,-4.668693244E-1,1.000297451E1
1.625739130E0,-5.482721925E-1,-4.572925270E-1,9.974244118E0
1.627722519E0,-5.458779931E-1,-4.596867263E-1,9.943120003E0
1.629736369E0,-5.410895944E-1,-4.453215301E-1,9.931148529E0
1.631720143E0,-5.123591423E-1,-4.333505034E-1,9.892841339E0
1.633734301E0,-5.123591423E-1,-4.453215301E-1,9.861717224E0
1.635718613E0,-5.099649429E-1,-4.405331016E-1,9.840168953E0
1.637733079E0,-5.027823448E-1,-4.333505034E-1,9.816226959E0
1.639715776E0,-4.860229492E-1,-4.285621047E-1,9.797073364E0
1.641729626E0,-4.788403511E-1,-4.189853072E-1,9.782708168E0
1.643714246E0,-4.908113480E-1,-4.261679053E-1,9.761159897E0
1.645727481E0,-4.908113480E-1,-4.285621047E-1,9.734824181E0
1.647742254E0,-4.884171486E-1,-4.237737060E-1,9.737217903E0
1.649725721E0,-4.668693244E-1,-4.213795066E-1,9.744400978E0
1.651740186E0,-4.692635238E-1,-4.237737060E-1,9.744400978E0
1.653723575E0,-4.812345505E-1,-4.165911078E-1,9.744400978E0
1.655737118E0,-5.123591423E-1,-4.405331016E-1,9.734824181E0
1.657721738E0,-5.219359994E-1,-4.453215301E-1,9.730035782E0
1.659736511E0,-5.195417404E-1,-4.237737060E-1,9.722852707E0
1.661718977E0,-5.458779931E-1,-4.333505034E-1,9.708487511E0
1.663733751E0,-5.554547906E-1,-4.357447028E-1,9.713275909E0
1.665717447E0,-5.722141862E-1,-4.525041282E-1,9.708487511E0
1.667731606E0,-6.129156351E-1,-4.668693244E-1,9.701305389E0
1.669714610E0,-6.200982332E-1,-4.596867263E-1,9.701305389E0
1.671729768E0,-6.320692301E-1,-4.333505034E-1,9.727641106E0
1.673712773E0,-6.584054828E-1,-4.501099288E-1,9.742006302E0
1.675727315E0,-6.751648784E-1,-4.525041282E-1,9.744400978E0
1.677741781E0,-6.871358752E-1,-4.548983276E-1,9.761159897E0
1.679724786E0,-6.895300746E-1,-4.477157295E-1,9.782708168E0
1.681738636E0,-6.871358752E-1,-4.525041282E-1,9.789890289E0
1.683722332E0,-7.015010715E-1,-4.501099288E-1,9.799467087E0
1.685735876E0,-7.110779285E-1,-4.525041282E-1,9.804255486E0
1.687721495E0,-7.326257229E-1,-4.596867263E-1,9.816226959E0
1.689735268E0,-7.565677166E-1,-4.596867263E-1,9.821015358E0
1.691717196E0,-7.493851185E-1,-4.644751251E-1,9.821015358E0
1.693733123E0,-7.350199223E-1,-4.548983276E-1,9.840168953E0
1.695716281E0,-7.350199223E-1,-4.548983276E-1,9.835380554E0
1.697731056E0,-7.350199223E-1,-4.572925270E-1,9.837775230E0
1.699713829E0,-7.326257229E-1,-4.548983276E-1,9.830592155E0
1.701727602E0,-7.278373241E-1,-4.572925270E-1,9.861717224E0
1.703742069E0,-7.254431248E-1,-4.525041282E-1,9.864110947E0
1.705725765E0,-7.374141216E-1,-4.525041282E-1,9.868899345E0
1.707740000E0,-7.302315235E-1,-4.477157295E-1,9.871294022E0
1.709723619E0,-7.206547260E-1,-4.596867263E-1,9.868899345E0
1.711737470E0,-7.230489254E-1,-4.572925270E-1,9.861717224E0
1.713721166E0,-7.134721279E-1,-4.213795066E-1,9.861717224E0
1.715735632E0,-7.230489254E-1,-4.118026793E-1,9.871294022E0
1.717719945E0,-7.206547260E-1,-4.381389022E-1,9.878476143E0
1.719734103E0,-7.110779285E-1,-4.381389022E-1,9.883264542E0
1.721717260E0,-6.991068721E-1,-4.381389022E-1,9.876082420E0
1.723730496E0,-6.871358752E-1,-4.381389022E-1,9.856928825E0
1.725713885E0,-6.871358752E-1,-4.429273009E-1,9.864110947E0
1.727727966E0,-6.943184733E-1,-4.453215301E-1,9.849745750E0
1.729743355E0,-6.703764796E-1,-4.213795066E-1,9.837775230E0
1.731726513E0,-6.727706790E-1,-4.189853072E-1,9.837775230E0
1.733740286E0,-6.679822803E-1,-4.357447028E-1,9.837775230E0
1.735724291E0,-6.703764796E-1,-4.548983276E-1,9.837775230E0
1.737739757E0,-6.631938815E-1,-4.501099288E-1,9.837775230E0
1.739722146E0,-6.607996821E-1,-4.309563041E-1,9.828198433E0
1.741736074E0,-6.320692301E-1,-4.213795066E-1,9.818621635E0
1.743719462E0,-6.272808313E-1,-4.357447028E-1,9.818621635E0
1.745735389E0,-6.296750307E-1,-4.525041282E-1,9.806650162E0
1.747718164E0,-6.153098345E-1,-4.501099288E-1,9.801861763E0
1.749732321E0,-6.033388376E-1,-4.501099288E-1,9.794678688E0
1.751716710E0,-5.985504389E-1,-4.357447028E-1,9.785101891E0
1.753729869E0,-5.961562395E-1,-4.357447028E-1,9.792284966E0
1.755713873E0,-5.865794420E-1,-4.333505034E-1,9.785101891E0
1.757728723E0,-5.770025849E-1,-4.333505034E-1,9.787496567E0
1.759741574E0,-5.698199868E-1,-4.213795066E-1,9.789890289E0
1.761725271E0,-5.578489900E-1,-4.189853072E-1,9.794678688E0
1.763740121E0,-5.650315881E-1,-4.237737060E-1,9.789890289E0
1.765722587E0,-5.602431893E-1,-4.237737060E-1,9.794678688E0
1.767737668E0,-5.674257874E-1,-4.357447028E-1,9.785101891E0
1.769721057E0,-5.626373887E-1,-4.429273009E-1,9.801861763E0
1.771734293E0,-5.626373887E-1,-4.453215301E-1,9.804255486E0
1.773718835E0,-5.698199868E-1,-4.501099288E-1,9.801861763E0
1.775732993E0,-5.506663918E-1,-4.596867263E-1,9.813833237E0
1.777717921E0,-5.458779931E-1,-4.668693244E-1,9.809044838E0
1.779730848E0,-5.530605912E-1,-4.812345505E-1,9.809044838E0
1.781714544E0,-5.458779931E-1,-4.788403511E-1,9.811438560E0
1.783728780E0,-5.458779931E-1,-4.596867263E-1,9.806650162E0
1.785742938E0,-5.554547906E-1,-4.572925270E-1,9.813833237E0
1.787726634E0,-5.506663918E-1,-4.644751251E-1,9.816226959E0
1.789740793E0,-5.482721925E-1,-4.692635238E-1,9.806650162E0
1.791724797E0,-5.578489900E-1,-4.596867263E-1,9.804255486E0
1.793737955E0,-5.602431893E-1,-4.692635238E-1,9.804255486E0
1.795722268E0,-5.770025849E-1,-4.692635238E-1,9.811438560E0
1.797736810E0,-5.913678408E-1,-4.620809257E-1,9.816226959E0
1.799719507E0,-5.913678408E-1,-4.548983276E-1,9.818621635E0
1.801733358E0,-5.841852427E-1,-4.525041282E-1,9.821015358E0
1.803717362E0,-6.224924326E-1,-4.572925270E-1,9.821015358E0
1.805731520E0,-6.200982332E-1,-4.525041282E-1,9.816226959E0
1.807714986E0,-6.033388376E-1,-4.596867263E-1,9.813833237E0
1.809729452E0,-6.033388376E-1,-4.596867263E-1,9.804255486E0
1.811744225E0,-6.153098345E-1,-4.453215301E-1,9.797073364E0
1.813727538E0,-6.296750307E-1,-4.429273009E-1,9.785101891E0
1.815741772E0,-6.224924326E-1,-4.405331016E-1,9.789890289E0
1.817726007E0,-6.488286853E-1,-4.357447028E-1,9.801861763E0
1.819739320E0,-6.392518282E-1,-4.381389022E-1,9.825803757E0
1.821723016E0,-6.344634295E-1,-4.333505034E-1,9.828198433E0
1.823736789E0,-6.392518282E-1,-4.141969085E-1,9.825803757E0
1.825721101E0,-6.344634295E-1,-4.237737060E-1,9.828198433E0
1.827735260E0,-6.416460276E-1,-4.333505034E-1,9.825803757E0
1.829718110E0,-6.416460276E-1,-4.237737060E-1,9.840168953E0
1.831733114E0,-6.512228847E-1,-4.333505034E-1,9.854534149E0
1.833716888E0,-6.607996821E-1,-4.357447028E-1,9.840168953E0
1.835730354E0,-6.584054828E-1,-4.405331016E-1,9.832986832E0
1.837715589E0,-6.584054828E-1,-4.285621047E-1,9.828198433E0
1.839728286E0,-6.727706790E-1,-4.213795066E-1,9.832986832E0
1.841742675E0,-6.703764796E-1,-4.285621047E-1,9.825803757E0
1.843726140E0,-6.727706790E-1,-4.429273009E-1,9.823410034E0
1.845739914E0,-6.823474765E-1,-4.477157295E-1,9.830592155E0
1.847724841E0,-6.919242740E-1,-4.429273009E-1,9.835380554E0
1.849738769E0,-6.895300746E-1,-4.548983276E-1,9.835380554E0
1.851721466E0,-6.823474765E-1,-4.453215301E-1,9.837775230E0
1.853736008E0,-7.038952708E-1,-4.501099288E-1,9.835380554E0
1.855719705E0,-7.015010715E-1,-4.548983276E-1,9.830592155E0
1.857734787E0,-6.895300746E-1,-4.572925270E-1,9.847352028E0
1.859717867E0,-6.751648784E-1,-4.548983276E-1,9.837775230E0
1.861731410E0,-6.751648784E-1,-4.596867263E-1,9.842563629E0
1.863715646E0,-6.775590777E-1,-4.477157295E-1,9.828198433E0
1.865729880E0,-6.895300746E-1,-4.764461517E-1,9.830592155E0
1.867712884E0,-6.823474765E-1,-4.788403511E-1,9.840168953E0
1.869727736E0,-6.751648784E-1,-4.692635238E-1,9.852140427E0
1.871741509E0,-6.775590777E-1,-4.884171486E-1,9.864110947E0
1.873724974E0,-6.799532771E-1,-4.812345505E-1,9.864110947E0
1.875739672E0,-6.631938815E-1,-4.716577232E-1,9.849745750E0
1.877723983E0,-6.631938815E-1,-4.572925270E-1,9.859322548E0
1.879737218E0,-6.823474765E-1,-4.501099288E-1,9.866505623E0
1.881720608E0,-6.799532771E-1,-4.548983276E-1,9.849745750E0
1.883735150E0,-6.823474765E-1,-4.548983276E-1,9.844957352E0
1.885717847E0,-6.823474765E-1,-4.764461517E-1,9.844957352E0
1.887732082E0,-6.823474765E-1,-4.644751251E-1,9.852140427E0
1.889716625E0,-6.823474765E-1,-4.596867263E-1,9.844957352E0
1.891730860E0,-6.775590777E-1,-4.525041282E-1,9.852140427E0
1.893714788E0,-6.847416759E-1,-4.429273009E-1,9.840168953E0
1.895728099E0,-6.871358752E-1,-4.405331016E-1,9.835380554E0
1.897744026E0,-6.775590777E-1,-4.213795066E-1,9.823410034E0
1.899726801E0,-6.751648784E-1,-4.094084799E-1,9.823410034E0
1.901740959E0,-6.775590777E-1,-4.070142806E-1,9.816226959E0
1.903724116E0,-6.679822803E-1,-4.189853072E-1,9.813833237E0
1.905738891E0,-6.703764796E-1,-4.333505034E-1,9.809044838E0
1.907722510E0,-6.679822803E-1,-4.333505034E-1,9.809044838E0
1.909735129E0,-6.416460276E-1,-4.261679053E-1,9.806650162E0
1.911719442E0,-6.344634295E-1,-4.285621047E-1,9.801861763E0
1.913733062E0,-6.368576288E-1,-4.189853072E-1,9.801861763E0
1.915717912E0,-6.248866320E-1,-4.237737060E-1,9.804255486E0
1.917732071E0,-6.272808313E-1,-4.237737060E-1,9.799467087E0
1.919715151E0,-6.248866320E-1,-4.333505034E-1,9.789890289E0
1.921729617E0,-6.272808313E-1,-4.309563041E-1,9.775525093E0
1.923743468E0,-6.224924326E-1,-4.237737060E-1,9.775525093E0
1.925727164E0,-6.200982332E-1,-4.261679053E-1,9.780313492E0
1.927742322E0,-5.961562395E-1,-4.381389022E-1,9.792284966E0
1.929725634E0,-5.985504389E-1,-4.333505034E-1,9.794678688E0
1.931738870E0,-5.985504389E-1,-4.333505034E-1,9.797073364E0
1.933722874E0,-5.793967843E-1,-4.501099288E-1,9.806650162E0
1.935736725E0,-5.817909837E-1,-4.477157295E-1,9.811438560E0
1.937721652E0,-5.698199868E-1,-4.405331016E-1,9.804255486E0
1.939734579E0,-5.698199868E-1,-4.357447028E-1,9.816226959E0
1.941718660E0,-5.746083856E-1,-4.453215301E-1,9.818621635E0
1.943732819E0,-5.674257874E-1,-4.668693244E-1,9.825803757E0
1.945716823E0,-5.602431893E-1,-4.596867263E-1,9.823410034E0
1.947731212E0,-5.650315881E-1,-4.381389022E-1,9.830592155E0
1.949714063E0,-5.650315881E-1,-4.501099288E-1,9.816226959E0
1.951728759E0,-5.530605912E-1,-4.620809257E-1,9.813833237E0
1.953741994E0,-5.602431893E-1,-4.453215301E-1,9.835380554E0
1.955725999E0,-5.698199868E-1,-4.525041282E-1,9.844957352E0
1.957740157E0,-5.674257874E-1,-4.668693244E-1,9.842563629E0
1.959724161E0,-5.913678408E-1,-4.716577232E-1,9.842563629E0
1.961738012E0,-6.033388376E-1,-4.620809257E-1,9.840168953E0
1.963721785E0,-5.961562395E-1,-4.620809257E-1,9.830592155E0
1.965732481E0,-6.105214357E-1,-4.477157295E-1,9.818621635E0
1.967718948E0,-6.177040339E-1,-4.572925270E-1,9.835380554E0
1.969734413E0,-6.224924326E-1,-4.501099288E-1,9.847352028E0
1.971718110E0,-6.296750307E-1,-4.716577232E-1,9.842563629E0
1.973731269E0,-6.392518282E-1,-4.525041282E-1,9.847352028E0
1.975714734E0,-6.512228847E-1,-4.572925270E-1,9.847352028E0
1.977730123E0,-6.488286853E-1,-4.692635238E-1,9.825803757E0
1.979742666E0,-6.536170840E-1,-4.620809257E-1,9.823410034E0
1.981727286E0,-6.607996821E-1,-4.620809257E-1,9.818621635E0
1.983741520E0,-6.655880809E-1,-4.548983276E-1,9.813833237E0
1.985725218E0,-6.727706790E-1,-4.548983276E-1,9.811438560E0
1.987739606E0,-6.679822803E-1,-4.548983276E-1,9.813833237E0
1.989722687E0,-6.488286853E-1,-4.572925270E-1,9.811438560E0
1.991736846E0,-6.440402865E-1,-4.620809257E-1,9.799467087E0
1.993721465E0,-6.655880809E-1,-4.429273009E-1,9.789890289E0
1.995735085E0,-6.703764796E-1,-4.333505034E-1,9.806650162E0
1.997718782E0,-6.703764796E-1,-4.381389022E-1,9.801861763E0
1.999732555E0,-6.799532771E-1,-4.381389022E-1,9.799467087E0
2.001716252E0,-6.703764796E-1,-4.285621047E-1,9.792284966E0
2.003729564E0,-6.607996821E-1,-4.333505034E-1,9.792284966E0
2.005744030E0,-6.607996821E-1,-4.525041282E-1,9.792284966E0
2.007728880E0,-6.631938815E-1,-4.477157295E-1,9.797073364E0
2.009742731E0,-6.703764796E-1,-4.405331016E-1,9.794678688E0
2.011725274E0,-6.631938815E-1,-4.596867263E-1,9.787496567E0
2.013739970E0,-6.607996821E-1,-4.572925270E-1,9.792284966E0
2.015724052E0,-6.655880809E-1,-4.381389022E-1,9.799467087E0
2.017739056E0,-6.584054828E-1,-4.333505034E-1,9.806650162E0
2.019721906E0,-6.536170840E-1,-4.429273009E-1,9.801861763E0
2.021735988E0,-6.512228847E-1,-4.596867263E-1,9.804255486E0
2.023719146E0,-6.727706790E-1,-4.381389022E-1,9.799467087E0
2.025734458E0,-6.703764796E-1,-4.333505034E-1,9.797073364E0
2.027717616E0,-6.392518282E-1,-4.309563041E-1,9.804255486E0
2.029730236E0,-6.416460276E-1,-4.357447028E-1,9.813833237E0
2.031715701E0,-6.440402865E-1,-4.213795066E-1,9.809044838E0
2.033729553E0,-6.416460276E-1,-4.261679053E-1,9.813833237E0
2.035743403E0,-6.536170840E-1,-4.261679053E-1,9.818621635E0
2.037727714E0,-6.488286853E-1,-4.405331016E-1,9.821015358E0
2.039740950E0,-6.344634295E-1,-4.572925270E-1,9.818621635E0
2.041725031E0,-6.272808313E-1,-4.620809257E-1,9.823410034E0
2.043738804E0,-6.344634295E-1,-4.644751251E-1,9.828198433E0
2.045721962E0,-6.464344859E-1,-4.596867263E-1,9.825803757E0
2.047735813E0,-6.488286853E-1,-4.620809257E-1,9.830592155E0
2.049720125E0,-6.464344859E-1,-4.501099288E-1,9.852140427E0
2.051735437E0,-6.607996821E-1,-4.477157295E-1,9.854534149E0
2.053717980E0,-6.607996821E-1,-4.453215301E-1,9.856928825E0
2.055732677E0,-6.560112834E-1,-4.501099288E-1,9.854534149E0
2.057716757E0,-6.488286853E-1,-4.548983276E-1,9.861717224E0
2.059729993E0,-6.512228847E-1,-4.477157295E-1,9.861717224E0
2.061713690E0,-6.440402865E-1,-4.405331016E-1,9.871294022E0
2.063727770E0,-6.464344859E-1,-4.692635238E-1,9.854534149E0
2.065742852E0,-6.416460276E-1,-4.692635238E-1,9.849745750E0
2.067726010E0,-6.416460276E-1,-4.596867263E-1,9.840168953E0
2.069740091E0,-6.320692301E-1,-4.501099288E-1,9.844957352E0
2.071724173E0,-6.272808313E-1,-4.501099288E-1,9.840168953E0
2.073737639E0,-6.296750307E-1,-4.596867263E-1,9.830592155E0
2.075722027E0,-6.344634295E-1,-4.453215301E-1,9.823410034E0
2.077736186E0,-6.416460276E-1,-4.429273009E-1,9.821015358E0
2.079719498E0,-6.392518282E-1,-4.548983276E-1,9.813833237E0
2.081733040E0,-6.272808313E-1,-4.525041282E-1,9.813833237E0
2.083717122E0,-6.368576288E-1,-4.716577232E-1,9.837775230E0
2.085730665E0,-6.560112834E-1,-4.572925270E-1,9.840168953E0
2.087715515E0,-6.416460276E-1,-4.572925270E-1,9.842563629E0
2.089729981E0,-6.320692301E-1,-4.596867263E-1,9.840168953E0
2.091742678E0,-6.200982332E-1,-4.572925270E-1,9.830592155E0
2.093726912E0,-6.153098345E-1,-4.668693244E-1,9.832986832E0
2.095741456E0,-6.081272364E-1,-4.764461517E-1,9.844957352E0
2.097725691E0,-5.985504389E-1,-4.740519226E-1,9.825803757E0
2.099738079E0,-5.913678408E-1,-4.620809257E-1,9.813833237E0
2.101722007E0,-6.033388376E-1,-4.596867263E-1,9.801861763E0
2.103736242E0,-5.985504389E-1,-4.453215301E-1,9.801861763E0
2.105720785E0,-5.913678408E-1,-4.477157295E-1,9.811438560E0
2.107734713E0,-5.913678408E-1,-4.548983276E-1,9.804255486E0
2.109717486E0,-5.937620401E-1,-4.572925270E-1,9.797073364E0
2.111732490E0,-5.841852427E-1,-4.309563041E-1,9.792284966E0
2.113715880E0,-5.889736414E-1,-4.405331016E-1,9.787496567E0
2.115731037E0,-5.889736414E-1,-4.429273009E-1,9.785101891E0
2.117714349E0,-5.626373887E-1,-4.405331016E-1,9.785101891E0
2.119728277E0,-5.770025849E-1,-4.501099288E-1,9.794678688E0
2.121741743E0,-5.961562395E-1,-4.429273009E-1,9.794678688E0
2.123726131E0,-5.961562395E-1,-4.477157295E-1,9.813833237E0
2.125739598E0,-6.009446383E-1,-4.477157295E-1,9.806650162E0
2.127723910E0,-6.033388376E-1,-4.477157295E-1,9.806650162E0
2.129737760E0,-6.177040339E-1,-4.501099288E-1,9.799467087E0
2.131722072E0,-6.248866320E-1,-4.357447028E-1,9.787496567E0
2.133735692E0,-6.296750307E-1,-4.357447028E-1,9.785101891E0
2.135718465E0,-6.368576288E-1,-4.261679053E-1,9.799467087E0
2.137733855E0,-6.416460276E-1,-4.453215301E-1,9.801861763E0
2.139717166E0,-6.488286853E-1,-4.477157295E-1,9.816226959E0
2.141730786E0,-6.655880809E-1,-4.453215301E-1,9.823410034E0
2.143715328E0,-6.655880809E-1,-4.357447028E-1,9.823410034E0
2.145729795E0,-6.584054828E-1,-4.429273009E-1,9.811438560E0
2.147743337E0,-6.679822803E-1,-4.501099288E-1,9.818621635E0
2.149726496E0,-6.703764796E-1,-4.501099288E-1,9.825803757E0
2.151741500E0,-6.823474765E-1,-4.405331016E-1,9.830592155E0
2.153724889E0,-6.943184733E-1,-4.405331016E-1,9.837775230E0
2.155738817E0,-6.967126727E-1,-4.453215301E-1,9.835380554E0
2.157723667E0,-6.799532771E-1,-4.501099288E-1,9.821015358E0
2.159736902E0,-7.110779285E-1,-4.309563041E-1,9.830592155E0
2.161720290E0,-7.134721279E-1,-4.309563041E-1,9.840168953E0
2.163735142E0,-7.015010715E-1,-4.333505034E-1,9.835380554E0
2.165717530E0,-6.895300746E-1,-4.405331016E-1,9.842563629E0
2.167733534E0,-6.943184733E-1,-4.405331016E-1,9.852140427E0
2.169716078E0,-6.919242740E-1,-4.572925270E-1,9.856928825E0
2.171729620E0,-6.823474765E-1,-4.668693244E-1,9.852140427E0
2.173744086E0,-6.584054828E-1,-4.812345505E-1,9.849745750E0
2.175728321E0,-6.607996821E-1,-4.644751251E-1,9.847352028E0
2.177742787E0,-6.631938815E-1,-4.644751251E-1,9.840168953E0
2.179725868E0,-6.631938815E-1,-4.764461517E-1,9.840168953E0
2.181740411E0,-6.655880809E-1,-4.740519226E-1,9.842563629E0
2.183723800E0,-6.607996821E-1,-4.668693244E-1,9.840168953E0
2.185737650E0,-6.799532771E-1,-4.620809257E-1,9.832986832E0
2.187721963E0,-6.751648784E-1,-4.812345505E-1,9.828198433E0
2.189736044E0,-6.751648784E-1,-4.740519226E-1,9.823410034E0
2.191719740E0,-6.679822803E-1,-4.620809257E-1,9.837775230E0
2.193733053E0,-6.560112834E-1,-4.501099288E-1,9.835380554E0
2.195716672E0,-6.488286853E-1,-4.477157295E-1,9.830592155E0
2.197731138E0,-6.416460276E-1,-4.525041282E-1,9.823410034E0
2.199715220E0,-6.368576288E-1,-4.572925270E-1,9.809044838E0
2.201728685E0,-6.320692301E-1,-4.644751251E-1,9.806650162E0
2.203743228E0,-6.416460276E-1,-4.716577232E-1,9.797073364E0
2.205725925E0,-6.344634295E-1,-4.572925270E-1,9.797073364E0
2.207739852E0,-6.464344859E-1,-4.453215301E-1,9.809044838E0
2.209725010E0,-6.584054828E-1,-4.213795066E-1,9.794678688E0
2.211739169E0,-6.631938815E-1,-4.189853072E-1,9.789890289E0
2.213722865E0,-6.560112834E-1,-4.285621047E-1,9.785101891E0
2.215736715E0,-6.464344859E-1,-4.357447028E-1,9.782708168E0
2.217721336E0,-6.536170840E-1,-4.381389022E-1,9.780313492E0
2.219734647E0,-6.488286853E-1,-4.237737060E-1,9.782708168E0
2.221717651E0,-6.584054828E-1,-4.309563041E-1,9.768342972E0
2.223731810E0,-6.584054828E-1,-4.333505034E-1,9.770736694E0
2.225716122E0,-6.440402865E-1,-4.237737060E-1,9.777919769E0
2.227729972E0,-6.464344859E-1,-4.309563041E-1,9.792284966E0
2.229744131E0,-6.488286853E-1,-4.309563041E-1,9.792284966E0
2.231727827E0,-6.368576288E-1,-4.309563041E-1,9.794678688E0
2.233741754E0,-6.344634295E-1,-4.357447028E-1,9.816226959E0
2.235725682E0,-6.224924326E-1,-4.357447028E-1,9.818621635E0
2.237740456E0,-6.129156351E-1,-4.405331016E-1,9.828198433E0
2.239722921E0,-6.224924326E-1,-4.333505034E-1,9.825803757E0
2.241737695E0,-6.177040339E-1,-4.333505034E-1,9.828198433E0
2.243721084E0,-6.368576288E-1,-4.429273009E-1,9.832986832E0
2.245734088E0,-6.368576288E-1,-4.429273009E-1,9.832986832E0
2.247720247E0,-6.224924326E-1,-4.429273009E-1,9.823410034E0
2.249733097E0,-6.200982332E-1,-4.644751251E-1,9.840168953E0
2.251716486E0,-6.224924326E-1,-4.668693244E-1,9.844957352E0
2.253731337E0,-6.129156351E-1,-4.525041282E-1,9.830592155E0
2.255714725E0,-6.105214357E-1,-4.525041282E-1,9.828198433E0
2.257729114E0,-6.177040339E-1,-4.501099288E-1,9.835380554E0
2.259743042E0,-6.272808313E-1,-4.453215301E-1,9.842563629E0
2.261726661E0,-6.272808313E-1,-4.477157295E-1,9.840168953E0
2.263741127E0,-6.344634295E-1,-4.525041282E-1,9.840168953E0
2.265724823E0,-6.368576288E-1,-4.596867263E-1,9.842563629E0
2.267737751E0,-6.392518282E-1,-4.740519226E-1,9.837775230E0
2.269722371E0,-6.464344859E-1,-4.764461517E-1,9.837775230E0
2.271736913E0,-6.584054828E-1,-4.548983276E-1,9.837775230E0
2.273720226E0,-6.464344859E-1,-4.501099288E-1,9.832986832E0
2.275734384E0,-6.488286853E-1,-4.596867263E-1,9.837775230E0
2.277717772E0,-6.536170840E-1,-4.596867263E-1,9.837775230E0
2.279731624E0,-6.560112834E-1,-4.548983276E-1,9.840168953E0
2.281715089E0,-6.584054828E-1,-4.548983276E-1,9.828198433E0
2.283729785E0,-6.607996821E-1,-4.644751251E-1,9.825803757E0
2.285740021E0,-6.560112834E-1,-4.572925270E-1,9.830592155E0
2.287727025E0,-6.320692301E-1,-4.548983276E-1,9.828198433E0
2.289741875E0,-6.440402865E-1,-4.477157295E-1,9.835380554E0
2.291725265E0,-6.512228847E-1,-4.429273009E-1,9.828198433E0
2.293739115E0,-6.679822803E-1,-4.548983276E-1,9.813833237E0
2.295723427E0,-6.727706790E-1,-4.333505034E-1,9.821015358E0
2.297737816E0,-6.751648784E-1,-4.261679053E-1,9.816226959E0
2.299720590E0,-6.775590777E-1,-4.213795066E-1,9.809044838E0
2.301734748E0,-6.703764796E-1,-4.333505034E-1,9.806650162E0
2.303718445E0,-6.703764796E-1,-4.405331016E-1,9.804255486E0
2.305733834E0,-6.799532771E-1,-4.381389022E-1,9.804255486E0
2.307716607E0,-6.799532771E-1,-4.333505034E-1,9.811438560E0
2.309731073E0,-6.703764796E-1,-4.405331016E-1,9.806650162E0
2.311715077E0,-6.464344859E-1,-4.261679053E-1,9.804255486E0
2.313728312E0,-6.440402865E-1,-4.285621047E-1,9.806650162E0
2.315742548E0,-6.464344859E-1,-4.333505034E-1,9.806650162E0
2.317727706E0,-6.416460276E-1,-4.285621047E-1,9.811438560E0
2.319740710E0,-6.368576288E-1,-4.237737060E-1,9.811438560E0
2.321723792E0,-6.320692301E-1,-4.309563041E-1,9.806650162E0
2.323738488E0,-6.320692301E-1,-4.333505034E-1,9.806650162E0
2.325722184E0,-6.344634295E-1,-4.453215301E-1,9.811438560E0
2.327737035E0,-6.344634295E-1,-4.525041282E-1,9.811438560E0
2.329720116E0,-6.296750307E-1,-4.548983276E-1,9.813833237E0
2.331733043E0,-6.320692301E-1,-4.429273009E-1,9.818621635E0
2.333717664E0,-6.368576288E-1,-4.357447028E-1,9.813833237E0
2.335731745E0,-6.344634295E-1,-4.453215301E-1,9.811438560E0
2.337716672E0,-6.368576288E-1,-4.381389022E-1,9.818621635E0
2.339729292E0,-6.392518282E-1,-4.405331016E-1,9.818621635E0
2.341743758E0,-6.344634295E-1,-4.548983276E-1,9.818621635E0
2.343727531E0,-6.320692301E-1,-4.668693244E-1,9.823410034E0
2.345742305E0,-6.536170840E-1,-4.716577232E-1,9.830592155E0
2.347725002E0,-6.560112834E-1,-4.692635238E-1,9.832986832E0
2.349739467E0,-6.512228847E-1,-4.548983276E-1,9.847352028E0
2.351722934E0,-6.560112834E-1,-4.333505034E-1,9.847352028E0
2.353736784E0,-6.536170840E-1,-4.429273009E-1,9.847352028E0
2.355721326E0,-6.584054828E-1,-4.405331016E-1,9.837775230E0
2.357736793E0,-6.488286853E-1,-4.357447028E-1,9.835380554E0
2.359718566E0,-6.440402865E-1,-4.501099288E-1,9.837775230E0
2.361732724E0,-6.440402865E-1,-4.596867263E-1,9.830592155E0
2.363716498E0,-6.440402865E-1,-4.644751251E-1,9.837775230E0
2.365728810E0,-6.512228847E-1,-4.620809257E-1,9.830592155E0
2.367743891E0,-6.368576288E-1,-4.596867263E-1,9.835380554E0
2.369728742E0,-6.392518282E-1,-4.596867263E-1,9.840168953E0
2.371742900E0,-6.607996821E-1,-4.692635238E-1,9.835380554E0
2.373726288E0,-6.560112834E-1,-4.716577232E-1,9.828198433E0
2.375740832E0,-6.560112834E-1,-4.668693244E-1,9.830592155E0
2.377724528E0,-6.536170840E-1,-4.668693244E-1,9.825803757E0
2.379738686E0,-6.655880809E-1,-4.716577232E-1,9.835380554E0
2.381722382E0,-6.655880809E-1,-4.644751251E-1,9.830592155E0
2.383736233E0,-6.464344859E-1,-4.381389022E-1,9.818621635E0
2.385720545E0,-6.440402865E-1,-4.405331016E-1,9.818621635E0
2.387734088E0,-6.488286853E-1,-4.501099288E-1,9.821015358E0
2.389716862E0,-6.488286853E-1,-4.501099288E-1,9.818621635E0
2.391731635E0,-6.512228847E-1,-4.477157295E-1,9.804255486E0
2.393715254E0,-6.679822803E-1,-4.477157295E-1,9.801861763E0
2.395729106E0,-6.631938815E-1,-4.357447028E-1,9.809044838E0
2.397744571E0,-6.584054828E-1,-4.405331016E-1,9.818621635E0
2.399727344E0,-6.536170840E-1,-4.405331016E-1,9.806650162E0
2.401741196E0,-6.584054828E-1,-4.429273009E-1,9.806650162E0
2.403725123E0,-6.560112834E-1,-4.501099288E-1,9.811438560E0
2.405738434E0,-6.416460276E-1,-4.429273009E-1,9.818621635E0
2.407724209E0,-6.392518282E-1,-4.548983276E-1,9.813833237E0
2.409737213E0,-6.416460276E-1,-4.501099288E-1,9.799467087E0
2.411719678E0,-6.536170840E-1,-4.477157295E-1,9.789890289E0
2.413735299E0,-6.512228847E-1,-4.453215301E-1,9.813833237E0
2.415718379E0,-6.488286853E-1,-4.333505034E-1,9.804255486E0
2.417733845E0,-6.536170840E-1,-4.381389022E-1,9.799467087E0
2.419716850E0,-6.679822803E-1,-4.429273009E-1,9.787496567E0
2.421731008E0,-6.655880809E-1,-4.381389022E-1,9.787496567E0
2.423744550E0,-6.512228847E-1,-4.453215301E-1,9.804255486E0
2.425729248E0,-6.512228847E-1,-4.596867263E-1,9.804255486E0
2.427743098E0,-6.560112834E-1,-4.501099288E-1,9.816226959E0
2.429726486E0,-6.679822803E-1,-4.309563041E-1,9.818621635E0
2.431740876E0,-6.631938815E-1,-4.333505034E-1,9.818621635E0
2.433724034E0,-6.631938815E-1,-4.285621047E-1,9.813833237E0
2.435738115E0,-6.560112834E-1,-4.309563041E-1,9.813833237E0
2.437722812E0,-6.607996821E-1,-4.405331016E-1,9.813833237E0
2.439736047E0,-6.631938815E-1,-4.381389022E-1,9.804255486E0
2.441719974E0,-6.584054828E-1,-4.429273009E-1,9.828198433E0
2.443733902E0,-6.679822803E-1,-4.405331016E-1,9.828198433E0
2.445716675E0,-6.751648784E-1,-4.405331016E-1,9.821015358E0
2.447731449E0,-6.536170840E-1,-4.429273009E-1,9.823410034E0
2.449715454E0,-6.344634295E-1,-4.477157295E-1,9.821015358E0
2.451729919E0,-6.200982332E-1,-4.501099288E-1,9.818621635E0
2.453743769E0,-6.464344859E-1,-4.596867263E-1,9.823410034E0
2.455726543E0,-6.344634295E-1,-4.596867263E-1,9.821015358E0
2.457743471E0,-6.416460276E-1,-4.620809257E-1,9.825803757E0
2.459725551E0,-6.584054828E-1,-4.668693244E-1,9.828198433E0
2.461739095E0,-6.464344859E-1,-4.620809257E-1,9.830592155E0
2.463722561E0,-6.392518282E-1,-4.453215301E-1,9.821015358E0
2.465737026E0,-6.392518282E-1,-4.357447028E-1,9.823410034E0
2.467720416E0,-6.320692301E-1,-4.501099288E-1,9.832986832E0
2.469734881E0,-6.416460276E-1,-4.429273009E-1,9.830592155E0
2.471718501E0,-6.416460276E-1,-4.405331016E-1,9.825803757E0
2.473732736E0,-6.488286853E-1,-4.333505034E-1,9.828198433E0
2.475716048E0,-6.440402865E-1,-4.357447028E-1,9.835380554E0
2.477731129E0,-6.440402865E-1,-4.357447028E-1,9.828198433E0
2.479744134E0,-6.512228847E-1,-4.453215301E-1,9.823410034E0
2.481727830E0,-6.512228847E-1,-4.309563041E-1,9.816226959E0
2.483742834E0,-6.536170840E-1,-4.237737060E-1,9.816226959E0
2.485725608E0,-6.488286853E-1,-4.261679053E-1,9.813833237E0
2.487740689E0,-6.392518282E-1,-4.333505034E-1,9.816226959E0
2.489724386E0,-6.488286853E-1,-4.453215301E-1,9.816226959E0
2.491737621E0,-6.751648784E-1,-4.525041282E-1,9.813833237E0
2.493721933E0,-6.751648784E-1,-4.405331016E-1,9.821015358E0
2.495736091E0,-6.775590777E-1,-4.429273009E-1,9.828198433E0
2.497720711E0,-6.775590777E-1,-4.405331016E-1,9.816226959E0
2.499734254E0,-6.799532771E-1,-4.405331016E-1,9.813833237E0
2.501716796E0,-6.799532771E-1,-4.357447028E-1,9.830592155E0
2.503731185E0,-6.751648784E-1,-4.357447028E-1,9.823410034E0
2.505715498E0,-6.775590777E-1,-4.381389022E-1,9.816226959E0
2.507729348E0,-6.679822803E-1,-4.596867263E-1,9.825803757E0
2.509743275E0,-6.679822803E-1,-4.453215301E-1,9.813833237E0
2.511727280E0,-6.655880809E-1,-4.501099288E-1,9.806650162E0
2.513740822E0,-6.655880809E-1,-4.285621047E-1,9.821015358E0
2.515724826E0,-6.655880809E-1,-4.381389022E-1,9.816226959E0
2.517739908E0,-6.703764796E-1,-4.333505034E-1,9.811438560E0
2.519722297E0,-6.512228847E-1,-4.405331016E-1,9.823410034E0
2.521737070E0,-6.416460276E-1,-4.285621047E-1,9.832986832E0
2.523720460E0,-6.416460276E-1,-4.285621047E-1,9.835380554E0
2.525731541E0,-6.416460276E-1,-4.453215301E-1,9.825803757E0
2.527717391E0,-6.416460276E-1,-4.477157295E-1,9.813833237E0
2.529732550E0,-6.536170840E-1,-4.429273009E-1,9.832986832E0
2.531716477E0,-6.536170840E-1,-4.692635238E-1,9.823410034E0
2.533730635E0,-6.416460276E-1,-4.740519226E-1,9.823410034E0
2.535744178E0,-6.392518282E-1,-4.548983276E-1,9.823410034E0
2.537729413E0,-6.368576288E-1,-4.548983276E-1,9.821015358E0
2.539741725E0,-6.416460276E-1,-4.620809257E-1,9.821015358E0
2.541725807E0,-6.440402865E-1,-4.644751251E-1,9.818621635E0
2.543739964E0,-6.440402865E-1,-4.525041282E-1,9.809044838E0
2.545723968E0,-6.440402865E-1,-4.596867263E-1,9.813833237E0
2.547737820E0,-6.416460276E-1,-4.644751251E-1,9.818621635E0
2.549721208E0,-6.464344859E-1,-4.333505034E-1,9.816226959E0
2.551735289E0,-6.440402865E-1,-4.261679053E-1,9.813833237E0
2.553718986E0,-6.488286853E-1,-4.333505034E-1,9.797073364E0
2.555733452E0,-6.488286853E-1,-4.357447028E-1,9.792284966E0
2.557718379E0,-6.440402865E-1,-4.357447028E-1,9.797073364E0
2.559731615E0,-6.727706790E-1,-4.333505034E-1,9.804255486E0
2.561714465E0,-6.751648784E-1,-4.309563041E-1,9.811438560E0
2.563729469E0,-6.727706790E-1,-4.309563041E-1,9.818621635E0
2.565742705E0,-6.631938815E-1,-4.572925270E-1,9.813833237E0
2.567728247E0,-6.512228847E-1,-4.548983276E-1,9.816226959E0
2.569741559E0,-6.440402865E-1,-4.453215301E-1,9.794678688E0
2.571723949E0,-6.488286853E-1,-4.429273009E-1,9.816226959E0
2.573738799E0,-6.440402865E-1,-4.405331016E-1,9.823410034E0
2.575722726E0,-6.703764796E-1,-4.285621047E-1,9.828198433E0
2.577737269E0,-6.392518282E-1,-4.309563041E-1,9.837775230E0
2.579720350E0,-6.296750307E-1,-4.333505034E-1,9.835380554E0
2.581735047E0,-6.320692301E-1,-4.477157295E-1,9.830592155E0
2.583718128E0,-6.200982332E-1,-4.525041282E-1,9.825803757E0
2.585731979E0,-6.248866320E-1,-4.501099288E-1,9.825803757E0
2.587716598E0,-6.272808313E-1,-4.429273009E-1,9.823410034E0
2.589729911E0,-6.368576288E-1,-4.405331016E-1,9.835380554E0
2.591744684E0,-6.368576288E-1,-4.453215301E-1,9.840168953E0
2.593727688E0,-6.129156351E-1,-4.525041282E-1,9.825803757E0
2.595742770E0,-6.200982332E-1,-4.644751251E-1,9.823410034E0
2.597726851E0,-6.320692301E-1,-4.716577232E-1,9.828198433E0
2.599740086E0,-6.224924326E-1,-4.644751251E-1,9.825803757E0
2.601723397E0,-6.105214357E-1,-4.572925270E-1,9.823410034E0
2.603737325E0,-6.153098345E-1,-4.405331016E-1,9.818621635E0
2.605720945E0,-6.272808313E-1,-4.429273009E-1,9.811438560E0
2.607735103E0,-6.272808313E-1,-4.429273009E-1,9.801861763E0
2.609719415E0,-6.440402865E-1,-4.596867263E-1,9.816226959E0
2.611733958E0,-6.560112834E-1,-4.309563041E-1,9.823410034E0
2.613716962E0,-6.607996821E-1,-4.333505034E-1,9.821015358E0
2.615731121E0,-6.296750307E-1,-4.429273009E-1,9.816226959E0
2.617747202E0,-6.296750307E-1,-4.572925270E-1,9.816226959E0
2.619728975E0,-6.224924326E-1,-4.572925270E-1,9.821015358E0
2.621742826E0,-6.272808313E-1,-4.525041282E-1,9.825803757E0
2.623727138E0,-6.392518282E-1,-4.453215301E-1,9.828198433E0
2.625741603E0,-6.344634295E-1,-4.381389022E-1,9.823410034E0
2.627724762E0,-6.177040339E-1,-4.429273009E-1,9.830592155E0
2.629738535E0,-6.153098345E-1,-4.381389022E-1,9.825803757E0
2.631722001E0,-6.224924326E-1,-4.477157295E-1,9.837775230E0
2.633736390E0,-6.344634295E-1,-4.429273009E-1,9.842563629E0
2.635720394E0,-6.440402865E-1,-4.285621047E-1,9.835380554E0
2.637735475E0,-6.536170840E-1,-4.261679053E-1,9.818621635E0
2.639718250E0,-6.584054828E-1,-4.213795066E-1,9.823410034E0
2.641732177E0,-6.536170840E-1,-4.261679053E-1,9.818621635E0
2.643715488E0,-6.560112834E-1,-4.261679053E-1,9.816226959E0
2.645729416E0,-6.775590777E-1,-4.381389022E-1,9.811438560E0
2.647744805E0,-6.751648784E-1,-4.477157295E-1,9.809044838E0
2.649729040E0,-6.727706790E-1,-4.405331016E-1,9.809044838E0
2.651741429E0,-6.631938815E-1,-4.429273009E-1,9.821015358E0
2.653725741E0,-6.607996821E-1,-4.405331016E-1,9.818621635E0
2.655739899E0,-6.799532771E-1,-4.357447028E-1,9.821015358E0
2.657724212E0,-6.775590777E-1,-4.357447028E-1,9.823410034E0
2.659737754E0,-6.967126727E-1,-4.405331016E-1,9.821015358E0
2.661720835E0,-6.991068721E-1,-4.381389022E-1,9.830592155E0
2.663735225E0,-6.895300746E-1,-4.357447028E-1,9.823410034E0
2.665720229E0,-6.943184733E-1,-4.548983276E-1,9.821015358E0
2.667733771E0,-6.991068721E-1,-4.548983276E-1,9.821015358E0
2.669716853E0,-7.015010715E-1,-4.477157295E-1,9.816226959E0
2.671731626E0,-6.847416759E-1,-4.548983276E-1,9.818621635E0
2.673715015E0,-6.871358752E-1,-4.572925270E-1,9.816226959E0
2.675728482E0,-6.847416759E-1,-4.525041282E-1,9.811438560E0
2.677743639E0,-6.727706790E-1,-4.501099288E-1,9.801861763E0
2.679726643E0,-6.607996821E-1,-4.548983276E-1,9.811438560E0
2.681740495E0,-6.607996821E-1,-4.620809257E-1,9.813833237E0
2.683723960E0,-6.607996821E-1,-4.261679053E-1,9.792284966E0
2.685734964E0,-6.416460276E-1,-4.381389022E-1,9.801861763E0
2.687721431E0,-6.416460276E-1,-4.453215301E-1,9.801861763E0
2.689736819E0,-6.368576288E-1,-4.333505034E-1,9.806650162E0
2.691719977E0,-6.344634295E-1,-4.357447028E-1,9.809044838E0
2.693734367E0,-6.320692301E-1,-4.333505034E-1,9.799467087E0
2.695718371E0,-6.392518282E-1,-4.357447028E-1,9.806650162E0
2.697732606E0,-6.488286853E-1,-4.453215301E-1,9.804255486E0
2.699715686E0,-6.464344859E-1,-4.477157295E-1,9.799467087E0
2.701729845E0,-6.416460276E-1,-4.429273009E-1,9.811438560E0
2.703743695E0,-6.560112834E-1,-4.477157295E-1,9.825803757E0
2.705728315E0,-6.631938815E-1,-4.501099288E-1,9.828198433E0
2.707742474E0,-6.631938815E-1,-4.453215301E-1,9.828198433E0
2.709725555E0,-6.512228847E-1,-4.525041282E-1,9.830592155E0
2.711739406E0,-6.655880809E-1,-4.525041282E-1,9.837775230E0
2.713724333E0,-6.536170840E-1,-4.501099288E-1,9.818621635E0
2.715738183E0,-6.512228847E-1,-4.572925270E-1,9.821015358E0
2.717722110E0,-6.560112834E-1,-4.620809257E-1,9.844957352E0
2.719735731E0,-6.368576288E-1,-4.548983276E-1,9.842563629E0
2.721719042E0,-6.368576288E-1,-4.620809257E-1,9.840168953E0
2.723732969E0,-6.368576288E-1,-4.644751251E-1,9.842563629E0
2.725716667E0,-6.392518282E-1,-4.596867263E-1,9.842563629E0
2.727731748E0,-6.344634295E-1,-4.596867263E-1,9.854534149E0
2.729715675E0,-6.248866320E-1,-4.572925270E-1,9.856928825E0
2.731728064E0,-6.248866320E-1,-4.572925270E-1,9.856928825E0
2.733742837E0,-6.224924326E-1,-4.548983276E-1,9.864110947E0
2.735726457E0,-6.224924326E-1,-4.477157295E-1,9.866505623E0
2.737741846E0,-6.248866320E-1,-4.525041282E-1,9.864110947E0
2.739724927E0,-6.248866320E-1,-4.596867263E-1,9.847352028E0
2.741738778E0,-6.296750307E-1,-4.716577232E-1,9.852140427E0
2.743721936E0,-6.320692301E-1,-4.764461517E-1,9.854534149E0
2.745736940E0,-6.224924326E-1,-4.429273009E-1,9.840168953E0
2.747719483E0,-6.296750307E-1,-4.357447028E-1,9.837775230E0
2.749734872E0,-6.344634295E-1,-4.405331016E-1,9.835380554E0
2.751718184E0,-6.320692301E-1,-4.429273009E-1,9.821015358E0
2.753732342E0,-6.344634295E-1,-4.405331016E-1,9.823410034E0
2.755715501E0,-6.296750307E-1,-4.453215301E-1,9.828198433E0
2.757730890E0,-6.320692301E-1,-4.429273009E-1,9.816226959E0
2.759743740E0,-6.272808313E-1,-4.453215301E-1,9.813833237E0
2.761727206E0,-6.320692301E-1,-4.309563041E-1,9.823410034E0
2.763741979E0,-6.368576288E-1,-4.165911078E-1,9.811438560E0
2.765725291E0,-6.416460276E-1,-4.189853072E-1,9.821015358E0
2.767738604E0,-6.440402865E-1,-4.333505034E-1,9.816226959E0
2.769723223E0,-6.440402865E-1,-4.357447028E-1,9.794678688E0
2.771736996E0,-6.440402865E-1,-4.357447028E-1,9.789890289E0
2.773721386E0,-6.320692301E-1,-4.333505034E-1,9.789890289E0
2.775734929E0,-6.464344859E-1,-4.429273009E-1,9.777919769E0
2.777720163E0,-6.320692301E-1,-4.357447028E-1,9.777919769E0
2.779733091E0,-6.296750307E-1,-4.381389022E-1,9.785101891E0
2.781717018E0,-6.296750307E-1,-4.453215301E-1,9.789890289E0
2.783730638E0,-6.344634295E-1,-4.453215301E-1,9.792284966E0
2.785745720E0,-6.224924326E-1,-4.405331016E-1,9.801861763E0
2.787728493E0,-6.272808313E-1,-4.261679053E-1,9.797073364E0
2.789742574E0,-6.248866320E-1,-4.237737060E-1,9.804255486E0
2.791727194E0,-6.177040339E-1,-4.309563041E-1,9.797073364E0
2.793740737E0,-6.248866320E-1,-4.285621047E-1,9.797073364E0
2.795724741E0,-6.296750307E-1,-4.213795066E-1,9.794678688E0
2.797739592E0,-6.248866320E-1,-4.381389022E-1,9.799467087E0
2.799722673E0,-6.344634295E-1,-4.381389022E-1,9.804255486E0
2.801736215E0,-6.464344859E-1,-4.309563041E-1,9.804255486E0
2.803719605E0,-6.392518282E-1,-4.141969085E-1,9.813833237E0
2.805733455E0,-6.368576288E-1,-4.213795066E-1,9.818621635E0
2.807718382E0,-6.536170840E-1,-4.357447028E-1,9.816226959E0
2.809732233E0,-6.631938815E-1,-4.477157295E-1,9.813833237E0
2.811715007E0,-6.607996821E-1,-4.477157295E-1,9.811438560E0
2.813730011E0,-6.607996821E-1,-4.429273009E-1,9.804255486E0
2.815743939E0,-6.751648784E-1,-4.357447028E-1,9.818621635E0
2.817728866E0,-6.847416759E-1,-4.477157295E-1,9.821015358E0
2.819741485E0,-6.967126727E-1,-4.405331016E-1,9.813833237E0
2.821725412E0,-6.919242740E-1,-4.405331016E-1,9.816226959E0
2.823739571E0,-6.799532771E-1,-4.381389022E-1,9.823410034E0
2.825723344E0,-6.679822803E-1,-4.453215301E-1,9.835380554E0
2.827737425E0,-6.751648784E-1,-4.572925270E-1,9.835380554E0
2.829721430E0,-6.799532771E-1,-4.596867263E-1,9.835380554E0
2.831735588E0,-6.871358752E-1,-4.572925270E-1,9.849745750E0
2.833718438E0,-6.919242740E-1,-4.596867263E-1,9.852140427E0
2.835733213E0,-6.775590777E-1,-4.620809257E-1,9.835380554E0
2.837717755E0,-6.751648784E-1,-4.525041282E-1,9.828198433E0
2.839731605E0,-6.823474765E-1,-4.405331016E-1,9.832986832E0
2.841745149E0,-6.679822803E-1,-4.477157295E-1,9.837775230E0
2.843727922E0,-6.751648784E-1,-4.405331016E-1,9.840168953E0
2.845742157E0,-6.799532771E-1,-4.357447028E-1,9.847352028E0
2.847726162E0,-6.679822803E-1,-4.548983276E-1,9.840168953E0
2.849740935E0,-6.751648784E-1,-4.429273009E-1,9.832986832E0
2.851724324E0,-6.775590777E-1,-4.453215301E-1,9.828198433E0
2.853738482E0,-6.679822803E-1,-4.620809257E-1,9.830592155E0
2.855722179E0,-6.631938815E-1,-4.596867263E-1,9.825803757E0
2.857737798E0,-6.655880809E-1,-4.453215301E-1,9.828198433E0
2.859719726E0,-6.607996821E-1,-4.477157295E-1,9.809044838E0
2.861733192E0,-6.679822803E-1,-4.572925270E-1,9.804255486E0
2.863717503E0,-6.679822803E-1,-4.548983276E-1,9.804255486E0
2.865732278E0,-6.679822803E-1,-4.453215301E-1,9.804255486E0
2.867715359E0,-6.584054828E-1,-4.453215301E-1,9.799467087E0
2.869729516E0,-6.703764796E-1,-4.333505034E-1,9.801861763E0
2.871743983E0,-6.560112834E-1,-4.141969085E-1,9.799467087E0
2.873727141E0,-6.464344859E-1,-4.070142806E-1,9.799467087E0
2.875740991E0,-6.464344859E-1,-4.405331016E-1,9.797073364E0
2.877726534E0,-6.416460276E-1,-4.477157295E-1,9.799467087E0
2.879739154E0,-6.392518282E-1,-4.357447028E-1,9.792284966E0
2.881722850E0,-6.416460276E-1,-4.405331016E-1,9.799467087E0
2.883737547E0,-6.368576288E-1,-4.213795066E-1,9.804255486E0
2.885720628E0,-6.344634295E-1,-4.333505034E-1,9.811438560E0
2.887736017E0,-6.248866320E-1,-4.309563041E-1,9.811438560E0
2.889719176E0,-6.344634295E-1,-4.405331016E-1,9.821015358E0
2.891731795E0,-6.272808313E-1,-4.596867263E-1,9.813833237E0
2.893747107E0,-6.272808313E-1,-4.692635238E-1,9.818621635E0
2.895730497E0,-6.272808313E-1,-4.692635238E-1,9.828198433E0
2.897745654E0,-6.177040339E-1,-4.644751251E-1,9.842563629E0
2.899728428E0,-6.177040339E-1,-4.548983276E-1,9.842563629E0
2.901742202E0,-6.129156351E-1,-4.453215301E-1,9.837775230E0
2.903726590E0,-6.129156351E-1,-4.477157295E-1,9.818621635E0
2.905740748E0,-6.033388376E-1,-4.692635238E-1,9.823410034E0
2.907724369E0,-6.153098345E-1,-4.620809257E-1,9.828198433E0
2.909737988E0,-6.320692301E-1,-4.572925270E-1,9.821015358E0
2.911721377E0,-6.177040339E-1,-4.429273009E-1,9.821015358E0
2.913735766E0,-6.153098345E-1,-4.429273009E-1,9.832986832E0
2.915720386E0,-6.153098345E-1,-4.381389022E-1,9.828198433E0
2.917735159E0,-6.248866320E-1,-4.525041282E-1,9.821015358E0
2.919718009E0,-6.200982332E-1,-4.668693244E-1,9.828198433E0
2.921731783E0,-6.224924326E-1,-4.357447028E-1,9.832986832E0
2.923745326E0,-6.320692301E-1,-4.333505034E-1,9.832986832E0
2.925728485E0,-6.272808313E-1,-4.405331016E-1,9.835380554E0
2.927742950E0,-6.320692301E-1,-4.525041282E-1,9.835380554E0
2.929727493E0,-6.344634295E-1,-4.572925270E-1,9.825803757E0
2.931742036E0,-6.488286853E-1,-4.596867263E-1,9.821015358E0
2.933724732E0,-6.368576288E-1,-4.525041282E-1,9.821015358E0
2.935739275E0,-6.488286853E-1,-4.525041282E-1,9.818621635E0
2.937722894E0,-6.775590777E-1,-4.596867263E-1,9.828198433E0
2.939737669E0,-6.703764796E-1,-4.644751251E-1,9.825803757E0
2.941720749E0,-6.679822803E-1,-4.548983276E-1,9.811438560E0
2.943734600E0,-6.655880809E-1,-4.453215301E-1,9.816226959E0
2.945718989E0,-6.751648784E-1,-4.548983276E-1,9.825803757E0
2.947732224E0,-6.823474765E-1,-4.405331016E-1,9.816226959E0
2.949715920E0,-6.703764796E-1,-4.453215301E-1,9.821015358E0
2.951731310E0,-6.655880809E-1,-4.572925270E-1,9.821015358E0
2.953744776E0,-6.607996821E-1,-4.381389022E-1,9.818621635E0
2.955728164E0,-6.679822803E-1,-4.309563041E-1,9.811438560E0
2.957743861E0,-6.727706790E-1,-4.405331016E-1,9.809044838E0
2.959726096E0,-6.631938815E-1,-4.477157295E-1,9.809044838E0
2.961740562E0,-6.440402865E-1,-4.405331016E-1,9.806650162E0
2.963724490E0,-6.416460276E-1,-4.501099288E-1,9.804255486E0
2.965738032E0,-6.368576288E-1,-4.596867263E-1,9.797073364E0
2.967723267E0,-6.272808313E-1,-4.525041282E-1,9.797073364E0
2.969736503E0,-6.272808313E-1,-4.429273009E-1,9.801861763E0
2.971718968E0,-6.200982332E-1,-4.453215301E-1,9.797073364E0
2.973734049E0,-6.129156351E-1,-4.477157295E-1,9.804255486E0
2.975717131E0,-6.153098345E-1,-4.572925270E-1,9.794678688E0
2.977732905E0,-6.272808313E-1,-4.596867263E-1,9.794678688E0
2.979715601E0,-6.248866320E-1,-4.525041282E-1,9.806650162E0
2.981729144E0,-6.248866320E-1,-4.548983276E-1,9.811438560E0
2.983743071E0,-6.248866320E-1,-4.572925270E-1,9.809044838E0
2.985727614E0,-6.272808313E-1,-4.501099288E-1,9.804255486E0
2.987741465E0,-6.392518282E-1,-4.405331016E-1,9.806650162E0
2.989724623E0,-6.344634295E-1,-4.405331016E-1,9.811438560E0
2.991738704E0,-6.344634295E-1,-4.501099288E-1,9.816226959E0
2.993722709E0,-6.440402865E-1,-4.405331016E-1,9.797073364E0
2.995737174E0,-6.464344859E-1,-4.548983276E-1,9.794678688E0
2.997720871E0,-6.464344859E-1,-4.525041282E-1,9.801861763E0
2.999734799E0,-6.536170840E-1,-4.429273009E-1,9.809044838E0
3.001718187E0,-6.727706790E-1,-4.405331016E-1,9.804255486E0
3.003732576E0,-6.799532771E-1,-4.357447028E-1,9.813833237E0
3.005715350E0,-6.631938815E-1,-4.357447028E-1,9.816226959E0
3.007729816E0,-6.679822803E-1,-4.357447028E-1,9.811438560E0
3.009744281E0,-6.631938815E-1,-4.333505034E-1,9.813833237E0
3.011728286E0,-6.607996821E-1,-4.285621047E-1,9.818621635E0
3.013742752E0,-6.679822803E-1,-4.333505034E-1,9.830592155E0
3.015725217E0,-6.607996821E-1,-4.357447028E-1,9.837775230E0
3.017740992E0,-6.512228847E-1,-4.405331016E-1,9.842563629E0
3.019724073E0,-6.584054828E-1,-4.477157295E-1,9.842563629E0
3.021737615E0,-6.679822803E-1,-4.453215301E-1,9.837775230E0
3.023721005E0,-6.799532771E-1,-4.309563041E-1,9.832986832E0
3.025736932E0,-6.823474765E-1,-4.309563041E-1,9.832986832E0
3.027719474E0,-6.823474765E-1,-4.357447028E-1,9.830592155E0
3.029733864E0,-6.823474765E-1,-4.453215301E-1,9.828198433E0
3.031717560E0,-6.799532771E-1,-4.453215301E-1,9.825803757E0
3.033731103E0,-6.823474765E-1,-4.405331016E-1,9.821015358E0
3.035745569E0,-6.823474765E-1,-4.405331016E-1,9.825803757E0
3.037729573E0,-6.847416759E-1,-4.429273009E-1,9.823410034E0
3.039744039E0,-6.799532771E-1,-4.285621047E-1,9.825803757E0
3.041727197E0,-6.823474765E-1,-4.405331016E-1,9.818621635E0
3.043740663E0,-6.799532771E-1,-4.477157295E-1,9.821015358E0
3.045724359E0,-6.703764796E-1,-4.525041282E-1,9.830592155E0
3.047739133E0,-6.607996821E-1,-4.644751251E-1,9.844957352E0
3.049723445E0,-6.584054828E-1,-4.596867263E-1,9.837775230E0
3.051735757E0,-6.488286853E-1,-4.525041282E-1,9.828198433E0
3.053720376E0,-6.488286853E-1,-4.620809257E-1,9.823410034E0
3.055735228E0,-6.727706790E-1,-4.501099288E-1,9.816226959E0
3.057719232E0,-6.607996821E-1,-4.405331016E-1,9.813833237E0
3.059732697E0,-6.536170840E-1,-4.477157295E-1,9.813833237E0
3.061716164E0,-6.512228847E-1,-4.644751251E-1,9.811438560E0
3.063730245E0,-6.440402865E-1,-4.764461517E-1,9.811438560E0
3.065744710E0,-6.368576288E-1,-4.716577232E-1,9.811438560E0
3.067728100E0,-6.320692301E-1,-4.644751251E-1,9.813833237E0
3.069742027E0,-6.200982332E-1,-4.429273009E-1,9.818621635E0
3.071725954E0,-6.200982332E-1,-4.405331016E-1,9.821015358E0
3.073740190E0,-6.224924326E-1,-4.525041282E-1,9.823410034E0
3.075723886E0,-6.272808313E-1,-4.692635238E-1,9.813833237E0
3.077738967E0,-6.272808313E-1,-4.740519226E-1,9.811438560E0
3.079721433E0,-6.177040339E-1,-4.644751251E-1,9.821015358E0
3.081736207E0,-6.129156351E-1,-4.548983276E-1,9.818621635E0
3.083718980E0,-6.057330370E-1,-4.596867263E-1,9.821015358E0
3.085732216E0,-6.129156351E-1,-4.548983276E-1,9.835380554E0
3.087748527E0,-6.105214357E-1,-4.548983276E-1,9.828198433E0
3.089731531E0,-6.153098345E-1,-4.668693244E-1,9.823410034E0
3.091745383E0,-6.057330370E-1,-4.596867263E-1,9.813833237E0
3.093729771E0,-6.129156351E-1,-4.596867263E-1,9.806650162E0
3.095743621E0,-6.296750307E-1,-4.548983276E-1,9.816226959E0
3.097727934E0,-6.153098345E-1,-4.477157295E-1,9.823410034E0
3.099741092E0,-6.200982332E-1,-4.333505034E-1,9.828198433E0
3.101724250E0,-6.368576288E-1,-4.189853072E-1,9.825803757E0
3.103738101E0,-6.296750307E-1,-4.309563041E-1,9.818621635E0
3.105722720E0,-6.272808313E-1,-4.405331016E-1,9.818621635E0
3.107736878E0,-6.416460276E-1,-4.548983276E-1,9.821015358E0
3.109720806E0,-6.560112834E-1,-4.381389022E-1,9.813833237E0
3.111734656E0,-6.679822803E-1,-4.429273009E-1,9.823410034E0
3.113717737E0,-6.655880809E-1,-4.477157295E-1,9.825803757E0
3.115732281E0,-6.631938815E-1,-4.501099288E-1,9.825803757E0
3.117747054E0,-6.775590777E-1,-4.548983276E-1,9.828198433E0
3.119730750E0,-6.751648784E-1,-4.501099288E-1,9.818621635E0
3.121744525E0,-6.799532771E-1,-4.501099288E-1,9.821015358E0
3.123727682E0,-6.823474765E-1,-4.525041282E-1,9.828198433E0
3.125741840E0,-6.847416759E-1,-4.548983276E-1,9.837775230E0
3.127725461E0,-6.871358752E-1,-4.572925270E-1,9.835380554E0
3.129740542E0,-6.919242740E-1,-4.501099288E-1,9.828198433E0
3.131723007E0,-6.991068721E-1,-4.477157295E-1,9.818621635E0
3.133738089E0,-6.967126727E-1,-4.572925270E-1,9.828198433E0
3.135721247E0,-6.751648784E-1,-4.477157295E-1,9.835380554E0
3.137736559E0,-6.799532771E-1,-4.381389022E-1,9.825803757E0
3.139719333E0,-6.823474765E-1,-4.357447028E-1,9.823410034E0
3.141733260E0,-6.703764796E-1,-4.285621047E-1,9.828198433E0
3.143717187E0,-6.703764796E-1,-4.309563041E-1,9.825803757E0
3.145731730E0,-6.679822803E-1,-4.285621047E-1,9.830592155E0
3.147745273E0,-6.631938815E-1,-4.453215301E-1,9.828198433E0
3.149728662E0,-6.584054828E-1,-4.429273009E-1,9.830592155E0
3.151743974E0,-6.679822803E-1,-4.548983276E-1,9.823410034E0
3.153726747E0,-6.727706790E-1,-4.525041282E-1,9.823410034E0
3.155740982E0,-6.751648784E-1,-4.525041282E-1,9.823410034E0
3.157724679E0,-6.727706790E-1,-4.405331016E-1,9.832986832E0
3.159738453E0,-6.679822803E-1,-4.405331016E-1,9.828198433E0
3.161722226E0,-6.703764796E-1,-4.501099288E-1,9.818621635E0
3.163736615E0,-6.679822803E-1,-4.740519226E-1,9.813833237E0
3.165719697E0,-6.679822803E-1,-4.668693244E-1,9.806650162E0
3.167733316E0,-6.584054828E-1,-4.548983276E-1,9.813833237E0
3.169718166E0,-6.584054828E-1,-4.525041282E-1,9.825803757E0
3.171732094E0,-6.607996821E-1,-4.501099288E-1,9.816226959E0
3.173746252E0,-6.584054828E-1,-4.429273009E-1,9.813833237E0
3.175730487E0,-6.512228847E-1,-4.453215301E-1,9.825803757E0
3.177746184E0,-6.607996821E-1,-4.501099288E-1,9.828198433E0
3.179728034E0,-6.560112834E-1,-4.477157295E-1,9.830592155E0
3.181741961E0,-6.440402865E-1,-4.501099288E-1,9.828198433E0
3.183725043E0,-6.416460276E-1,-4.644751251E-1,9.828198433E0
3.185740663E0,-6.320692301E-1,-4.620809257E-1,9.835380554E0
3.187723205E0,-6.416460276E-1,-4.548983276E-1,9.837775230E0
3.189737056E0,-6.464344859E-1,-4.572925270E-1,9.835380554E0
3.191721906E0,-6.344634295E-1,-4.644751251E-1,9.821015358E0
3.193735141E0,-6.344634295E-1,-4.764461517E-1,9.811438560E0
3.195719531E0,-6.320692301E-1,-4.764461517E-1,9.818621635E0
3.197733612E0,-6.153098345E-1,-4.692635238E-1,9.821015358E0
3.199717308E0,-6.105214357E-1,-4.668693244E-1,9.804255486E0
3.201731852E0,-6.081272364E-1,-4.596867263E-1,9.809044838E0
3.203745009E0,-6.081272364E-1,-4.620809257E-1,9.809044838E0
3.205727860E0,-6.129156351E-1,-4.548983276E-1,9.799467087E0
3.207743788E0,-6.200982332E-1,-4.525041282E-1,9.801861763E0
3.209726946E0,-6.344634295E-1,-4.453215301E-1,9.809044838E0
3.211740488E0,-6.320692301E-1,-4.357447028E-1,9.794678688E0
3.213725416E0,-6.248866320E-1,-4.333505034E-1,9.789890289E0
3.215738266E0,-6.272808313E-1,-4.453215301E-1,9.799467087E0
3.217723501E0,-6.368576288E-1,-4.501099288E-1,9.799467087E0
3.219737044E0,-6.368576288E-1,-4.429273009E-1,9.813833237E0
3.221719279E0,-6.344634295E-1,-4.357447028E-1,9.804255486E0
3.223733976E0,-6.320692301E-1,-4.453215301E-1,9.809044838E0
3.225718365E0,-6.320692301E-1,-4.501099288E-1,9.813833237E0
3.227732138E0,-6.416460276E-1,-4.548983276E-1,9.804255486E0
3.229745989E0,-6.488286853E-1,-4.620809257E-1,9.806650162E0
3.231730070E0,-6.392518282E-1,-4.572925270E-1,9.818621635E0
3.233743844E0,-6.464344859E-1,-4.501099288E-1,9.816226959E0
3.235728232E0,-6.440402865E-1,-4.572925270E-1,9.816226959E0
3.237742007E0,-6.464344859E-1,-4.501099288E-1,9.809044838E0
3.239725164E0,-6.464344859E-1,-4.405331016E-1,9.818621635E0
3.241739322E0,-6.560112834E-1,-4.453215301E-1,9.811438560E0
3.243722712E0,-6.607996821E-1,-4.572925270E-1,9.809044838E0
3.245733485E0,-6.584054828E-1,-4.644751251E-1,9.799467087E0
3.247720566E0,-6.751648784E-1,-4.644751251E-1,9.809044838E0
3.249735033E0,-6.584054828E-1,-4.644751251E-1,9.818621635E0
3.251719267E0,-6.512228847E-1,-4.572925270E-1,9.825803757E0
3.253733425E0,-6.560112834E-1,-4.405331016E-1,9.832986832E0
3.255717122E0,-6.607996821E-1,-4.501099288E-1,9.828198433E0
3.257732280E0,-6.560112834E-1,-4.572925270E-1,9.830592155E0
3.259745207E0,-6.488286853E-1,-4.620809257E-1,9.837775230E0
3.261729211E0,-6.799532771E-1,-4.644751251E-1,9.825803757E0
3.263742755E0,-6.799532771E-1,-4.716577232E-1,9.823410034E0
3.265726759E0,-6.871358752E-1,-4.548983276E-1,9.821015358E0
3.267740532E0,-6.871358752E-1,-4.572925270E-1,9.809044838E0
3.269724230E0,-6.919242740E-1,-4.596867263E-1,9.813833237E0
3.271739387E0,-6.895300746E-1,-4.501099288E-1,9.811438560E0
3.273722084E0,-6.919242740E-1,-4.357447028E-1,9.813833237E0
3.275735396E0,-7.062895298E-1,-4.381389022E-1,9.809044838E0
3.277720862E0,-6.967126727E-1,-4.477157295E-1,9.799467087E0
3.279734404E0,-6.895300746E-1,-4.596867263E-1,9.797073364E0
3.281717179E0,-6.991068721E-1,-4.453215301E-1,9.804255486E0
3.283731721E0,-7.086837292E-1,-4.477157295E-1,9.804255486E0
3.285745494E0,-7.038952708E-1,-4.453215301E-1,9.804255486E0
3.287730422E0,-7.038952708E-1,-4.453215301E-1,9.801861763E0
3.289744349E0,-7.038952708E-1,-4.357447028E-1,9.797073364E0
3.291726738E0,-7.038952708E-1,-4.429273009E-1,9.799467087E0
3.293741820E0,-6.895300746E-1,-4.429273009E-1,9.804255486E0
3.295725824E0,-7.015010715E-1,-4.357447028E-1,9.806650162E0
3.297739136E0,-7.015010715E-1,-4.333505034E-1,9.816226959E0
3.299723141E0,-6.967126727E-1,-4.405331016E-1,9.813833237E0
3.301737529E0,-6.919242740E-1,-4.572925270E-1,9.811438560E0
3.303720687E0,-6.919242740E-1,-4.525041282E-1,9.811438560E0
3.305736000E0,-6.847416759E-1,-4.453215301E-1,9.821015358E0
3.307719158E0,-6.847416759E-1,-4.429273009E-1,9.801861763E0
3.309733316E0,-6.751648784E-1,-4.405331016E-1,9.797073364E0
3.311717013E0,-6.775590777E-1,-4.381389022E-1,9.811438560E0
3.313730863E0,-6.751648784E-1,-4.405331016E-1,9.813833237E0
3.315745867E0,-6.895300746E-1,-4.381389022E-1,9.816226959E0
3.317728641E0,-6.871358752E-1,-4.405331016E-1,9.806650162E0
3.319743107E0,-6.775590777E-1,-4.429273009E-1,9.813833237E0
3.321726265E0,-6.560112834E-1,-4.525041282E-1,9.837775230E0
3.323740424E0,-6.488286853E-1,-4.501099288E-1,9.832986832E0
3.325722889E0,-6.464344859E-1,-4.453215301E-1,9.830592155E0
3.327737893E0,-6.560112834E-1,-4.572925270E-1,9.835380554E0
3.329722283E0,-6.464344859E-1,-4.620809257E-1,9.828198433E0
3.331736364E0,-6.464344859E-1,-4.548983276E-1,9.830592155E0
3.333719829E0,-6.320692301E-1,-4.620809257E-1,9.823410034E0
3.335733988E0,-6.224924326E-1,-4.525041282E-1,9.821015358E0
3.337718838E0,-6.272808313E-1,-4.477157295E-1,9.816226959E0
3.339732150E0,-6.224924326E-1,-4.572925270E-1,9.825803757E0
3.341745693E0,-6.296750307E-1,-4.548983276E-1,9.821015358E0
3.343729620E0,-6.416460276E-1,-4.501099288E-1,9.813833237E0
3.345744778E0,-6.296750307E-1,-4.668693244E-1,9.811438560E0
3.347727245E0,-6.344634295E-1,-4.620809257E-1,9.828198433E0
3.349741633E0,-6.584054828E-1,-4.572925270E-1,9.823410034E0
3.351725099E0,-6.631938815E-1,-4.453215301E-1,9.830592155E0
3.353738873E0,-6.607996821E-1,-4.525041282E-1,9.832986832E0
3.355723262E0,-6.536170840E-1,-4.453215301E-1,9.823410034E0
3.357738650E0,-6.607996821E-1,-4.525041282E-1,9.832986832E0
3.359720425E0,-6.631938815E-1,-4.548983276E-1,9.828198433E0
3.361735275E0,-6.584054828E-1,-4.620809257E-1,9.823410034E0
3.363718971E0,-6.512228847E-1,-4.429273009E-1,9.830592155E0
3.365732207E0,-6.536170840E-1,-4.405331016E-1,9.837775230E0
3.367747596E0,-6.512228847E-1,-4.429273009E-1,9.832986832E0
3.369730677E0,-6.536170840E-1,-4.333505034E-1,9.840168953E0
3.371743528E0,-6.631938815E-1,-4.333505034E-1,9.832986832E0
3.373728224E0,-6.584054828E-1,-4.477157295E-1,9.821015358E0
3.375742997E0,-6.631938815E-1,-4.572925270E-1,9.823410034E0
3.377727309E0,-6.703764796E-1,-4.548983276E-1,9.837775230E0
3.379740160E0,-6.584054828E-1,-4.453215301E-1,9.813833237E0
3.381724241E0,-6.536170840E-1,-4.405331016E-1,9.806650162E0
3.383738014E0,-6.655880809E-1,-4.453215301E-1,9.813833237E0
3.385722327E0,-6.943184733E-1,-4.309563041E-1,9.816226959E0
3.387736177E0,-6.991068721E-1,-4.357447028E-1,9.809044838E0
3.389719566E0,-6.847416759E-1,-4.357447028E-1,9.806650162E0
3.391734648E0,-6.943184733E-1,-4.357447028E-1,9.809044838E0
3.393717729E0,-6.967126727E-1,-4.429273009E-1,9.806650162E0
3.395731040E0,-7.086837292E-1,-4.525041282E-1,9.818621635E0
3.397746968E0,-7.230489254E-1,-4.548983276E-1,9.813833237E0
3.399729126E0,-7.206547260E-1,-4.453215301E-1,9.809044838E0
3.401743592E0,-7.230489254E-1,-4.429273009E-1,9.794678688E0
3.403727058E0,-7.015010715E-1,-4.453215301E-1,9.813833237E0
3.405737832E0,-6.991068721E-1,-4.548983276E-1,9.811438560E0
3.407724605E0,-6.895300746E-1,-4.477157295E-1,9.799467087E0
3.409739071E0,-6.871358752E-1,-4.357447028E-1,9.804255486E0
3.411722998E0,-6.895300746E-1,-4.453215301E-1,9.806650162E0
3.413737156E0,-6.799532771E-1,-4.429273009E-1,9.811438560E0
3.415721161E0,-6.823474765E-1,-4.501099288E-1,9.816226959E0
3.417735704E0,-6.823474765E-1,-4.453215301E-1,9.811438560E0
3.419718400E0,-6.679822803E-1,-4.525041282E-1,9.809044838E0
3.421732251E0,-6.584054828E-1,-4.548983276E-1,9.806650162E0
3.423746794E0,-6.631938815E-1,-4.548983276E-1,9.809044838E0
3.425730721E0,-6.703764796E-1,-4.501099288E-1,9.821015358E0
3.427744956E0,-6.775590777E-1,-4.525041282E-1,9.821015358E0
3.429728345E0,-6.775590777E-1,-4.572925270E-1,9.811438560E0
3.431742503E0,-6.655880809E-1,-4.501099288E-1,9.811438560E0
3.433726123E0,-6.607996821E-1,-4.572925270E-1,9.813833237E0
3.435740358E0,-6.584054828E-1,-4.692635238E-1,9.821015358E0
3.437725285E0,-6.631938815E-1,-4.525041282E-1,9.811438560E0
3.439737290E0,-6.464344859E-1,-4.548983276E-1,9.809044838E0
3.441721525E0,-6.631938815E-1,-4.477157295E-1,9.809044838E0
3.443735683E0,-6.655880809E-1,-4.477157295E-1,9.801861763E0
3.445718842E0,-6.631938815E-1,-4.453215301E-1,9.809044838E0
3.447733307E0,-6.631938815E-1,-4.381389022E-1,9.809044838E0
3.449717542E0,-6.727706790E-1,-4.453215301E-1,9.816226959E0
3.451730547E0,-6.679822803E-1,-4.525041282E-1,9.804255486E0
3.453745936E0,-6.536170840E-1,-4.596867263E-1,9.816226959E0
3.455729247E0,-6.464344859E-1,-4.644751251E-1,9.821015358E0
3.457744098E0,-6.512228847E-1,-4.668693244E-1,9.837775230E0
3.459727718E0,-6.536170840E-1,-4.668693244E-1,9.835380554E0
3.461741337E0,-6.536170840E-1,-4.644751251E-1,9.830592155E0
3.463724727E0,-6.607996821E-1,-4.620809257E-1,9.825803757E0
3.465739500E0,-6.464344859E-1,-4.596867263E-1,9.816226959E0
3.467722812E0,-6.464344859E-1,-4.477157295E-1,9.818621635E0
3.469737355E0,-6.464344859E-1,-4.644751251E-1,9.823410034E0
3.471721359E0,-6.536170840E-1,-4.381389022E-1,9.825803757E0
3.473735209E0,-6.607996821E-1,-4.381389022E-1,9.825803757E0
3.475718521E0,-6.703764796E-1,-4.429273009E-1,9.818621635E0
3.477732680E0,-6.847416759E-1,-4.381389022E-1,9.825803757E0
3.479746222E0,-6.655880809E-1,-4.381389022E-1,9.821015358E0
3.481730226E0,-6.631938815E-1,-4.477157295E-1,9.828198433E0
3.483744693E0,-6.488286853E-1,-4.501099288E-1,9.828198433E0
3.485727543E0,-6.368576288E-1,-4.501099288E-1,9.837775230E0
3.487741702E0,-6.536170840E-1,-4.572925270E-1,9.837775230E0
3.489726552E0,-6.536170840E-1,-4.620809257E-1,9.837775230E0
3.491741325E0,-6.464344859E-1,-4.596867263E-1,9.830592155E0
3.493723868E0,-6.392518282E-1,-4.740519226E-1,9.823410034E0
3.495737642E0,-6.488286853E-1,-4.692635238E-1,9.828198433E0
3.497722031E0,-6.512228847E-1,-4.812345505E-1,9.830592155E0
3.499735573E0,-6.512228847E-1,-4.740519226E-1,9.818621635E0
3.501719194E0,-6.512228847E-1,-4.668693244E-1,9.816226959E0
3.503734044E0,-6.440402865E-1,-4.596867263E-1,9.825803757E0
3.505717048E0,-6.488286853E-1,-4.644751251E-1,9.821015358E0
3.507731591E0,-6.440402865E-1,-4.525041282E-1,9.818621635E0
3.509745672E0,-6.416460276E-1,-4.357447028E-1,9.811438560E0
3.511729984E0,-6.584054828E-1,-4.405331016E-1,9.811438560E0
3.513744220E0,-6.631938815E-1,-4.285621047E-1,9.789890289E0
3.515727224E0,-6.631938815E-1,-4.309563041E-1,9.785101891E0
3.517741766E0,-6.631938815E-1,-4.309563041E-1,9.794678688E0
3.519725079E0,-6.799532771E-1,-4.213795066E-1,9.787496567E0
3.521739237E0,-6.799532771E-1,-4.094084799E-1,9.799467087E0
3.523722394E0,-6.871358752E-1,-4.189853072E-1,9.789890289E0
3.525736169E0,-6.895300746E-1,-4.237737060E-1,9.775525093E0
3.527721404E0,-6.847416759E-1,-4.165911078E-1,9.792284966E0
3.529734946E0,-6.751648784E-1,-4.213795066E-1,9.799467087E0
3.531717413E0,-6.727706790E-1,-4.189853072E-1,9.799467087E0
3.533732878E0,-6.919242740E-1,-4.285621047E-1,9.806650162E0
3.535746651E0,-6.823474765E-1,-4.285621047E-1,9.806650162E0
3.537731579E0,-6.991068721E-1,-4.237737060E-1,9.809044838E0
3.539744199E0,-6.991068721E-1,-4.285621047E-1,9.825803757E0
3.541728587E0,-6.991068721E-1,-4.501099288E-1,9.823410034E0
3.543742131E0,-6.991068721E-1,-4.357447028E-1,9.816226959E0
3.545727289E0,-6.967126727E-1,-4.429273009E-1,9.821015358E0
3.547739677E0,-7.015010715E-1,-4.548983276E-1,9.835380554E0
3.549723682E0,-7.230489254E-1,-4.572925270E-1,9.847352028E0
3.551738071E0,-7.326257229E-1,-4.596867263E-1,9.852140427E0
3.553721536E0,-7.254431248E-1,-4.548983276E-1,9.844957352E0
3.555735695E0,-7.302315235E-1,-4.572925270E-1,9.837775230E0
3.557719930E0,-7.302315235E-1,-4.572925270E-1,9.840168953E0
3.559733780E0,-7.326257229E-1,-4.525041282E-1,9.830592155E0
3.561716862E0,-7.278373241E-1,-4.501099288E-1,9.830592155E0
3.563731020E0,-7.302315235E-1,-4.501099288E-1,9.825803757E0
3.565744639E0,-7.182605267E-1,-4.429273009E-1,9.832986832E0
3.567728952E0,-7.110779285E-1,-4.501099288E-1,9.823410034E0
3.569743033E0,-7.062895298E-1,-4.525041282E-1,9.823410034E0
3.571726499E0,-7.062895298E-1,-4.572925270E-1,9.830592155E0
3.573740581E0,-7.038952708E-1,-4.620809257E-1,9.828198433E0
3.575724277E0,-7.038952708E-1,-4.501099288E-1,9.823410034E0
3.577739435E0,-7.015010715E-1,-4.836287498E-1,9.818621635E0
3.579723132E0,-6.943184733E-1,-4.812345505E-1,9.830592155E0
3.581736674E0,-6.871358752E-1,-4.525041282E-1,9.825803757E0
3.583720678E0,-6.847416759E-1,-4.501099288E-1,9.816226959E0
3.585735145E0,-6.847416759E-1,-4.501099288E-1,9.813833237E0
3.587717611E0,-6.847416759E-1,-4.596867263E-1,9.821015358E0
3.589731768E0,-7.038952708E-1,-4.572925270E-1,9.825803757E0
3.591746773E0,-6.895300746E-1,-4.620809257E-1,9.816226959E0
3.593729931E0,-6.847416759E-1,-4.812345505E-1,9.823410034E0
3.595744705E0,-6.727706790E-1,-4.860229492E-1,9.823410034E0
3.597729016E0,-6.679822803E-1,-4.716577232E-1,9.821015358E0
3.599742252E0,-6.703764796E-1,-4.525041282E-1,9.804255486E0
3.601724948E0,-6.775590777E-1,-4.740519226E-1,9.799467087E0
3.603739183E0,-6.799532771E-1,-4.740519226E-1,9.806650162E0
3.605723188E0,-6.607996821E-1,-4.548983276E-1,9.806650162E0
3.607738269E0,-6.560112834E-1,-4.596867263E-1,9.809044838E0
3.609721965E0,-6.488286853E-1,-4.668693244E-1,9.821015358E0
3.611734586E0,-6.560112834E-1,-4.525041282E-1,9.816226959E0
3.613719128E0,-6.727706790E-1,-4.548983276E-1,9.811438560E0
3.615733671E0,-6.536170840E-1,-4.620809257E-1,9.806650162E0
3.617717676E0,-6.536170840E-1,-4.596867263E-1,9.792284966E0
3.619731218E0,-6.536170840E-1,-4.596867263E-1,9.804255486E0
3.621744453E0,-6.320692301E-1,-4.668693244E-1,9.813833237E0
3.623728766E0,-6.464344859E-1,-4.716577232E-1,9.816226959E0
3.625743154E0,-6.368576288E-1,-4.644751251E-1,9.813833237E0
3.627727158E0,-6.368576288E-1,-4.716577232E-1,9.806650162E0
3.629740779E0,-6.512228847E-1,-4.525041282E-1,9.804255486E0
3.631724783E0,-6.560112834E-1,-4.477157295E-1,9.804255486E0
3.633738940E0,-6.655880809E-1,-4.357447028E-1,9.811438560E0
3.635722638E0,-6.727706790E-1,-4.261679053E-1,9.813833237E0
3.637737103E0,-6.655880809E-1,-4.405331016E-1,9.809044838E0
3.639719877E0,-6.655880809E-1,-4.381389022E-1,9.806650162E0
3.641734035E0,-6.775590777E-1,-4.309563041E-1,9.816226959E0
3.643717962E0,-6.895300746E-1,-4.309563041E-1,9.830592155E0
3.645728736E0,-6.775590777E-1,-4.261679053E-1,9.832986832E0
3.647745048E0,-6.703764796E-1,-4.357447028E-1,9.837775230E0
3.649729437E0,-6.775590777E-1,-4.381389022E-1,9.835380554E0
3.651744441E0,-6.703764796E-1,-4.333505034E-1,9.825803757E0
3.653727523E0,-6.703764796E-1,-4.453215301E-1,9.830592155E0
3.655741989E0,-6.679822803E-1,-4.453215301E-1,9.830592155E0
3.657726685E0,-6.919242740E-1,-4.453215301E-1,9.825803757E0
3.659740459E0,-6.943184733E-1,-4.333505034E-1,9.830592155E0
3.661723232E0,-6.967126727E-1,-4.237737060E-1,9.823410034E0
3.663737390E0,-6.823474765E-1,-4.381389022E-1,9.847352028E0
3.665721164E0,-6.823474765E-1,-4.405331016E-1,9.844957352E0
3.667735938E0,-6.967126727E-1,-4.285621047E-1,9.842563629E0
3.669718942E0,-6.895300746E-1,-4.309563041E-1,9.837775230E0
3.671733408E0,-6.703764796E-1,-4.405331016E-1,9.835380554E0
3.673747335E0,-6.943184733E-1,-4.429273009E-1,9.837775230E0
3.675730955E0,-7.110779285E-1,-4.477157295E-1,9.842563629E0
3.677745498E0,-6.919242740E-1,-4.596867263E-1,9.842563629E0
3.679729117E0,-6.727706790E-1,-4.572925270E-1,9.835380554E0
3.681742968E0,-6.679822803E-1,-4.405331016E-1,9.818621635E0
3.683726742E0,-6.703764796E-1,-4.237737060E-1,9.801861763E0
3.685740284E0,-6.607996821E-1,-4.429273009E-1,9.801861763E0
3.687725519E0,-6.512228847E-1,-4.477157295E-1,9.809044838E0
3.689738986E0,-6.655880809E-1,-4.548983276E-1,9.809044838E0
3.691721759E0,-6.703764796E-1,-4.620809257E-1,9.799467087E0
3.693736532E0,-6.631938815E-1,-4.596867263E-1,9.811438560E0
3.695720305E0,-6.512228847E-1,-4.548983276E-1,9.816226959E0
3.697735695E0,-6.488286853E-1,-4.572925270E-1,9.823410034E0
3.699717776E0,-6.631938815E-1,-4.596867263E-1,9.809044838E0
3.701732242E0,-6.560112834E-1,-4.620809257E-1,9.804255486E0
3.703746708E0,-6.536170840E-1,-4.596867263E-1,9.797073364E0
3.705731020E0,-6.536170840E-1,-4.572925270E-1,9.789890289E0
3.707744255E0,-6.416460276E-1,-4.501099288E-1,9.792284966E0
3.709728259E0,-6.440402865E-1,-4.548983276E-1,9.789890289E0
3.711742187E0,-6.584054828E-1,-4.620809257E-1,9.794678688E0
3.713725575E0,-6.584054828E-1,-4.620809257E-1,9.782708168E0
3.715740272E0,-6.584054828E-1,-4.548983276E-1,9.785101891E0
3.717723661E0,-6.440402865E-1,-4.572925270E-1,9.794678688E0
3.719737896E0,-6.679822803E-1,-4.525041282E-1,9.785101891E0
3.721721286E0,-6.751648784E-1,-4.501099288E-1,9.775525093E0
3.723736290E0,-6.655880809E-1,-4.453215301E-1,9.768342972E0
3.725717832E0,-6.751648784E-1,-4.525041282E-1,9.761159897E0
3.727732683E0,-6.823474765E-1,-4.525041282E-1,9.770736694E0
3.729747379E0,-6.847416759E-1,-4.596867263E-1,9.780313492E0
3.731729922E0,-6.799532771E-1,-4.548983276E-1,9.789890289E0
3.733744696E0,-6.751648784E-1,-4.548983276E-1,9.787496567E0
3.735728931E0,-6.871358752E-1,-4.548983276E-1,9.804255486E0
3.737744396E0,-6.823474765E-1,-4.525041282E-1,9.801861763E0
3.739726478E0,-6.847416759E-1,-4.405331016E-1,9.806650162E0
3.741740944E0,-6.823474765E-1,-4.357447028E-1,9.816226959E0
3.743724640E0,-6.727706790E-1,-4.429273009E-1,9.813833237E0
3.745738876E0,-6.703764796E-1,-4.309563041E-1,9.816226959E0
3.747722880E0,-6.799532771E-1,-4.429273009E-1,9.816226959E0
3.749736115E0,-6.751648784E-1,-4.548983276E-1,9.821015358E0
3.751720735E0,-6.895300746E-1,-4.453215301E-1,9.823410034E0
3.753733893E0,-6.871358752E-1,-4.405331016E-1,9.828198433E0
3.755717589E0,-6.847416759E-1,-4.429273009E-1,9.825803757E0
3.757732441E0,-6.847416759E-1,-4.477157295E-1,9.832986832E0
3.759746214E0,-6.991068721E-1,-4.716577232E-1,9.830592155E0
3.761729679E0,-7.062895298E-1,-4.692635238E-1,9.840168953E0
3.763743838E0,-7.062895298E-1,-4.620809257E-1,9.837775230E0
3.765727534E0,-7.015010715E-1,-4.525041282E-1,9.837775230E0
3.767742231E0,-7.062895298E-1,-4.525041282E-1,9.847352028E0
3.769726851E0,-6.991068721E-1,-4.596867263E-1,9.859322548E0
3.771739163E0,-6.991068721E-1,-4.692635238E-1,9.856928825E0
3.773724167E0,-7.015010715E-1,-4.548983276E-1,9.832986832E0
3.775737095E0,-7.062895298E-1,-4.668693244E-1,9.832986832E0
3.777721637E0,-6.991068721E-1,-4.596867263E-1,9.842563629E0
3.779735257E0,-6.799532771E-1,-4.596867263E-1,9.837775230E0
3.781718954E0,-6.775590777E-1,-4.477157295E-1,9.842563629E0
3.783733035E0,-6.823474765E-1,-4.501099288E-1,9.842563629E0
3.785747193E0,-6.847416759E-1,-4.644751251E-1,9.835380554E0
3.787731275E0,-6.655880809E-1,-4.572925270E-1,9.832986832E0
3.789745048E0,-6.560112834E-1,-4.572925270E-1,9.825803757E0
3.791729052E0,-6.751648784E-1,-4.596867263E-1,9.818621635E0
3.793742672E0,-6.655880809E-1,-4.525041282E-1,9.825803757E0
3.795727600E0,-6.727706790E-1,-4.572925270E-1,9.828198433E0
3.797741450E0,-6.536170840E-1,-4.525041282E-1,9.835380554E0
3.799724455E0,-6.440402865E-1,-4.501099288E-1,9.823410034E0
3.801737997E0,-6.296750307E-1,-4.453215301E-1,9.801861763E0
3.803721770E0,-6.416460276E-1,-4.453215301E-1,9.794678688E0
3.805735237E0,-6.536170840E-1,-4.357447028E-1,9.792284966E0
3.807719549E0,-6.488286853E-1,-4.477157295E-1,9.792284966E0
3.809734399E0,-6.464344859E-1,-4.525041282E-1,9.797073364E0
3.811717710E0,-6.584054828E-1,-4.525041282E-1,9.794678688E0
3.813731331E0,-6.488286853E-1,-4.525041282E-1,9.799467087E0
3.815746104E0,-6.416460276E-1,-4.668693244E-1,9.804255486E0
3.817730416E0,-6.440402865E-1,-4.668693244E-1,9.799467087E0
3.819744805E0,-6.368576288E-1,-4.644751251E-1,9.809044838E0
3.821727656E0,-6.440402865E-1,-4.644751251E-1,9.785101891E0
3.823741429E0,-6.464344859E-1,-4.572925270E-1,9.782708168E0
3.825725742E0,-6.584054828E-1,-4.477157295E-1,9.797073364E0
3.827739361E0,-6.584054828E-1,-4.572925270E-1,9.782708168E0
3.829722442E0,-6.751648784E-1,-4.596867263E-1,9.780313492E0
3.831737831E0,-6.799532771E-1,-4.501099288E-1,9.785101891E0
3.833720528E0,-6.751648784E-1,-4.572925270E-1,9.782708168E0
3.835735301E0,-6.847416759E-1,-4.692635238E-1,9.789890289E0
3.837719921E0,-6.703764796E-1,-4.692635238E-1,9.789890289E0
3.839732618E0,-6.799532771E-1,-4.668693244E-1,9.797073364E0
3.841747314E0,-6.823474765E-1,-4.596867263E-1,9.792284966E0
3.843730704E0,-6.847416759E-1,-4.740519226E-1,9.782708168E0
3.845744015E0,-6.751648784E-1,-4.740519226E-1,9.797073364E0
3.847728635E0,-6.727706790E-1,-4.572925270E-1,9.816226959E0
3.849743409E0,-6.655880809E-1,-4.572925270E-1,9.825803757E0
3.851724951E0,-6.631938815E-1,-4.596867263E-1,9.828198433E0
3.853740955E0,-6.679822803E-1,-4.525041282E-1,9.832986832E0
3.855724268E0,-6.703764796E-1,-4.381389022E-1,9.832986832E0
3.857739349E0,-6.799532771E-1,-4.261679053E-1,9.830592155E0
3.859721815E0,-6.895300746E-1,-4.405331016E-1,9.828198433E0
3.861735973E0,-6.919242740E-1,-4.596867263E-1,9.830592155E0
3.863719670E0,-6.871358752E-1,-4.596867263E-1,9.832986832E0
3.865735443E0,-6.799532771E-1,-4.620809257E-1,9.832986832E0
3.867717910E0,-6.847416759E-1,-4.620809257E-1,9.825803757E0
3.869731760E0,-6.799532771E-1,-4.668693244E-1,9.832986832E0
3.871746225E0,-6.871358752E-1,-4.548983276E-1,9.837775230E0
3.873728999E0,-6.871358752E-1,-4.501099288E-1,9.832986832E0
3.875743773E0,-6.751648784E-1,-4.620809257E-1,9.828198433E0
3.877727700E0,-6.823474765E-1,-4.453215301E-1,9.823410034E0
3.879742243E0,-6.847416759E-1,-4.333505034E-1,9.821015358E0
3.881725555E0,-6.871358752E-1,-4.381389022E-1,9.816226959E0
3.883740328E0,-6.967126727E-1,-4.501099288E-1,9.813833237E0
3.885722487E0,-6.943184733E-1,-4.501099288E-1,9.823410034E0
3.887736337E0,-6.895300746E-1,-4.453215301E-1,9.825803757E0
3.889720418E0,-6.895300746E-1,-4.596867263E-1,9.825803757E0
3.891734577E0,-6.919242740E-1,-4.596867263E-1,9.823410034E0
3.893718504E0,-6.871358752E-1,-4.572925270E-1,9.818621635E0
3.895732431E0,-6.895300746E-1,-4.788403511E-1,9.816226959E0
3.897748052E0,-6.967126727E-1,-4.668693244E-1,9.806650162E0
3.899731132E0,-6.943184733E-1,-4.381389022E-1,9.801861763E0
3.901744444E0,-6.895300746E-1,-4.477157295E-1,9.801861763E0
3.903728449E0,-6.991068721E-1,-4.548983276E-1,9.806650162E0
3.905743145E0,-6.967126727E-1,-4.453215301E-1,9.799467087E0
3.907725611E0,-7.015010715E-1,-4.429273009E-1,9.787496567E0
3.909741308E0,-7.038952708E-1,-4.405331016E-1,9.794678688E0
3.911724389E0,-7.015010715E-1,-4.381389022E-1,9.797073364E0
3.913738624E0,-7.062895298E-1,-4.309563041E-1,9.787496567E0
3.915721937E0,-6.823474765E-1,-4.357447028E-1,9.792284966E0
3.917736402E0,-6.823474765E-1,-4.525041282E-1,9.806650162E0
3.919719791E0,-6.871358752E-1,-4.572925270E-1,9.809044838E0
3.921733719E0,-6.895300746E-1,-4.692635238E-1,9.794678688E0
3.923747185E0,-6.871358752E-1,-4.644751251E-1,9.809044838E0
3.925731189E0,-6.823474765E-1,-4.644751251E-1,9.809044838E0
3.927746040E0,-6.871358752E-1,-4.668693244E-1,9.813833237E0
3.929729659E0,-6.895300746E-1,-4.668693244E-1,9.818621635E0
3.931742971E0,-6.703764796E-1,-4.764461517E-1,9.823410034E0
3.933726667E0,-6.560112834E-1,-4.644751251E-1,9.825803757E0
3.935741672E0,-6.584054828E-1,-4.596867263E-1,9.825803757E0
3.937726061E0,-6.536170840E-1,-4.668693244E-1,9.813833237E0
3.939740142E0,-6.536170840E-1,-4.596867263E-1,9.811438560E0
3.941722377E0,-6.727706790E-1,-4.644751251E-1,9.818621635E0
3.943736535E0,-6.847416759E-1,-4.644751251E-1,9.830592155E0
3.945720539E0,-6.655880809E-1,-4.620809257E-1,9.828198433E0
3.947734929E0,-6.560112834E-1,-4.620809257E-1,9.830592155E0
3.949718933E0,-6.679822803E-1,-4.692635238E-1,9.821015358E0
3.951732860E0,-6.631938815E-1,-4.740519226E-1,9.823410034E0
3.953746711E0,-6.631938815E-1,-4.716577232E-1,9.825803757E0
3.955730946E0,-6.751648784E-1,-4.716577232E-1,9.823410034E0
3.957745104E0,-6.799532771E-1,-4.572925270E-1,9.828198433E0
3.959728186E0,-6.799532771E-1,-4.525041282E-1,9.823410034E0
3.961742344E0,-6.607996821E-1,-4.572925270E-1,9.821015358E0
3.963726040E0,-6.536170840E-1,-4.572925270E-1,9.816226959E0
3.965739583E0,-6.607996821E-1,-4.429273009E-1,9.813833237E0
3.967724510E0,-6.679822803E-1,-4.429273009E-1,9.801861763E0
3.969738361E0,-6.607996821E-1,-4.405331016E-1,9.811438560E0
3.971721827E0,-6.560112834E-1,-4.261679053E-1,9.816226959E0
3.973735908E0,-6.679822803E-1,-4.501099288E-1,9.813833237E0
3.975719374E0,-6.703764796E-1,-4.668693244E-1,9.818621635E0
3.977734763E0,-6.799532771E-1,-4.357447028E-1,9.809044838E0
3.979747613E0,-6.943184733E-1,-4.381389022E-1,9.806650162E0
3.981731694E0,-6.943184733E-1,-4.453215301E-1,9.806650162E0
3.983745776E0,-6.751648784E-1,-4.572925270E-1,9.813833237E0
3.985729473E0,-6.655880809E-1,-4.453215301E-1,9.816226959E0
3.987744015E0,-6.655880809E-1,-4.429273009E-1,9.816226959E0
3.989727097E0,-6.703764796E-1,-4.429273009E-1,9.809044838E0
3.991741255E0,-6.775590777E-1,-4.501099288E-1,9.816226959E0
3.993724951E0,-6.967126727E-1,-4.429273009E-1,9.813833237E0
3.995739341E0,-6.967126727E-1,-4.429273009E-1,9.811438560E0
3.997724037E0,-6.919242740E-1,-4.405331016E-1,9.809044838E0
3.999736964E0,-6.895300746E-1,-4.453215301E-1,9.809044838E0
4.001720584E0,-7.015010715E-1,-4.501099288E-1,9.806650162E0
4.003734435E0,-6.991068721E-1,-4.501099288E-1,9.811438560E0
4.005717900E0,-6.991068721E-1,-4.620809257E-1,9.816226959E0
4.007732982E0,-6.847416759E-1,-4.572925270E-1,9.816226959E0
4.009746755E0,-6.895300746E-1,-4.501099288E-1,9.821015358E0
4.011729221E0,-7.015010715E-1,-4.453215301E-1,9.806650162E0
4.013744380E0,-6.991068721E-1,-4.620809257E-1,9.809044838E0
4.015728076E0,-6.967126727E-1,-4.668693244E-1,9.809044838E0
4.017743388E0,-6.967126727E-1,-4.692635238E-1,9.804255486E0
4.019726162E0,-7.015010715E-1,-4.525041282E-1,9.804255486E0
4.021740320E0,-6.991068721E-1,-4.525041282E-1,9.806650162E0
4.023723478E0,-6.943184733E-1,-4.644751251E-1,9.804255486E0
4.025739175E0,-6.799532771E-1,-4.620809257E-1,9.797073364E0
4.027721641E0,-6.799532771E-1,-4.644751251E-1,9.804255486E0
4.029736029E0,-6.799532771E-1,-4.548983276E-1,9.809044838E0
4.031719418E0,-6.871358752E-1,-4.429273009E-1,9.816226959E0
4.033733961E0,-6.967126727E-1,-4.501099288E-1,9.809044838E0
4.035748427E0,-6.823474765E-1,-4.572925270E-1,9.806650162E0
4.037732431E0,-6.775590777E-1,-4.644751251E-1,9.809044838E0
4.039745897E0,-6.703764796E-1,-4.620809257E-1,9.816226959E0
4.041729286E0,-6.799532771E-1,-4.596867263E-1,9.813833237E0
4.043742905E0,-6.871358752E-1,-4.501099288E-1,9.813833237E0
