"Time (s)","Linear Acceleration x (m/s^2)","Linear Acceleration y (m/s^2)","Linear Acceleration z (m/s^2)"
1.571933500E-2,4.847288132E-2,-2.806568146E-2,-3.491115570E-2
2.371504500E-2,8.809709549E-2,-4.987668991E-2,-6.013631821E-2
3.171113900E-2,6.685972214E-2,-2.762842178E-2,-1.335563660E-1
3.973731000E-2,-2.306842804E-2,6.008958817E-2,-1.169700623E-1
4.773148200E-2,-1.547975540E-1,5.034303665E-2,-1.091837883E-1
5.572780600E-2,-2.734518051E-1,-8.493900299E-3,-9.928369522E-2
6.372382300E-2,-2.555551529E-1,-3.269052505E-2,-1.391501427E-1
7.171976300E-2,-2.004017830E-1,-9.729051590E-2,-1.436562538E-1
7.971555100E-2,-1.280536652E-1,-1.498880386E-1,-1.574797630E-1
8.771126000E-2,-6.502723694E-2,-1.858687401E-1,-2.316794395E-1
9.573612300E-2,-8.519458771E-2,-1.459259987E-1,-2.642374039E-1
1.037322180E-1,-2.282142639E-3,-1.512613297E-1,-2.333374023E-1
1.117281580E-1,4.663038254E-2,-1.544165611E-1,-1.884183884E-1
1.197235600E-1,1.219019890E-1,-1.901135445E-1,-8.868598938E-2
1.277195780E-1,1.271257401E-1,-1.382260323E-1,-2.774715424E-2
1.357144410E-1,6.535768509E-2,-7.052946091E-2,1.044321060E-2
1.437101500E-1,-4.842281342E-3,-1.958370209E-2,2.596044540E-2
1.517366300E-1,-1.310725212E-1,4.381656647E-3,1.986312866E-2
1.597325700E-1,-1.886801720E-1,3.235673904E-2,-2.314281464E-2
1.677283560E-1,-2.396044731E-1,9.459972382E-3,-6.178665161E-2
1.757234500E-1,-2.619843483E-1,1.722335815E-2,-8.214521408E-2
1.837190840E-1,-2.145204544E-1,-4.068374634E-3,-9.547328949E-2
1.917145620E-1,-1.536378860E-1,2.022695541E-2,-7.052755356E-2
1.997108100E-1,-7.243204117E-2,1.518392563E-2,-5.711698532E-2
2.077354430E-1,3.426265717E-2,4.953145981E-2,-2.410030365E-2
2.157321530E-1,9.891796112E-2,3.326511383E-2,-8.530616760E-3
2.237271700E-1,9.795665741E-2,-5.366802216E-3,4.099607468E-2
2.317238030E-1,1.086888313E-1,-4.728603363E-2,1.052207947E-1
2.397198200E-1,1.172537804E-1,-7.614850998E-2,1.143803596E-1
2.477149140E-1,1.180486679E-1,-9.283685684E-2,1.845378876E-1
2.557100860E-1,1.803307533E-1,-6.213879585E-2,2.257366180E-1
2.637368720E-1,2.409176826E-1,3.054714203E-2,2.299218178E-1
2.717310430E-1,2.685227394E-1,1.478085518E-1,2.910704613E-1
2.797273680E-1,2.376518250E-1,2.420678139E-1,2.765378952E-1
2.877227700E-1,1.992335320E-1,2.989544868E-1,2.323908806E-1
2.957187100E-1,2.261939049E-1,2.988667488E-1,2.715010643E-1
3.037147280E-1,4.383254051E-1,2.137374878E-1,5.090246201E-1
3.117110530E-1,7.303442955E-1,1.549878120E-1,6.270971298E-1
3.197363010E-1,9.693632126E-1,1.619577408E-1,6.989326477E-1
3.277320870E-1,1.013199806E0,1.702594757E-1,6.947965622E-1
3.357277210E-1,9.709506035E-1,1.225891113E-1,7.078547478E-1
3.437231220E-1,8.977150917E-1,3.323507309E-2,7.273874283E-1
3.517194470E-1,8.687968254E-1,1.762866974E-3,7.085132599E-1
3.597148500E-1,9.599027634E-1,-4.261493683E-3,6.900000572E-1
3.677397900E-1,1.102489948E0,7.138633728E-2,6.474056244E-1
3.757364220E-1,1.201351643E0,1.570034027E-1,5.835390091E-1
3.837321320E-1,1.334464550E0,2.245922089E-1,5.611200333E-1
3.917278420E-1,1.405142307E0,2.489333153E-1,5.518536568E-1
3.997232430E-1,1.398073673E0,2.359852791E-1,6.423697472E-1
4.077199530E-1,1.296482563E0,1.774230003E-1,7.527403831E-1
4.157144320E-1,1.088510036E0,1.641740799E-1,7.395195961E-1
4.237402950E-1,8.315196037E-1,2.290120125E-1,7.109599113E-1
4.317368510E-1,6.409168243E-1,3.039526939E-1,6.347846985E-1
4.397319460E-1,4.403839111E-1,4.164853096E-1,5.337748528E-1
4.477261940E-1,3.410778046E-1,4.938774109E-1,3.640928268E-1
4.557227490E-1,3.098278046E-1,5.124044418E-1,3.197612762E-1
4.637184600E-1,3.457822800E-1,5.969967842E-1,2.940855026E-1
4.717145530E-1,3.667945862E-1,6.544857025E-1,3.171958923E-1
4.797400320E-1,4.581418037E-1,6.768555641E-1,2.235713005E-1
4.877364350E-1,4.291920662E-1,6.551113129E-1,1.643710136E-1
4.957320670E-1,3.220319748E-1,6.133193970E-1,4.486894608E-2
5.037272380E-1,2.815074921E-1,5.993900299E-1,-7.657861710E-2
5.117234860E-1,2.685914040E-1,6.005401611E-1,-1.905622482E-1
5.197188880E-1,2.955021858E-1,5.712113380E-1,-3.639578819E-1
5.277155980E-1,2.979021072E-1,5.382728577E-1,-4.940428734E-1
5.357399220E-1,3.279390335E-1,5.119771957E-1,-6.249456406E-1
5.437352480E-1,3.230137825E-1,5.547642708E-1,-6.895689964E-1
5.517318800E-1,3.138823509E-1,6.067218781E-1,-7.816338539E-1
5.597278980E-1,4.174747467E-1,6.011748314E-1,-4.488873482E-1
5.677239920E-1,5.194277763E-1,5.455617905E-1,-4.017524719E-1
5.757180860E-1,5.505390167E-1,4.102745056E-1,-3.515253067E-1
5.837138730E-1,5.735588074E-1,3.083071709E-1,-2.383165359E-1
5.917397370E-1,5.771088600E-1,2.341804504E-1,-8.745002747E-2
5.997356770E-1,5.657420158E-1,1.702260971E-1,3.696012497E-2
6.077310790E-1,5.835766792E-1,7.017421722E-2,1.775631905E-1
6.157267880E-1,6.749544144E-1,-9.665060043E-2,3.331685066E-1
6.237222670E-1,7.439975739E-1,-2.305612564E-1,4.259982109E-1
6.317185920E-1,7.838606834E-1,-3.816838264E-1,4.706869125E-1
6.397139940E-1,7.238912582E-1,-4.863462448E-1,5.438332558E-1
6.477404730E-1,7.038407326E-1,-5.430068970E-1,6.619429588E-1
6.557349520E-1,7.686643600E-1,-5.596437454E-1,6.171908379E-1
6.637312000E-1,8.965001106E-1,-5.222387314E-1,5.966477394E-1
6.717266790E-1,9.829285145E-1,-4.113898277E-1,2.333526611E-1
6.797226190E-1,9.437682629E-1,-4.093356133E-1,-3.052711487E-2
6.877180210E-1,8.457200527E-1,-5.066232681E-1,-3.380570412E-1
6.957134240E-1,7.281143665E-1,-6.600279808E-1,-4.757919312E-1
7.037395940E-1,5.910258293E-1,-7.647590637E-1,-5.512399673E-1
7.117356110E-1,5.290226936E-1,-8.331532478E-1,-6.393041611E-1
7.197310130E-1,5.175204277E-1,-7.717685699E-1,-6.519761086E-1
7.277282620E-1,5.564210415E-1,-6.539788246E-1,-5.995955467E-1
7.357221250E-1,6.073253155E-1,-4.837050438E-1,-6.098031998E-1
7.437178340E-1,5.718586445E-1,-3.743829727E-1,-6.239738464E-1
7.517139290E-1,4.610803127E-1,-3.326034546E-1,-6.622366905E-1
7.597394850E-1,3.873145580E-1,-3.843183517E-1,-3.467035294E-1
7.677345790E-1,3.677289486E-1,-4.834451675E-1,-3.846130371E-1
7.757305970E-1,4.532155991E-1,-3.929567337E-1,-7.732729912E-1
7.837263060E-1,6.529459953E-1,-2.720637321E-1,-7.369260788E-1
7.917222460E-1,6.532349586E-1,-1.512136459E-1,-1.187072754E0
7.997177260E-1,6.235721111E-1,-9.543132782E-2,-1.440470695E0
8.077136660E-1,6.522505283E-1,-3.359842300E-2,-1.522168159E0
8.157398370E-1,5.750889778E-1,7.058334351E-2,-1.596889019E0
8.237355470E-1,4.317989349E-1,2.769727707E-1,-1.690067291E0
8.317307180E-1,2.515416145E-1,4.678878784E-1,-1.736425877E0
8.397267350E-1,1.275820732E-1,5.511517525E-1,-1.883515358E0
8.477209060E-1,1.102430820E-1,5.289783478E-1,-2.114281654E0
8.557178470E-1,1.423847675E-1,4.539837837E-1,-2.267973900E0
8.637131720E-1,1.904892921E-1,3.097238541E-1,-2.275184155E0
8.717399580E-1,1.854155064E-1,2.041440010E-1,-2.200379848E0
8.797353600E-1,2.073695660E-1,9.645605087E-2,-1.903985500E0
8.877311470E-1,2.045552731E-1,2.973127365E-2,-1.538724422E0
8.957262410E-1,2.531461716E-1,8.184909821E-3,-1.250392914E0
9.037218740E-1,3.329191208E-1,-6.697368622E-2,-9.767022133E-1
9.117179680E-1,3.819997311E-1,-1.160168648E-1,-8.649878502E-1
9.197132930E-1,4.339947701E-1,-2.418346405E-1,-7.284612656E-1
9.277385420E-1,4.408762455E-1,-3.178346157E-1,-5.430498123E-1
9.357339430E-1,4.265017509E-1,-4.190223217E-1,-3.594713211E-1
9.437302680E-1,3.718423843E-1,-5.311963558E-1,-1.974802017E-1
9.517262850E-1,2.216391563E-1,-5.977072716E-1,-7.341384888E-2
9.597223030E-1,1.025223732E-1,-6.969974041E-1,1.219987869E-1
9.677180890E-1,-1.251459122E-2,-7.997491360E-1,2.518177032E-1
9.757128750E-1,-1.095085144E-1,-9.756987095E-1,3.989114761E-1
9.837386630E-1,-1.839437485E-1,-1.129353046E0,4.595556259E-1
9.917344490E-1,-1.708419323E-1,-1.268459320E0,5.027980804E-1
9.997310810E-1,-1.255774498E-2,-1.401202321E0,6.146545410E-1
1.007725253E0,8.786869049E-2,-1.467313647E0,7.283887863E-1
1.015721270E0,2.260857821E-1,-1.521138906E0,8.536586761E-1
1.023717518E0,3.698755503E-1,-1.535358787E0,9.005880356E-1
1.031713613E0,4.708777666E-1,-1.532349348E0,8.600339890E-1
1.039739476E0,5.956950188E-1,-1.531554818E0,9.022445679E-1
1.047735724E0,6.378072500E-1,-1.395849586E0,9.826745987E-1
1.055730895E0,6.745581031E-1,-1.070541620E0,1.203999519E0
1.063725913E0,8.065387607E-1,-5.748142004E-1,1.498236656E0
1.071722237E0,1.023394823E0,-1.645653248E-1,1.954460144E0
1.079717331E0,1.188982010E0,2.114992142E-1,2.402332306E0
1.087712503E0,1.268742681E0,3.910694122E-1,2.754505157E0
1.095738674E0,1.245366335E0,3.407762051E-1,2.900076866E0
1.103734383E0,1.175082445E0,1.768547297E-1,2.910399437E0
1.111731325E0,1.096892357E0,-1.256344318E-1,2.832868576E0
1.119726111E0,9.985235929E-1,-3.949512243E-1,2.609368324E0
1.127722436E0,9.407717586E-1,-5.247735381E-1,2.361288071E0
1.135716607E0,8.753589392E-1,-6.581860185E-1,2.003941536E0
1.143712932E0,9.024657011E-1,-7.022441626E-1,1.661087990E0
1.151739026E0,9.572975636E-1,-7.570947409E-1,1.176648140E0
1.159734121E0,1.016535521E0,-8.201477528E-1,7.179651260E-1
1.167729215E0,1.059811711E0,-8.741970062E-1,4.384469986E-1
1.175725617E0,1.118639708E0,-9.238660336E-1,3.457050323E-1
1.183721249E0,1.110366106E0,-9.459841251E-1,4.929647446E-1
1.191717036E0,1.103109837E0,-9.784080982E-1,6.248006821E-1
1.199713284E0,1.117295742E0,-9.395592213E-1,6.672115326E-1
1.207739763E0,1.207091808E0,-8.215868473E-1,7.472190857E-1
1.215734550E0,1.311267257E0,-6.840820312E-1,7.307920456E-1
1.223729644E0,1.347850561E0,-5.094496012E-1,6.776571274E-1
1.231725661E0,1.348060131E0,-3.565542102E-1,6.977186203E-1
1.239721371E0,1.312880278E0,-2.444716245E-1,7.047080994E-1
1.247715542E0,1.318251133E0,-1.790707111E-1,6.958904266E-1
1.255711944E0,1.277681351E0,-7.083310187E-2,7.763700485E-1
1.263738346E0,1.236356616E0,-2.006050199E-2,8.669452667E-1
1.271734671E0,1.110935211E0,-1.226639748E-2,9.459352493E-1
1.279729842E0,9.854092598E-1,-6.834011525E-3,9.916458130E-1
1.287725782E0,8.718229532E-1,2.743175998E-2,9.368696213E-1
1.295721185E0,9.083367586E-1,9.012416005E-3,9.515466690E-1
1.303716894E0,9.854595661E-1,-2.464286536E-1,1.067016602E0
1.311712680E0,1.065655947E0,-6.224621534E-1,1.410721779E0
1.319738852E0,1.054809332E0,-8.760544658E-1,2.061549187E0
1.327734254E0,5.066435337E-1,-1.228843331E0,2.652442932E0
1.335729271E0,1.102644205E-2,-1.290684104E0,2.689922333E0
1.343725289E0,-2.080419064E-1,-1.263889790E0,2.066295624E0
1.351720998E0,-1.023076773E-1,-1.039065599E0,1.803919792E0
1.359716169E0,-9.105581045E-2,-7.799501419E-1,1.445507050E0
1.367742956E0,-1.013960838E-1,-4.859781861E-1,1.012578011E0
1.375738281E0,2.067434788E-2,-3.373327553E-1,6.127977371E-1
1.383733452E0,2.516553402E-1,-2.563334703E-1,9.300136566E-2
1.391729699E0,4.082062840E-1,-2.345143855E-1,-2.857217789E-1
1.399725410E0,5.144438744E-1,-1.585821509E-1,-6.217384338E-1
1.407719965E0,4.220653474E-1,-3.309157491E-2,-7.785310745E-1
1.415716290E0,2.538788617E-1,1.105764359E-1,-8.013868332E-1
1.423742462E0,1.493070722E-1,2.315997481E-1,-7.811136246E-1
1.431738710E0,2.256478369E-1,2.796256244E-1,-6.721277237E-1
1.439734111E0,4.459330142E-1,1.858270466E-1,-4.385795593E-1
1.447730129E0,6.322842240E-1,1.346297562E-1,-2.051725388E-1
1.455724377E0,7.332434058E-1,5.393201113E-2,-1.970386505E-2
1.463720394E0,7.084054351E-1,-4.890453815E-2,2.113780975E-1
1.471716335E0,5.374056697E-1,-1.237437725E-1,4.475622177E-1
1.479742891E0,2.663598955E-1,-2.185038328E-1,6.602554321E-1
1.487737292E0,4.214727879E-2,-2.788898349E-1,7.752208710E-1
1.495733925E0,-1.144720316E-1,-2.957437634E-1,7.061939240E-1
1.503729020E0,-1.524695754E-1,-2.951160371E-1,6.037960052E-1
1.511725037E0,-1.107639074E-1,-2.429141700E-1,4.152050018E-1
1.519720746E0,-7.974720001E-2,-1.720575988E-1,1.786527634E-1
1.527716456E0,-1.027331948E-1,-7.748690248E-2,-1.967620850E-2
1.535741704E0,-1.532676816E-1,2.548456192E-3,-2.276573181E-1
1.543737490E0,-1.731016636E-1,3.706309199E-2,-3.159542084E-1
1.551733739E0,-1.137821078E-1,2.622625232E-2,-3.252258301E-1
1.559729218E0,-3.271275759E-2,-1.782098413E-2,-2.387018204E-1
1.567723927E0,1.275974512E-2,-1.628530025E-2,-1.282100677E-1
1.575720560E0,3.931570053E-2,-4.356369376E-2,1.449584961E-3
1.583715962E0,6.116151810E-3,-6.148388982E-2,1.430797577E-1
1.591742210E0,-4.414707422E-2,-6.308096647E-2,2.535505295E-1
1.599737613E0,-9.490644932E-2,-6.761232018E-2,2.969303131E-1
1.607734168E0,-5.596506596E-2,-8.682101965E-2,3.019094467E-1
1.615729647E0,2.953368425E-2,-8.698278666E-2,2.996187210E-1
1.623724741E0,7.329577208E-2,-4.905912280E-2,2.254238129E-1
1.631720143E0,1.166673899E-1,-1.585230231E-2,1.152954102E-1
1.639715776E0,1.435815692E-1,-1.138910651E-2,1.955032349E-2
1.647742254E0,1.424217820E-1,-6.713300943E-3,-4.022979736E-2
1.655737118E0,1.207014322E-1,-2.356016636E-2,-4.248428345E-2
1.663733751E0,8.087140322E-2,-1.886498928E-2,-6.382465363E-2
1.671729768E0,8.316874504E-3,-1.657733321E-2,-4.919815063E-2
1.679724786E0,-4.452294111E-2,-3.106927872E-2,6.166458130E-3
1.687721495E0,-8.348375559E-2,-4.329442978E-2,3.994846344E-2
1.695716281E0,-8.266353607E-2,-3.877505660E-2,5.930519104E-2
1.703742069E0,-7.081204653E-2,-3.663668036E-2,8.817577362E-2
1.711737470E0,-6.712710857E-2,-4.174947739E-2,8.585453033E-2
1.719734103E0,-5.446350574E-2,-2.298834920E-2,1.074323654E-1
1.727727966E0,-3.767502308E-2,-3.046369553E-2,7.390308380E-2
1.735724291E0,-1.432502270E-2,-4.018646479E-2,6.188678741E-2
1.743719462E0,2.785962820E-2,-2.105951309E-2,4.267024994E-2
1.751716710E0,5.549126863E-2,-2.107653022E-2,9.076118469E-3
1.759741574E0,8.288210630E-2,-6.505966187E-3,1.378536224E-2
1.767737668E0,8.403307199E-2,-2.061656117E-2,8.924484253E-3
1.775732993E0,9.989589453E-2,-4.423829913E-2,3.760814667E-2
1.783728780E0,1.042697430E-1,-4.384535551E-2,3.041458130E-2
1.791724797E0,9.235036373E-2,-4.362696409E-2,2.803325653E-2
1.799719507E0,5.949699879E-2,-3.873977065E-2,4.244804382E-2
1.807714986E0,4.854160547E-2,-4.364499450E-2,3.772163391E-2
1.815741772E0,3.048861027E-2,-2.458363771E-2,1.384830475E-2
1.823736789E0,1.491516829E-2,1.561462879E-3,4.983329773E-2
1.831733114E0,3.966271877E-3,-1.759299636E-2,7.863235474E-2
1.839728286E0,-1.676189899E-2,-5.702555180E-3,5.713653564E-2
1.847724841E0,-3.516161442E-2,-2.724203467E-2,5.958080292E-2
1.855719705E0,-4.413700104E-2,-3.904438019E-2,5.484008789E-2
1.863715646E0,-1.977366209E-2,-3.171893954E-2,5.248069763E-2
1.871741509E0,-1.957583427E-2,-7.215917110E-2,8.841800690E-2
1.879737218E0,-2.429014444E-2,-3.377529979E-2,9.082126617E-2
1.887732082E0,-2.423566580E-2,-4.807782173E-2,7.646179199E-2
1.895728099E0,-2.949011326E-2,-2.423703671E-2,5.966663361E-2
1.903724116E0,-1.095539331E-2,-2.774506807E-3,3.807353973E-2
1.911719442E0,2.169221640E-2,-1.226404309E-2,2.604770660E-2
1.919715151E0,3.025448322E-2,-1.674643159E-2,1.402091980E-2
1.927742322E0,5.816715956E-2,-2.118650079E-2,1.637554169E-2
1.935736725E0,7.216370106E-2,-3.037461638E-2,3.552150726E-2
1.943732819E0,8.648318052E-2,-4.900982976E-2,4.990482330E-2
1.951728759E0,1.009486318E-1,-4.367420077E-2,3.796482086E-2
1.959724161E0,6.281203032E-2,-5.273661017E-2,6.672954559E-2
1.967718948E0,3.688997030E-2,-3.786101937E-2,5.959510803E-2
1.975714734E0,3.844082355E-3,-3.761690855E-2,7.160949707E-2
1.983741520E0,-1.000308990E-2,-3.509411216E-2,3.813076019E-2
1.991736846E0,1.178580523E-2,-4.231557250E-2,2.377891541E-2
1.999732555E0,-2.386122942E-2,-1.852837205E-2,2.379035950E-2
2.007728880E0,-6.749510765E-3,-2.827385068E-2,2.141284943E-2
2.015724052E0,-9.000241756E-3,-1.867169142E-2,2.381801605E-2
2.023719146E0,-1.605230570E-2,-1.868414879E-2,2.382564545E-2
2.031715701E0,1.252913475E-2,-1.807481050E-3,3.339862823E-2
2.039740950E0,2.185070515E-2,-3.748294711E-2,4.296779633E-2
2.047735813E0,7.252275944E-3,-4.196438193E-2,5.493640900E-2
2.055732677E0,-1.562833786E-4,-2.981323004E-2,7.887077332E-2
2.063727770E0,9.106814861E-3,-4.869124293E-2,7.886219025E-2
2.071724173E0,2.762526274E-2,-2.933511138E-2,6.446266174E-2
2.079719498E0,1.494508982E-2,-3.379139304E-2,3.809356689E-2
2.087715515E0,1.192033291E-2,-3.581273556E-2,6.679821014E-2
2.095741456E0,4.488259554E-2,-5.461737514E-2,6.916999817E-2
2.103736242E0,5.399948359E-2,-2.327078581E-2,2.605247498E-2
2.111732490E0,6.815236807E-2,-8.709162474E-3,1.646995544E-2
2.119728277E0,7.560795546E-2,-2.772191167E-2,1.888847351E-2
2.127723910E0,5.005824566E-2,-2.519744635E-2,3.091812134E-2
2.135718465E0,1.760560274E-2,-3.690063953E-3,2.380371094E-2
2.143715328E0,-9.943962097E-3,-1.324930787E-2,4.782676697E-2
2.151741500E0,-2.546870708E-2,-1.794186234E-2,5.509662628E-2
2.159736902E0,-5.331772566E-2,-8.354932070E-3,5.515670776E-2
2.167733534E0,-3.613483906E-2,-1.777690649E-2,7.674026489E-2
2.175728321E0,-2.488732338E-3,-4.152721167E-2,7.196807861E-2
2.183723800E0,-2.746760845E-3,-4.369556904E-2,6.477737427E-2
2.191719740E0,-1.026809216E-2,-3.875917196E-2,6.236743927E-2
2.199715220E0,2.045851946E-2,-3.401246667E-2,3.360843658E-2
2.207739852E0,1.046526432E-2,-2.201062441E-2,3.358173370E-2
2.215736715E0,1.009964943E-2,-1.238170266E-2,7.223129272E-3
2.223731810E0,-2.250552177E-3,-9.975582361E-3,-4.774093628E-3
2.231727827E0,1.901298761E-2,-7.437169552E-3,1.915550232E-2
2.239722921E0,3.305679560E-2,-9.688735008E-3,5.026531219E-2
2.247720247E0,3.280973434E-2,-1.912298799E-2,4.786109924E-2
2.255714725E0,4.454261065E-2,-2.860492468E-2,5.263805389E-2
2.263741127E0,2.072250843E-2,-2.858555317E-2,6.461715698E-2
2.271736913E0,-3.047049046E-3,-3.094276786E-2,6.223583221E-2
2.279731624E0,-4.692673683E-4,-3.093838692E-2,6.464290619E-2
2.287727025E0,2.348387241E-2,-3.099921346E-2,5.266952515E-2
2.295723427E0,-1.736485958E-2,-9.463191032E-3,4.547691345E-2
2.303718445E0,-1.506108046E-2,-1.665100455E-2,2.871036530E-2
2.311715077E0,8.834898472E-3,-2.333253622E-3,2.870559692E-2
2.319740710E0,1.827478409E-2,-6.109476089E-5,3.587436676E-2
2.327737035E0,2.071911097E-2,-2.885237336E-2,3.587532043E-2
2.335731745E0,2.076238394E-2,-2.168774605E-2,3.587722778E-2
2.343727531E0,2.349168062E-2,-4.331013560E-2,4.786777496E-2
2.351722934E0,-6.467103958E-5,-9.792387486E-3,7.183551788E-2
2.359718566E0,1.223742962E-2,-2.661973238E-2,6.227874756E-2
2.367743891E0,1.966989040E-2,-3.622412682E-2,5.989933014E-2
2.375740832E0,6.385445595E-4,-4.331606627E-2,5.512237549E-2
2.383736233E0,1.029878855E-2,-1.456883550E-2,4.315853119E-2
2.391731635E0,5.559504032E-3,-2.409881353E-2,2.879810333E-2
2.399727344E0,3.320276737E-3,-1.683253050E-2,3.120613098E-2
2.407724209E0,1.781326532E-2,-3.117954731E-2,3.839874268E-2
2.415718379E0,8.267760277E-3,-9.505867958E-3,2.882862091E-2
2.423744550E0,5.916953087E-3,-2.130985260E-2,2.883911133E-2
2.431740876E0,-6.078898907E-3,-9.207338095E-3,4.320907593E-2
2.439736047E0,-6.111681461E-3,-1.389268041E-2,2.884483337E-2
2.447731449E0,3.304004669E-3,-1.862829924E-2,4.799175262E-2
2.455726543E0,2.236223221E-2,-3.534552455E-2,4.559230804E-2
2.463722561E0,1.752460003E-2,-2.107581496E-2,4.558467865E-2
2.471718501E0,1.523268223E-2,-1.636508107E-2,5.037689209E-2
2.479744134E0,5.746543407E-3,-2.125132084E-2,4.798412323E-2
2.487740689E0,1.788729429E-2,-9.304493666E-3,4.081153870E-2
2.495736091E0,-2.031022310E-2,-1.898649335E-2,5.278587341E-2
2.503731185E0,-1.787644625E-2,-1.183310151E-2,4.799938202E-2
2.511727280E0,-8.368194103E-3,-2.612757683E-2,3.123760223E-2
2.519722297E0,5.707323551E-3,-1.651740074E-2,4.797935486E-2
2.527717391E0,1.493120193E-2,-2.361637354E-2,3.838253021E-2
2.535744178E0,1.695495844E-2,-3.073501587E-2,4.793739319E-2
2.543739964E0,1.175165176E-2,-2.831789851E-2,3.354549408E-2
2.551735289E0,1.137703657E-2,-1.808106899E-3,3.831577301E-2
2.559731615E0,-1.764559746E-2,-8.885473013E-3,2.872371674E-2
2.567728247E0,3.582060337E-3,-3.031677008E-2,4.067897797E-2
2.575722726E0,-1.573938131E-2,-3.811627626E-3,5.264663696E-2
2.583718128E0,3.439563513E-2,-2.761095762E-2,5.024814606E-2
2.591744684E0,1.730221510E-2,-2.037256956E-2,6.459331512E-2
2.599740086E0,3.145384789E-2,-3.943291306E-2,5.021762848E-2
2.607735103E0,2.660554647E-2,-1.789730787E-2,2.627086639E-2
2.615731121E0,2.433806658E-2,-1.794064045E-2,4.064273834E-2
2.623727138E0,1.501572132E-2,-2.040243149E-2,5.262851715E-2
2.631722001E0,3.212428093E-2,-2.280834317E-2,6.222820282E-2
2.639718250E0,-3.228306770E-3,3.505527973E-3,4.789924622E-2
2.647744805E0,-1.954638958E-2,-2.275806665E-2,3.356742859E-2
2.655739899E0,-2.410942316E-2,-1.065137982E-2,4.555892944E-2
2.663735225E0,-3.379660845E-2,-1.051881909E-2,4.795169830E-2
2.671731626E0,-2.925956249E-2,-2.962002158E-2,4.314899445E-2
2.679726643E0,-5.734324455E-3,-2.949675918E-2,3.594303131E-2
2.687721431E0,1.294368505E-2,-1.987361908E-2,2.633666992E-2
2.695718371E0,1.465243101E-2,-1.020896435E-2,3.108215332E-2
2.703743695E0,-2.778708935E-3,-2.217003703E-2,5.019187927E-2
2.711739406E0,-1.282048225E-2,-2.687439322E-2,6.213665009E-2
2.719735731E0,1.540291309E-2,-2.927863598E-2,6.688976288E-2
2.727731748E0,1.748394966E-2,-3.407993913E-2,7.883930206E-2
2.735726457E0,2.909660339E-2,-2.215054631E-2,9.078502655E-2
2.743721936E0,1.916593313E-2,-5.079606175E-2,7.879352570E-2
2.751718184E0,1.891368628E-2,-1.716774702E-2,4.526329041E-2
2.759743740E0,2.337098122E-2,-1.936215162E-2,3.806781769E-2
2.767738604E0,6.397724152E-3,-7.154166698E-3,4.045677185E-2
2.775734929E0,3.957033157E-3,-1.652136445E-2,2.155303955E-3
2.783730638E0,1.611441374E-2,-1.879948378E-2,1.653862000E-2
2.791727194E0,3.332185745E-2,-4.344016314E-3,2.136039734E-2
2.799722673E0,1.708298922E-2,-1.149648428E-2,2.857875824E-2
2.807718382E0,-1.488804817E-3,-9.036123753E-3,4.059219360E-2
2.815743939E0,-2.255874872E-2,-9.042143822E-3,4.301834106E-2
2.823739571E0,-2.706503868E-2,-1.136651635E-2,4.782867432E-2
2.831735588E0,-3.414422274E-2,-3.048297763E-2,7.417297363E-2
2.839731605E0,-2.956306934E-2,-1.361262798E-2,5.740547180E-2
2.847726162E0,-1.563847065E-2,-2.800691128E-2,6.455612183E-2
2.855722179E0,-1.145136356E-2,-3.281629086E-2,5.014991760E-2
2.863717503E0,-1.680123806E-2,-2.805450559E-2,2.856349945E-2
2.871743983E0,-5.432486534E-3,1.273763180E-2,2.373886108E-2
2.879739154E0,1.072454453E-2,-8.624643087E-3,1.652526855E-2
2.887736017E0,2.455860376E-2,-3.700375557E-3,3.564834595E-2
2.895730497E0,2.175605297E-2,-4.178416729E-2,5.239200592E-2
2.903726590E0,3.562450409E-2,-2.019625902E-2,4.278373718E-2
2.911721377E0,3.068321943E-2,-1.543685794E-2,4.516601562E-2
2.919718009E0,2.851724625E-2,-3.941577673E-2,5.236244202E-2
2.927742950E0,1.708722115E-2,-2.488026023E-2,5.958747864E-2
2.935739275E0,8.234381676E-4,-2.469122410E-2,4.287052155E-2
2.943734600E0,-1.557809114E-2,-1.735219359E-2,4.050636292E-2
2.951731310E0,-1.534545422E-2,-2.913659811E-2,4.531764984E-2
2.959726096E0,-1.271533966E-2,-1.940518618E-2,3.337001801E-2
2.967723267E0,2.332836390E-2,-2.401685715E-2,2.141475677E-2
2.975717131E0,3.551518917E-2,-2.866372466E-2,1.904106140E-2
2.983743071E0,2.630466223E-2,-2.848216891E-2,3.343963623E-2
2.991738704E0,1.707404852E-2,-2.125951648E-2,4.064655304E-2
2.999734799E0,-1.652419567E-3,-1.406660676E-2,3.349399567E-2
3.007729816E0,-1.563566923E-2,-6.921440363E-3,3.591060638E-2
3.015725217E0,-8.203208447E-3,-7.021754980E-3,6.225967407E-2
3.023721005E0,-2.718561888E-2,-2.169460058E-3,5.748558044E-2
3.031717560E0,-2.722012997E-2,-1.639065146E-2,5.030727386E-2
3.039744039E0,-2.745729685E-2,4.917681217E-4,5.029678345E-2
3.047739133E0,-8.666992188E-3,-3.506845236E-2,6.944084167E-2
3.055735228E0,-2.123850584E-2,-2.045929432E-2,4.068183899E-2
3.063730245E0,6.919622421E-3,-4.645824432E-2,3.586959839E-2
3.071725954E0,3.038513660E-2,-1.015260816E-2,4.543209076E-2
3.079721433E0,3.242087364E-2,-3.372314572E-2,4.542446136E-2
3.087748527E0,3.944569826E-2,-2.386909723E-2,5.260944366E-2
3.095743621E0,2.047437429E-2,-2.359351516E-2,4.066181183E-2
3.103738101E0,2.093642950E-2,5.247592926E-4,4.309558868E-2
3.111734656E0,-1.662892103E-2,-1.138260961E-2,4.793548584E-2
3.119730750E0,-2.298086882E-2,-1.854488254E-2,4.320335388E-2
3.127725461E0,-3.426563740E-2,-2.563193440E-2,6.001186371E-2
3.135721247E0,-2.170842886E-2,-1.607042551E-2,6.005096436E-2
3.143717187E0,-1.650911570E-2,7.103383541E-4,5.050277710E-2
3.151743974E0,-1.385122538E-2,-2.314400673E-2,4.813098907E-2
3.159738453E0,-1.368021965E-2,-8.629709482E-3,5.293750763E-2
3.167733316E0,-4.032790661E-3,-2.285718918E-2,3.858280182E-2
3.175730487E0,3.032267094E-3,-1.320183277E-2,5.054855347E-2
3.183725043E0,1.259112358E-2,-3.227275610E-2,5.294609070E-2
3.191721906E0,1.980251074E-2,-3.220283985E-2,4.576778412E-2
3.199717308E0,4.393589497E-2,-3.451952338E-2,2.902412415E-2
3.207743788E0,3.473597765E-2,-2.024039626E-2,2.665233612E-2
3.215738266E0,2.814245224E-2,-1.311391592E-2,2.429485321E-2
3.223733976E0,2.414536476E-2,-1.321846247E-2,3.392028809E-2
3.231730070E0,1.793915033E-2,-2.525493503E-2,4.356002808E-2
3.239725164E0,1.183003187E-2,-8.488774300E-3,4.363250732E-2
3.247720566E0,-1.571106911E-2,-3.249883652E-2,3.413295746E-2
3.255717122E0,-3.324151039E-4,-1.813232899E-2,5.335426331E-2
3.263742755E0,-1.851707697E-2,-3.964155912E-2,4.863357544E-2
3.271739387E0,-2.730280161E-2,-1.810404658E-2,3.671550751E-2
3.279734404E0,-2.654373646E-2,-2.760601044E-2,2.240467072E-2
3.287730422E0,-4.027360678E-2,-1.313349605E-2,2.724075317E-2
3.295725824E0,-3.738623857E-2,-3.421574831E-3,3.206920624E-2
3.303720687E0,-2.752101421E-2,-1.999545097E-2,3.688526154E-2
3.311717013E0,-1.306325197E-2,-5.417674780E-3,3.690052032E-2
3.319743107E0,-1.303452253E-2,-1.000842452E-2,3.930568695E-2
3.327737893E0,8.444488049E-3,-2.421090007E-2,6.085586548E-2
3.335733988E0,4.195576906E-2,-1.928591728E-2,4.649639130E-2
3.343729620E0,2.293115854E-2,-1.669737697E-2,3.933143616E-2
3.351725099E0,1.545369625E-3,-1.176410913E-2,5.610847473E-2
3.359720425E0,1.798689365E-3,-2.121090889E-2,5.373764038E-2
3.367747596E0,1.419192553E-2,-9.297698736E-3,5.855178833E-2
3.375742997E0,2.653300762E-3,-2.360817790E-2,4.900646210E-2
3.383738014E0,7.438063622E-4,-1.165127754E-2,3.946304321E-2
3.391734648E0,-2.768164873E-2,-2.060949802E-3,3.469562531E-2
3.399729126E0,-5.379873514E-2,-1.154294610E-2,3.471469879E-2
3.407724605E0,-2.260845900E-2,-1.384887099E-2,2.514553070E-2
3.415721161E0,-1.541304588E-2,-1.610299945E-2,4.191207886E-2
3.423746794E0,3.638327122E-3,-2.078428864E-2,3.472805023E-2
3.431742503E0,1.163065434E-3,-1.585832238E-2,3.712272644E-2
3.439737290E0,2.026265860E-2,-2.057194710E-2,3.472900391E-2
3.447733307E0,3.450036049E-3,-3.818094730E-3,3.472423553E-2
3.455729247E0,2.038180828E-2,-3.006845713E-2,4.671001434E-2
3.463724727E0,6.227612495E-3,-2.759674191E-2,5.151653290E-2
3.471721359E0,1.359194517E-2,-3.607362509E-3,5.153179169E-2
3.479746222E0,1.892507076E-3,-3.495275974E-3,4.676628113E-2
3.487741702E0,1.412910223E-2,-2.253288031E-2,6.354999542E-2
3.495737642E0,1.913547516E-2,-3.458607197E-2,5.398368835E-2
3.503734044E0,2.443456650E-2,-2.509140968E-2,5.162048340E-2
3.511729984E0,1.063191891E-2,-6.157964468E-3,3.728389740E-2
3.519725079E0,-1.014125347E-2,1.266208291E-2,1.338005066E-2
3.527721404E0,-1.396715641E-2,1.732811332E-2,1.822948456E-2
3.535746651E0,-1.079463959E-2,5.190998316E-3,3.264045715E-2
3.543742131E0,-2.690005302E-2,-2.029091120E-3,4.226016998E-2
3.551738071E0,-6.002265215E-2,-2.592748404E-2,7.820320129E-2
3.559733780E0,-5.987304449E-2,-1.865890622E-2,5.666923523E-2
3.567728952E0,-3.844463825E-2,-1.620763540E-2,4.948139191E-2
3.575724277E0,-3.162401915E-2,-1.610153913E-2,4.946136475E-2
3.583720678E0,-1.289337873E-2,-1.596382260E-2,4.225540161E-2
3.591746773E0,-1.831144094E-2,-2.776440978E-2,4.221916199E-2
3.599742252E0,1.197457314E-4,-1.800858974E-2,3.020668030E-2
3.607738269E0,1.396465302E-2,-2.502819896E-2,3.496742249E-2
3.615733671E0,1.592379808E-2,-2.742210031E-2,3.254318237E-2
3.623728766E0,2.294641733E-2,-3.704619408E-2,4.210662842E-2
3.631724783E0,1.347905397E-2,-1.325404644E-2,3.013610840E-2
3.639719877E0,4.144847393E-3,-3.722697496E-3,3.254508972E-2
3.647745048E0,-2.966523170E-4,-1.335382462E-3,6.369304657E-2
3.655741989E0,2.361238003E-3,-1.081570983E-2,5.653285980E-2
3.663737390E0,-1.187902689E-2,-3.475487232E-3,7.330894470E-2
3.671733408E0,1.811981201E-5,-5.645364523E-3,6.134223938E-2
3.679729117E0,-2.587020397E-3,-2.215254307E-2,6.133842468E-2
3.687725519E0,1.864856482E-2,-1.227727532E-2,3.499507904E-2
3.695720305E0,1.836591959E-2,-1.927402616E-2,4.216575623E-2
3.703746708E0,1.574730873E-2,-2.399593592E-2,2.299976349E-2
3.711742187E0,1.084125042E-2,-2.628776431E-2,2.060127258E-2
3.719737896E0,1.175642014E-3,-1.675438881E-2,1.101684570E-2
3.727732683E0,-1.314610243E-2,-1.688775420E-2,-3.351211548E-3
3.735728931E0,-1.785695553E-2,-1.940816641E-2,3.016757965E-2
3.743724640E0,-3.210067749E-3,-7.452338934E-3,3.976345062E-2
3.751720735E0,-1.978927851E-2,-9.874343872E-3,4.935169220E-2
3.759746214E0,-2.936875820E-2,-3.617674112E-2,5.653476715E-2
3.767742231E0,-3.681343794E-2,-1.685154438E-2,7.328510284E-2
3.775737095E0,-3.721213341E-2,-3.120219707E-2,5.889225006E-2
3.783733035E0,-1.381868124E-2,-1.424965262E-2,6.844043732E-2
3.791729052E0,-7.267773151E-3,-2.361199260E-2,4.446506500E-2
3.799724455E0,2.335000038E-2,-1.391783357E-2,4.922389984E-2
3.807719549E0,1.816743612E-2,-1.137703657E-2,1.807785034E-2
3.815746104E0,2.530819178E-2,-3.045719862E-2,3.004932404E-2
3.823741429E0,2.069568634E-2,-2.090081573E-2,8.513450623E-3
3.831737831E0,-1.242023706E-2,-1.372393966E-2,1.093387604E-2
3.839732618E0,-1.185458899E-2,-3.053277731E-2,2.294254303E-2
3.847728635E0,-4.108548164E-3,-2.096009254E-2,4.213428497E-2
3.855724268E0,-1.156032085E-3,-1.815438271E-3,5.893230438E-2
3.863719670E0,-1.746630669E-2,-2.339279652E-2,5.896091461E-2
3.871746225E0,-1.707345247E-2,-1.861190796E-2,6.377601624E-2
3.879742243E0,-1.439374685E-2,2.973586321E-3,4.703807831E-2
3.887736337E0,-1.906144619E-2,-9.059548378E-3,5.183219910E-2
3.895732431E0,-1.904034615E-2,-4.267391562E-2,4.225254059E-2
3.903728449E0,-2.869337797E-2,-1.873558760E-2,3.266906738E-2
3.911724389E0,-3.131794930E-2,-1.951634884E-3,2.307796478E-2
3.919719791E0,-1.726311445E-2,-2.098947763E-2,3.503417969E-2
3.927746040E0,-1.748365164E-2,-3.044709563E-2,3.981208801E-2
3.935741672E0,1.102292538E-2,-2.317407727E-2,5.177116394E-2
3.943736535E0,-1.547557116E-2,-2.791082859E-2,5.655097961E-2
3.951732860E0,5.983471870E-3,-3.749743104E-2,4.936218262E-2
3.959728186E0,-1.073807478E-2,-1.600986719E-2,4.936218262E-2
3.967724510E0,1.369535923E-3,-6.492316723E-3,2.782058716E-2
3.975719374E0,-1.024246216E-3,-3.046056628E-2,4.457950592E-2
3.983745776E0,-5.683839321E-3,-2.094882727E-2,3.979682922E-2
3.991741255E0,-8.121192455E-3,-1.368615031E-2,4.219150543E-2
3.999736964E0,-2.014362812E-2,-8.817672729E-3,3.500843048E-2
4.007732982E0,-1.530712843E-2,-2.076596022E-2,4.219627380E-2
4.015728076E0,-2.749133110E-2,-3.031384945E-2,3.500080109E-2
4.023723478E0,-2.530175447E-2,-2.786058187E-2,3.019905090E-2
4.031719418E0,-1.844495535E-2,-6.225645542E-3,4.215240479E-2
4.039745897E0,-2.243816853E-3,-2.532395720E-2,4.211616516E-2
4.047740761E0,4.349410534E-3,-2.275550365E-2,4.447937012E-2
4.055737085E0,8.538067341E-3,-2.504360676E-2,5.162525177E-2
4.063732411E0,1.271378994E-2,-1.769816875E-2,4.680252075E-2
4.071728428E0,2.716779709E-4,-3.916111588E-2,5.874443054E-2
4.079722983E0,2.873879671E-2,-1.292851567E-2,5.393409729E-2
4.087720540E0,1.191806793E-2,1.312404871E-3,3.477096558E-2
4.095745172E0,2.161318064E-2,-8.390426636E-3,3.477287292E-2
4.103740805E0,4.320740700E-4,5.974978209E-3,2.761554718E-2
4.111736823E0,-6.353974342E-3,-1.565170288E-2,4.439830780E-2
4.119731917E0,-8.373856544E-3,-2.771174908E-2,3.963184357E-2
4.127727934E0,-8.047282696E-3,-1.575666666E-2,3.486442566E-2
4.135723721E0,-3.895777464E-2,-2.538681030E-2,3.248214722E-2
4.143719123E0,-2.196800709E-2,-1.102000475E-2,5.644035339E-2
4.151745293E0,-3.627336025E-2,-3.732427955E-2,4.447555542E-2
4.159740695E0,-1.968538761E-2,-1.429736614E-3,5.164527893E-2
4.167737559E0,-7.980048656E-3,-1.355007291E-2,3.246688843E-2
4.175732115E0,-1.189529896E-3,-4.099071026E-3,2.525043488E-2
4.183728055E0,1.519417763E-2,-1.621234417E-2,2.282524109E-2
4.191724073E0,1.018935442E-2,-9.065955877E-3,2.280902863E-2
4.199719244E0,2.906620502E-3,-6.605088711E-3,4.674720764E-2
4.207744799E0,-1.984894276E-3,-3.767499328E-2,3.237724304E-2
4.215740817E0,3.708004951E-4,-2.565291524E-2,6.110763550E-2
4.223736757E0,-9.163975716E-3,-1.838588715E-2,6.111431122E-2
4.231732236E0,-4.496854544E-2,-8.750438690E-3,5.394172668E-2
4.239728177E0,-2.573966980E-2,-3.035086393E-2,5.154991150E-2
4.247723656E0,-1.399677992E-2,-1.599514484E-2,5.871772766E-2
4.255718749E0,-1.194238663E-2,-1.354229450E-2,2.996540070E-2
4.263744306E0,-2.674663067E-2,-1.112192869E-2,2.754306793E-2
4.271740631E0,1.539885998E-3,-6.303519011E-3,1.793766022E-2
4.279736878E0,-3.645896912E-3,-1.104125381E-2,3.227806091E-2
4.287732280E0,5.537509918E-3,-2.302116156E-2,3.703880310E-2
4.295727760E0,4.865527153E-4,-1.822224259E-2,2.505016327E-2
4.303723392E0,-1.885426044E-2,3.370642662E-3,5.855941772E-2
4.311749024E0,-4.623711109E-3,-1.424044371E-3,6.573200226E-2
4.319745042E0,2.340853214E-3,-1.103600860E-2,3.698539734E-2
4.327740752E0,-7.555305958E-3,-1.338717341E-2,4.654216766E-2
4.335736153E0,8.799314499E-3,-2.055794001E-2,5.130386353E-2
4.343730941E0,-5.867600441E-3,-6.149351597E-3,4.170894623E-2
4.351727573E0,-6.068825722E-3,-2.056190372E-2,2.493190765E-2
4.359722975E0,-3.820002079E-3,-2.059912682E-2,2.731609344E-2
4.367748454E0,-1.588714123E-2,-6.338536739E-3,2.490997314E-2
4.375743933E0,-2.081644535E-2,5.508899689E-3,3.447246552E-2
4.383740258E0,-1.376658678E-2,-1.856899261E-2,2.487945557E-2
4.391736505E0,-2.100640535E-2,-6.548017263E-3,4.642581940E-2
4.399731062E0,-1.878607273E-2,-3.048229218E-2,5.599212646E-2
4.407727617E0,-4.291921854E-2,-2.802330256E-2,5.119323730E-2
4.415723096E0,-4.568296671E-2,-1.831477880E-2,4.638576508E-2
4.423749191E0,-4.381877184E-2,5.726903677E-3,3.438377380E-2
4.431744362E0,-1.812309027E-2,-2.050152421E-2,3.195095062E-2
4.439740379E0,-4.527032375E-3,3.433376551E-3,2.950477600E-2
4.447736089E0,4.325270653E-3,-1.805326343E-2,3.424739838E-2
4.455731491E0,1.081281900E-2,-8.423954248E-3,3.420257568E-2
4.463727200E0,7.571578026E-4,-3.960096836E-2,4.613876343E-2
4.471723217E0,-6.681382656E-3,-2.768784761E-2,4.372596741E-2
4.479749697E0,7.672429085E-3,-2.542933822E-2,5.808353424E-2
4.487744790E0,-1.360476017E-2,3.237754107E-3,5.809879303E-2
4.495739884E0,-4.229193926E-2,-1.364105940E-2,6.288528442E-2
4.503735518E0,-5.436408520E-2,-8.809089661E-3,5.809211731E-2
4.511731227E0,-3.064751625E-2,-8.660554886E-3,5.090045929E-2
4.519726706E0,-3.575903177E-2,1.050209999E-2,2.933120728E-2
4.527722031E0,-1.695299149E-2,-8.568406105E-3,1.494598389E-2
4.535748818E0,-7.851541042E-3,-2.041330934E-2,1.252651215E-2
4.543744604E0,6.075263023E-3,-8.269250393E-3,1.489830017E-2
4.551740853E0,1.531940699E-2,-3.446573019E-2,1.488208771E-2
4.559735716E0,-8.926987648E-3,-1.504611969E-2,3.402805328E-2
4.567731733E0,-6.634056568E-3,-3.642418981E-2,3.402900696E-2
4.575727059E0,-2.338993549E-2,-1.008319855E-2,3.402996063E-2
4.583722460E0,-1.633566618E-2,-3.876960278E-2,4.120445251E-2
4.591749554E0,-1.411730051E-2,-2.216726542E-2,5.076313019E-2
4.599744417E0,-3.818976879E-2,-2.225857973E-2,3.159618378E-2
4.607739128E0,-4.318082333E-2,1.829016209E-2,3.397083282E-2
4.615735145E0,-1.716113091E-2,6.099820137E-3,3.154468536E-2
4.623730854E0,-3.670787811E-2,1.555022597E-2,2.672481537E-2
4.631726641E0,-1.322108507E-2,-8.460670710E-3,4.345130920E-2
4.639722658E0,-1.604729891E-2,-2.278998494E-2,4.342365265E-2
4.647748829E0,-3.571450710E-2,-1.078253984E-2,4.578495026E-2
4.655744463E0,-9.838521481E-3,-8.333474398E-3,4.815196991E-2
4.663740172E0,-7.952272892E-3,-1.789352298E-2,6.008911133E-2
4.671736497E0,-1.190900803E-3,-3.454697132E-2,5.527687073E-2
4.679730745E0,5.846202374E-3,-5.839645863E-3,4.090118408E-2
4.687726378E0,-6.192147732E-3,-2.020490170E-2,3.850364685E-2
4.695722779E0,-3.732860088E-3,-1.785010099E-2,3.850555420E-2
4.703748874E0,-1.317381859E-2,-1.314362884E-2,1.696300507E-2
4.711744276E0,-9.446144104E-4,8.347660303E-3,1.937103271E-2
4.719739985E0,-2.968490124E-3,-1.792958379E-2,1.461029053E-2
4.727735387E0,-1.202404499E-2,-2.264124155E-2,3.619670868E-2
4.735731097E0,-9.118199348E-3,-1.074516773E-2,2.425575256E-2
4.743725653E0,-3.481805325E-2,-1.152604818E-3,3.387641907E-2
4.751722208E0,-5.112802982E-2,-1.077735424E-2,4.587459564E-2
4.759748149E0,-6.289488077E-2,-2.043879032E-2,4.588508606E-2
4.767743166E0,-5.098384619E-2,-6.190329790E-3,5.066394806E-2
4.775739491E0,-5.132228136E-2,5.740195513E-3,3.388023376E-2
4.783735278E0,-3.505158424E-2,5.803495646E-3,3.624439240E-2
4.791732142E0,-3.562408686E-2,-1.798295975E-2,2.424240112E-2
4.799726697E0,-1.239240170E-2,-3.216317296E-2,3.138637543E-2
4.807722406E0,-1.782059669E-2,-3.917860985E-2,3.135108948E-2
4.815748578E0,5.636274815E-3,-2.706292272E-2,3.372001648E-2
4.823743672E0,1.975381374E-2,-2.454838157E-2,3.131389618E-2
4.831739689E0,2.445989847E-2,-2.926149964E-2,4.328346252E-2
4.839734784E0,1.501059532E-2,-1.964300871E-2,5.526447296E-2
4.847729801E0,-6.194949150E-3,-7.689118385E-3,5.049800873E-2
4.855725895E0,-4.666501284E-2,-1.726400852E-2,4.572486877E-2
4.863721605E0,-6.548237801E-2,-1.490247250E-2,3.856372833E-2
4.871748084E0,-6.048619747E-2,-1.487383246E-2,3.139591217E-2
4.879744101E0,-6.752437353E-2,-5.256265402E-3,2.661895752E-2
4.887740042E0,-5.321043730E-2,-1.958051324E-2,2.661705017E-2
4.895734905E0,-6.302422285E-2,-2.186673880E-2,1.942348480E-2
4.903730845E0,-4.192632437E-2,-5.041092634E-3,4.094409943E-2
4.911725633E0,-1.132661104E-2,-2.406796813E-2,4.091548920E-2
4.919721650E0,2.876478434E-2,-9.659379721E-3,3.848266602E-2
4.927746667E0,2.087533474E-3,-2.159261703E-2,4.564380646E-2
4.935743914E0,9.182274342E-3,-3.109970689E-2,5.043029785E-2
4.943738394E0,2.139627934E-3,-9.539306164E-3,3.846931458E-2
4.951734103E0,9.545981884E-3,-9.533643723E-3,6.960868835E-2
4.959730428E0,-2.147495747E-3,-1.418882608E-2,4.808521271E-2
4.967726677E0,-1.384383440E-2,-6.977379322E-3,3.613376617E-2
4.975721463E0,-2.548217773E-2,2.175122499E-2,3.855133057E-2
4.983748249E0,-2.281606197E-2,-4.684865475E-3,3.138065338E-2
4.991743729E0,-3.697592020E-2,-7.113933563E-3,2.181625366E-2
4.999738438E0,-4.145294428E-2,4.772782326E-3,2.851486206E-4
5.007733840E0,-3.162950277E-2,-7.072091103E-5,1.705837250E-2
5.015730550E0,-3.859579563E-2,-1.196765900E-2,2.665328979E-2
5.023725644E0,-4.086476564E-2,-1.666870713E-2,4.581928253E-2
5.031721046E0,-5.284416676E-2,-1.897701621E-2,4.342842102E-2
5.039747756E0,-2.709269524E-3,-1.175335050E-2,4.820919037E-2
5.047743235E0,-1.985806227E-2,-2.128839493E-3,5.297374725E-2
5.055738944E0,-2.270209789E-2,-9.254246950E-3,6.012916565E-2
5.063734961E0,-8.766353130E-3,-3.304439783E-2,5.531883240E-2
5.071730056E0,-3.308385611E-2,-2.095687389E-2,3.853988647E-2
5.079726073E0,-1.434534788E-2,6.952285767E-4,3.372859955E-2
5.087722013E0,-3.156518936E-2,-2.074149251E-2,1.694297791E-2
5.095747877E0,-1.024711132E-2,-6.321698427E-3,3.608417511E-2
5.103742971E0,-1.272678375E-2,-1.340392232E-2,2.411174774E-2
5.111738680E0,-3.251135349E-3,-6.181180477E-3,1.453018188E-2
5.119734160E0,-1.987659931E-2,5.811691284E-3,3.129959106E-2
5.127730408E0,-3.654032946E-2,-3.723204136E-2,5.764484406E-2
5.135725194E0,-2.927184105E-2,-1.313194633E-2,4.808044434E-2
5.143721519E0,-3.414595127E-2,-2.508646250E-2,6.722927094E-2
5.151748075E0,-4.635083675E-2,-3.628998995E-3,5.045032501E-2
5.159743708E0,-3.227168322E-2,1.108378172E-3,2.648735046E-2
5.167737648E0,-2.783447504E-2,8.299618959E-3,2.885723114E-2
5.175733666E0,-1.630103588E-2,3.564208746E-3,2.404308319E-2
5.183729683E0,-3.081601858E-2,-1.782515645E-2,2.643489838E-2
5.191726315E0,-4.711389542E-3,-1.770693064E-2,3.121185303E-2
5.199722256E0,-1.678657532E-2,-1.754957438E-2,5.754947662E-2
5.207747196E0,-9.685099125E-3,-2.468121052E-2,5.275821686E-2
5.215742983E0,-1.698750257E-2,-5.565255880E-3,5.274868011E-2
5.223738385E0,-2.640652657E-2,-3.191620111E-3,2.402687073E-2
5.231734941E0,-1.671141386E-2,1.597613096E-3,3.361320496E-2
5.239730035E0,-4.511713982E-3,-3.241539001E-3,2.644157410E-2
5.247724282E0,-1.370275021E-2,-1.053154469E-2,1.688575745E-2
5.255721454E0,-4.207837582E-2,1.562806964E-2,4.929542542E-3
5.263747087E0,-3.433585167E-2,5.929261446E-3,2.172183990E-2
5.271742796E0,-5.070543289E-2,1.059821248E-2,4.568386078E-2
5.279738814E0,-5.033683777E-2,-8.565604687E-3,4.570865631E-2
5.287734446E0,-4.294401407E-2,-6.087005138E-3,5.051422119E-2
5.295729848E0,-6.689107418E-2,-8.431017399E-3,6.248760223E-2
5.303725558E0,-6.473165751E-2,-1.319012046E-2,4.331970215E-2
5.311721345E0,-5.571687222E-2,-1.067495346E-2,1.934528351E-2
5.319746900E0,-2.529078722E-2,6.113141775E-3,2.408790588E-2
5.327741687E0,-2.609789371E-2,3.778368235E-3,9.673118591E-3
5.335738551E0,-2.223622799E-2,1.099148393E-2,1.918983459E-2
5.343733414E0,8.000493050E-3,-3.264397383E-3,7.164955139E-3
5.351729432E0,1.205945015E-2,-3.165751696E-3,3.345870972E-2
5.359724833E0,6.726205349E-3,-3.180265427E-2,5.257987976E-2
5.367752158E0,-1.993602514E-2,-1.510983706E-2,7.649707794E-2
5.375747021E0,-3.383398056E-3,-2.719742060E-2,5.493068695E-2
5.383742116E0,-2.491164207E-2,-2.728000283E-2,7.168769836E-2
5.391738364E0,-2.979564667E-2,1.492112875E-3,5.731868744E-2
5.399734150E0,-3.000295162E-2,-3.226190805E-3,4.054737091E-2
5.407728630E0,-2.070003748E-2,8.894592524E-3,4.532527924E-2
5.415724339E0,-1.388520002E-2,9.093433619E-3,2.136802673E-2
5.423751356E0,-1.184099913E-2,-3.012418747E-4,9.381294250E-3
5.431747374E0,-7.288634777E-3,2.273321152E-3,9.373664856E-3
5.439742545E0,2.316474915E-3,-1.202473044E-2,-9.774208069E-3
5.447737947E0,-1.891368628E-2,-2.384722233E-3,2.855587006E-2
5.455733349E0,-3.064650297E-2,2.426862717E-3,4.533290863E-2
5.463729674E0,-5.214977264E-2,4.832476377E-3,2.618312836E-2
5.471724999E0,-5.926918983E-2,-1.909533143E-2,5.012989044E-2
5.479751478E0,-5.218267441E-2,-2.629345655E-2,4.054546356E-2
5.487746341E0,-3.550457954E-2,-4.063794017E-2,4.533004761E-2
5.495742282E0,-3.091490269E-2,-7.133364677E-3,4.531574249E-2
5.503738068E0,-1.688194275E-2,-2.412915230E-3,4.050254822E-2
5.511733086E0,-1.470285654E-2,7.107049227E-3,3.330326080E-2
5.519729103E0,-2.699047327E-2,-1.205259562E-2,3.807163239E-2
5.527724889E0,-1.294505596E-2,-2.481639385E-3,2.368354797E-2
5.535751599E0,-1.802855730E-2,1.194009185E-2,4.760932922E-2
5.543746463E0,-2.308696508E-2,-1.186513901E-2,4.520416260E-2
5.551741864E0,-2.325290442E-2,-2.848461270E-2,3.801727295E-2
5.559737575E0,-2.340924740E-2,-2.592244744E-2,4.759120941E-2
5.567733899E0,-2.825748920E-2,-1.144808531E-2,4.998588562E-2
5.575728378E0,-3.073287010E-2,-6.579458714E-3,3.561973572E-2
5.583724703E0,-3.545987606E-2,-1.373985410E-2,4.041290283E-2
5.591751413E0,-3.777778149E-2,-3.758600354E-2,2.126884460E-2
5.599746891E0,-2.565604448E-2,-1.119729877E-2,9.308815002E-3
5.607741985E0,-2.312189341E-2,7.847249508E-4,2.129077911E-2
5.615737388E0,-1.804476976E-2,1.257675886E-2,1.890659332E-2
5.623733636E0,-1.040691137E-2,5.180537701E-4,1.653862000E-2
5.631729422E0,9.256422520E-3,1.728415489E-2,3.093719482E-2
5.639724440E0,-2.161979675E-3,-9.041398764E-3,5.491638184E-2
5.647750996E0,-3.996765614E-2,-1.806974411E-3,6.452846527E-2
5.655745705E0,-6.601232290E-2,1.733189821E-2,5.496978760E-2
5.663742108E0,-7.297319174E-2,-9.055346251E-3,4.301166534E-2
5.671737201E0,-6.335473061E-2,-1.982480288E-3,3.103828430E-2
5.679733218E0,-4.921483994E-2,-1.159220934E-2,2.383899689E-2
5.687728313E0,-4.233396053E-2,-1.397821307E-2,2.381896973E-2
5.695724869E0,-4.736173153E-2,2.821803093E-3,1.422882080E-2
5.703750501E0,-2.604907751E-2,-1.385718584E-2,1.900482178E-2
5.711746134E0,-2.851563692E-2,-1.623615623E-2,3.097248077E-2
5.719742229E0,-1.419657469E-2,4.933774471E-4,3.336238861E-2
5.727736707E0,-7.037520409E-3,-4.285722971E-3,4.293918610E-2
5.735732724E0,-4.790723324E-3,1.243042946E-2,3.334999084E-2
5.743728127E0,-1.928067207E-2,-4.378378391E-3,4.052162170E-2
5.751725298E0,-7.364094257E-3,7.596224546E-3,3.812503815E-2
5.759750007E0,-1.951235533E-2,5.023777485E-4,1.896286011E-2
5.767745948E0,-1.009839773E-2,5.816221237E-4,4.050350189E-2
5.775742042E0,-3.902018070E-2,-2.321201563E-2,3.331565857E-2
5.783737136E0,-1.523202658E-2,-1.365011930E-2,3.809356689E-2
5.791732769E0,-3.928583860E-2,7.167160511E-4,3.090286255E-2
5.799728556E0,-4.426437616E-2,-1.839771867E-2,1.892089844E-2
5.807754650E0,-3.239279985E-2,-2.077236772E-2,1.652145386E-2
5.815750128E0,-3.024208546E-2,-1.594242454E-2,2.847766876E-2
5.823745762E0,-3.042775393E-2,-1.827684045E-2,3.565216064E-2
5.831741548E0,-2.328562737E-2,5.694359541E-3,3.565025330E-2
5.839737180E0,-8.880496025E-3,3.337204456E-3,3.804969788E-2
5.847732891E0,-1.120918989E-2,-1.098972559E-2,5.002593994E-2
5.855728677E0,3.340780735E-3,-3.818184137E-3,3.327846527E-2
5.863723463E0,-3.654479980E-3,8.121937513E-3,4.286670685E-2
5.871750173E0,-1.774150133E-2,3.299623728E-3,3.569984436E-2
5.879745960E0,-5.539536476E-3,3.297507763E-3,3.571510315E-2
5.887740977E0,-3.164720535E-2,-1.529067755E-3,2.854537964E-2
5.895736687E0,-4.809027910E-2,5.692601204E-3,1.420307159E-2
5.903732089E0,-4.303604364E-2,8.121073246E-3,2.379798889E-2
5.911728413E0,-3.788381815E-2,-3.490316868E-2,9.460449219E-3
5.919724123E0,-5.662393570E-2,-1.560929418E-2,1.906967163E-2
5.927750602E0,-3.240603209E-2,-1.012235880E-3,3.107070923E-2
5.935746081E0,-3.694367409E-2,-1.517191529E-2,3.827857971E-2
5.943741790E0,-6.316149235E-2,4.112303257E-3,4.786968231E-2
5.951736885E0,-3.674268723E-2,-7.734537125E-3,3.590869904E-2
5.959732825E0,-2.717071772E-2,-2.811789513E-3,4.070281982E-2
5.967728304E0,-1.046663523E-2,2.015292645E-3,3.351974487E-2
5.975724322E0,-5.724072456E-3,-9.856849909E-3,3.112602234E-2
5.983750185E0,-1.271617413E-2,9.386301041E-3,3.353786469E-2
5.991746202E0,-3.162306547E-2,-1.197355986E-2,3.595542908E-2
5.999741605E0,-2.653998137E-2,-3.089830279E-2,3.598594666E-2
6.007736929E0,-4.058068991E-2,-9.168565273E-3,3.362178802E-2
6.015732639E0,-4.523217678E-2,-8.936256170E-3,4.561233521E-2
6.023728656E0,-4.735010862E-2,8.551776409E-4,4.563999176E-2
6.031724058E0,-2.559399605E-2,9.647011757E-4,2.650451660E-2
6.039750229E0,-4.459547997E-2,-2.522137761E-2,2.652168274E-2
6.047745015E0,-2.764207125E-2,-2.269244194E-2,3.372383118E-2
6.055741341E0,-3.001302481E-2,1.090031862E-2,1.218032837E-2
6.063736512E0,-2.027583122E-2,2.771714330E-2,3.134632111E-2
6.071732221E0,-2.735459805E-2,-1.287439466E-2,3.375339508E-2
6.079727547E0,-4.865401983E-2,-3.230482340E-3,3.616714478E-2
6.087724256E0,-1.237297058E-2,-3.025084734E-3,3.380584717E-2
6.095749735E0,-1.209467649E-2,-4.801154137E-4,2.664852142E-2
6.103745137E0,-4.290431738E-2,-1.221555471E-2,5.541133881E-2
6.111740924E0,-4.269856215E-2,-2.435058355E-3,4.346275330E-2
6.119736941E0,-4.017651081E-2,2.457499504E-3,5.544662476E-2
6.127733266E0,-5.924987793E-2,-1.414227486E-2,3.391265869E-2
6.135727745E0,-3.295403719E-2,2.733200788E-3,2.673149109E-2
6.143723147E0,-2.835077047E-2,-1.396802068E-2,2.911567688E-2
6.151749548E0,-2.120566368E-2,-2.097663283E-2,1.715087891E-2
6.159745951E0,-1.648527384E-2,3.012120724E-3,1.475429535E-2
6.167740968E0,-9.154081345E-3,1.019495726E-2,2.673530579E-2
6.175736754E0,1.269370317E-2,1.265636086E-2,2.675819397E-2
6.183732465E0,5.913317204E-3,5.535662174E-3,4.115295410E-2
6.191728174E0,-3.427761793E-2,5.626261234E-3,5.076789856E-2
6.199723883E0,-1.459407806E-2,-6.193906069E-3,5.320453644E-2
6.207748747E0,-6.858229637E-3,-6.111174822E-3,4.845619202E-2
6.215744226E0,-1.832133532E-2,3.518104553E-3,2.933788300E-2
6.223740474E0,-3.931450844E-2,1.078757644E-2,5.092620850E-2
6.231736569E0,-3.634899855E-2,5.991280079E-3,2.462863922E-2
6.239731663E0,-4.785734415E-2,2.027291059E-2,2.465534210E-2
6.247727987E0,-3.299111128E-2,1.533636451E-2,2.468109131E-2
6.255723004E0,-5.402308702E-2,2.007049322E-2,1.753139496E-2
6.263749253E0,-5.839443207E-2,-1.099833846E-2,2.713871002E-2
6.271744655E0,-6.543016434E-2,-1.406431198E-3,4.869747162E-2
6.279740903E0,-7.502090931E-2,5.898267031E-3,2.715301514E-2
6.287735997E0,-7.043623924E-2,1.077723503E-2,3.911590576E-2
6.295731707E0,-6.118142605E-2,6.120294333E-3,3.431224823E-2
6.303727185E0,-5.211448669E-2,1.339331269E-2,4.146385193E-2
6.311753896E0,-2.162176371E-2,-8.014231920E-3,1.987934113E-2
6.319749067E0,-1.027739048E-2,-7.822453976E-3,1.984786987E-2
6.327745007E0,-3.656029701E-3,-7.774502039E-3,2.460002899E-2
6.335739871E0,5.613505840E-3,-2.222037315E-2,1.739406586E-2
6.343736196E0,1.277583838E-2,-3.179407120E-2,3.415298462E-2
6.351731520E0,-8.571565151E-3,-7.926821709E-4,4.613113403E-2
6.359727306E0,-1.293861866E-2,6.319850683E-3,4.855060577E-2
6.367754017E0,-4.118567705E-2,1.618951559E-3,4.619216919E-2
6.375749418E0,-4.325461388E-2,6.557315588E-3,5.579757690E-2
6.383745128E0,-4.308903217E-2,-5.271762609E-3,3.426742554E-2
6.391740607E0,-2.630829811E-2,-3.346502781E-4,5.821800232E-2
6.399736547E0,-1.442754269E-2,9.427577257E-3,3.427791595E-2
6.407731949E0,-1.218664646E-2,1.919487119E-2,2.230548859E-2
6.415727121E0,-9.747922421E-3,-1.413205266E-2,2.231693268E-2
6.423753523E0,-2.404665947E-2,7.545858622E-3,7.791519165E-4
6.431749847E0,-7.096469402E-3,-4.300296307E-3,1.037406921E-2
6.439744019E0,-2.832722664E-2,1.007094979E-2,5.607604980E-3
6.447739805E0,-3.512442112E-2,-1.841604710E-3,2.957725525E-2
6.455735745E0,-5.387812853E-2,7.618695498E-3,3.199386597E-2
6.463731148E0,-6.799530983E-2,-3.796145320E-2,3.200626373E-2
6.471727473E0,-7.018709183E-2,-9.370207787E-3,2.483081818E-2
6.479722644E0,-5.576676130E-2,2.596139908E-3,3.680515289E-2
6.487749968E0,-4.868245125E-2,4.995733500E-3,3.440475464E-2
6.495744217E0,-2.988851070E-2,5.134463310E-3,2.720451355E-2
6.503740542E0,-3.273773193E-2,2.914965153E-3,3.436470032E-2
6.511735944E0,-1.882320642E-2,-8.841395378E-3,3.673934937E-2
6.519731577E0,-7.202506065E-3,-1.335573196E-2,4.869937897E-2
6.527727979E0,2.152025700E-3,1.196354628E-3,3.193283081E-2
6.535753149E0,2.273857594E-3,-1.062968373E-2,4.152488708E-2
6.543748937E0,-1.426213980E-2,-8.931159973E-4,3.675842285E-2
6.551744569E0,-1.867294312E-2,-1.751047373E-2,3.918552399E-2
6.559740048E0,-1.338529587E-2,-1.961195469E-2,3.204917908E-2
6.567735681E0,-4.168206453E-2,-3.622826934E-2,2.968978882E-2
6.575731083E0,-3.896754980E-2,-4.921495914E-3,3.450870514E-2
6.583726792E0,-4.099601507E-2,-2.313911915E-3,3.417968750E-3
6.591753272E0,-2.620762587E-2,-2.142488956E-3,2.500152588E-2
6.599749596E0,-2.348339558E-2,-4.419088364E-3,3.700065613E-2
6.607743152E0,-1.350349188E-2,-1.905024052E-3,2.745628357E-2
6.615740400E0,-4.182815552E-2,1.012796164E-2,2.269744873E-2
6.623735571E0,-1.490503550E-2,1.979181170E-2,3.710651398E-2
6.631731204E0,-2.150762081E-2,1.513817906E-2,3.715133667E-2
6.639726375E0,-3.545868397E-2,-3.883153200E-3,5.155086517E-2
6.647753162E0,-5.182635784E-2,-1.389056444E-3,5.158138275E-2
6.655748564E0,-5.877149105E-2,-3.614574671E-3,5.160522461E-2
6.663743965E0,-3.953033686E-2,-1.539257169E-2,3.007125854E-2
6.671740214E0,-6.090849638E-2,-8.082151413E-3,3.248405457E-2
6.679735616E0,-5.136197805E-2,1.534074545E-3,3.248405457E-2
6.687730402E0,-3.462612629E-2,2.060374618E-2,1.571750641E-2
6.695726496E0,-2.738630772E-2,3.884434700E-3,1.811885834E-2
6.703753206E0,-2.020365000E-2,1.111790538E-2,2.769756317E-2
6.711748608E0,-4.402565956E-2,3.932207823E-3,3.967761993E-2
6.719744394E0,-3.208488226E-2,-1.040285826E-2,3.967666626E-2
6.727740643E0,-2.980524302E-2,1.672714949E-3,4.446220398E-2
6.735735737E0,-2.506178617E-2,1.129323244E-2,4.924964905E-2
6.743730831E0,-2.290683985E-2,8.905351162E-3,4.444503784E-2
6.751726541E0,-2.556717396E-2,-7.889121771E-3,3.963661194E-2
6.759753327E0,-4.262608290E-2,6.439357996E-3,3.003787994E-2
6.767747498E0,-4.778999090E-2,-1.273402572E-2,1.564693451E-2
6.775744747E0,-2.652692795E-2,4.050910473E-3,3.238868713E-2
6.783739302E0,-3.164511919E-2,-6.864666939E-4,2.997398376E-2
6.791735319E0,-2.004915476E-2,4.123270512E-3,3.713321686E-2
6.799730952E0,-1.322346926E-2,4.168063402E-3,2.753353119E-2
6.807727278E0,-2.070868015E-2,6.531715393E-3,4.427242279E-2
6.815752910E0,-2.805870771E-2,-3.065854311E-3,5.144214630E-2
6.823748542E0,-1.627981663E-2,1.712799072E-3,5.142879486E-2
6.831743714E0,-2.593415976E-2,-6.987154484E-4,3.945255280E-2
6.839739962E0,-5.229151249E-2,1.561254263E-3,3.705024719E-2
6.847735441E0,-4.279488325E-2,-3.372102976E-3,2.267265320E-2
6.855731151E0,-2.364641428E-2,-1.104533672E-3,2.027225494E-2
6.863726168E0,-3.554642200E-2,-3.631174564E-3,2.027034760E-2
6.871752339E0,-2.608048916E-2,1.057803631E-2,1.786231995E-2
6.879748049E0,-2.852910757E-2,-3.862082958E-3,2.743244171E-2
6.887743835E0,-3.575980663E-2,-1.588562131E-2,3.700351715E-2
6.895739237E0,-3.817933798E-2,-1.824992895E-2,3.939819336E-2
6.903734640E0,-3.106242418E-2,-2.059897780E-2,4.178905487E-2
6.911731272E0,-2.404391766E-2,-1.815780997E-2,4.417419434E-2
6.919726674E0,-1.221400499E-2,-1.587873697E-2,5.373668671E-2
6.927751614E0,-1.719015837E-2,5.576372147E-3,3.935432434E-2
6.935748247E0,-1.975882053E-2,-6.457984447E-3,3.694534302E-2
6.943743572E0,-2.227532864E-2,-4.208236933E-3,2.495956421E-2
6.951739974E0,-1.999282837E-2,3.926455975E-4,2.733802795E-2
6.959735068E0,-4.635542631E-2,2.630054951E-3,2.732849121E-2
6.967730470E0,-3.673297167E-2,-4.679143429E-3,1.774978638E-2
6.975726102E0,-5.824571848E-2,-7.108598948E-3,2.972030640E-2
6.983751659E0,-3.418529034E-2,-2.143165469E-2,2.015399933E-2
6.991748676E0,-2.927452326E-2,1.265406609E-4,3.452873230E-2
6.999744001E0,-4.376965761E-2,-7.013171911E-3,6.085777283E-2
7.007739173E0,-4.398787022E-2,2.651959658E-3,4.169368744E-2
7.015735113E0,-3.721958399E-2,-2.115252614E-2,4.885482788E-2
7.023730514E0,-3.784132004E-2,-1.153254509E-2,3.684425354E-2
7.031725301E0,-1.696074009E-2,-1.397445798E-2,2.722072601E-2
7.039752472E0,-5.559563637E-3,-1.636800170E-2,1.281738281E-2
7.047748105E0,-8.316695690E-3,-4.436969757E-3,2.236843109E-2
7.055743506E0,3.463566303E-3,-2.139687538E-3,1.516819000E-2
7.063738909E0,1.007556915E-3,-4.659295082E-3,2.952384949E-2
7.071735003E0,-6.085157394E-3,7.196426392E-3,2.234172821E-2
7.079730097E0,-2.970033884E-2,2.367824316E-3,3.193855286E-2
7.087726653E0,-4.604452848E-2,7.141470909E-3,4.393768311E-2
7.095751670E0,-2.179360390E-2,9.467989206E-3,2.958869934E-2
7.103747380E0,-3.604978323E-2,4.620194435E-3,2.959251404E-2
7.111743629E0,-3.593832254E-2,-7.382243872E-3,4.635906219E-2
7.119739030E0,-4.787826538E-2,-2.422329783E-2,4.156875610E-2
7.127734740E0,-3.114873171E-2,-1.711940765E-2,3.916931152E-2
7.135730141E0,-3.843712807E-2,1.382365823E-2,3.675937653E-2
7.143725544E0,-2.653545141E-2,1.851651073E-2,1.520252228E-2
7.151751407E0,-2.901148796E-2,2.324935794E-2,1.519393921E-2
7.159746886E0,-3.149861097E-2,8.765101433E-3,3.194236755E-2
7.167741980E0,-3.401017189E-2,-1.524916291E-2,4.150772095E-2
7.175738613E0,-3.407204151E-2,8.613735437E-3,3.671169281E-2
7.183734245E0,-4.616802931E-2,6.124645472E-3,4.148769379E-2
7.191730263E0,-6.790298223E-2,-1.311162114E-2,4.386615753E-2
7.199725742E0,-4.659688473E-2,8.330941200E-3,3.187370300E-2
7.207751836E0,-2.307677269E-2,-1.085826755E-2,2.466106415E-2
7.215747008E0,-1.649111509E-2,-1.564016938E-2,2.222728729E-2
7.223742332E0,-7.409095764E-3,-3.001141548E-2,1.979923248E-2
7.231739042E0,-1.505047083E-2,-1.092639565E-2,3.413200378E-2
7.239734060E0,-1.279765368E-2,-2.788153291E-2,3.171920776E-2
7.247729231E0,-1.999539137E-2,-8.927196264E-3,3.889179230E-2
7.255725555E0,-3.196573257E-2,-1.901894808E-3,4.127883911E-2
7.263751957E0,-5.345374346E-2,-1.153340936E-2,4.367446899E-2
7.271747129E0,-5.110955238E-2,-4.292160273E-3,5.803966522E-2
7.279742223E0,-4.410964251E-2,2.997964621E-3,4.127216339E-2
7.287738547E0,-3.722608089E-2,5.482405424E-3,2.928543091E-2
7.295733873E0,-2.329313755E-2,1.754677296E-2,2.926158905E-2
7.303729659E0,-1.883292198E-2,5.525022745E-3,7.690429688E-3
7.311755753E0,2.327978611E-3,-3.988772631E-3,7.666587830E-3
7.319751464E0,4.504263401E-3,3.225296736E-3,-1.922607422E-3
7.327746558E0,-5.134999752E-3,1.037499309E-2,1.483058929E-2
7.335742882E0,-2.422302961E-2,3.198564053E-3,1.962375641E-2
7.343738362E0,-3.839564323E-2,-1.837024093E-2,4.836654663E-2
7.351733764E0,-4.782670736E-2,-1.131641865E-2,4.358196259E-2
7.359730088E0,-4.302340746E-2,-2.332919836E-2,6.512832642E-2
7.367755875E0,-5.511474609E-2,-1.158910990E-2,3.637981415E-2
7.375751046E0,-5.529123545E-2,-6.952315569E-3,5.072593689E-2
7.383747063E0,-4.121756554E-2,-2.154526114E-2,4.111957550E-2
7.391743003E0,-4.398655891E-2,7.066667080E-3,2.672481537E-2
7.399738406E0,-2.773821354E-2,9.449601173E-3,1.711273193E-2
7.407734115E0,2.735495567E-3,-1.453924179E-2,2.664470673E-2
7.415728671E0,-1.961588860E-4,-9.677410126E-3,3.618907928E-2
7.423755381E0,-7.672071457E-3,-1.684325933E-2,4.335403442E-2
7.431751398E0,-5.521476269E-3,-1.683726907E-2,4.333877563E-2
7.439747492E0,1.610875130E-3,-1.447001100E-2,3.854465485E-2
7.447742510E0,-1.261061430E-2,-4.944115877E-3,6.009960175E-2
7.455738527E0,-4.835551977E-2,-2.417296171E-2,4.813671112E-2
7.463734237E0,-3.131771088E-2,-2.424740791E-2,3.857517242E-2
7.471729407E0,-3.588235378E-2,-2.850443125E-3,2.661132812E-2
7.479757041E0,-1.884633303E-2,-7.803529501E-3,1.704597473E-2
7.487750673E0,-4.006379843E-2,8.840858936E-3,9.878158569E-3
7.495747229E0,-2.759289742E-2,-1.515892148E-2,1.469707489E-2
7.503742016E0,-3.193050623E-2,3.785341978E-3,1.950645447E-2
7.511738033E0,-4.824101925E-2,3.715127707E-3,2.192687988E-2
7.519733512E0,-5.276894569E-2,1.555830240E-2,2.912044525E-2
7.527728607E0,-8.382374048E-2,5.898594856E-3,4.348754883E-2
7.535755624E0,-6.253468990E-2,-1.568192244E-2,5.304622650E-2
7.543750794E0,-6.545531750E-2,-1.086044312E-2,5.301284790E-2
7.551747120E0,-4.711699486E-2,-1.551634073E-2,3.381156921E-2
7.559742753E0,-7.416725159E-3,-3.406554461E-3,4.093360901E-2
7.567737000E0,-1.255750656E-3,-1.046195626E-2,3.129577637E-2
7.575733556E0,7.562637329E-3,-5.634516478E-3,3.843021393E-2
7.583729035E0,3.824019432E-2,-8.063226938E-3,7.274627686E-3
7.591756129E0,7.024824619E-3,1.451343298E-3,7.266044617E-3
7.599750531E0,4.968464375E-3,8.563041687E-3,1.446723938E-2
7.607746857E0,-3.046023846E-2,-3.472864628E-3,3.125572205E-2
7.615742566E0,-5.134111643E-2,1.557067037E-2,6.241989136E-2
7.623737968E0,-6.041777134E-2,3.367871046E-3,5.286502838E-2
7.631734370E0,-6.963437796E-2,-1.358753443E-2,5.766773224E-2
7.639729080E0,-8.388209343E-2,-1.372149587E-2,4.330444336E-2
7.647755558E0,-8.409112692E-2,7.820695639E-3,4.329109192E-2
7.655750422E0,-7.498270273E-2,2.988010645E-3,9.737968445E-3
7.663746362E0,-5.162274837E-2,-8.960366249E-3,2.518653870E-3
7.671742687E0,-4.036128521E-2,7.771074772E-3,7.259368896E-3
7.679737551E0,-2.661895752E-2,-1.136273146E-2,1.679611206E-2
7.687733568E0,-1.046270132E-2,-1.365637779E-2,3.112602234E-2
7.695728970E0,1.063203812E-2,-4.037827253E-3,2.152156830E-2
7.703754756E0,7.950842381E-3,-4.121869802E-3,5.262374878E-2
7.711751082E0,3.140568733E-3,-2.333930135E-2,4.543685913E-2
7.719746868E0,-3.811717033E-3,-1.864397526E-2,4.784202576E-2
7.727741270E0,-2.502322197E-2,-6.765842438E-3,4.067611694E-2
7.735737672E0,-2.938812971E-2,-2.361306548E-2,5.027770996E-2
7.743733382E0,-2.170270681E-2,-2.135336399E-3,3.354835510E-2
7.751728706E0,-4.520112276E-2,-1.658153534E-2,1.681423187E-2
7.759754263E0,-3.265893459E-2,4.903852940E-3,9.665489197E-3
7.767749741E0,-4.894471169E-2,-1.198643446E-2,1.926803589E-2
7.775746297E0,-5.094683170E-2,-2.457916737E-3,1.450252533E-2
7.783741469E0,-4.582673311E-2,-1.260936260E-4,1.930999756E-2
7.791737178E0,-5.293947458E-2,-9.688615799E-3,2.170944214E-2
7.799732811E0,-5.053752661E-2,1.178601384E-2,4.325485229E-2
7.807729135E0,-4.820555449E-2,6.919592619E-3,2.888202667E-2
7.815754692E0,-3.645807505E-2,-2.769917250E-3,3.843975067E-2
7.823750401E0,-7.933497429E-3,-1.240387559E-2,5.757713318E-2
7.831745803E0,-3.450095654E-2,-5.218327045E-3,4.798412323E-2
7.839742744E0,-3.600001335E-3,-1.734176278E-2,5.035686493E-2
7.847737607E0,-2.293282747E-2,-7.869929075E-3,5.034065247E-2
7.855733009E0,-2.547991276E-2,-3.147780895E-3,3.117370605E-2
7.863728411E0,-3.030681610E-2,-1.039493084E-2,4.314041138E-2
7.871755121E0,-2.558386326E-2,-8.496940136E-4,5.031585693E-2
7.879749907E0,-3.754281998E-2,1.504510641E-3,2.158451080E-2
7.887745386E0,-2.791911364E-2,-1.527279615E-2,3.116416931E-2
7.895741019E0,-4.962688684E-2,-1.528465748E-2,2.396965027E-2
7.903737036E0,-4.259222746E-2,-1.536437869E-2,2.395629883E-2
7.911733437E0,-4.757887125E-2,1.334905624E-3,3.830718994E-2
7.919728532E0,-3.103572130E-2,-1.547861099E-2,4.307842255E-2
7.927754934E0,-2.882605791E-2,-8.375197649E-3,2.869701385E-2
7.935749720E0,-2.430319786E-2,-3.640055656E-3,3.107166290E-2
7.943745507E0,-2.934533358E-2,-1.563107967E-2,3.344821930E-2
7.951741755E0,-1.758450270E-2,-1.342743635E-3,4.779720306E-2
7.959736926E0,-2.497428656E-2,-1.396715641E-3,3.341484070E-2
7.967732560E0,-2.517747879E-2,-6.260007620E-3,4.058074951E-2
7.975728346E0,-8.510887623E-3,-6.256520748E-3,2.381515503E-2
7.983754132E0,-1.098626852E-2,-8.611172438E-3,2.620601654E-2
7.991750150E0,-6.139278412E-3,-2.059635520E-2,4.296970367E-2
7.999745321E0,-2.507650852E-2,1.044109464E-2,3.579616547E-2
8.007741030E0,-2.958160639E-2,3.211557865E-3,4.060077667E-2
8.015736433E0,-3.890126944E-2,-1.606959105E-2,3.343009949E-2
8.023732065E0,-4.344868660E-2,-1.852795482E-2,4.541397095E-2
8.031728698E0,-4.560935497E-2,-1.868182421E-2,2.147960663E-2
8.039754638E0,-5.989778042E-2,2.701163292E-3,3.105449677E-2
8.047749040E0,-7.187736034E-2,-4.555702209E-3,2.626228333E-2
8.055745750E0,-6.721180677E-2,-9.386539459E-3,1.667499542E-2
8.063740767E0,-6.280142069E-2,2.202391624E-4,2.144050598E-2
8.071736785E0,-3.946530819E-2,7.442861795E-3,1.182460785E-2
8.079731571E0,-2.102899551E-2,2.731382847E-4,3.093242645E-2
8.087728203E0,-2.735078335E-3,-1.874753833E-2,3.806495667E-2
8.095754068E0,-1.306676865E-2,-1.865246892E-2,4.520320892E-2
8.103750085E0,3.058910370E-3,-6.732702255E-3,4.755401611E-2
8.111745563E0,1.455527544E-2,2.869069576E-4,4.990863800E-2
8.119740889E0,9.505629539E-3,2.555549145E-3,5.946254730E-2
8.127735752E0,-2.180612087E-2,4.875421524E-3,5.705356598E-2
8.135733846E0,-4.826593399E-2,-4.727602005E-3,3.789138794E-2
8.143728017E0,-4.110175371E-2,-7.000863552E-3,2.113533020E-2
8.151753958E0,-4.851347208E-2,-1.405724883E-2,5.943393707E-2
8.159750283E0,-4.871141911E-2,-6.824553013E-3,4.026889801E-2
8.167744684E0,-2.976560593E-2,-4.385173321E-3,2.110385895E-2
8.175740779E0,-2.509456873E-2,2.825289965E-3,-5.238533020E-3
8.183736412E0,-2.982908487E-2,-4.286825657E-3,-7.625579834E-3
8.191732198E0,-2.256768942E-2,-1.623907685E-2,2.350330353E-2
8.199728447E0,-2.474617958E-2,-1.866483688E-2,2.591133118E-2
8.207753156E0,-2.932947874E-2,-6.785929203E-3,3.310394287E-2
8.215749481E0,-4.839366674E-2,-9.240865707E-3,3.550052643E-2
8.223744806E0,-4.828590155E-2,5.130439997E-3,5.466175079E-2
8.231741516E0,-3.156441450E-2,-2.120497823E-2,5.226516724E-2
8.239735994E0,-3.891581297E-2,9.886980057E-3,4.506969452E-2
8.247731396E0,-4.144853354E-2,-1.173654199E-2,3.787517548E-2
8.255727952E0,-3.929746151E-2,-2.258867025E-3,1.870059967E-2
8.263753893E0,-1.566976309E-2,4.857242107E-3,1.388835907E-2
8.271749525E0,-2.551978827E-2,-7.179319859E-3,1.897811890E-3
8.279745928E0,-3.054809570E-2,-1.678469777E-2,-5.149841309E-4
8.287740714E0,-3.302657604E-2,-9.674787521E-3,1.863098145E-2
8.295736962E0,-3.781944513E-2,4.703074694E-3,2.820777893E-2
8.303731826E0,-4.962837696E-2,-2.406403422E-2,4.018783569E-2
8.311727458E0,-4.224461317E-2,-2.165079117E-2,5.456638336E-2
8.319753629E0,-3.498524427E-2,-2.644822001E-2,6.414794922E-2
8.327749647E0,-2.788609266E-2,-2.395582199E-2,4.020500183E-2
8.335745049E0,-1.846212149E-2,-1.428645849E-2,5.217075348E-2
8.343740758E0,-1.847207546E-3,-1.666676998E-2,3.061389923E-2
8.351736160E0,5.179822445E-3,-1.185271144E-2,1.863384247E-2
8.359731870E0,1.011455059E-2,1.643598080E-4,4.280090332E-3
8.367757502E0,2.246069908E-2,4.968672991E-3,1.911163330E-3
8.375752904E0,8.835792542E-3,9.655863047E-3,-4.396438599E-4
8.383748845E0,-9.306907654E-3,-4.709750414E-3,2.117443085E-2
8.391744939E0,-4.652565718E-2,7.274538279E-3,1.885128021E-2
8.399740572E0,-5.972731113E-2,-1.187494397E-2,3.568744659E-2
8.407736359E0,-6.348758936E-2,-7.207304239E-3,4.293251038E-2
8.415732299E0,-6.257021427E-2,-2.562701702E-3,4.777431488E-2
8.423757854E0,-6.196671724E-2,2.075910568E-3,5.498886108E-2
8.431753872E0,-5.682379007E-2,2.047151327E-3,3.585720062E-2
8.439748966E0,-6.158447266E-2,3.794679046E-2,1.431083679E-2
8.447744137E0,-3.998303413E-2,-5.019515753E-3,2.629184723E-2
8.455739771E0,-3.522431850E-2,-1.192453504E-2,3.348445892E-2
8.463735557E0,-9.230077267E-3,-9.328842163E-3,2.868270874E-2
8.471731882E0,2.442955971E-3,-2.584359050E-2,2.628040314E-2
8.479757745E0,-1.439505816E-2,-2.341660857E-2,4.064178467E-2
8.487753455E0,-7.109284401E-3,-1.863533258E-2,2.628326416E-2
8.495749087E0,3.540515900E-4,-2.097603679E-2,3.827571869E-2
8.503744258E0,-1.132345200E-2,3.977119923E-4,3.110313416E-2
8.511740199E0,-3.972882032E-2,9.886622429E-3,2.154445648E-2
8.519735678E0,-2.724355459E-2,4.988551140E-3,2.875518799E-2
8.527731618E0,-5.327242613E-2,5.722045898E-6,2.876663208E-2
8.535756944E0,-4.575365782E-2,9.420245886E-3,5.032920837E-2
8.543752961E0,-7.185560465E-2,-2.678304911E-3,4.076194763E-2
8.551748978E0,-7.907843590E-2,-2.741068602E-3,4.315185547E-2
8.559744611E0,-6.724387407E-2,6.760299206E-3,4.792785645E-2
8.567740628E0,-4.848366976E-2,6.666630507E-3,3.592681885E-2
8.575735414E0,-5.929172039E-3,-2.983808517E-3,1.673412323E-2
8.583731739E0,-4.235982895E-3,1.127663255E-2,1.668262482E-2
8.591757373E0,4.651546478E-3,-1.270654798E-2,1.424121857E-2
8.599753390E0,1.127618551E-2,-7.042586803E-4,2.378273010E-2
8.607747791E0,2.299749851E-2,-2.223536372E-2,3.573894501E-2
8.615744425E0,3.917932510E-3,-1.506847143E-2,3.574275970E-2
8.623739903E0,-1.971316338E-2,-1.752501726E-2,5.251979828E-2
8.631736151E0,-2.400082350E-2,-1.295506954E-2,3.817749023E-2
8.639731246E0,-4.742062092E-2,-1.139074564E-3,2.623367310E-2
8.647757109E0,-4.458761215E-2,1.057642698E-2,1.667404175E-2
8.655753434E0,-3.947448730E-2,1.049378514E-2,1.669120789E-2
8.663748529E0,-6.562775373E-2,-2.071753144E-2,1.669979095E-2
8.671743700E0,-4.884159565E-2,-1.603901386E-2,2.387905121E-2
8.679739947E0,-3.677982092E-2,-4.026234150E-3,4.543495178E-2
8.687734503E0,-4.620283842E-2,-2.079123259E-2,4.065608978E-2
8.695730752E0,-3.178906441E-2,-1.833739877E-2,4.305648804E-2
8.703756615E0,-3.164041042E-2,-8.761495352E-3,4.785537720E-2
8.711753632E0,-2.687186003E-2,-2.542829514E-2,3.109836578E-2
8.719748727E0,-1.980829239E-2,-3.845095634E-3,2.869701385E-2
8.727744128E0,-2.705550194E-2,-2.296534181E-2,2.390670776E-2
8.735739838E0,-2.713817358E-2,9.278059006E-4,2.629280090E-2
8.743735471E0,-5.103194714E-2,-1.582109928E-2,2.869033813E-2
8.751730950E0,-3.416997194E-2,-1.113793254E-2,1.672172546E-2
8.759757736E0,-5.319982767E-2,3.191173077E-3,3.588199615E-2
8.767751908E0,-4.602152109E-2,3.198295832E-3,1.912212372E-2
8.775747848E0,-2.944839001E-2,-1.599282026E-3,2.629280090E-2
8.783744250E0,-4.410040379E-2,-1.635849476E-3,2.866554260E-2
8.791739883E0,-3.236585855E-2,-1.354271173E-2,3.104782104E-2
8.799735592E0,-3.837347031E-3,-3.971695900E-3,3.342914581E-2
8.807731071E0,3.295004368E-3,-1.357910037E-2,3.342437744E-2
8.815756626E0,-2.517849207E-2,-2.073222399E-2,4.541301727E-2
8.823752875E0,-2.966886759E-2,-8.805692196E-3,3.824901581E-2
8.831748046E0,-3.882670403E-2,-1.644611359E-3,1.912021637E-2
8.839744294E0,-4.332292080E-2,-4.169613123E-3,3.589344025E-2
8.847738850E0,-3.104895353E-2,-2.334204316E-2,4.070186615E-2
8.855734867E0,-4.741317034E-2,-1.875787973E-3,4.551219940E-2
8.863730269E0,-3.522133827E-2,-2.105024457E-2,1.679515839E-2
8.871757287E0,-4.211086035E-2,-6.739556789E-3,2.160072327E-2
8.879752073E0,-4.425495863E-2,1.960194111E-2,1.922225952E-2
8.887748475E0,-4.410821199E-2,-2.108940482E-2,2.641582489E-2
8.895743493E0,-1.768738031E-2,-9.105980396E-3,3.360462189E-2
8.903738971E0,-2.971249819E-2,-1.857161522E-2,3.121185303E-2
8.911735604E0,-1.782011986E-2,-1.379457116E-2,4.317760468E-2
8.919730698E0,-1.559454203E-2,1.497069001E-2,4.556179047E-2
8.927755870E0,-2.536636591E-2,-1.133650541E-2,2.879047394E-2
8.935752502E0,-5.172973871E-2,-4.121929407E-3,3.597354889E-2
8.943747673E0,-1.108813286E-2,-1.369476318E-2,3.596878052E-2
8.951743922E0,-3.266930580E-2,-8.805245161E-3,2.639484406E-2
8.959739400E0,-5.179053545E-2,-1.593837142E-2,1.921653748E-2
8.967734725E0,-5.901813507E-2,1.049396396E-2,7.246971130E-3
8.975730435E0,-5.910307169E-2,1.535633206E-2,7.245063782E-3
8.983756375E0,-4.488766193E-2,1.209318638E-3,2.639865875E-2
8.991752315E0,-3.804802895E-2,3.885656595E-3,3.117752075E-2
8.999747410E0,-4.328453541E-2,-2.449220419E-2,4.074001312E-2
9.007744427E0,-2.685362101E-2,-2.656021714E-2,4.791641235E-2
9.015738214E0,-1.033496857E-2,-3.605550528E-2,4.790401459E-2
9.023734538E0,1.598209143E-2,-2.654206753E-2,4.550552368E-2
9.031730556E0,-7.791996002E-3,-1.948884130E-2,3.832912445E-2
9.039756727E0,-7.620632648E-3,9.096324444E-3,1.678562164E-2
9.047751898E0,-4.334008694E-2,-2.887159586E-3,7.220268250E-3
9.055747301E0,-5.281966925E-2,-2.783954144E-3,2.159595490E-2
9.063743010E0,-5.285286903E-2,1.413685083E-2,2.399539948E-2
9.071738719E0,-2.905869484E-2,1.201674342E-2,2.878570557E-2
9.079734430E0,-3.870981932E-2,1.708492637E-2,3.118801117E-2
9.087730985E0,-7.602155209E-3,-6.687372923E-3,3.598403931E-2
9.095756233E0,2.008676529E-3,7.095634937E-4,2.881336212E-2
9.103751097E0,1.167088747E-2,-1.349946856E-2,2.882575989E-2
9.111747960E0,-1.450157166E-2,-8.655965328E-3,2.883911133E-2
9.119743131E0,-2.367472649E-2,3.334790468E-3,3.365516663E-2
9.127739148E0,-1.826238632E-2,-1.352506876E-2,2.650928497E-2
9.135734551E0,-3.194987774E-2,-1.131865382E-2,3.133392334E-2
9.143729876E0,-5.502301455E-2,-2.352619171E-2,1.701545715E-2
9.151756123E0,-7.332682610E-2,-1.901119947E-2,2.424144745E-2
9.159751449E0,-7.750433683E-2,4.705369473E-3,1.230049133E-2
9.167746543E0,-8.432501554E-2,-1.220348477E-2,2.189540863E-2
9.175742868E0,-5.548018217E-2,-1.707503200E-2,1.710987091E-2
9.183738578E0,-5.077058077E-2,-1.948979497E-2,3.146934509E-2
9.191734672E0,-2.944964170E-2,-1.949116588E-2,3.624248505E-2
9.199730689E0,-1.773065329E-2,2.150982618E-3,4.820156097E-2
9.207755630E0,-1.321452856E-2,1.182684302E-2,5.058193207E-2
9.215751570E0,5.806028843E-3,-7.321208715E-3,3.620815277E-2
9.223747587E0,-3.742575645E-3,-2.532452345E-3,5.057525635E-2
9.231743605E0,-5.774676800E-3,-1.215791702E-2,2.426052094E-2
9.239738392E0,-5.285441875E-3,-3.138741851E-2,3.865528107E-2
9.247734178E0,-3.580069542E-2,-1.704633236E-2,3.869438171E-2
9.255729887E0,-2.790594101E-2,-1.713848114E-2,1.000690460E-2
9.263755674E0,-3.447860479E-2,-7.697284222E-3,4.644393921E-4
9.271751691E0,-2.192032337E-2,8.917987347E-3,5.285263062E-3
9.279747708E0,-2.610224485E-2,-1.275748014E-2,1.250267029E-2
9.287743111E0,-3.503996134E-2,-1.521855593E-2,2.451324463E-2
9.295738282E0,-3.430968523E-2,-5.807429552E-3,3.892040253E-2
9.303733684E0,-3.362071514E-2,-5.970984697E-3,3.177547455E-2
9.311730240E0,-2.828925848E-2,-1.321911812E-3,2.701759338E-2
9.319755488E0,-5.427861214E-2,1.051321626E-2,3.182220459E-2
9.327750966E0,-4.702579975E-2,5.692809820E-3,2.703762054E-2
9.335747523E0,-1.350235939E-2,-8.671253920E-3,2.703857422E-2
9.343742001E0,-2.781182528E-2,-3.919243813E-3,1.267433167E-2
9.351738018E0,-1.564192772E-2,-2.073046565E-2,1.508045197E-2
9.359733728E0,-3.342330456E-3,-3.033274412E-2,1.270675659E-2
9.367760515E0,-2.435213327E-2,-6.556242704E-3,1.512908936E-2
9.375756301E0,-3.816258907E-2,-1.616382599E-2,1.756000519E-2
9.383751011E0,-5.677741766E-2,-2.819424868E-2,1.041030884E-2
9.391747336E0,-6.349372864E-2,-6.579965353E-3,1.044464111E-2
9.399743430E0,-5.612885952E-2,-1.845395565E-2,3.679752350E-2
9.407737601E0,-6.319546700E-2,-6.395399570E-3,4.159832001E-2
9.415734234E0,-6.801348925E-2,-3.883719444E-3,5.596637726E-2
9.423759790E0,-6.340545416E-2,-8.591085672E-3,3.201580048E-2
9.431755499E0,-4.207885265E-2,-8.562892675E-3,3.439712524E-2
9.439750825E0,-2.806580067E-2,5.876511335E-3,1.282882690E-2
9.447746534E0,-2.602040768E-2,-1.072400808E-2,2.238941193E-2
9.455742628E0,-1.913243532E-2,-1.055011153E-2,3.434848785E-2
9.463738261E0,-1.698094606E-2,-1.762822270E-2,4.391384125E-2
9.471733971E0,-1.811981201E-4,-3.192412853E-2,3.434276581E-2
9.479729450E0,-2.503395081E-6,-1.996684074E-2,5.350780487E-2
9.487754620E0,3.769993782E-4,-1.049375534E-2,1.761531830E-2
9.495751023E0,-2.785700560E-2,-5.769997835E-3,2.482795715E-2
9.503746425E0,-4.404926300E-2,-1.065036654E-2,2.725601196E-2
9.511742749E0,-1.477932930E-2,-1.550838351E-2,4.644298553E-2
9.519738075E0,-2.393519878E-2,-2.042013407E-2,2.970600128E-2
9.527733169E0,-3.566211462E-2,3.431141376E-3,2.253627777E-2
9.535759340E0,-4.015749693E-2,1.773971319E-2,3.452491760E-2
9.543755127E0,-3.740131855E-2,-1.342138648E-2,2.736473083E-2
9.551751760E0,-6.340765953E-2,-6.128430367E-3,4.175662994E-2
9.559746238E0,-4.871028662E-2,-1.338145137E-2,3.459453583E-2
9.567741948E0,-4.607707262E-2,8.200377226E-3,4.658222198E-2
9.575737965E0,-3.172719479E-2,-1.332002878E-2,8.275032043E-3
9.583733598E0,-3.187191486E-2,-1.551255584E-2,1.785182953E-2
9.591759538E0,-9.038448334E-4,2.045884728E-2,3.699684143E-2
9.599755479E0,1.586139202E-2,-8.323103189E-3,2.741813660E-2
9.607750881E0,1.678466797E-3,-8.480578661E-3,3.221225739E-2
9.615746590E0,-5.119085312E-3,-1.104104519E-2,1.307678223E-2
9.623741454E0,-2.595460415E-2,7.921814919E-3,3.705787659E-2
9.631737471E0,-2.999883890E-2,-1.145836711E-2,3.949356079E-2
9.639734104E0,-3.167575598E-2,-6.819039583E-3,2.277565002E-2
9.647758660E0,-5.254697800E-2,-9.396553040E-3,3.238964081E-2
9.655754446E0,-4.480254650E-2,1.684838533E-2,3.960609436E-2
9.663749848E0,-5.622708797E-2,-4.687428474E-3,4.443264008E-2
9.671746712E0,-5.108380318E-2,-4.758596420E-3,2.529907227E-2
9.679742114E0,-5.090224743E-2,9.617358446E-3,2.291870117E-2
9.687737900E0,-5.328136683E-2,-4.605382681E-3,3.489685059E-2
9.695733302E0,-2.697861195E-2,-2.601712942E-2,3.011131287E-2
9.703759704E0,-1.517367363E-2,-4.483729601E-3,3.967761993E-2
9.711754798E0,-3.199172020E-2,-1.156279445E-2,2.531242371E-2
9.719750584E0,-1.039910316E-2,-2.146899700E-3,3.009605408E-2
9.727745679E0,-1.013767719E-2,-7.050812244E-3,2.292633057E-2
9.735742004E0,-1.218742132E-2,-7.192343473E-3,3.012657166E-2
9.743737637E0,-2.843040228E-2,4.586040974E-3,2.536392212E-2
9.751733424E0,-2.794533968E-2,2.020657063E-3,3.257274628E-2
9.759759287E0,-3.208285570E-2,-1.483437419E-2,1.824760437E-2
9.767755304E0,-3.414946795E-2,-7.713913918E-3,2.784347534E-2
9.775750937E0,-4.102021456E-2,-1.012501121E-2,2.307605743E-2
9.783746031E0,-3.835141659E-2,-3.070175648E-3,3.027153015E-2
9.791741510E0,-4.297304153E-2,8.706480265E-3,1.351451874E-2
9.799737450E0,-5.490893126E-2,2.770990133E-2,-8.544921875E-4
9.807732930E0,-2.380681038E-2,2.052599192E-2,2.308559418E-2
9.815759023E0,-1.906728745E-2,3.788888454E-3,2.308368683E-2
9.823753887E0,-3.110378981E-2,-5.799025297E-3,3.505039215E-2
9.831749828E0,-3.127157688E-2,-2.480733395E-2,4.222679138E-2
9.839745614E0,-4.320389032E-2,-1.994216442E-2,4.223251343E-2
9.847741862E0,-4.554307461E-2,-7.453858852E-4,2.787303925E-2
9.855736726E0,-3.121328354E-2,1.567244530E-3,3.265571594E-2
9.863732358E0,-1.432323456E-2,-5.610704422E-3,1.830005646E-2
9.871758914E0,-4.296004772E-2,-1.286044717E-2,1.351451874E-2
9.879755547E0,-4.037916660E-2,-2.011033893E-2,2.310180664E-2
9.887749334E0,-2.337032557E-2,-1.787611842E-2,3.029346466E-2
9.895745427E0,-5.413997173E-2,-2.280357480E-2,2.073383331E-2
9.903741444E0,-3.456187248E-2,-1.424461603E-3,3.991127014E-2
9.911736847E0,-4.856097698E-2,-1.352483034E-2,5.668830872E-2
9.919733095E0,-7.227128744E-2,3.075003624E-3,3.275585175E-2
9.927758727E0,-6.269031763E-2,5.509793758E-3,4.951763153E-2
9.935754438E0,-5.333948135E-2,1.048901677E-2,4.951095581E-2
9.943750147E0,-3.229624033E-2,5.808174610E-3,4.469203949E-2
9.951745856E0,-6.621658802E-3,-3.604739904E-3,2.550029755E-2
9.959740951E0,2.403855324E-3,-8.226305246E-3,2.307605743E-2
9.967736661E0,2.124971151E-2,-1.297017932E-2,1.348018646E-2
9.975732370E0,2.576780319E-2,-1.039117575E-3,1.106548309E-2
9.983758773E0,-3.818273544E-4,3.681391478E-3,-8.079528809E-3
9.991754559E0,-1.181006432E-2,1.558539271E-2,1.829242706E-2
9.999750499E0,-5.436158180E-2,-1.554813981E-2,2.551078796E-2
1.000774506E1,-3.693252802E-2,-8.560776711E-3,6.394386292E-3
1.001574192E1,-4.822158813E-2,-1.594942808E-2,3.755664825E-2
1.002373647E1,-6.673276424E-2,-1.859772205E-2,3.040695190E-2
1.003173280E1,-5.666857958E-2,-6.795912981E-3,4.240417480E-2
1.003975920E1,-8.035743237E-2,-2.154827118E-3,2.565479279E-2
1.004775337E1,-6.845808029E-2,-1.181280613E-2,3.282928467E-2
1.005574970E1,-5.914163589E-2,-1.173469424E-2,3.999805450E-2
1.006374479E1,-4.288274050E-2,2.417084575E-2,3.038597107E-2
1.007174081E1,-4.101485014E-2,1.219174266E-2,3.992748260E-2
1.007973652E1,-3.428584337E-2,-4.549980164E-3,3.031826019E-2
1.008773254E1,-5.996108055E-3,-4.548668861E-3,2.071189880E-2
1.009575878E1,-6.208062172E-3,-1.664099097E-2,1.829814911E-2
1.010375380E1,-3.263425827E-2,-4.699319601E-3,3.505039215E-2
1.011175013E1,-2.532613277E-2,-3.110072017E-2,4.223823547E-2
1.011974553E1,-2.019667625E-2,-2.632707357E-2,3.747272491E-2
1.012773978E1,-2.695530653E-2,-2.547919750E-3,3.749465942E-2
1.013573664E1,-1.214063168E-2,1.164063811E-2,3.272914886E-2
1.014373212E1,-1.646918058E-2,-1.477298141E-2,2.318000793E-2
1.015175790E1,-2.299809456E-2,-2.191817760E-2,3.040885925E-2
1.015975423E1,-2.702504396E-2,-2.970576286E-3,3.284740448E-2
1.016775002E1,-3.341019154E-2,1.613736153E-3,1.373958588E-2
1.017574503E1,-7.093656063E-2,6.255239248E-3,2.575683594E-2
1.018374082E1,-8.019775152E-2,-8.302330971E-3,2.098178864E-2
1.019173684E1,-8.021128178E-2,1.802116632E-2,2.337455750E-2
1.019973155E1,-7.576471567E-2,-8.357942104E-3,1.800537109E-3
1.020775741E1,-5.718678236E-2,1.085808873E-2,2.810096741E-2
1.021575320E1,-2.448379993E-2,-1.534715295E-2,1.607894897E-2
1.022374952E1,8.217811584E-3,-1.520326734E-2,3.757762909E-2
1.023174516E1,9.904921055E-3,-1.516309381E-2,2.795314789E-2
1.024773634E1,1.621866226E-2,-5.522906780E-3,2.789783478E-2
1.025573113E1,1.786828041E-3,-1.267912984E-2,1.592254639E-2
1.026375784E1,-1.482617855E-2,6.416410208E-3,2.311325073E-2
1.027175386E1,2.140283585E-3,-8.103072643E-3,2.072525024E-2
1.027974903E1,-4.531890154E-2,-5.995064974E-3,3.989601135E-2
1.028774474E1,-5.922377110E-2,8.770823479E-4,3.991413116E-2
1.029574076E1,-8.518683910E-2,7.142126560E-4,3.274917603E-2
1.030373616E1,-7.307517529E-2,-2.098315954E-2,3.035831451E-2
1.031173187E1,-7.558310032E-2,-8.970171213E-3,3.035163879E-2
1.031975804E1,-5.914640427E-2,-8.868038654E-3,1.596927643E-2
1.032775367E1,-4.528117180E-2,-1.106739044E-2,3.270244598E-2
1.033574915E1,-2.672255039E-2,-8.532285690E-3,4.942893982E-2
1.034374486E1,-9.368658066E-4,-1.792037487E-2,4.939937592E-2
1.035174118E1,-1.091140509E-2,-3.213867545E-2,4.698371887E-2
1.035973659E1,-3.952264786E-3,-2.010524273E-2,2.781772614E-2
1.036776176E1,5.651593208E-3,-8.202612400E-3,2.781677246E-2
1.037575785E1,-6.111621857E-3,-8.397847414E-3,1.585102081E-2
1.038375325E1,-8.154571056E-3,-6.222516298E-3,1.107692719E-2
1.039174919E1,-2.674388885E-2,1.033493876E-2,1.110649109E-2
1.039974521E1,-4.064941406E-2,-2.330246568E-2,2.310371399E-2
1.040774061E1,-5.217516422E-2,-6.699413061E-3,6.367683411E-3
1.041573640E1,-6.862461567E-2,-2.350363135E-2,1.835823059E-2
1.042376165E1,-3.981441259E-2,2.762615681E-3,2.075386047E-2
1.043175767E1,-5.419671535E-2,-1.868575811E-2,3.033447266E-2
1.043975330E1,-2.330958843E-2,-9.076058865E-3,3.989791870E-2
1.044774778E1,-2.838784456E-2,-1.855379343E-2,2.312183380E-2
1.045574380E1,-2.875506878E-2,-1.618507504E-2,3.506755829E-2
1.046374074E1,-5.043268204E-3,5.215704441E-3,3.264999390E-2
1.047173621E1,-1.715183258E-2,2.728521824E-3,2.066516876E-2
1.047976238E1,-3.010749817E-3,-7.012635469E-3,3.500843048E-2
1.048775779E1,-2.464467287E-2,-9.541004896E-3,2.062988281E-2
1.049575288E1,-4.622739553E-2,-1.439175010E-2,2.301979065E-2
1.050374859E1,-3.671813011E-2,-1.922735572E-2,3.498458862E-2
1.051174492E1,-3.675359488E-2,-1.215040684E-4,4.934501648E-2
1.051974001E1,-4.871231318E-2,6.992191076E-3,3.018856049E-2
1.052773626E1,-2.958029509E-2,-2.758413553E-3,3.017902374E-2
1.053576120E1,-1.771438122E-2,-4.457235336E-4,2.538013458E-2
1.054375698E1,-3.228801489E-2,-2.842813730E-3,3.015422821E-2
1.055175362E1,-2.772837877E-2,-2.831995487E-3,4.211044312E-2
1.055974810E1,-1.843345165E-2,-5.465447903E-4,2.293300629E-2
1.056774473E1,-1.868808270E-2,-1.486748457E-2,2.291679382E-2
1.057574005E1,-5.478388071E-2,-2.891480923E-3,4.205799103E-2
1.058373515E1,-4.551213980E-2,-1.721608639E-2,2.527904510E-2
1.059176163E1,-5.066585541E-2,-2.896159887E-3,4.201221466E-2
1.059975734E1,-2.240407467E-2,-1.010844111E-2,1.564216614E-2
1.060775305E1,-2.293384075E-2,-1.013582945E-2,3.236484528E-2
1.061574937E1,6.068944931E-4,-1.259973645E-2,8.392333984E-3
1.062374416E1,-4.450380802E-3,-1.258528233E-2,2.034473419E-2
1.063174056E1,7.336199284E-3,8.863240480E-3,2.032852173E-2
1.063973588E1,-7.027685642E-3,6.397008896E-3,2.750873566E-2
1.064776175E1,-2.130627632E-2,-8.971989155E-4,2.990341187E-2
1.065575715E1,-2.825421095E-2,-1.060953736E-2,3.470134735E-2
1.066375348E1,-4.480719566E-2,-5.833595991E-3,2.034950256E-2
1.067174919E1,-2.309906483E-2,-1.304492354E-2,3.711891174E-2
1.067974397E1,-3.981822729E-2,-1.783639193E-2,2.754497528E-2
1.068773937E1,-2.316212654E-2,-8.195579052E-3,2.035808563E-2
1.069573508E1,-3.526425362E-2,-1.535481215E-2,2.513885498E-2
1.070376095E1,-2.811312675E-2,-1.108020544E-3,3.582954407E-3
1.071175727E1,-2.087718248E-2,5.939692259E-3,2.033996582E-2
1.071975329E1,-2.059441805E-2,-1.331645250E-2,2.274990082E-2
1.072774846E1,-2.254748344E-2,1.288095117E-2,2.995586395E-2
1.073574379E1,-2.664786577E-2,3.202229738E-3,4.675769806E-2
1.074373957E1,-1.887351274E-2,-3.048035502E-2,4.439735413E-2
1.075173521E1,-3.751224279E-2,-6.822884083E-3,3.723716736E-2
1.075976176E1,-6.820726395E-2,9.549260139E-3,3.485584259E-2
1.076775655E1,-8.948785067E-2,6.963193417E-3,1.345634460E-3
1.077575249E1,-3.191047907E-2,3.080174327E-2,3.743171692E-3
1.078374797E1,-7.025676966E-2,-1.458302140E-2,-5.830764771E-3
1.079174398E1,-5.381852388E-2,-4.788845778E-3,1.809787750E-2
1.079973969E1,-2.804380655E-2,-1.897764206E-2,4.201030731E-2
1.080773533E1,-1.888966560E-2,-3.318747878E-2,6.114101410E-2
1.081576065E1,-1.445710659E-2,-3.310328722E-2,6.351470947E-2
1.082375667E1,-2.183836699E-2,-3.553512692E-2,4.674053192E-2
1.083175292E1,-2.929925919E-2,-2.834737301E-2,4.911613464E-2
1.083974832E1,-2.471941710E-2,3.356039524E-4,3.473472595E-2
1.084774441E1,-3.930121660E-2,-2.011418343E-3,2.993297577E-2
1.085573943E1,-1.570081711E-2,1.244401932E-2,2.033710480E-2
1.086373491E1,-1.353693008E-2,1.241400838E-2,-1.228332520E-3
1.087176131E1,-4.047572613E-3,-1.153641939E-2,5.948066711E-3
1.087975741E1,1.033449173E-2,5.208224058E-3,1.791954041E-2
1.088775250E1,-6.239831448E-3,1.236996055E-2,2.032470703E-2
1.089574790E1,-2.037447691E-2,-6.846845150E-3,1.554965973E-2
1.090374353E1,-7.038354874E-2,-1.170542836E-2,3.950786591E-2
1.091173924E1,-5.575728416E-2,2.718716860E-3,4.910469055E-2
1.091973472E1,-5.111140013E-2,-4.532665014E-3,3.472709656E-2
1.092776051E1,-6.093245745E-2,-2.364861965E-2,2.274036407E-2
1.093575599E1,-7.081562281E-2,-1.647466421E-2,3.469085693E-2
1.094375170E1,-4.013091326E-2,-9.378939867E-3,1.310825348E-2
1.095174833E1,-2.379226685E-2,-1.905143261E-2,1.786422729E-2
1.095974396E1,-1.935762167E-2,-1.674991846E-2,1.065349579E-2
1.096773914E1,-7.677793503E-3,4.633516073E-3,3.443717957E-3
1.097573569E1,-2.230894566E-2,-5.061924458E-3,2.257442474E-2
1.098376102E1,-1.050925255E-2,-5.210578442E-3,4.649734497E-2
1.099175726E1,-2.964788675E-2,-2.213883400E-2,4.409790039E-2
1.099975182E1,-2.712041140E-2,4.081666470E-3,3.452491760E-2
1.100774684E1,-2.924013138E-2,-1.506972313E-2,2.257156372E-2
1.101574347E1,-4.080927372E-2,-5.463093519E-3,4.893779755E-2
1.102373895E1,-3.341126442E-2,-1.504224539E-2,3.937530518E-2
1.103173520E1,-7.152509689E-2,-1.510632038E-2,2.980804443E-2
1.103976075E1,-4.266905785E-2,-3.176459670E-2,3.700351715E-2
1.104775677E1,-3.310108185E-2,-2.921235561E-2,2.025032043E-2
1.105575248E1,-1.409763098E-2,-2.668255568E-2,8.275985718E-3
1.106374796E1,-2.607125044E-2,-2.661883831E-2,1.306629181E-2
1.107174336E1,-4.421114922E-3,-2.654159069E-2,2.744197845E-2
1.107973907E1,-1.731514931E-3,6.854563951E-3,2.745628357E-2
1.108773416E1,-3.001022339E-2,4.281193018E-3,1.072025299E-2
1.109575995E1,-4.389417171E-2,1.601651311E-2,2.750205994E-2
1.110375574E1,-4.108572006E-2,2.533063293E-2,4.188442230E-2
1.111175175E1,-6.481283903E-2,-6.020128727E-3,2.752304077E-2
1.111974708E1,-5.748158693E-2,-8.563816547E-3,4.189205170E-2
1.112774379E1,-4.815405607E-2,1.529151201E-2,2.511215210E-2
1.113573850E1,-5.345076323E-2,8.888542652E-4,2.028656006E-2
1.114373452E1,-5.168169737E-2,-1.579576731E-2,3.221893311E-2
1.115176076E1,-2.353352308E-2,-8.469998837E-3,3.455162048E-3
1.115975678E1,-7.214903831E-3,3.490537405E-3,2.736663818E-2
1.116775126E1,4.303038120E-3,5.793601274E-3,5.784034729E-3
1.117574758E1,1.688659191E-3,3.388613462E-3,1.295089722E-2
1.118374268E1,-1.989442110E-2,1.289528608E-2,2.491664886E-2
1.119173900E1,-1.746785641E-2,-1.115223765E-2,4.646205902E-2
1.119973471E1,-3.158015013E-2,1.498806477E-2,4.647064209E-2
1.120776088E1,-3.851974010E-2,1.240989566E-2,5.126762390E-2
1.121575713E1,-4.549014568E-2,1.458403468E-2,4.887866974E-2
1.122375169E1,-4.305475950E-2,-4.713654518E-3,4.648017883E-2
1.123174732E1,-5.503010750E-2,-4.879176617E-3,2.253055573E-2
1.123974342E1,-5.275386572E-2,-9.749114513E-3,4.167270660E-2
1.124773782E1,-5.542176962E-2,-2.892234921E-2,2.968120575E-2
1.125573422E1,-4.385799170E-2,1.422044635E-2,1.529026031E-2
1.126375978E1,-1.318520308E-2,-1.924943924E-2,3.202247620E-2
1.127175641E1,6.483793259E-4,-1.203227043E-2,1.522731781E-2
1.127975181E1,-2.190589905E-3,-2.160277963E-2,1.759243011E-2
1.128774714E1,-2.336502075E-5,-1.630187035E-5,3.433895111E-2
1.129574292E1,-2.402281761E-2,-1.682984829E-2,3.193664551E-2
1.130373832E1,-1.188468933E-2,-2.518415451E-3,3.673458099E-2
1.131173365E1,-2.827101946E-2,-1.709362864E-2,3.675079346E-2
1.131976082E1,-1.558423042E-3,1.839488745E-3,3.676700592E-2
1.132775561E1,-1.783668995E-2,-1.746270061E-2,2.482223511E-2
1.133575132E1,-3.162819147E-2,-2.248376608E-2,2.485084534E-2
1.134374702E1,-1.433616877E-2,-1.145988703E-3,1.530075073E-2
1.135174274E1,-5.212068558E-2,-3.763228655E-3,8.144378662E-3
1.135973814E1,-3.959143162E-2,1.527529955E-2,1.296615601E-2
1.136776485E1,-3.653550148E-2,8.612871170E-4,3.431320190E-3
1.137575994E1,-3.358376026E-2,-1.426786184E-3,1.065635681E-2
1.138375596E1,-4.511958361E-2,-1.580673456E-2,3.941726685E-2
1.139175144E1,-5.199819803E-2,-1.334959269E-2,3.944015503E-2
1.139974676E1,-4.709714651E-2,-1.407295465E-3,4.902458191E-2
1.140774278E1,-4.467445612E-2,-2.054068446E-2,3.705596924E-2
1.141573787E1,-5.187803507E-2,3.420919180E-3,3.466129303E-2
1.142376374E1,-2.097904682E-2,-1.094540954E-2,2.746200562E-2
1.143175983E1,-2.603000402E-2,-8.566379547E-3,2.744388580E-2
1.143975608E1,-2.139890194E-2,5.812108517E-3,1.785659790E-2
1.144775148E1,-2.404028177E-2,3.316730261E-3,1.304721832E-2
1.145574665E1,-1.928544044E-2,-1.833632588E-2,2.261734009E-2
1.146374206E1,-2.388507128E-2,-6.360918283E-3,1.065826416E-2
1.147173830E1,-1.884955168E-2,-4.039347172E-3,1.785564423E-2
1.147973347E1,-2.583730221E-2,-1.365420222E-2,3.702068329E-2
1.148775895E1,-4.012042284E-2,-1.360791922E-2,3.702831268E-2
1.149575566E1,-4.722988605E-2,5.505025387E-3,3.942584991E-2
1.150375130E1,-3.281372786E-2,-1.129579544E-2,3.703308105E-2
1.151174639E1,-2.096575499E-2,1.021009684E-2,3.223419189E-2
1.151974218E1,-4.492115974E-2,-1.611742377E-2,2.744483948E-2
1.152773788E1,-5.456471443E-2,6.904602051E-4,1.307773590E-2
1.153576344E1,-2.113062143E-2,5.444437265E-3,2.025222778E-2
1.154375915E1,2.835929394E-3,-1.373815536E-2,2.504158020E-2
1.155175509E1,-6.788253784E-3,-9.028375149E-3,1.545810699E-2
1.155975119E1,-4.284858704E-3,-1.868385077E-2,2.025127411E-2
1.156774620E1,-2.803307772E-2,2.739965916E-3,4.180717468E-2
1.157574199E1,-1.339286566E-2,-1.652261615E-2,1.548385620E-2
1.158373793E1,-5.386132002E-2,-7.020771503E-3,2.507305145E-2
1.159176379E1,-5.374765396E-2,-4.624783993E-3,3.465938568E-2
1.159975981E1,-5.131310225E-2,7.310599089E-3,4.184246063E-2
1.160775529E1,-6.571209431E-2,1.209083200E-2,3.465747833E-2
1.161575038E1,-3.477531672E-2,-1.172345877E-2,3.225612640E-2
1.162374609E1,-2.768623829E-2,4.725754261E-4,4.183578491E-2
1.163174203E1,-8.554339409E-3,-1.613286138E-2,4.423618317E-2
1.163973836E1,1.324683428E-2,-3.033572435E-2,5.383682251E-2
1.164776361E1,1.745223999E-3,-1.592189074E-2,5.387115479E-2
1.165575932E1,2.177107334E-2,-1.839789748E-2,4.435062408E-2
1.166375441E1,-1.787143946E-2,-1.861298084E-2,2.765464783E-2
1.167175020E1,-1.424348354E-2,-2.318203449E-3,1.335430145E-2
1.167974652E1,-3.927719593E-2,1.996725798E-3,6.238937378E-3
1.168774216E1,-5.467718840E-2,-8.402466774E-4,3.919601440E-3
1.169573725E1,-9.414982796E-2,2.517586946E-2,-3.191947937E-3
1.170376319E1,-9.314906597E-2,2.257949114E-2,8.840560913E-3
1.171175913E1,-6.838560104E-2,8.170813322E-3,3.762531281E-2
1.171975515E1,-5.590128899E-2,-2.055519819E-2,4.244995117E-2
1.172774993E1,-4.368257523E-2,-1.312768459E-2,5.205440521E-2
1.173574603E1,1.844227314E-3,-1.995319128E-2,5.686092377E-2
1.174374197E1,-5.190968513E-4,-1.231083274E-2,6.406593323E-2
1.175173683E1,4.395365715E-3,-1.900622249E-2,7.846164703E-2
1.175976354E1,-1.192820072E-2,1.236116886E-2,4.258918762E-2
1.176775871E1,-1.609742641E-2,-6.713449955E-3,1.869392395E-2
1.177575465E1,-9.084939957E-4,-1.158434153E-2,-1.477146149E-2
1.178375013E1,-2.143061161E-2,1.225084066E-2,-5.126953125E-3
1.179174638E1,-3.199630976E-2,-4.715710878E-3,-2.419185638E-2
1.179974178E1,-3.553092480E-2,-1.114606857E-4,-1.214122772E-2
1.180773718E1,-5.582052469E-2,-5.042374134E-3,4.700660706E-3
1.181576366E1,-6.184428930E-2,-2.666026354E-2,3.111457825E-2
1.182375945E1,-6.803011894E-2,-1.701858640E-2,4.555320740E-2
1.183175516E1,-6.232202053E-2,-2.640265226E-2,8.632755280E-2
1.183975079E1,-5.925399065E-2,-1.413449645E-2,7.681179047E-2
1.184774620E1,-5.186539888E-2,2.924352884E-3,8.402252197E-2
1.185574129E1,-4.235619307E-2,1.539692283E-2,5.530929565E-2
1.186373738E1,-6.621301174E-3,1.345488429E-2,1.700782776E-2
1.187176325E1,1.010030508E-2,9.040355682E-3,1.462841034E-2
1.187975926E1,3.177750111E-2,4.627704620E-3,-9.287834167E-3
1.188775336E1,1.788026094E-2,-1.904591918E-2,-6.849288940E-3
1.189574945E1,4.436433315E-3,-1.417744160E-2,-1.396274567E-2
1.190374578E1,1.301234961E-2,-1.409506798E-2,-3.062057495E-2
1.191174149E1,-1.656812429E-2,1.475214958E-2,-6.563186646E-3
1.191973773E1,-3.160423040E-2,1.028239727E-2,5.103492737E-2
1.192776298E1,-5.642890930E-2,5.853921175E-3,6.312942505E-2
1.193575869E1,-7.172787189E-2,-2.722641826E-2,7.043552399E-2
1.194375417E1,-6.811088324E-2,-1.244217157E-2,8.490657806E-2
1.195175019E1,-7.676345110E-2,-1.439151168E-2,5.147457123E-2
1.195974528E1,-4.246944189E-2,-1.879763603E-2,3.478717804E-2
1.196774092E1,-6.821256876E-2,-8.942484856E-3,2.287101746E-2
1.197573693E1,-4.124718904E-2,-1.466274261E-3,-2.256011963E-2
1.198376318E1,6.228685379E-5,-1.173794270E-3,3.256225586E-2
1.199175851E1,-1.633834839E-2,-1.761373878E-2,-2.485847473E-2
1.199975398E1,-2.542656660E-2,1.873791218E-3,1.589393616E-2
1.200774962E1,-1.520103216E-2,-2.640435100E-2,-1.037597656E-2
1.201574664E1,-9.576737881E-3,-2.105855942E-2,2.801704407E-2
1.202374042E1,-2.299463749E-2,-2.057832479E-2,4.965496063E-2
1.203173713E1,2.102255821E-3,-1.763063669E-2,4.018688202E-2
1.203976330E1,1.284092665E-2,-3.144109249E-2,6.663227081E-2
1.204775778E1,-7.439255714E-3,-4.302009940E-2,5.477046967E-2
1.205575464E1,1.307547092E-3,-2.592989802E-2,3.574562073E-2
1.206374951E1,1.998698711E-2,-1.839032769E-2,3.350734711E-2
1.207174522E1,3.649377823E-2,-6.172031164E-3,-1.660251617E-2
1.207974124E1,-1.590728760E-3,-2.026852965E-2,9.937286377E-3
1.208773718E1,-3.527581692E-3,-8.010804653E-3,1.255512238E-2
1.209576273E1,-3.166246414E-2,-7.771015167E-3,-3.972053528E-3
1.210375790E1,-3.329008818E-2,1.637470722E-2,2.260875702E-2
1.211175423E1,-7.081788778E-2,6.988376379E-3,2.524757385E-2
1.211974932E1,-7.972568274E-2,1.445543766E-2,3.506755829E-2
1.212774526E1,-1.008179784E-1,-1.952886581E-3,5.684566498E-2
1.213574074E1,-9.843283892E-2,-1.125490665E-2,3.788566589E-2
1.214373645E1,-1.227646470E-1,-2.273899317E-2,7.876110077E-2
1.215176293E1,-1.140102148E-1,-1.997640729E-2,3.101158142E-2
1.215975833E1,-1.080413461E-1,-3.390002251E-2,4.788208008E-2
1.216775458E1,-1.143288016E-1,-2.403604984E-2,7.261276245E-3
1.217574914E1,-5.147874355E-2,-2.103120089E-3,2.169036865E-2
1.218374446E1,-5.834549665E-2,-1.360380650E-2,-2.206802368E-3
1.219174079E1,-1.979684830E-2,-1.318570971E-2,2.416801453E-2
1.219973657E1,-1.245731115E-2,-4.146668315E-2,1.701641083E-2
1.220776144E1,1.883798838E-2,-3.872188926E-2,3.619861603E-2
1.221575807E1,1.677280664E-2,-2.408620715E-2,3.144836426E-2
1.222375324E1,-1.994669437E-3,-7.254987955E-3,2.908802032E-2
1.223174980E1,1.061213017E-2,-1.209047437E-2,2.195072174E-2
1.223974489E1,-1.008427143E-2,6.974428892E-3,7.647514343E-3
1.224774121E1,-2.352279425E-2,1.892441511E-2,3.884220123E-2
1.225573631E1,-5.140256882E-2,2.365881205E-2,-1.796722412E-3
1.226376279E1,-7.202869654E-2,2.606859803E-2,1.982307434E-2
1.227175827E1,-1.022001505E-1,1.180493832E-2,1.990127563E-2
1.227975305E1,-6.789445877E-2,4.776418209E-3,3.672695160E-2
1.228774969E1,-5.781573057E-2,-4.643291235E-3,3.198528290E-2
1.229574563E1,-7.686555386E-2,-1.646178961E-2,3.678798676E-2
1.230374049E1,-6.022894382E-2,-1.149287820E-2,3.439331055E-2
1.231176689E1,-5.585443974E-2,-1.131787896E-2,1.282119751E-2
1.231976237E1,-3.963327408E-2,-6.406158209E-3,2.954483032E-2
1.232775808E1,6.192922592E-4,-1.577365398E-2,5.578994751E-3
1.233575402E1,-4.569709301E-3,1.069152355E-2,3.667736053E-2
1.234374888E1,-2.329111099E-3,1.334244013E-2,2.949523926E-2
1.235174452E1,7.199704647E-3,1.592347026E-2,5.344200134E-2
1.235974023E1,-9.462356567E-3,1.742213964E-3,4.148769379E-2
1.236776578E1,-1.168513298E-2,-3.404030204E-2,6.305408478E-2
1.237576249E1,-1.871436834E-2,-5.289912224E-4,4.391193390E-2
1.238375759E1,-2.096587420E-2,-7.675588131E-3,4.153060913E-2
1.239175322E1,-4.954785109E-2,-5.297333002E-3,1.759815216E-2
1.239974954E1,-3.974318504E-2,-1.240092516E-2,2.480220795E-2
1.240774533E1,-2.284026146E-2,-5.161494017E-3,2.242183685E-2
1.241573950E1,-2.984178066E-2,-2.856850624E-4,1.046943665E-2
1.242376652E1,-3.684699535E-2,-9.715050459E-3,1.527786255E-2
1.243176161E1,-2.956682444E-2,-9.619295597E-3,3.204917908E-2
1.243975763E1,-3.906065226E-2,-9.368121624E-3,6.079864502E-2
1.244775303E1,-3.682297468E-2,4.073977470E-4,3.685188293E-2
1.245574851E1,-2.992838621E-2,-8.930534124E-3,3.205299377E-2
1.246374476E1,-3.984636068E-2,-2.071151137E-2,2.964210510E-2
1.247174016E1,-4.985827208E-2,-1.811689138E-2,1.764583588E-2
1.247973587E1,-2.878069878E-2,-1.165956259E-3,1.761722565E-2
1.248776235E1,-3.162276745E-2,-5.774646997E-3,3.226280212E-3
1.249575814E1,-3.209716082E-2,-3.236800432E-3,3.196716309E-3
1.250375323E1,-2.776056528E-2,1.754820347E-3,1.753616333E-2
1.251174886E1,-4.722994566E-2,-2.891004086E-3,1.991367340E-2
1.251974488E1,-1.418191195E-2,-5.189985037E-3,2.945899963E-2
1.252773967E1,-4.587358236E-2,-1.231402159E-2,4.378318787E-2
1.253576592E1,-3.932744265E-2,-2.417063713E-2,4.373931885E-2
1.254376162E1,-4.489046335E-2,-1.205268502E-2,3.889846802E-2
1.255175734E1,-5.059605837E-2,-7.187604904E-3,6.516838074E-2
1.255975304E1,-5.642968416E-2,-1.420700550E-2,2.678775787E-2
1.256774929E1,-5.755567551E-2,5.126833916E-3,3.149986267E-2
1.257574408E1,-4.682773352E-2,-1.861763000E-2,2.682685852E-3
1.258373956E1,-3.381454945E-2,-1.600861549E-3,3.132247925E-2
1.259176634E1,-2.318108082E-2,-1.098668575E-2,2.165317535E-2
1.259976236E1,-1.258927584E-2,-1.082924008E-2,2.155590057E-2
1.260775646E1,-9.136199951E-3,3.693789244E-3,2.864551544E-2
1.261575309E1,-7.976651192E-3,-1.773849130E-2,3.813457489E-2
1.262374849E1,-1.636326313E-2,-3.369420767E-3,4.043865204E-2
1.263174389E1,-7.734656334E-3,-8.130699396E-3,4.755020142E-2
1.263973991E1,-1.345437765E-2,-8.052229881E-3,4.748439789E-2
1.264776639E1,-2.628111839E-2,-1.274475455E-2,5.460739136E-2
1.265576179E1,-3.661447763E-2,-2.458435297E-2,4.737377167E-2
1.266375635E1,-1.597899199E-2,-1.005512476E-2,3.294754028E-2
1.267175298E1,-3.615850210E-2,-3.399848938E-4,3.766536713E-2
1.267974838E1,-3.730827570E-2,-1.708966494E-2,1.842689514E-2
1.268774401E1,-3.362184763E-2,-1.228073239E-2,8.769035339E-3
1.269573980E1,-2.746731043E-2,9.301036596E-3,-8.065223694E-3
1.270376620E1,-1.645630598E-2,9.323358536E-3,1.101684570E-2
1.271176191E1,-3.652954102E-2,2.212703228E-3,3.250026703E-2
1.271975731E1,-2.779734135E-2,-1.923975348E-2,3.244304657E-2
1.272775279E1,-2.388924360E-2,4.853338003E-3,4.674911499E-2
1.273574789E1,-3.183853626E-2,-2.123215795E-2,6.585788727E-2
1.274374352E1,-3.264230490E-2,-9.015589952E-3,4.665660858E-2
1.275173923E1,-3.838920593E-2,7.962644100E-3,5.617237091E-2
1.275976540E1,-2.738642693E-2,-1.101690531E-2,4.653167725E-2
1.276776080E1,2.807557583E-3,-2.277350426E-2,1.774311066E-2
1.277575659E1,2.065777779E-3,-2.752369642E-2,2.487277985E-2
1.278375284E1,1.717448235E-3,-2.524492145E-2,2.005290985E-2
1.279174739E1,-5.618870258E-3,-3.251561522E-2,1.046085358E-2
1.279974395E1,-3.669524193E-2,-2.795338631E-2,1.284885406E-2
1.280773997E1,-5.335921049E-2,-6.593406200E-3,2.481746674E-2
1.281576552E1,-5.555403233E-2,-1.628285646E-2,4.398155212E-2
1.282376100E1,-6.503069401E-2,-6.634384394E-3,3.680896759E-2
1.283175725E1,-5.087196827E-2,1.261055470E-2,5.595207214E-2
1.283975234E1,-4.156738520E-2,3.148943186E-3,4.157257080E-2
1.284774775E1,-1.836144924E-2,5.693554878E-3,4.631328583E-2
1.285574384E1,4.710614681E-3,1.015901566E-3,3.667831421E-2
1.286373893E1,8.771479130E-3,5.877286196E-3,1.747512817E-2
1.287176541E1,2.978211641E-2,2.744108438E-2,5.464553833E-3
1.287976174E1,3.179609776E-2,-1.266002655E-3,-4.138946533E-3
1.288775683E1,1.018416882E-2,1.787635684E-2,3.039360046E-3
1.289575223E1,-2.319777012E-2,-1.794472337E-2,1.502323151E-2
1.290374825E1,-3.951299191E-2,-1.558107138E-2,2.463150024E-2
1.291174365E1,-4.625111818E-2,-2.287542820E-2,4.141902924E-2
1.291973844E1,-5.294543505E-2,-2.309316397E-2,5.341625214E-2
1.292776453E1,-6.934201717E-2,-1.379680634E-2,3.906440735E-2
1.293576063E1,-7.401555777E-2,2.810657024E-4,4.145336151E-2
1.294375603E1,-5.731409788E-2,-2.627915144E-2,2.467823029E-2
1.295175235E1,-5.760157108E-2,-1.201543212E-2,1.028728485E-2
1.295974830E1,-2.947729826E-2,-4.938632250E-3,2.460289001E-2
1.296774370E1,-1.088863611E-2,4.554957151E-3,2.455806732E-2
1.297573879E1,1.252806187E-2,-1.936227083E-2,3.888797760E-2
1.298376527E1,9.759962559E-3,4.558086395E-3,4.364776611E-2
1.299176067E1,5.215406418E-5,-2.561658621E-3,2.927494049E-2
1.299975700E1,-7.023930550E-3,-1.471638680E-4,3.646659851E-2
1.300775148E1,5.071878433E-3,-9.807169437E-3,4.604816437E-2
1.301574749E1,-3.778415918E-2,-1.701337099E-2,4.127693176E-2
1.302374328E1,-4.229277372E-2,-2.187103033E-2,2.213954926E-2
1.303173899E1,-2.759391069E-2,-5.217999220E-3,1.497650146E-2
1.303976516E1,-4.876941442E-2,-2.444779873E-2,1.739501953E-2
1.304776110E1,-3.860116005E-2,-5.519568920E-3,1.742744446E-2
1.305575650E1,-2.610570192E-2,-1.286825538E-2,1.985263824E-2
1.306375221E1,-5.433046818E-2,-8.289545774E-3,7.257461548E-4
1.307174738E1,-5.147272348E-2,-1.270473003E-3,2.230072021E-2
1.307974309E1,-5.590820312E-2,-6.220549345E-3,2.231979370E-2
1.308776857E1,-4.865556955E-2,3.332376480E-3,2.232360840E-2
1.309576467E1,-4.636329412E-2,-2.293708920E-2,3.428936005E-2
1.310376007E1,-3.700882196E-2,-1.800909638E-2,4.146289825E-2
1.311175632E1,-4.215586185E-2,-2.027726173E-2,4.144191742E-2
1.311975172E1,-6.658613682E-3,-8.168280125E-3,3.423500061E-2
1.312774781E1,-1.424759626E-2,-1.288118958E-2,3.660297394E-2
1.313574260E1,2.214729786E-3,1.422792673E-3,2.221298218E-2
1.314373893E1,-9.897112846E-3,-2.496325970E-2,1.262378693E-2
1.315176540E1,-3.386139870E-4,1.230418682E-3,2.219295502E-2
1.315976104E1,-1.688331366E-2,1.042366028E-3,3.046989441E-3
1.316775590E1,-4.296958447E-2,-1.500755548E-3,2.700042725E-2
1.317575153E1,-3.320235014E-2,3.139615059E-3,2.940082550E-2
1.318374670E1,-5.698490143E-2,1.493886113E-2,3.898239136E-2
1.319174326E1,-6.192368269E-2,-9.090274572E-3,4.375553131E-2
1.319973874E1,-5.747765303E-2,1.228138804E-2,2.935600281E-2
1.320776545E1,-6.281757355E-2,-4.583895206E-3,2.931118011E-2
1.321575993E1,-3.956818581E-2,-1.890698075E-2,2.207946777E-2
1.322375533E1,-2.369916439E-2,2.002716064E-4,2.919483185E-2
1.323175173E1,-3.111064434E-3,-1.417902112E-2,2.194213867E-2
1.323974706E1,5.695283413E-3,-2.378740907E-2,1.470184326E-2
1.324774223E1,4.157423973E-4,-2.866324782E-2,2.902698517E-2
1.325576840E1,-6.911993027E-3,-2.452820539E-3,3.858757019E-2
1.326376434E1,-9.184896946E-3,-7.477194071E-3,3.619098663E-2
1.327175982E1,-1.841449738E-2,-2.999544144E-3,3.380775452E-2
1.327975583E1,-3.476649523E-2,1.585274935E-3,4.101085663E-2
1.328775185E1,-5.848950148E-2,3.740161657E-3,3.383350372E-2
1.329574695E1,-6.073343754E-2,-8.437782526E-3,2.904605865E-2
1.330374289E1,-5.580866337E-2,-1.333341002E-2,2.905082703E-2
1.331173806E1,-3.421330452E-2,-8.580565453E-3,4.341888428E-2
1.331976454E1,-2.479153872E-2,-1.576119661E-2,3.143596649E-2
1.332775902E1,-4.413318634E-2,-1.580905914E-2,1.705551147E-2
1.333575588E1,-1.810306311E-2,-1.334214211E-2,3.858470917E-2
1.334375074E1,-3.747111559E-2,-8.549124002E-3,2.420330048E-2
1.335174668E1,-4.279732704E-3,-1.341578364E-2,2.896404266E-2
1.335974278E1,-1.893842220E-2,-8.747667074E-3,4.330348969E-2
1.336776895E1,-1.188361645E-2,-2.329635620E-2,1.216030121E-2
1.337576427E1,-4.076981544E-2,-4.270225763E-3,1.932525635E-2
1.338375937E1,-4.085683823E-2,5.071312189E-3,1.930809021E-2
1.339175577E1,-2.408510447E-2,-7.066726685E-3,1.930141449E-2
1.339975110E1,-2.407747507E-2,1.426595449E-2,2.647495270E-2
1.340774596E1,-3.828310966E-2,9.290277958E-3,3.844928741E-2
1.341574221E1,-3.821092844E-2,-9.961575270E-3,3.605556488E-2
1.342376868E1,-5.978757143E-2,9.132325649E-3,3.365612030E-2
1.343176416E1,-4.307091236E-2,-5.392074585E-3,3.125190735E-2
1.343976041E1,-3.837740421E-2,-1.504945755E-2,4.081821442E-2
1.344775558E1,-5.290091038E-2,-1.987212896E-2,3.841114044E-2
1.345575091E1,-3.633725643E-2,-2.229329944E-2,3.121280670E-2
1.346374631E1,-3.190904856E-2,-2.704748511E-2,2.879333496E-2
1.347174233E1,-1.789891720E-2,-7.453560829E-4,2.637290955E-2
1.347976827E1,-2.550017834E-2,-1.519551873E-2,2.394390106E-2
1.348776336E1,-1.393222809E-2,-1.053032279E-2,1.912021637E-2
1.349575907E1,-7.054269314E-3,-3.460079432E-3,2.866935730E-2
1.350375563E1,-9.736180305E-3,-5.993187428E-3,2.385425568E-2
1.351175141E1,-9.841740131E-3,-8.487433195E-3,2.384185791E-2
1.351974651E1,-9.888827801E-3,3.451406956E-3,4.538536072E-2
1.352774245E1,-9.809434414E-3,-1.374512911E-3,4.299640656E-2
1.353576831E1,-1.447165012E-2,-1.097053289E-2,4.539775848E-2
1.354376341E1,-2.634423971E-2,-1.587116718E-2,2.145767212E-2
1.355175912E1,-3.098666668E-2,-1.602116227E-2,1.667308807E-2
1.355975552E1,-3.086829185E-2,-1.701980829E-3,1.907348633E-2
1.356775023E1,-1.872563362E-2,1.254358888E-2,2.865695953E-2
1.357574624E1,-2.335119247E-2,-4.369974136E-3,2.626800537E-2
1.358374234E1,-4.242473841E-2,-2.072155476E-3,2.626991272E-2
1.359176790E1,-3.276669979E-2,2.564668655E-3,3.584480286E-2
1.359976384E1,-4.222100973E-2,-4.806190729E-3,2.626895905E-2
1.360776024E1,-3.509432077E-2,-2.562344074E-3,1.907444000E-2
1.361575472E1,-5.679798126E-2,-5.046069622E-3,2.863597870E-2
1.362375035E1,-6.669628620E-2,-1.711171865E-2,2.142715454E-2
1.363174637E1,-5.047827959E-2,-1.477366686E-2,3.096199036E-2
1.363974215E1,-5.110019445E-2,4.407167435E-3,2.852344513E-2
1.364776702E1,-2.785021067E-2,-3.014802933E-4,3.565979004E-2
1.365576250E1,-1.191461086E-2,-1.702499390E-2,2.363014221E-2
1.366375913E1,-7.789313793E-3,6.912708282E-3,2.837085724E-2
1.367175476E1,1.547145844E-2,-1.715010405E-2,2.113437653E-2
1.367975085E1,-4.011034966E-3,-3.006637096E-3,3.067684174E-2
1.368774626E1,-1.373815536E-2,-5.673170090E-3,3.065395355E-2
1.369574135E1,-2.077770233E-2,3.640413284E-3,4.022884369E-2
1.370376775E1,-3.262889385E-2,-1.805189252E-2,4.980754852E-2
1.371176354E1,-5.647164583E-2,-8.513212204E-3,5.220794678E-2
1.371976010E1,-3.504693508E-2,-2.279934287E-2,5.459594727E-2
1.372775396E1,-3.307938576E-2,5.972027779E-3,4.738426208E-2
1.373574998E1,-3.126168251E-2,-1.063266397E-2,2.340698242E-2
1.374374599E1,-3.121793270E-3,-1.058438420E-2,1.857852936E-2
1.375174170E1,1.073461771E-2,1.098078489E-2,4.178047180E-3
1.375976764E1,3.398895264E-3,1.500695944E-3,-3.011703491E-3
1.376776358E1,3.408908844E-3,-1.295039058E-2,-6.208419800E-4
1.377575868E1,-2.032089233E-2,-5.844652653E-3,1.615142822E-2
1.378375439E1,-3.443461657E-2,1.258790493E-3,3.531932831E-2
1.379175017E1,-3.650176525E-2,-2.280607820E-2,2.815437317E-2
1.379974558E1,-4.350632429E-2,-2.050703764E-2,4.013347626E-2
1.380777113E1,-4.575914145E-2,9.008347988E-4,4.013824463E-2
1.381576738E1,-6.251764297E-2,-1.123681664E-2,3.055381775E-2
1.382376255E1,-4.832619429E-2,7.720410824E-3,8.984565735E-3
1.383175911E1,-2.957236767E-2,-1.958906651E-3,8.950233459E-3
1.383975543E1,-5.174845457E-2,-8.995145559E-3,2.806568146E-2
1.384775030E1,-3.570675850E-2,3.052383661E-3,4.238319397E-2
1.385574562E1,-1.955330372E-2,-2.320572734E-2,3.037166595E-2
1.386374133E1,1.525461674E-3,8.634924889E-4,3.992080688E-2
1.387176850E1,-1.078110933E-2,-1.110810041E-2,4.468536377E-2
1.387976321E1,-1.815670729E-2,-1.696199179E-3,3.748130798E-2
1.388775808E1,-6.330132484E-3,-4.272878170E-3,3.506851196E-2
1.389575432E1,-3.261309862E-2,-9.226471186E-3,1.591110229E-2
1.390375011E1,-3.257250786E-2,-4.663765430E-3,1.350975037E-2
1.391174582E1,-4.691702127E-2,-2.436608076E-3,8.714675903E-3
1.391974122E1,-3.486585617E-2,-1.445114613E-4,1.350402832E-2
1.392776762E1,-3.713232279E-2,-1.685982943E-2,1.351642609E-2
1.393576279E1,-1.776289940E-2,-2.391993999E-3,1.353549957E-2
1.394375850E1,-1.283395290E-2,-1.189732552E-2,3.988647461E-2
1.395175444E1,-1.269364357E-2,-7.059425116E-3,4.947471619E-2
1.395975077E1,-2.205663919E-2,-4.696309566E-3,3.272914886E-2
1.396774533E1,-2.181887627E-2,2.371042967E-3,2.316379547E-2
1.397574188E1,-3.829634190E-2,-2.169519663E-2,2.796745300E-2
1.398376751E1,-3.084558249E-2,4.446536303E-3,3.276538849E-2
1.399176353E1,-5.459576845E-2,-1.720365882E-2,3.517055511E-2
1.399975862E1,-6.154060364E-2,4.303783178E-3,1.842498779E-2
1.400775456E1,-5.441880226E-2,-1.247373223E-2,3.039073944E-2
1.401575027E1,-4.034733772E-2,-7.759243250E-3,3.276062012E-2
1.402374568E1,-3.831338882E-2,-1.013380289E-2,8.793830872E-3
1.403174177E1,-3.159916401E-2,-7.751822472E-3,1.115417480E-2
1.403976702E1,-1.050513983E-2,4.225343466E-3,1.591014862E-2
1.404776234E1,-1.571589708E-2,1.867800951E-3,1.827526093E-2
1.405575844E1,-4.051446915E-3,9.144783020E-3,2.304649353E-2
1.406375407E1,-6.639540195E-3,-5.116105080E-3,4.697990417E-2
1.407175040E1,-2.109599113E-2,-7.487744093E-3,4.457950592E-2
1.407974611E1,-1.143872738E-2,-1.465702057E-2,5.655765533E-2
1.408774128E1,-3.294265270E-2,-2.437111735E-2,4.937171936E-2
1.409576706E1,-2.802556753E-2,-1.252123713E-2,5.177021027E-2
1.410376247E1,-4.701030254E-2,-1.267799735E-2,3.980350494E-2
1.411175856E1,-6.126838923E-2,-2.482584119E-2,3.501415253E-2
1.411975396E1,-5.649906397E-2,1.095730066E-2,6.277084351E-3
1.412774990E1,-6.126153469E-2,-1.095294952E-3,-1.048469543E-2
1.413574507E1,-4.235732555E-2,-3.552377224E-3,2.540779114E-2
1.414374048E1,-1.866132021E-2,-1.301342249E-2,2.060699463E-2
1.415176657E1,-9.329855442E-3,-2.495637536E-2,3.256130219E-2
1.415976297E1,2.566516399E-3,-1.076906919E-3,5.410194397E-2
1.416775837E1,-7.083117962E-3,-1.076799631E-2,2.296638489E-2
1.417575370E1,-2.369946241E-2,3.603011370E-3,5.649662018E-2
1.418374941E1,-1.864433289E-3,-6.042659283E-3,5.411911011E-2
1.419174542E1,-1.122736931E-2,1.087218523E-3,4.455471039E-2
1.419974060E1,-2.767962217E-2,-2.295175195E-2,2.063083649E-2
1.420776638E1,-2.984690666E-2,-1.590740681E-2,2.542877197E-2
1.421576271E1,-3.199583292E-2,-8.934855461E-3,1.107215881E-2
1.422375780E1,-3.153085709E-2,7.737398148E-3,1.110172272E-2
1.423175359E1,-5.491739511E-2,-9.160846472E-3,1.113510132E-2
1.423974984E1,-5.183666945E-2,5.032747984E-3,2.554225922E-2
1.424774462E1,-3.421878815E-2,-1.199710369E-2,3.995704651E-2
1.425574064E1,-1.193958521E-2,-2.667665482E-3,4.239273071E-2
1.426376597E1,-1.347571611E-2,-1.245179772E-2,4.005050659E-2
1.427176198E1,-5.120635033E-4,-1.514467597E-2,5.926322937E-2
1.427975800E1,2.632737160E-4,1.221179962E-3,9.021759033E-3
1.428775333E1,-3.254032135E-2,2.000448108E-2,2.342224121E-2
1.429574911E1,-6.540071964E-2,1.020291448E-2,1.148986816E-2
1.430374475E1,-7.913148403E-2,1.238685846E-2,2.110290527E-2
1.431177068E1,-8.339273930E-2,-1.403343678E-2,1.156044006E-2
1.431976663E1,-7.361632586E-2,5.087167025E-3,1.157379150E-2
1.432776295E1,-5.215948820E-2,-4.433214664E-3,2.353954315E-2
1.433575781E1,-3.085428476E-2,-9.171128273E-3,3.070831299E-2
1.434375345E1,-9.506583214E-3,-1.873758435E-2,2.590560913E-2
1.435174954E1,1.443725824E-2,3.907680511E-4,9.144783020E-3
1.435974487E1,1.708126068E-2,-2.840259671E-2,3.549671173E-2
1.436776981E1,2.478682995E-2,-1.424422860E-2,5.467891693E-2
1.437576644E1,-1.765972376E-2,-2.565026283E-3,3.795433044E-2
1.438376184E1,-3.837108612E-2,4.357606173E-3,2.842521667E-2
1.439175732E1,-6.632238626E-2,1.140308380E-2,2.368736267E-2
1.439975395E1,-5.608725548E-2,-7.833689451E-3,1.176166534E-2
1.440774928E1,-7.238018513E-2,-5.395919085E-3,3.095054626E-2
1.441574445E1,-6.962692738E-2,-3.888428211E-2,3.097820282E-2
1.442377054E1,-6.235682964E-2,-1.006042957E-2,3.817176819E-2
1.443176656E1,-4.319792986E-2,-9.947359562E-3,2.620601654E-2
1.443976289E1,-4.086422920E-2,-3.914833069E-4,3.338241577E-2
1.444775744E1,-3.395026922E-2,4.413276911E-3,2.378749847E-2
1.445575307E1,-1.989376545E-2,-7.535874844E-3,2.616024017E-2
1.446374878E1,-2.265620232E-2,1.909017563E-3,3.570461273E-2
1.447174457E1,-1.102238894E-2,9.109348059E-3,1.413249969E-2
1.447977105E1,5.436480045E-3,-1.238924265E-2,1.890087128E-2
1.448776668E1,-1.864451170E-2,-2.788007259E-3,9.315490723E-3
1.449576147E1,-2.103078365E-2,-2.419745922E-2,2.847576141E-2
1.450375726E1,-1.855504513E-2,-1.690796018E-2,4.285240173E-2
1.451175327E1,-1.115417480E-2,4.665523767E-3,3.089809418E-2
1.451974860E1,-1.320594549E-2,-4.987567663E-3,2.373600006E-2
1.452774438E1,-1.974236965E-2,-2.759337425E-3,2.856445312E-2
1.453577048E1,-3.347498178E-2,4.307448864E-3,5.254840851E-2
1.454376626E1,-5.464595556E-2,6.606519222E-3,2.144622803E-2
1.455176128E1,-7.111090422E-2,4.158526659E-3,2.385997772E-2
1.455975768E1,-9.721618891E-2,-1.259651780E-2,1.430034637E-2
1.456775339E1,-9.242087603E-2,-5.381375551E-3,3.824424744E-2
1.457574880E1,-7.101345062E-2,2.565774322E-2,7.105827332E-3
1.458374389E1,-7.845121622E-2,1.846715808E-2,7.085800171E-3
1.459177068E1,-5.766826868E-2,4.253655672E-3,2.858448029E-2
1.459976546E1,-3.228765726E-2,-3.143721819E-2,2.373600006E-2
1.460776056E1,2.163976431E-2,-3.113731742E-2,4.760932922E-2
1.461575781E1,3.024083376E-2,-3.097209334E-2,3.318023682E-2
1.462375282E1,3.685104847E-2,-1.893076301E-2,4.032516479E-2
1.463174853E1,5.357348919E-2,-2.091616392E-3,3.553771973E-2
1.463974401E1,1.808404922E-2,-3.793877363E-2,3.557109833E-2
1.464777072E1,2.108335495E-3,5.224615335E-3,3.084278107E-2
1.465576582E1,-1.353919506E-2,2.448737621E-2,5.487060547E-2
1.466376191E1,-9.980082512E-3,7.767289877E-3,3.580379486E-2
1.467175693E1,-1.839506626E-2,-1.124650240E-2,1.913547516E-2
1.467975264E1,-3.880232573E-2,-6.266206503E-3,9.650230408E-3
1.468774750E1,-3.058451414E-2,-6.079018116E-3,9.734153748E-3
1.469574375E1,-6.316125393E-2,5.963742733E-3,7.412910461E-3
1.470377023E1,-4.317814112E-2,-1.128911972E-3,1.226711273E-2
1.471176532E1,-7.598406076E-2,6.190955639E-3,9.929656982E-3
1.471976080E1,-8.988177776E-2,-3.348350525E-3,2.912044525E-2
1.472775705E1,-8.256471157E-2,-1.284345984E-2,1.716327667E-2
1.473575283E1,-7.070171833E-2,1.353463531E-2,3.870582581E-2
1.474374793E1,-5.912774801E-2,-5.526810884E-3,3.628540039E-2
1.475174448E1,-3.574764729E-2,-7.877022028E-3,3.385162354E-2
1.475977073E1,-1.978254318E-2,-7.778912783E-3,5.055713654E-2
1.476776483E1,-1.109480858E-2,4.256665707E-3,3.373527527E-2
1.477576115E1,-2.226769924E-3,9.198904037E-3,3.129673004E-2
1.478375694E1,1.877939701E-2,4.522025585E-3,4.323387146E-2
1.479175288E1,1.610475779E-2,-1.643896103E-4,2.166843414E-2
1.479974774E1,4.105508327E-3,-4.896253347E-3,1.927471161E-2
1.480774407E1,-7.642209530E-3,-9.660184383E-3,3.844642639E-2
1.481576985E1,-2.387303114E-2,-4.893332720E-3,3.369522095E-2
1.482376626E1,-3.048241138E-2,7.039904594E-3,3.613090515E-2
1.483176158E1,-5.892091990E-2,-1.455870271E-2,2.896595001E-2
1.483975644E1,-6.108415127E-2,-1.686725020E-2,2.898693085E-2
1.484775146E1,-5.385780334E-2,9.428560734E-3,2.419948578E-2
1.485574756E1,-4.432147741E-2,2.287179232E-3,3.377628326E-2
1.486374326E1,-4.696118832E-2,-7.155954838E-3,1.700496674E-2
1.487177036E1,-9.123682976E-3,-2.132892609E-3,2.176952362E-2
1.487976538E1,4.910826683E-3,7.568538189E-3,2.021789551E-4
1.488776078E1,9.460806847E-3,-3.063112497E-2,4.978179932E-3
1.489575649E1,2.383643389E-2,1.016563177E-2,7.377624512E-3
1.490375197E1,2.169680595E-2,-1.609832048E-2,1.937007904E-2
1.491174768E1,-1.612550020E-2,-8.908867836E-3,3.137779236E-2
1.491974400E1,-1.059079170E-2,-6.522536278E-3,4.100894928E-2
1.492776956E1,-3.386837244E-2,6.448924541E-4,4.345226288E-2
1.493576581E1,-6.914377213E-2,5.907416344E-4,3.391838074E-2
1.494376090E1,-6.152480841E-2,5.992054939E-4,2.437400818E-2
1.495175692E1,-8.537435532E-2,-4.068225622E-3,1.480960846E-2
1.495975209E1,-5.198639631E-2,5.619078875E-3,1.480484009E-2
1.496774749E1,-5.469185114E-2,-2.298009396E-2,4.224777222E-4
1.497574312E1,-3.134483099E-2,-5.968213081E-3,9.967803955E-3
1.498376968E1,-2.952069044E-2,3.852218390E-3,3.387832642E-2
1.499176508E1,-2.056121826E-2,-1.274448633E-2,2.905178070E-2
1.499976079E1,-1.146626472E-2,4.159837961E-3,4.817771912E-2
1.500775581E1,-9.409248829E-3,1.612249017E-2,4.336357117E-2
1.501575221E1,9.652912617E-3,-3.026962280E-3,5.293464661E-2
1.502374784E1,1.383423805E-4,-5.388498306E-3,5.054569244E-2
1.503174363E1,-1.651930809E-2,6.555825472E-3,4.337024689E-2
1.503976980E1,-3.066444397E-2,-3.046691418E-3,4.338455200E-2
1.504776551E1,-3.038984537E-2,2.810788155E-2,1.467514038E-2
1.505576084E1,-5.166023970E-2,-1.263627410E-2,2.427101135E-2
1.506375631E1,-6.102293730E-2,-1.747891307E-2,1.710224152E-2
1.507175110E1,-4.656732082E-2,-6.923675537E-4,2.189731598E-2
1.507974712E1,-5.129158497E-2,1.611644030E-2,1.711654663E-2
1.508777360E1,-4.405164719E-2,-2.453026175E-2,1.233482361E-2
1.509576923E1,-4.163992405E-2,-1.963159442E-2,1.234149933E-2
1.510376471E1,-2.019846439E-2,-5.215913057E-3,2.909374237E-2
1.511176003E1,-1.298165321E-2,-9.947776794E-3,3.867721558E-2
1.511975636E1,-9.485483170E-4,-7.538288832E-3,2.671051025E-2
1.512775122E1,-1.034837961E-2,-2.794474363E-3,1.714515686E-2
1.513574786E1,-5.266547203E-3,9.121030569E-3,3.152942657E-2
1.514374318E1,-9.592294693E-3,-2.867847681E-3,2.916812897E-2
1.515176935E1,-3.773868084E-2,-4.773139954E-4,3.160572052E-2
1.515976514E1,-2.751111984E-2,-1.726129651E-2,2.207565308E-2
1.516775985E1,-4.340541363E-2,-1.244243979E-2,2.213954926E-2
1.517575625E1,-6.415992975E-2,-5.332827568E-3,3.177261353E-2
1.518375157E1,-3.719305992E-2,-7.783621550E-3,1.505661011E-2
1.519174759E1,-4.602849483E-2,-1.497122645E-2,2.947616577E-2
1.519974361E1,-6.700873375E-2,-2.978056669E-3,1.994323730E-2
1.520776947E1,-7.370609045E-2,-1.023060083E-2,1.758098602E-2
1.521576487E1,-6.374901533E-2,-7.789313793E-3,4.634189606E-2
1.522376028E1,-3.961968422E-2,-7.738053799E-3,3.917598724E-2
1.523175599E1,-4.203790426E-2,-7.610052824E-3,3.439140320E-2
1.523975139E1,-4.216152430E-2,-2.417597175E-2,4.157352448E-2
1.524774740E1,-2.804708481E-2,-1.212656498E-4,5.353164673E-2
1.525574227E1,-2.595758438E-2,-1.194435358E-2,2.239036560E-2
1.526376929E1,-1.188623905E-2,2.571910620E-3,2.237606049E-2
1.527176500E1,-1.441109180E-2,-1.407608390E-2,8.006095886E-3
1.527975986E1,9.610235691E-3,1.469227672E-2,1.519584656E-2
1.528775611E1,2.285242081E-4,-4.506528378E-3,1.999664307E-2
1.529575128E1,-4.232466221E-3,2.598345280E-3,2.720069885E-2
1.530374691E1,-3.257292509E-2,-1.182174683E-2,3.440856934E-2
1.531174324E1,-5.611675978E-2,-1.182562113E-2,1.528453827E-2
1.531976825E1,-4.855376482E-2,-2.348184586E-3,2.009677887E-2
1.532776335E1,-5.064445734E-2,-4.792958498E-3,4.884815216E-2
1.533576029E1,-5.769610405E-2,1.198446751E-2,5.125236511E-2
1.534375623E1,-5.531257391E-2,7.329910994E-3,5.767822266E-3
1.535175194E1,-4.590034485E-2,5.087673664E-3,3.449249268E-2
1.535974734E1,-4.870736599E-2,-9.058952332E-3,2.010631561E-2
1.536777351E1,-3.956025839E-2,-3.037145734E-2,2.248001099E-2
1.537576891E1,-2.319467068E-2,-1.585245132E-3,3.203105927E-2
1.538376378E1,-9.128868580E-3,-1.349243522E-2,1.764583588E-2
1.539175979E1,-1.895105839E-2,-1.353821158E-2,3.438472748E-2
1.539975543E1,1.693183184E-2,3.145515919E-3,2.719688416E-2
1.540775052E1,-9.198188782E-3,-2.093786001E-2,1.762866974E-2
1.541574631E1,-6.444215775E-3,2.838462591E-3,2.961826324E-2
1.542377248E1,-2.281153202E-2,2.753913403E-3,2.725028992E-2
1.543176880E1,-3.428190947E-2,7.585197687E-3,3.447151184E-2
1.543976390E1,-3.626596928E-2,2.817332745E-3,3.210926056E-2
1.544776045E1,-4.794442654E-2,-1.859289408E-2,3.931999207E-2
1.545575470E1,-3.815096617E-2,-2.324941754E-2,2.737045288E-2
1.546375064E1,-6.191509962E-2,-6.441503763E-3,2.020263672E-2
1.547174643E1,-4.506099224E-2,-1.843363047E-2,2.260303497E-2
1.547977314E1,-3.301280737E-2,1.021963358E-2,2.021121979E-2
1.548776792E1,-4.729908705E-2,1.731660962E-2,1.303100586E-2
1.549576364E1,-1.129937172E-2,1.015189290E-2,2.500915527E-2
1.550375973E1,-2.564591169E-2,-6.605118513E-3,3.458690643E-2
1.551175544E1,-3.027075529E-2,-9.060233831E-3,1.544284821E-2
1.551975169E1,-4.952114820E-2,1.010975242E-2,2.980232239E-2
1.552774747E1,-4.962229729E-2,-1.798033714E-3,3.937530518E-2
1.553577272E1,-6.416630745E-2,-4.251152277E-3,2.978134155E-2
1.554376812E1,-6.204265356E-2,-6.549239159E-3,2.018833160E-2
1.555176406E1,-2.169597149E-2,-1.596379280E-2,2.016925812E-2
1.555975977E1,-2.683550119E-2,-2.055564523E-2,3.212356567E-2
1.556775456E1,-1.769787073E-2,-2.532058954E-2,3.209209442E-2
1.557575035E1,-1.544451714E-2,-2.052146196E-2,3.208255768E-2
1.558374636E1,-3.219032288E-2,-1.119446754E-2,3.446578979E-2
1.559177277E1,-3.690665960E-2,-4.309862852E-3,5.361175537E-2
1.559976794E1,-3.443837166E-2,1.230260730E-2,2.248573303E-2
1.560776388E1,-4.879099131E-2,-4.446774721E-3,4.164028168E-2
1.561575989E1,-4.643625021E-2,7.564932108E-3,2.487945557E-2
1.562375530E1,-4.435294867E-2,-6.641387939E-3,3.444099426E-2
1.563175101E1,-1.841825247E-2,-4.100322723E-3,2.723598480E-2
1.563974672E1,-9.163677692E-3,-8.767127991E-3,2.961063385E-2
1.564777235E1,1.922887564E-2,8.061796427E-3,1.761913300E-2
1.565576798E1,2.139621973E-2,3.311634064E-3,1.281547546E-2
1.566376408E1,-7.296741009E-3,-1.353996992E-2,3.196716309E-2
1.567175940E1,-1.425617933E-2,-4.083544016E-3,5.641937256E-3
1.567975457E1,-3.775918484E-2,7.695078850E-3,1.045417786E-2
1.568775051E1,-3.256499767E-2,-1.638355851E-2,1.526641846E-2
1.569574568E1,-6.335920095E-2,-2.128618956E-2,3.922843933E-2
1.570377239E1,-6.068009138E-2,-2.616664767E-2,1.530265808E-2
1.571176818E1,-7.480359077E-2,-2.527236938E-5,2.249431610E-2
1.571976389E1,-6.756198406E-2,-1.453405619E-2,2.728080750E-2
1.572775806E1,-5.812317133E-2,-1.701602340E-2,2.966022491E-2
1.573575492E1,-5.843132734E-2,-7.457852364E-3,3.921413422E-2
1.574375071E1,-3.026783466E-2,-3.171265125E-4,3.917121887E-2
1.575174642E1,2.351999283E-4,-2.679705620E-3,3.912639618E-2
1.575977251E1,-3.352165222E-4,-3.491640091E-4,3.429126740E-2
1.576776799E1,2.074295282E-2,-1.228135824E-2,2.946949005E-2
1.577576363E1,1.570379734E-2,-7.577747107E-3,1.747703552E-2
1.578375880E1,-1.297068596E-2,6.791502237E-3,1.508617401E-2
1.579175504E1,-7.940888405E-3,-9.970843792E-3,3.425788879E-2
1.579974991E1,-2.666413784E-2,-2.195149660E-2,2.710819244E-2
1.580774593E1,-2.621752024E-2,-1.714721322E-2,4.150676727E-2
1.581577171E1,-3.775352240E-2,-1.485306025E-2,3.195762634E-2
1.582376835E1,-1.588332653E-2,-2.697709203E-2,4.155063629E-2
1.583176382E1,-3.221434355E-2,-2.472519875E-2,2.481651306E-2
1.583975923E1,-1.501387358E-2,-1.305800676E-2,8.076667786E-3
1.584775517E1,-1.450395584E-2,1.070910692E-2,-3.864288330E-3
