"Time (s)","Acceleration x (m/s^2)","Acceleration y (m/s^2)","Acceleration z (m/s^2)"
5.664928000E-3,2.930502892E0,-6.624756336E0,5.726930618E0
7.709932000E-3,2.920926094E0,-6.636727333E0,5.693411827E0
9.815707000E-3,2.901772499E0,-6.641515732E0,5.647922039E0
1.179909600E-2,2.889801502E0,-6.624756336E0,5.597643375E0
1.381333100E-2,2.875436306E0,-6.629544735E0,5.635950565E0
1.579764400E-2,2.837129116E0,-6.636727333E0,5.655104637E0
1.781149500E-2,2.827552319E0,-6.629544735E0,5.674258232E0
1.979480700E-2,2.820369720E0,-6.627150536E0,5.683835030E0
2.180927300E-2,2.832340717E0,-6.629544735E0,5.714959621E0
2.379174000E-2,2.853888512E0,-6.631938934E0,5.770026207E0
2.580720500E-2,2.858676910E0,-6.636727333E0,5.805939198E0
2.779028700E-2,2.834734917E0,-6.624756336E0,5.872976780E0
2.980444500E-2,2.820369720E0,-6.617573261E0,5.896918774E0
3.178875800E-2,2.817975283E0,-6.627150536E0,5.899312973E0
3.380260900E-2,2.784456491E0,-6.624756336E0,5.889736176E0
3.581822800E-2,2.758120298E0,-6.639121532E0,5.877765179E0
3.780046400E-2,2.748543501E0,-6.639121532E0,5.877765179E0
3.981462300E-2,2.719813108E0,-6.639121532E0,5.858611584E0
4.179855000E-2,2.705447912E0,-6.651092529E0,5.851428986E0
4.381301700E-2,2.703053713E0,-6.665457726E0,5.849034786E0
4.579579000E-2,2.722207308E0,-6.687005520E0,5.817910194E0
4.780971800E-2,2.731784105E0,-6.706159115E0,5.803544998E0
4.979403100E-2,2.772485495E0,-6.703764915E0,5.765237808E0
5.180780400E-2,2.806004286E0,-6.696582317E0,5.772420406E0
5.379119300E-2,2.832340717E0,-6.698976517E0,5.770026207E0
5.580727500E-2,2.882618904E0,-6.696582317E0,5.750872612E0
5.778851000E-2,2.894589901E0,-6.682217121E0,5.750872612E0
5.980359200E-2,2.913743496E0,-6.675034523E0,5.748478413E0
6.181713400E-2,2.925714493E0,-6.682217121E0,5.743690014E0
6.380198600E-2,2.916137695E0,-6.670246124E0,5.705382824E0
6.581622100E-2,2.899378300E0,-6.660669327E0,5.681440830E0
6.779830200E-2,2.875436306E0,-6.627150536E0,5.659893036E0
6.981400000E-2,2.815581083E0,-6.629544735E0,5.626373768E0
7.179738800E-2,2.794033289E0,-6.636727333E0,5.612008572E0
7.381070100E-2,2.767697096E0,-6.622362137E0,5.585672379E0
7.579616800E-2,2.741360903E0,-6.615179062E0,5.571307182E0
7.780855600E-2,2.726995707E0,-6.619967937E0,5.556941986E0
7.979279200E-2,2.698265314E0,-6.622362137E0,5.511452198E0
8.180756600E-2,2.676717520E0,-6.610390663E0,5.499481201E0
8.379095500E-2,2.655169725E0,-6.605602264E0,5.489904404E0
8.580457500E-2,2.638410330E0,-6.603208065E0,5.475539207E0
8.778765600E-2,2.621650934E0,-6.596025467E0,5.463568211E0
8.980235300E-2,2.585737944E0,-6.600813866E0,5.427655220E0
9.181689700E-2,2.552218914E0,-6.603208065E0,5.403713226E0
9.380028500E-2,2.535459518E0,-6.591237068E0,5.391742229E0
9.581506000E-2,2.489969730E0,-6.574477673E0,5.370194435E0
9.779783400E-2,2.454056740E0,-6.564900875E0,5.341464043E0
9.981199200E-2,2.430114746E0,-6.562506676E0,5.334281445E0
1.017956120E-1,2.394201756E0,-6.555324078E0,5.317522049E0
1.038089240E-1,2.363077164E0,-6.526593685E0,5.327098846E0
1.057937750E-1,2.339135170E0,-6.517016888E0,5.327098846E0
1.078073950E-1,2.293645144E0,-6.519411087E0,5.312733650E0
1.097913990E-1,2.272097349E0,-6.512228489E0,5.279214859E0
1.118058660E-1,2.238578558E0,-6.500257492E0,5.281609058E0
1.137892560E-1,2.185906172E0,-6.481103897E0,5.286397457E0
1.158052600E-1,2.161964178E0,-6.488286495E0,5.295974255E0
1.177868030E-1,2.130839586E0,-6.495469093E0,5.329493046E0
1.198009610E-1,2.104503393E0,-6.524199486E0,5.370194435E0
1.218156580E-1,2.085349798E0,-6.540958881E0,5.391742229E0
1.237990480E-1,2.092532396E0,-6.564900875E0,5.449203014E0
1.258129750E-1,2.121262789E0,-6.615179062E0,5.442020416E0
1.277966720E-1,2.159569979E0,-6.636727333E0,5.401319027E0
1.298113700E-1,2.257732153E0,-6.687005520E0,5.303156853E0
1.317951430E-1,2.372653961E0,-6.720524311E0,5.216965675E0
1.338089940E-1,2.427720547E0,-6.739677906E0,5.169081688E0
1.357933060E-1,2.547430515E0,-6.794744492E0,5.090072632E0
1.378064650E-1,2.679111719E0,-6.852205276E0,5.030217648E0
1.397899310E-1,2.750937700E0,-6.883329868E0,5.001487255E0
1.418037040E-1,2.899378300E0,-6.936002254E0,4.958391666E0
1.438191710E-1,2.964021683E0,-6.947973251E0,4.951209068E0
1.458030990E-1,3.093308687E0,-6.971915245E0,4.946420670E0
1.478154880E-1,3.224989653E0,-7.019799232E0,4.946420670E0
1.498004160E-1,3.282450438E0,-7.041347027E0,4.941632271E0
1.518141890E-1,3.385401249E0,-7.074865818E0,4.922478676E0
1.537985020E-1,3.502717018E0,-7.101202011E0,4.915296078E0
1.558133530E-1,3.541024208E0,-7.120356083E0,4.915296078E0
1.577957410E-1,3.605667830E0,-7.151480675E0,4.881777287E0
1.598099000E-1,3.658340216E0,-7.173028469E0,4.862623692E0
1.617939040E-1,3.672705412E0,-7.182605267E0,4.853046894E0
1.638074480E-1,3.684676409E0,-7.196970463E0,4.838681698E0
1.657918370E-1,3.687070608E0,-7.223306656E0,4.860229492E0
1.678059180E-1,3.679888010E0,-7.230489254E0,4.860229492E0
1.697890770E-1,3.646369219E0,-7.254431248E0,4.876988888E0
1.718034670E-1,3.627215624E0,-7.285555840E0,4.903325081E0
1.738167010E-1,3.610456228E0,-7.309497833E0,4.915296078E0
1.758023220E-1,3.584120035E0,-7.335834026E0,4.922478676E0
1.778154800E-1,3.552995205E0,-7.347805023E0,4.939238071E0
1.797986390E-1,3.502717018E0,-7.362170219E0,4.967968464E0
1.818081820E-1,3.450044632E0,-7.369352818E0,4.989516258E0
1.837964170E-1,3.433285236E0,-7.376535416E0,4.994304657E0
1.858106530E-1,3.409343243E0,-7.376535416E0,4.994304657E0
1.877949650E-1,3.354276657E0,-7.369352818E0,5.008669853E0
1.898093540E-1,3.325546265E0,-7.374141216E0,5.008669853E0
1.917924360E-1,3.268085241E0,-7.371747017E0,5.013458252E0
1.938065940E-1,3.184288263E0,-7.354987621E0,5.051765442E0
1.957919060E-1,3.138798475E0,-7.350199223E0,5.063736439E0
1.978045270E-1,3.052607059E0,-7.357381821E0,5.085284233E0
1.997878380E-1,2.961627483E0,-7.376535416E0,5.097255230E0
2.018023820E-1,2.916137695E0,-7.383718014E0,5.097255230E0
2.038159250E-1,2.810792685E0,-7.376535416E0,5.097255230E0
2.057996220E-1,2.710236311E0,-7.374141216E0,5.140350819E0
2.078140110E-1,2.664746523E0,-7.383718014E0,5.207388878E0
2.097980920E-1,2.583343744E0,-7.405265808E0,5.281609058E0
2.118116360E-1,2.540247917E0,-7.410054207E0,5.298368454E0
2.137952560E-1,2.475604534E0,-7.445967197E0,5.341464043E0
2.158103370E-1,2.422932148E0,-7.453149796E0,5.370194435E0
2.177940340E-1,2.401384354E0,-7.465120792E0,5.377377033E0
2.198075780E-1,2.391807556E0,-7.491456985E0,5.386953831E0
2.217901200E-1,2.387019157E0,-7.513004780E0,5.403713226E0
2.238057410E-1,2.413355350E0,-7.527369976E0,5.413290024E0
2.257894370E-1,2.468421936E0,-7.560888767E0,5.398924828E0
2.278032880E-1,2.501940727E0,-7.603984833E0,5.358223438E0
2.298174470E-1,2.533065319E0,-7.630321026E0,5.353435040E0
2.318009130E-1,2.588132143E0,-7.699752808E0,5.341464043E0
2.338153020E-1,2.633621931E0,-7.747636795E0,5.341464043E0
2.357996140E-1,2.652775526E0,-7.785943985E0,5.348646641E0
2.378128500E-1,2.719813108E0,-7.833827972E0,5.384559631E0
2.397960080E-1,2.748543501E0,-7.905653954E0,5.437232018E0
2.418107820E-1,2.837129116E0,-7.939172745E0,5.451597214E0
2.437940940E-1,2.940079689E0,-7.958326340E0,5.434837818E0
2.458085610E-1,2.990357876E0,-7.970297337E0,5.396530628E0
2.477919500E-1,3.107673883E0,-7.979874134E0,5.329493046E0
2.498064160E-1,3.184288263E0,-7.987056732E0,5.274426460E0
2.517898820E-1,3.215412855E0,-7.999027729E0,5.264849663E0
2.538042710E-1,3.270479441E0,-8.018181801E0,5.231330872E0
2.558187380E-1,3.313575268E0,-8.058882713E0,5.169081688E0
2.578018960E-1,3.335123062E0,-8.073247910E0,5.145139217E0
2.598163620E-1,3.385401249E0,-8.085219383E0,5.102043629E0
2.617991360E-1,3.423708439E0,-8.130708694E0,5.082890034E0
2.638135250E-1,3.435679436E0,-8.133103371E0,5.092466831E0
2.657978380E-1,3.473986626E0,-8.173804283E0,5.087678432E0
2.678113800E-1,3.490746021E0,-8.180987358E0,5.114014626E0
2.697954620E-1,3.481169224E0,-8.173804283E0,5.116408825E0
2.718098520E-1,3.454833031E0,-8.171410561E0,5.123591423E0
2.737930100E-1,3.428496838E0,-8.161833763E0,5.130774021E0
2.758080920E-1,3.383007050E0,-8.152256966E0,5.118803024E0
2.777910970E-1,3.320757866E0,-8.145073891E0,5.118803024E0
2.798052540E-1,3.287238836E0,-8.135497093E0,5.125985622E0
2.817893360E-1,3.220201254E0,-8.121131897E0,5.133168221E0
2.838034940E-1,3.138798475E0,-8.113949776E0,5.157110691E0
2.858164220E-1,3.098097086E0,-8.111555099E0,5.169081688E0
2.878009660E-1,3.007117271E0,-8.123526573E0,5.176264286E0
2.898148160E-1,2.913743496E0,-8.118738174E0,5.207388878E0
2.917982050E-1,2.873042107E0,-8.113949776E0,5.221754074E0
2.938127490E-1,2.801215887E0,-8.125920296E0,5.219359875E0
2.957975990E-1,2.719813108E0,-8.123526573E0,5.243301868E0
2.978105270E-1,2.674323320E0,-8.118738174E0,5.255272865E0
2.997943000E-1,2.588132143E0,-8.125920296E0,5.272032261E0
3.018080750E-1,2.501940727E0,-8.101978302E0,5.291185856E0
3.037930800E-1,2.470816135E0,-8.097189903E0,5.300762653E0
3.058071610E-1,2.391807556E0,-8.085219383E0,5.310339451E0
3.077887810E-1,2.358288765E0,-8.078036308E0,5.319916248E0
3.098037850E-1,2.317587137E0,-8.082824707E0,5.336675644E0
3.118182520E-1,2.279279947E0,-8.082824707E0,5.394136429E0
3.138020260E-1,2.257732153E0,-8.094796181E0,5.430049419E0
3.158164140E-1,2.255337954E0,-8.118738174E0,5.473145008E0
3.177991890E-1,2.281674147E0,-8.118738174E0,5.437232018E0
3.198137320E-1,2.305616140E0,-8.142680168E0,5.420472622E0
3.217986590E-1,2.365471363E0,-8.202534676E0,5.386953831E0
3.238122030E-1,2.451662540E0,-8.233659744E0,5.367800236E0
3.257955140E-1,2.497152328E0,-8.248024940E0,5.358223438E0
3.278093660E-1,2.600103140E0,-8.279149055E0,5.303156853E0
3.297930630E-1,2.686294317E0,-8.324639320E0,5.238513470E0
3.318072210E-1,2.731784105E0,-8.331821442E0,5.209783077E0
3.337913030E-1,2.817975283E0,-8.346187592E0,5.157110691E0
3.358060000E-1,2.887407303E0,-8.350975990E0,5.123591423E0
3.377891580E-1,2.918531895E0,-8.365341187E0,5.109226227E0
3.398032400E-1,2.971204281E0,-8.394071579E0,5.111620426E0
3.418125510E-1,3.007117271E0,-8.389283180E0,5.128379822E0
3.437999410E-1,3.088520288E0,-8.389283180E0,5.128379822E0
3.458149460E-1,3.160346270E0,-8.420407295E0,5.106832027E0
3.477984120E-1,3.193865061E0,-8.422801971E0,5.092466831E0
3.498118780E-1,3.258508444E0,-8.406042099E0,5.066130638E0
3.517961910E-1,3.315969467E0,-8.413225174E0,5.056553841E0
3.538103490E-1,3.342305660E0,-8.420407295E0,5.051765442E0
3.557943540E-1,3.375824451E0,-8.422801971E0,5.056553841E0
3.578079730E-1,3.383007050E0,-8.446743965E0,5.044582844E0
3.597919780E-1,3.375824451E0,-8.453926086E0,5.046977043E0
3.618072910E-1,3.351882458E0,-8.456320763E0,5.039794445E0
3.637892180E-1,3.330334663E0,-8.458714485E0,5.054159641E0
3.658039920E-1,3.306392431E0,-8.458714485E0,5.061342239E0
3.678175360E-1,3.258508444E0,-8.444349289E0,5.049371243E0
3.698020780E-1,3.234566450E0,-8.441955566E0,5.049371243E0
3.718160060E-1,3.193865061E0,-8.434772491E0,5.051765442E0
3.737993180E-1,3.131615877E0,-8.446743965E0,5.070919037E0
3.758141690E-1,3.100491285E0,-8.453926086E0,5.085284233E0
3.777974820E-1,3.040636063E0,-8.451532364E0,5.104437828E0
3.798116390E-1,2.964021683E0,-8.451532364E0,5.118803024E0
3.817944140E-1,2.932897091E0,-8.449137688E0,5.118803024E0
3.838101100E-1,2.873042107E0,-8.434772491E0,5.121197224E0
3.857932690E-1,2.786850691E0,-8.425195694E0,5.159504890E0
3.878068120E-1,2.741360903E0,-8.422801971E0,5.173870087E0
3.897911240E-1,2.655169725E0,-8.425195694E0,5.185841084E0
3.918052060E-1,2.576161146E0,-8.406042099E0,5.221754074E0
3.937892110E-1,2.525882721E0,-8.398859978E0,5.221754074E0
3.958028300E-1,2.466027737E0,-8.410830498E0,5.231330872E0
3.978176050E-1,2.408566952E0,-8.410830498E0,5.224148273E0
3.998012240E-1,2.375048161E0,-8.396465302E0,5.224148273E0
4.018154600E-1,2.336740971E0,-8.391676903E0,5.228936672E0
4.037987720E-1,2.327163935E0,-8.386888504E0,5.195417881E0
4.058130070E-1,2.298433542E0,-8.384494781E0,5.178658485E0
4.077960120E-1,2.279279947E0,-8.367734909E0,5.188235283E0
4.098102480E-1,2.272097349E0,-8.367734909E0,5.200206280E0
4.117941750E-1,2.274491549E0,-8.362946510E0,5.188235283E0
4.138077950E-1,2.308010340E0,-8.362946510E0,5.111620426E0
4.157926460E-1,2.324769735E0,-8.367734909E0,5.061342239E0
4.178058810E-1,2.343923569E0,-8.362946510E0,5.008669853E0
4.197895790E-1,2.384624958E0,-8.358158112E0,4.967968464E0
4.218037370E-1,2.398990154E0,-8.358158112E0,4.958391666E0
4.238176650E-1,2.458845139E0,-8.365341187E0,4.927267075E0
4.258016700E-1,2.523488522E0,-8.372523308E0,4.910507679E0
4.278155200E-1,2.557007313E0,-8.384494781E0,4.900930882E0
4.297991400E-1,2.640804529E0,-8.413225174E0,4.874594688E0
4.318145290E-1,2.729389906E0,-8.420407295E0,4.843470097E0
4.337976110E-1,2.784456491E0,-8.427590370E0,4.814739704E0
4.358130000E-1,2.877830505E0,-8.429984093E0,4.766855717E0
4.377949270E-1,2.925714493E0,-8.427590370E0,4.735731125E0
4.398084710E-1,3.021482468E0,-8.425195694E0,4.714183331E0
4.417942440E-1,3.090914488E0,-8.434772491E0,4.666299343E0
4.438072490E-1,3.114856482E0,-8.432378769E0,4.654327869E0
4.457908700E-1,3.136404276E0,-8.427590370E0,4.659116745E0
4.478051040E-1,3.150769472E0,-8.420407295E0,4.668693542E0
4.497890320E-1,3.165134668E0,-8.418013573E0,4.663905144E0
4.518023450E-1,3.177105665E0,-8.413225174E0,4.666299343E0
4.538167340E-1,3.157952070E0,-8.410830498E0,4.668693542E0
4.558010460E-1,3.141192675E0,-8.413225174E0,4.668693542E0
4.578152820E-1,3.107673883E0,-8.408436775E0,4.675876141E0
4.597983630E-1,3.081337690E0,-8.418013573E0,4.695029736E0
4.618127530E-1,3.055001259E0,-8.418013573E0,4.704606533E0
4.637968340E-1,2.987963676E0,-8.413225174E0,4.721365929E0
4.658112230E-1,2.944868088E0,-8.418013573E0,4.742913723E0
4.677934590E-1,2.920926094E0,-8.415618896E0,4.757278919E0
4.698082320E-1,2.856282711E0,-8.396465302E0,4.783615112E0
4.717916220E-1,2.827552319E0,-8.403648376E0,4.788403511E0
4.738054720E-1,2.765302896E0,-8.418013573E0,4.807557106E0
4.757904000E-1,2.686294317E0,-8.422801971E0,4.836287498E0
4.778039440E-1,2.657563925E0,-8.427590370E0,4.845864296E0
4.798181010E-1,2.602497339E0,-8.415618896E0,4.865017891E0
4.818023370E-1,2.511517525E0,-8.396465302E0,4.900930882E0
4.838156500E-1,2.470816135E0,-8.391676903E0,4.924872875E0
4.857984230E-1,2.413355350E0,-8.382100105E0,4.936843872E0
4.878134280E-1,2.365471363E0,-8.372523308E0,4.951209068E0
4.897972010E-1,2.331952572E0,-8.372523308E0,4.963180065E0
4.918110530E-1,2.269703150E0,-8.372523308E0,4.996698856E0
4.937953650E-1,2.207453966E0,-8.372523308E0,5.030217648E0
4.958100620E-1,2.200271368E0,-8.374917984E0,5.035006046E0
4.977931440E-1,2.190694571E0,-8.370129585E0,5.054159641E0
4.998073790E-1,2.164358377E0,-8.370129585E0,5.066130638E0
5.017897680E-1,2.161964178E0,-8.372523308E0,5.068524837E0
5.038046190E-1,2.152387381E0,-8.360552788E0,5.039794445E0
5.058187000E-1,2.138022184E0,-8.346187592E0,5.013458252E0
5.078027050E-1,2.097320795E0,-8.353369713E0,4.958391666E0
5.098165560E-1,2.063801765E0,-8.353369713E0,4.908113480E0
5.118002520E-1,2.037465572E0,-8.370129585E0,4.896142483E0
5.138135650E-1,2.020706177E0,-8.386888504E0,4.869806290E0
5.157990310E-1,2.013523579E0,-8.391676903E0,4.853046894E0
5.178123430E-1,2.013523579E0,-8.396465302E0,4.824316502E0
5.197962710E-1,2.037465572E0,-8.406042099E0,4.762067318E0
5.218114290E-1,2.106897593E0,-8.425195694E0,4.738125324E0
5.237944340E-1,2.138022184E0,-8.434772491E0,4.718971729E0
5.258079780E-1,2.214636564E0,-8.439560890E0,4.718971729E0
5.277923660E-1,2.288856745E0,-8.468291283E0,4.697423935E0
5.298052950E-1,2.317587137E0,-8.463502884E0,4.692635536E0
5.317902220E-1,2.370259762E0,-8.451532364E0,4.666299343E0
5.338036880E-1,2.389413357E0,-8.439560890E0,4.647145271E0
5.358181550E-1,2.420537949E0,-8.434772491E0,4.649539471E0
5.378013130E-1,2.446874142E0,-8.434772491E0,4.644751072E0
5.398157790E-1,2.461239338E0,-8.439560890E0,4.630385876E0
5.417990920E-1,2.466027737E0,-8.420407295E0,4.613626480E0
5.438142500E-1,2.456450939E0,-8.429984093E0,4.616020679E0
5.457976390E-1,2.458845139E0,-8.437167168E0,4.623203278E0
5.478108740E-1,2.480392933E0,-8.415618896E0,4.625597477E0
5.497948020E-1,2.473210335E0,-8.413225174E0,4.635174274E0
5.518089610E-1,2.482787132E0,-8.415618896E0,4.632780075E0
5.537926570E-1,2.494758129E0,-8.413225174E0,4.639962673E0
5.558072010E-1,2.489969730E0,-8.413225174E0,4.656722069E0
5.577902830E-1,2.480392933E0,-8.408436775E0,4.663905144E0
5.598040560E-1,2.463633537E0,-8.408436775E0,4.675876141E0
5.618192150E-1,2.444479942E0,-8.398859978E0,4.690241337E0
5.638022960E-1,2.434903145E0,-8.410830498E0,4.695029736E0
5.658166850E-1,2.413355350E0,-8.391676903E0,4.702212334E0
5.678001520E-1,2.389413357E0,-8.386888504E0,4.702212334E0
5.698139250E-1,2.360682964E0,-8.386888504E0,4.709394932E0
5.717976990E-1,2.324769735E0,-8.367734909E0,4.699818134E0
5.738118580E-1,2.310404539E0,-8.355764389E0,4.702212334E0
5.757964010E-1,2.274491549E0,-8.348581314E0,4.723760128E0
5.778100210E-1,2.224213362E0,-8.334216118E0,4.718971729E0
5.797936400E-1,2.202665567E0,-8.322244644E0,4.721365929E0
5.818038760E-1,2.159569979E0,-8.331821442E0,4.721365929E0
5.838211120E-1,2.102109194E0,-8.317456245E0,4.711789131E0
5.858056540E-1,2.082955360E0,-8.312667847E0,4.692635536E0
5.877890440E-1,2.039859772E0,-8.298302650E0,4.685452938E0
5.898035110E-1,2.011129379E0,-8.295908928E0,4.695029736E0
5.918173610E-1,1.994369984E0,-8.291120529E0,4.711789131E0
5.938011350E-1,1.970427990E0,-8.293514252E0,4.735731125E0
5.958165240E-1,1.951274395E0,-8.288725853E0,4.716577530E0
5.977996060E-1,1.951274395E0,-8.283937454E0,4.695029736E0
5.998130720E-1,1.934514999E0,-8.279149055E0,4.649539471E0
6.017974610E-1,1.929726601E0,-8.274360657E0,4.625597477E0
6.038106200E-1,1.922544003E0,-8.271966934E0,4.560954094E0
6.057943930E-1,1.886630893E0,-8.267178535E0,4.522646904E0
6.078087820E-1,1.874659896E0,-8.279149055E0,4.496310711E0
6.097922490E-1,1.845929503E0,-8.271966934E0,4.441244125E0
6.118070220E-1,1.812410712E0,-8.281543732E0,4.400542736E0
6.137900270E-1,1.795651317E0,-8.271966934E0,4.381389141E0
6.158051860E-1,1.762132406E0,-8.245630264E0,4.335899353E0
6.177881900E-1,1.745373011E0,-8.231265068E0,4.304774761E0
6.198021180E-1,1.745373011E0,-8.224082947E0,4.290409565E0
6.218159680E-1,1.733402014E0,-8.204929352E0,4.261679173E0
6.238005890E-1,1.702277422E0,-8.185775757E0,4.249708176E0
6.258149780E-1,1.697489023E0,-8.164227486E0,4.240131378E0
6.277969050E-1,1.675941229E0,-8.149862289E0,4.218583584E0
6.298119870E-1,1.649604917E0,-8.130708694E0,4.201824188E0
6.317959150E-1,1.635239720E0,-8.123526573E0,4.201824188E0
6.338101500E-1,1.604115129E0,-8.094796181E0,4.189853191E0
6.357943860E-1,1.582567334E0,-8.090007782E0,4.173093796E0
6.378080050E-1,1.539471745E0,-8.073247910E0,4.158728123E0
6.397913180E-1,1.486799240E0,-8.066065788E0,4.153939724E0
6.418058610E-1,1.460463047E0,-8.061277390E0,4.151545525E0
6.437892500E-1,1.386242747E0,-8.075642586E0,4.146757126E0
6.458033320E-1,1.333570361E0,-8.068459511E0,4.118026733E0
6.478178750E-1,1.309628367E0,-8.075642586E0,4.101267338E0
6.498012640E-1,1.252167463E0,-8.082824707E0,4.070142746E0
6.518151150E-1,1.187524080E0,-8.075642586E0,4.046200752E0
6.537987350E-1,1.154005170E0,-8.073247910E0,4.039018154E0
6.558129700E-1,1.118092179E0,-8.080430984E0,4.019864559E0
6.577972060E-1,1.077390790E0,-8.097189903E0,4.000710964E0
6.598111330E-1,1.058237195E0,-8.097189903E0,4.003105164E0
6.617939080E-1,1.046266198E0,-8.116343498E0,4.089296341E0
6.638082970E-1,1.046266198E0,-8.147468567E0,4.249708176E0
6.657920700E-1,1.094150186E0,-8.173804283E0,4.304774761E0
6.678064600E-1,1.151610970E0,-8.192957878E0,4.323928356E0
6.697902330E-1,1.187524080E0,-8.216899872E0,4.273650169E0
6.718043150E-1,1.244984865E0,-8.252813339E0,4.144362926E0
6.738182430E-1,1.314416766E0,-8.303091049E0,4.043806553E0
6.758040160E-1,1.350329757E0,-8.305485725E0,4.007893562E0
6.778164060E-1,1.426944256E0,-8.355764389E0,3.916913986E0
6.798001020E-1,1.501164436E0,-8.384494781E0,3.857059002E0
6.818144920E-1,1.534683347E0,-8.394071579E0,3.835511208E0
6.837973430E-1,1.606509328E0,-8.444349289E0,3.794809580E0
6.858121160E-1,1.702277422E0,-8.504204750E0,3.737348795E0
6.877955060E-1,1.745373011E0,-8.530540466E0,3.711012602E0
6.898096650E-1,1.812410712E0,-8.554482460E0,3.648763418E0
6.917935920E-1,1.922544003E0,-8.576030731E0,3.581725836E0
6.938078280E-1,1.965639591E0,-8.588001251E0,3.560178041E0
6.957915240E-1,2.056619167E0,-8.599972725E0,3.495534420E0
6.978059910E-1,2.106897593E0,-8.609549522E0,3.452438831E0
6.997893800E-1,2.205059767E0,-8.609549522E0,3.428496838E0
7.018023070E-1,2.315192938E0,-8.597578049E0,3.383007050E0
7.038183120E-1,2.370259762E0,-8.590395927E0,3.363853455E0
7.058019330E-1,2.480392933E0,-8.595184326E0,3.325546265E0
7.078148600E-1,2.578555346E0,-8.595184326E0,3.287238836E0
7.097995570E-1,2.624045134E0,-8.597578049E0,3.265691042E0
7.118131000E-1,2.686294317E0,-8.597578049E0,3.239354849E0
7.137964890E-1,2.743755102E0,-8.585607529E0,3.229778051E0
7.158118790E-1,2.782062292E0,-8.583212852E0,3.227383852E0
7.177946520E-1,2.839523315E0,-8.583212852E0,3.220201254E0
7.198081190E-1,2.849100113E0,-8.568847656E0,3.220201254E0
7.217928160E-1,2.851494312E0,-8.573636055E0,3.224989653E0
7.238059740E-1,2.844311714E0,-8.602366447E0,3.251325846E0
7.257900560E-1,2.846705914E0,-8.623914719E0,3.299209833E0
7.278045210E-1,2.841917515E0,-8.645462036E0,3.332728863E0
7.298182950E-1,2.858676910E0,-8.671798706E0,3.371036053E0
7.318017620E-1,2.858676910E0,-8.693346024E0,3.373430252E0
7.338164580E-1,2.851494312E0,-8.707711220E0,3.351882458E0
7.358008480E-1,2.832340717E0,-8.729259491E0,3.325546265E0
7.378134680E-1,2.827552319E0,-8.736441612E0,3.311181068E0
7.397977030E-1,2.777273893E0,-8.753201485E0,3.292027235E0
7.418082470E-1,2.722207308E0,-8.779537201E0,3.280056238E0
7.437946350E-1,2.688688517E0,-8.791508675E0,3.275267839E0
7.458097940E-1,2.628833532E0,-8.841787338E0,3.284844637E0
7.477931070E-1,2.583343744E0,-8.882488251E0,3.296815634E0
7.498072650E-1,2.557007313E0,-8.906430244E0,3.301604033E0
7.517910390E-1,2.518700123E0,-8.956708908E0,3.349488258E0
7.538058120E-1,2.477998734E0,-8.995016098E0,3.383007050E0
7.557900480E-1,2.456450939E0,-9.014169693E0,3.387795448E0
7.578033610E-1,2.434903145E0,-9.040505409E0,3.383007050E0
7.598171340E-1,2.437297344E0,-9.078812599E0,3.361459255E0
7.618023700E-1,2.425326347E0,-9.078812599E0,3.347094059E0
7.638150670E-1,2.427720547E0,-9.100360870E0,3.347094059E0
7.657987630E-1,2.439691544E0,-9.119514465E0,3.363853455E0
7.678135370E-1,2.437297344E0,-9.129091263E0,3.385401249E0
7.697966180E-1,2.413355350E0,-9.188945770E0,3.438073635E0
7.718098540E-1,2.391807556E0,-9.220070839E0,3.462015629E0
7.737940900E-1,2.355894566E0,-9.234436035E0,3.466804028E0
7.758092480E-1,2.334346771E0,-9.253589630E0,3.428496838E0
7.777929450E-1,2.324769735E0,-9.253589630E0,3.418920040E0
7.798064120E-1,2.339135170E0,-9.260771751E0,3.392583847E0
7.817891850E-1,2.341529369E0,-9.263166428E0,3.371036053E0
7.838048820E-1,2.341529369E0,-9.265560150E0,3.351882458E0
7.858191170E-1,2.351106167E0,-9.258378029E0,3.349488258E0
7.878012760E-1,2.363077164E0,-9.246406555E0,3.330334663E0
7.898162810E-1,2.358288765E0,-9.232041359E0,3.332728863E0
7.918000540E-1,2.351106167E0,-9.212887764E0,3.349488258E0
7.938139050E-1,2.355894566E0,-9.181763649E0,3.344699860E0
7.957985260E-1,2.355894566E0,-9.155426979E0,3.335123062E0
7.978117600E-1,2.370259762E0,-9.129091263E0,3.330334663E0
7.997953810E-1,2.353500366E0,-9.119514465E0,3.330334663E0
8.018101540E-1,2.317587137E0,-9.095572472E0,3.342305660E0
8.037933130E-1,2.291250944E0,-9.062053680E0,3.356670856E0
8.058070870E-1,2.276885748E0,-9.052476883E0,3.349488258E0
8.077904760E-1,2.243366957E0,-9.040505409E0,3.323152065E0
8.098049420E-1,2.221819162E0,-9.014169693E0,3.311181068E0
8.118191780E-1,2.195482969E0,-9.002198219E0,3.299209833E0
8.138028740E-1,2.154781580E0,-8.987833023E0,3.282450438E0
8.158175720E-1,2.118868589E0,-8.995016098E0,3.253720045E0
8.178006530E-1,2.106897593E0,-8.995016098E0,3.241749048E0
8.198148110E-1,2.068590164E0,-8.968679428E0,3.203441858E0
8.217975860E-1,2.023100376E0,-8.949525833E0,3.177105665E0
8.238120510E-1,1.996764183E0,-8.944737434E0,3.155557871E0
8.257967480E-1,1.970427990E0,-8.932766914E0,3.100491285E0
8.278102920E-1,1.948880196E0,-8.930372238E0,3.076549292E0
8.297939880E-1,1.912967205E0,-8.930372238E0,3.071760893E0
8.318078390E-1,1.881842494E0,-8.927978516E0,3.050212860E0
8.337920740E-1,1.850717902E0,-8.913613319E0,3.043030262E0
8.358080790E-1,1.812410712E0,-8.906430244E0,3.059789658E0
8.377906230E-1,1.814804912E0,-8.892065048E0,3.105279684E0
8.398043960E-1,1.807622313E0,-8.911218643E0,3.114856482E0
8.418186320E-1,1.819593310E0,-8.913613319E0,3.114856482E0
8.438017130E-1,1.817199111E0,-8.899248123E0,3.076549292E0
8.458167180E-1,1.833958507E0,-8.906430244E0,3.045424461E0
8.477998760E-1,1.841141105E0,-8.925583839E0,3.021482468E0
8.498137270E-1,1.865083098E0,-8.951920509E0,2.992752075E0
8.517968090E-1,1.877054095E0,-8.963891029E0,2.964021683E0
8.538115060E-1,1.922544003E0,-9.006986618E0,2.906560898E0
8.557958180E-1,1.972822189E0,-9.038111687E0,2.894589901E0
8.578093610E-1,2.008735180E0,-9.062053680E0,2.901772499E0
8.597936730E-1,2.070984364E0,-9.119514465E0,2.925714493E0
8.618069080E-1,2.111685991E0,-9.176975250E0,2.949656487E0
8.637912980E-1,2.212242365E0,-9.210494041E0,2.973598480E0
8.658053790E-1,2.324769735E0,-9.287108421E0,2.937685490E0
8.678189990E-1,2.375048161E0,-9.318233490E0,2.877830505E0
8.698036200E-1,2.470816135E0,-9.358934402E0,2.753331900E0
8.718171620E-1,2.571372509E0,-9.380482674E0,2.640804529E0
8.738014750E-1,2.607285738E0,-9.385271072E0,2.580949545E0
8.758161710E-1,2.681505919E0,-9.430760384E0,2.494758129E0
8.777989460E-1,2.748543501E0,-9.447520256E0,2.437297344E0
8.798128740E-1,2.782062292E0,-9.464279175E0,2.410961151E0
8.817959550E-1,2.837129116E0,-9.490615845E0,2.420537949E0
8.838109600E-1,2.944868088E0,-9.504981041E0,2.444479942E0
8.857940400E-1,2.990357876E0,-9.514557838E0,2.439691544E0
8.878082760E-1,3.047818661E0,-9.543288231E0,2.418143749E0
8.897916660E-1,3.122039080E0,-9.545681953E0,2.370259762E0
8.918066700E-1,3.153163671E0,-9.543288231E0,2.355894566E0
8.937892130E-1,3.224989653E0,-9.550470352E0,2.341529369E0
8.958048340E-1,3.270479441E0,-9.560047150E0,2.346317768E0
8.978178380E-1,3.330334663E0,-9.569623947E0,2.353500366E0
8.998015350E-1,3.397372246E0,-9.564835548E0,2.358288765E0
9.018150020E-1,3.423708439E0,-9.560047150E0,2.367865562E0
9.037993900E-1,3.473986626E0,-9.555258751E0,2.384624958E0
9.058140870E-1,3.507505417E0,-9.555258751E0,2.408566952E0
9.077975530E-1,3.529053211E0,-9.540893555E0,2.432508945E0
9.098117120E-1,3.521870613E0,-9.548076630E0,2.454056740E0
9.117954090E-1,3.478775024E0,-9.536105156E0,2.468421936E0
9.138091820E-1,3.464409828E0,-9.528923035E0,2.466027737E0
9.157941110E-1,3.428496838E0,-9.516951561E0,2.468421936E0
9.178080380E-1,3.378218651E0,-9.490615845E0,2.475604534E0
9.197907350E-1,3.363853455E0,-9.478644371E0,2.473210335E0
9.218062010E-1,3.299209833E0,-9.464279175E0,2.492363930E0
9.237879750E-1,3.268085241E0,-9.447520256E0,2.511517525E0
9.258031340E-1,3.162740469E0,-9.435548782E0,2.516305923E0
9.278175230E-1,3.055001259E0,-9.409213066E0,2.509123325E0
9.298006810E-1,3.004723072E0,-9.392453194E0,2.497152328E0
9.318145320E-1,2.901772499E0,-9.370905876E0,2.466027737E0
9.337979210E-1,2.786850691E0,-9.351752281E0,2.444479942E0
9.358130030E-1,2.715024710E0,-9.339780807E0,2.434903145E0
9.377963920E-1,2.583343744E0,-9.318233490E0,2.413355350E0
9.398104730E-1,2.485181332E0,-9.299078941E0,2.415749550E0
9.417935550E-1,2.427720547E0,-9.287108421E0,2.410961151E0
9.438084060E-1,2.319981337E0,-9.248801231E0,2.396595955E0
9.457926410E-1,2.219424963E0,-9.246406555E0,2.418143749E0
9.478053380E-1,2.176329374E0,-9.239224434E0,2.466027737E0
9.498197270E-1,2.102109194E0,-9.248801231E0,2.667140722E0
9.518034240E-1,2.075772762E0,-9.282320023E0,2.810792685E0
9.538179680E-1,2.068590164E0,-9.308655739E0,2.822763920E0
9.558025100E-1,2.078166962E0,-9.323021889E0,2.724601507E0
9.578157460E-1,2.080561161E0,-9.320627213E0,2.561795712E0
9.598001360E-1,2.102109194E0,-9.325415611E0,2.482787132E0
9.618142170E-1,2.135627985E0,-9.332598686E0,2.334346771E0
9.637972990E-1,2.159569979E0,-9.344569206E0,2.293645144E0
9.658111490E-1,2.200271368E0,-9.394847870E0,2.240972757E0
9.677954610E-1,2.274491549E0,-9.452308655E0,2.202665567E0
9.698096200E-1,2.324769735E0,-9.481039047E0,2.183511972E0
9.717933170E-1,2.444479942E0,-9.526528358E0,2.152387381E0
9.738068600E-1,2.547430515E0,-9.552865028E0,2.097320795E0
9.757918640E-1,2.604891539E0,-9.572018623E0,2.061407566E0
9.778044840E-1,2.734178305E0,-9.607931137E0,1.984793186E0
9.798183360E-1,2.846705914E0,-9.615114212E0,1.917755604E0
9.818019550E-1,2.920926094E0,-9.615114212E0,1.881842494E0
9.838171140E-1,3.047818661E0,-9.600749016E0,1.826775908E0
9.858005030E-1,3.138798475E0,-9.569623947E0,1.786074519E0
9.878146610E-1,3.186682463E0,-9.557653427E0,1.766920805E0
9.897982820E-1,3.294421434E0,-9.531316757E0,1.735796213E0
9.918122090E-1,3.344699860E0,-9.502586365E0,1.668758631E0
9.937952910E-1,3.426102638E0,-9.500192642E0,1.640028119E0
9.958112190E-1,3.507505417E0,-9.478644371E0,1.594538331E0
9.977943000E-1,3.548206806E0,-9.471462250E0,1.565807939E0
9.998073050E-1,3.632004023E0,-9.466673851E0,1.525106430E0
1.001792464E0,3.722983599E0,-9.449913979E0,1.496376038E0
1.003805391E0,3.761290789E0,-9.447520256E0,1.484405041E0
1.005820242E0,3.828328609E0,-9.428366661E0,1.467645645E0
1.007803938E0,3.890577793E0,-9.414001465E0,1.474828243E0
1.009817789E0,3.921702385E0,-9.411606789E0,1.472434044E0
1.011802102E0,3.971980572E0,-9.418789864E0,1.467645645E0
1.013815875E0,3.993528366E0,-9.397241592E0,1.472434044E0
1.015800496E0,4.005499363E0,-9.390059471E0,1.486799240E0
1.017813116E0,4.017470360E0,-9.390059471E0,1.489193439E0
1.019797120E0,3.988739967E0,-9.358934402E0,1.484405041E0
1.021811279E0,3.957615376E0,-9.354146004E0,1.477222443E0
1.023795975E0,3.883395195E0,-9.344569206E0,1.465251446E0
1.025808826E0,3.840299606E0,-9.311050415E0,1.467645645E0
1.027792216E0,3.775655985E0,-9.277531624E0,1.474828243E0
1.029807912E0,3.684676409E0,-9.241618156E0,1.491587639E0
1.031790379E0,3.641580820E0,-9.232041359E0,1.510741234E0
1.033804615E0,3.545812607E0,-9.227252960E0,1.546654344E0
1.035820849E0,3.452438831E0,-9.210494041E0,1.587355733E0
1.037801777E0,3.414131641E0,-9.208099365E0,1.606509328E0
1.039816858E0,3.339911461E0,-9.174580574E0,1.656787634E0
1.041801171E0,3.272873640E0,-9.169792175E0,1.668758631E0
1.043814791E0,3.224989653E0,-9.181763649E0,1.685518026E0
1.045798488E0,3.145981073E0,-9.188945770E0,1.738190413E0
1.047812570E0,3.086126089E0,-9.198522568E0,1.800439715E0
1.049795728E0,3.074155092E0,-9.208099365E0,1.843535304E0
1.051809809E0,3.028665066E0,-9.260771751E0,1.946485996E0
1.053793584E0,2.999934673E0,-9.289502144E0,2.042253971E0
1.055808280E0,2.983175278E0,-9.303867340E0,2.092532396E0
1.057792593E0,2.978386879E0,-9.368511200E0,2.128445387E0
1.059805828E0,2.980781078E0,-9.387664795E0,2.123656988E0
1.061819063E0,2.980781078E0,-9.416395187E0,2.066195965E0
1.063804607E0,2.980781078E0,-9.447520256E0,1.991975784E0
1.065817611E0,2.997540474E0,-9.459490776E0,1.956062794E0
1.067801308E0,3.019088268E0,-9.483432770E0,1.877054095E0
1.069814852E0,3.023876667E0,-9.509769440E0,1.812410712E0
1.071799163E0,3.038241863E0,-9.516951561E0,1.786074519E0
1.073813937E0,3.069366693E0,-9.519346237E0,1.762132406E0
1.075797942E0,3.114856482E0,-9.552865028E0,1.771709204E0
1.077811716E0,3.141192675E0,-9.560047150E0,1.771709204E0
1.079794567E0,3.174711466E0,-9.567230225E0,1.769315004E0
1.081810571E0,3.236960649E0,-9.583989143E0,1.754949808E0
1.083792422E0,3.263296843E0,-9.591172218E0,1.733402014E0
1.085805889E0,3.327940464E0,-9.588777542E0,1.678335428E0
1.087820739E0,3.380612850E0,-9.562441826E0,1.618480325E0
1.089804667E0,3.397372246E0,-9.550470352E0,1.575384736E0
1.091819210E0,3.430891037E0,-9.536105156E0,1.505952835E0
1.093802522E0,3.447650433E0,-9.536105156E0,1.489193439E0
1.095817065E0,3.507505417E0,-9.509769440E0,1.438915253E0
1.097800146E0,3.545812607E0,-9.481039047E0,1.407790542E0
1.099814228E0,3.560178041E0,-9.447520256E0,1.376665950E0
1.101797926E0,3.576937437E0,-9.399636269E0,1.343147159E0
1.103813007E0,3.608062029E0,-9.363722801E0,1.278503656E0
1.105796473E0,3.622427225E0,-9.337387085E0,1.264138460E0
1.107809324E0,3.636792421E0,-9.323021889E0,1.235408068E0
1.109793713E0,3.665522814E0,-9.282320023E0,1.204283476E0
1.111807872E0,3.689464808E0,-9.270348549E0,1.185129881E0
1.113792183E0,3.706224203E0,-9.241618156E0,1.165976286E0
1.115806573E0,3.703830004E0,-9.232041359E0,1.163581967E0
1.117789347E0,3.694253206E0,-9.224859238E0,1.151610970E0
1.119803582E0,3.682282209E0,-9.232041359E0,1.115697980E0
1.121817972E0,3.687070608E0,-9.239224434E0,1.120486379E0
1.123801745E0,3.689464808E0,-9.239224434E0,1.122880578E0
1.125815827E0,3.672705412E0,-9.253589630E0,1.098938584E0
1.127799293E0,3.670311213E0,-9.270348549E0,1.084573388E0
1.129813143E0,3.632004023E0,-9.303867340E0,1.053448796E0
1.131796456E0,3.610456228E0,-9.332598686E0,1.027112484E0
1.133811307E0,3.584120035E0,-9.339780807E0,1.019929886E0
1.135795927E0,3.519476414E0,-9.361329079E0,1.000776291E0
1.137808239E0,3.473986626E0,-9.411606789E0,1.003170490E0
1.139792782E0,3.445256233E0,-9.433155060E0,1.005564690E0
1.141806018E0,3.392583847E0,-9.459490776E0,9.911994934E-1
1.143820792E0,3.335123062E0,-9.497797966E0,9.911994934E-1
1.145804796E0,3.306392431E0,-9.504981041E0,9.816226959E-1
1.147818724E0,3.241749048E0,-9.526528358E0,9.720458984E-1
1.149802114E0,3.191470861E0,-9.545681953E0,1.005564690E0
1.151816502E0,3.165134668E0,-9.562441826E0,1.022324085E0
1.153799584E0,3.117250681E0,-9.567230225E0,1.058237195E0
1.155815588E0,3.088520288E0,-9.579200745E0,1.091755986E0
1.157798670E0,3.052607059E0,-9.593565941E0,1.106121182E0
1.159812290E0,3.031059265E0,-9.615114212E0,1.132457376E0
1.161795679E0,3.014299870E0,-9.619902611E0,1.144428372E0
1.163809838E0,2.990357876E0,-9.622296333E0,1.158793569E0
1.165794458E0,2.961627483E0,-9.624691010E0,1.194706678E0
1.167807693E0,2.942473888E0,-9.631873131E0,1.211466074E0
1.169791314E0,2.923320293E0,-9.605537415E0,1.230619669E0
1.171804625E0,2.916137695E0,-9.595960617E0,1.268926859E0
1.173819399E0,2.923320293E0,-9.591172218E0,1.278503656E0
1.175803635E0,2.913743496E0,-9.562441826E0,1.312022567E0
1.177817870E0,2.882618904E0,-9.557653427E0,1.340752959E0
1.179800875E0,2.875436306E0,-9.552865028E0,1.350329757E0
1.181814803E0,2.868253708E0,-9.528923035E0,1.352723956E0
1.183799653E0,2.861071110E0,-9.512163162E0,1.347935557E0
1.185813889E0,2.861071110E0,-9.497797966E0,1.355118155E0
1.187795739E0,2.841917515E0,-9.502586365E0,1.374271750E0
1.189810513E0,2.820369720E0,-9.488221169E0,1.374271750E0
1.191795134E0,2.765302896E0,-9.452308655E0,1.352723956E0
1.193808599E0,2.753331900E0,-9.454702377E0,1.393425345E0
1.195794143E0,2.760514498E0,-9.469067574E0,1.422155857E0
1.197806839E0,2.760514498E0,-9.464279175E0,1.450886250E0
1.199790536E0,2.746149302E0,-9.433155060E0,1.467645645E0
1.201804926E0,2.750937700E0,-9.416395187E0,1.474828243E0
1.203818545E0,2.746149302E0,-9.406818390E0,1.458068848E0
1.205802243E0,2.712630510E0,-9.390059471E0,1.438915253E0
1.207816709E0,2.698265314E0,-9.378087997E0,1.438915253E0
1.209800021E0,2.671929121E0,-9.370905876E0,1.422155857E0
1.211814488E0,2.643198729E0,-9.361329079E0,1.405396342E0
1.213797953E0,2.638410330E0,-9.344569206E0,1.398213744E0
1.215812650E0,2.616862535E0,-9.308655739E0,1.391031146E0
1.217795502E0,2.600103140E0,-9.277531624E0,1.381454349E0
1.219809967E0,2.585737944E0,-9.265560150E0,1.376665950E0
1.221792664E0,2.557007313E0,-9.248801231E0,1.371877551E0
1.223807439E0,2.547430515E0,-9.234436035E0,1.367089152E0
1.225791212E0,2.525882721E0,-9.203310966E0,1.345541358E0
1.227805371E0,2.477998734E0,-9.176975250E0,1.297657371E0
1.229819836E0,2.454056740E0,-9.169792175E0,1.266532660E0
1.231803226E0,2.475604534E0,-9.160215378E0,1.256955862E0
1.233817308E0,2.489969730E0,-9.172186852E0,1.273715258E0
1.235802543E0,2.504334927E0,-9.160215378E0,1.273715258E0
1.237815778E0,2.504334927E0,-9.167398453E0,1.247379065E0
1.239798322E0,2.521094322E0,-9.160215378E0,1.201889277E0
1.241813634E0,2.513911724E0,-9.160215378E0,1.189918280E0
1.243797408E0,2.533065319E0,-9.155426979E0,1.151610970E0
1.245810643E0,2.559401512E0,-9.148244858E0,1.103726983E0
1.247794032E0,2.580949545E0,-9.143456459E0,1.077390790E0
1.249808499E0,2.604891539E0,-9.141061783E0,1.024718285E0
1.251792503E0,2.624045134E0,-9.153033257E0,1.003170490E0
1.253806892E0,2.674323320E0,-9.160215378E0,9.672574997E-1
1.255789973E0,2.724601507E0,-9.157821655E0,9.481038451E-1
1.257804132E0,2.750937700E0,-9.155426979E0,9.289502501E-1
1.259818599E0,2.789244890E0,-9.162610054E0,8.930372596E-1
1.261801449E0,2.841917515E0,-9.155426979E0,8.571242094E-1
1.263816762E0,2.865859509E0,-9.148244858E0,8.403648138E-1
1.265800843E0,2.892195702E0,-9.148244858E0,8.020575643E-1
1.267813463E0,2.930502892E0,-9.145850182E0,7.805097699E-1
1.269797776E0,2.944868088E0,-9.145850182E0,7.709329724E-1
1.271812165E0,2.973598480E0,-9.153033257E0,7.302315235E-1
1.273796169E0,2.987963676E0,-9.153033257E0,7.158663273E-1
1.275811020E0,3.009511471E0,-9.160215378E0,6.919242740E-1
1.277792870E0,3.040636063E0,-9.165003777E0,6.560112834E-1
1.279807260E0,3.066972494E0,-9.153033257E0,6.464344859E-1
1.281791880E0,3.083731890E0,-9.141061783E0,6.416460276E-1
1.283805192E0,3.098097086E0,-9.148244858E0,6.416460276E-1
1.285819582E0,3.117250681E0,-9.157821655E0,6.512228847E-1
1.287803047E0,3.138798475E0,-9.167398453E0,6.512228847E-1
1.289817437E0,3.162740469E0,-9.172186852E0,6.607996821E-1
1.291800827E0,3.172317266E0,-9.155426979E0,6.607996821E-1
1.293815369E0,3.193865061E0,-9.165003777E0,6.775590777E-1
1.295798759E0,3.248931646E0,-9.174580574E0,6.919242740E-1
1.297813148E0,3.260902643E0,-9.162610054E0,6.943184733E-1
1.299796537E0,3.318363667E0,-9.141061783E0,6.967126727E-1
1.301807080E0,3.373430252E0,-9.145850182E0,6.967126727E-1
1.303794161E0,3.397372246E0,-9.143456459E0,6.991068721E-1
1.305808012E0,3.430891037E0,-9.138668060E0,7.110779285E-1
1.307792017E0,3.493140221E0,-9.167398453E0,7.134721279E-1
1.309806098E0,3.519476414E0,-9.184157372E0,7.158663273E-1
1.311820642E0,3.545812607E0,-9.217676163E0,7.326257229E-1
1.313803955E0,3.600879431E0,-9.217676163E0,7.374141216E-1
1.315820266E0,3.617638826E0,-9.234436035E0,7.398083210E-1
1.317801887E0,3.658340216E0,-9.255983353E0,7.589619160E-1
1.319816352E0,3.679888010E0,-9.277531624E0,7.805097699E-1
1.321800665E0,3.715801001E0,-9.287108421E0,8.092401624E-1
1.323813824E0,3.732560396E0,-9.291896820E0,8.379706144E-1
1.325797597E0,3.737348795E0,-9.306262016E0,8.403648138E-1
1.327812064E0,3.742137194E0,-9.320627213E0,8.379706144E-1
1.329795684E0,3.749319792E0,-9.320627213E0,8.427590132E-1
1.331809303E0,3.739742994E0,-9.323021889E0,8.547300100E-1
1.333793231E0,3.737348795E0,-9.327810287E0,8.690952063E-1
1.335808312E0,3.730166197E0,-9.323021889E0,8.714894056E-1
1.337791163E0,3.727771997E0,-9.315838814E0,8.762778044E-1
1.339804630E0,3.691859007E0,-9.294290543E0,8.906430602E-1
1.341818557E0,3.677493811E0,-9.291896820E0,9.145850539E-1
1.343804101E0,3.665522814E0,-9.289502144E0,9.169792533E-1
1.345817336E0,3.641580820E0,-9.289502144E0,9.361328483E-1
1.347800033E0,3.605667830E0,-9.294290543E0,9.696516991E-1
1.349814807E0,3.588908434E0,-9.303867340E0,9.768342972E-1
1.351798580E0,3.569754839E0,-9.296685219E0,9.744400978E-1
1.353813893E0,3.557783842E0,-9.287108421E0,9.816226959E-1
1.355797975E0,3.531447411E0,-9.291896820E0,9.935936928E-1
1.357810902E0,3.483563423E0,-9.289502144E0,1.007958889E0
1.359794830E0,3.452438831E0,-9.282320023E0,1.000776291E0
1.361809065E0,3.414131641E0,-9.289502144E0,1.000776291E0
1.363792685E0,3.390189648E0,-9.311050415E0,1.022324085E0
1.365805998E0,3.380612850E0,-9.308655739E0,1.034295082E0
1.367820771E0,3.373430252E0,-9.296685219E0,1.060631394E0
1.369804391E0,3.344699860E0,-9.267954826E0,1.072602391E0
1.371817704E0,3.323152065E0,-9.272743225E0,1.074996591E0
1.373802247E0,3.311181068E0,-9.275136948E0,1.074996591E0
1.375816790E0,3.282450438E0,-9.267954826E0,1.074996591E0
1.377799486E0,3.277662039E0,-9.282320023E0,1.065419793E0
1.379813414E0,3.236960649E0,-9.289502144E0,1.074996591E0
1.381796419E0,3.229778051E0,-9.270348549E0,1.067813993E0
1.383810885E0,3.208230257E0,-9.251194954E0,1.058237195E0
1.385796121E0,3.153163671E0,-9.229647636E0,1.067813993E0
1.387809356E0,3.131615877E0,-9.224859238E0,1.072602391E0
1.389793360E0,3.095702887E0,-9.217676163E0,1.067813993E0
1.391806904E0,3.078943491E0,-9.184157372E0,1.043871999E0
1.393791293E0,3.057395458E0,-9.169792175E0,1.041477680E0
1.395805759E0,3.028665066E0,-9.148244858E0,1.048660398E0
1.397819226E0,2.978386879E0,-9.100360870E0,1.048660398E0
1.399803230E0,2.952050686E0,-9.076418877E0,1.046266198E0
1.401818312E0,2.904166698E0,-9.066842079E0,1.058237195E0
1.403800547E0,2.858676910E0,-9.018958092E0,1.053448796E0
1.405814936E0,2.834734917E0,-9.018958092E0,1.053448796E0
1.407798326E0,2.794033289E0,-9.009381294E0,1.043871999E0
1.409812868E0,2.734178305E0,-8.997409821E0,1.051054597E0
1.411795642E0,2.715024710E0,-8.978256226E0,1.041477680E0
1.413810032E0,2.681505919E0,-8.956708908E0,1.029506683E0
1.415794959E0,2.659958124E0,-8.942343712E0,1.027112484E0
1.417808810E0,2.631227732E0,-8.935160637E0,1.010353088E0
1.419791276E0,2.595314741E0,-8.935160637E0,9.816226959E-1
1.421805204E0,2.583343744E0,-8.918401718E0,9.864110947E-1
1.423820824E0,2.561795712E0,-8.892065048E0,9.935936928E-1
1.425805136E0,2.535459518E0,-8.868123055E0,9.816226959E-1
1.427817526E0,2.521094322E0,-8.865729332E0,9.840168953E-1
1.429802146E0,2.506729126E0,-8.863334656E0,1.005564690E0
1.431815996E0,2.473210335E0,-8.868123055E0,1.022324085E0
1.433799309E0,2.463633537E0,-8.858546257E0,1.029506683E0
1.435814697E0,2.456450939E0,-8.844181061E0,1.012747288E0
1.437797472E0,2.466027737E0,-8.856152534E0,1.027112484E0
1.439812015E0,2.456450939E0,-8.856152534E0,1.036689281E0
1.441795096E0,2.451662540E0,-8.872911453E0,1.065419793E0
1.443809255E0,2.461239338E0,-8.882488251E0,1.063025594E0
1.445793183E0,2.473210335E0,-8.889671326E0,1.072602391E0
1.447806802E0,2.468421936E0,-8.899248123E0,1.101332784E0
1.449820884E0,2.473210335E0,-8.882488251E0,1.110909581E0
1.451804965E0,2.475604534E0,-8.896853447E0,1.115697980E0
1.453819432E0,2.506729126E0,-8.918401718E0,1.122880578E0
1.455803744E0,2.513911724E0,-8.935160637E0,1.118092179E0
1.457816595E0,2.528276920E0,-8.932766914E0,1.130063176E0
1.459799984E0,2.521094322E0,-8.942343712E0,1.158793569E0
1.461811143E0,2.528276920E0,-8.932766914E0,1.175553083E0
1.463798224E0,2.573766708E0,-8.935160637E0,1.180341482E0
1.465812998E0,2.609679937E0,-8.951920509E0,1.189918280E0
1.467796310E0,2.621650934E0,-8.966285706E0,1.189918280E0
1.469810238E0,2.662352324E0,-8.954314232E0,1.199495077E0
1.471793628E0,2.683900118E0,-8.963891029E0,1.194706678E0
1.473808016E0,2.681505919E0,-8.961497307E0,1.187524080E0
1.475792406E0,2.686294317E0,-8.963891029E0,1.194706678E0
1.477806257E0,2.698265314E0,-8.959102631E0,1.197100878E0
1.479820338E0,2.703053713E0,-8.966285706E0,1.192312479E0
1.481804343E0,2.700659513E0,-8.980650902E0,1.187524080E0
1.483817655E0,2.710236311E0,-8.980650902E0,1.185129881E0
1.485801583E0,2.710236311E0,-8.987833023E0,1.187524080E0
1.487815434E0,2.686294317E0,-8.992621422E0,1.177947283E0
1.489799438E0,2.674323320E0,-9.004592896E0,1.185129881E0
1.491813674E0,2.674323320E0,-9.033323288E0,1.187524080E0
1.493797678E0,2.667140722E0,-9.021351814E0,1.192312479E0
1.495812375E0,2.657563925E0,-9.033323288E0,1.182735682E0
1.497794534E0,2.628833532E0,-9.050082207E0,1.177947283E0
1.499808999E0,2.626439333E0,-9.045293808E0,1.151610970E0
1.501792466E0,2.624045134E0,-9.035717010E0,1.154005170E0
1.503808086E0,2.628833532E0,-9.057265282E0,1.161187768E0
1.505790936E0,2.633621931E0,-9.057265282E0,1.151610970E0
1.507804403E0,2.633621931E0,-9.064447403E0,1.151610970E0
1.509818946E0,2.638410330E0,-9.059659004E0,1.161187768E0
1.511802643E0,2.647987127E0,-9.076418877E0,1.154005170E0
1.513816725E0,2.633621931E0,-9.097966194E0,1.144428372E0
1.515801036E0,2.633621931E0,-9.097966194E0,1.137245774E0
1.517814349E0,2.640804529E0,-9.095572472E0,1.130063176E0
1.519798585E0,2.657563925E0,-9.121908188E0,1.118092179E0
1.521813127E0,2.650381327E0,-9.121908188E0,1.110909581E0
1.523796440E0,2.638410330E0,-9.112331390E0,1.122880578E0
1.525809752E0,2.604891539E0,-9.119514465E0,1.130063176E0
1.527793988E0,2.580949545E0,-9.138668060E0,1.125274777E0
1.529807608E0,2.580949545E0,-9.141061783E0,1.122880578E0
1.531791612E0,2.585737944E0,-9.160215378E0,1.110909581E0
1.533806617E0,2.588132143E0,-9.176975250E0,1.113303781E0
1.535821083E0,2.573766708E0,-9.181763649E0,1.120486379E0
1.537804241E0,2.571372509E0,-9.215282440E0,1.127668977E0
1.539817708E0,2.559401512E0,-9.246406555E0,1.142034173E0
1.541800558E0,2.552218914E0,-9.258378029E0,1.156399369E0
1.543814948E0,2.547430515E0,-9.277531624E0,1.165976286E0
1.545799876E0,2.537853718E0,-9.289502144E0,1.187524080E0
1.547813110E0,2.540247917E0,-9.303867340E0,1.197100878E0
1.549797115E0,2.501940727E0,-9.354146004E0,1.201889277E0
1.551811582E0,2.494758129E0,-9.358934402E0,1.206677675E0
1.553795278E0,2.504334927E0,-9.373299599E0,1.204283476E0
1.555809745E0,2.497152328E0,-9.402029991E0,1.189918280E0
1.557792595E0,2.492363930E0,-9.406818390E0,1.185129881E0
1.559807062E0,2.466027737E0,-9.440337181E0,1.189918280E0
1.561820605E0,2.461239338E0,-9.459490776E0,1.192312479E0
1.563805224E0,2.458845139E0,-9.471462250E0,1.189918280E0
1.565818999E0,2.446874142E0,-9.469067574E0,1.204283476E0
1.567801849E0,2.437297344E0,-9.483432770E0,1.223437071E0
1.569816931E0,2.420537949E0,-9.485827446E0,1.225831270E0
1.571800551E0,2.420537949E0,-9.488221169E0,1.211466074E0
1.573814401E0,2.410961151E0,-9.493009567E0,1.204283476E0
1.575799329E0,2.406172752E0,-9.497797966E0,1.194706678E0
1.577812027E0,2.394201756E0,-9.516951561E0,1.185129881E0
1.579795954E0,2.398990154E0,-9.497797966E0,1.189918280E0
1.581809805E0,2.391807556E0,-9.500192642E0,1.201889277E0
1.583794424E0,2.408566952E0,-9.514557838E0,1.194706678E0
1.585808891E0,2.406172752E0,-9.524134636E0,1.194706678E0
1.587791357E0,2.442085743E0,-9.521739960E0,1.201889277E0
1.589805823E0,2.434903145E0,-9.502586365E0,1.204283476E0
1.591819674E0,2.442085743E0,-9.512163162E0,1.197100878E0
1.593803679E0,2.444479942E0,-9.524134636E0,1.197100878E0
1.595818837E0,2.451662540E0,-9.516951561E0,1.177947283E0
1.597801919E0,2.456450939E0,-9.509769440E0,1.168370485E0
1.599815461E0,2.477998734E0,-9.516951561E0,1.158793569E0
1.601799159E0,2.485181332E0,-9.514557838E0,1.144428372E0
1.603813318E0,2.482787132E0,-9.512163162E0,1.144428372E0
1.605796937E0,2.473210335E0,-9.490615845E0,1.154005170E0
1.607811480E0,2.494758129E0,-9.457097054E0,1.158793569E0
1.609794793E0,2.497152328E0,-9.447520256E0,1.180341482E0
1.611808643E0,2.494758129E0,-9.459490776E0,1.216254473E0
1.613792725E0,2.494758129E0,-9.461885452E0,1.223437071E0
1.615807806E0,2.504334927E0,-9.457097054E0,1.230619669E0
1.617790196E0,2.499546528E0,-9.466673851E0,1.213860273E0
1.619804662E0,2.504334927E0,-9.471462250E0,1.211466074E0
1.621815820E0,2.501940727E0,-9.464279175E0,1.233013868E0
1.623802210E0,2.499546528E0,-9.469067574E0,1.221042871E0
1.625816984E0,2.499546528E0,-9.471462250E0,1.213860273E0
1.627800142E0,2.499546528E0,-9.476250648E0,1.201889277E0
1.629813993E0,2.506729126E0,-9.476250648E0,1.209071875E0
1.631798305E0,2.518700123E0,-9.473855972E0,1.201889277E0
1.633812387E0,2.535459518E0,-9.485827446E0,1.175553083E0
1.635796776E0,2.552218914E0,-9.493009567E0,1.154005170E0
1.637810242E0,2.557007313E0,-9.497797966E0,1.156399369E0
1.639793631E0,2.557007313E0,-9.485827446E0,1.154005170E0
1.641808098E0,2.566584110E0,-9.488221169E0,1.139639974E0
1.643791179E0,2.571372509E0,-9.488221169E0,1.125274777E0
1.645805953E0,2.590526342E0,-9.476250648E0,1.127668977E0
1.647819803E0,2.592920542E0,-9.483432770E0,1.134851575E0
1.649803193E0,2.583343744E0,-9.504981041E0,1.120486379E0
1.651817429E0,2.588132143E0,-9.519346237E0,1.108515382E0
1.653800817E0,2.585737944E0,-9.519346237E0,1.108515382E0
1.655816130E0,2.604891539E0,-9.533711433E0,1.098938584E0
1.657799519E0,2.604891539E0,-9.555258751E0,1.079784989E0
1.659813139E0,2.614468336E0,-9.555258751E0,1.070208192E0
1.661796144E0,2.619256735E0,-9.564835548E0,1.039083481E0
1.663811610E0,2.626439333E0,-9.560047150E0,1.039083481E0
1.665795307E0,2.631227732E0,-9.555258751E0,1.041477680E0
1.667807927E0,2.628833532E0,-9.555258751E0,1.034295082E0
1.669792777E0,2.636016130E0,-9.555258751E0,1.027112484E0
1.671806936E0,2.638410330E0,-9.552865028E0,1.029506683E0
1.673820786E0,2.631227732E0,-9.540893555E0,1.029506683E0
1.675805484E0,2.621650934E0,-9.545681953E0,1.019929886E0
1.677819027E0,2.592920542E0,-9.540893555E0,1.015141487E0
1.679802416E0,2.595314741E0,-9.514557838E0,1.022324085E0
1.681816882E0,2.602497339E0,-9.512163162E0,1.029506683E0
1.683799887E0,2.597708941E0,-9.495404243E0,1.031900883E0
1.685814430E0,2.566584110E0,-9.483432770E0,1.039083481E0
1.687797819E0,2.545036316E0,-9.488221169E0,1.041477680E0
1.689811670E0,2.523488522E0,-9.476250648E0,1.046266198E0
1.691795367E0,2.523488522E0,-9.469067574E0,1.022324085E0
1.693809833E0,2.523488522E0,-9.464279175E0,1.027112484E0
1.695794684E0,2.513911724E0,-9.464279175E0,1.022324085E0
1.697807996E0,2.501940727E0,-9.449913979E0,1.015141487E0
1.699791616E0,2.499546528E0,-9.440337181E0,1.012747288E0
1.701801851E0,2.485181332E0,-9.442731857E0,1.029506683E0
1.703819395E0,2.489969730E0,-9.416395187E0,1.031900883E0
1.705802784E0,2.489969730E0,-9.404424667E0,1.031900883E0
1.707817481E0,2.501940727E0,-9.392453194E0,1.041477680E0
1.709800870E0,2.499546528E0,-9.380482674E0,1.043871999E0
1.711815028E0,2.485181332E0,-9.380482674E0,1.051054597E0
1.713798803E0,2.480392933E0,-9.368511200E0,1.043871999E0
1.715813808E0,2.492363930E0,-9.368511200E0,1.046266198E0
1.717797273E0,2.501940727E0,-9.356540680E0,1.086967587E0
1.719810740E0,2.518700123E0,-9.354146004E0,1.108515382E0
1.721795051E0,2.530671120E0,-9.349357605E0,1.110909581E0
1.723808903E0,2.557007313E0,-9.344569206E0,1.132457376E0
1.725792677E0,2.585737944E0,-9.351752281E0,1.158793569E0
1.727806142E0,2.597708941E0,-9.358934402E0,1.173158884E0
1.729820609E0,2.590526342E0,-9.349357605E0,1.182735682E0
1.731804690E0,2.624045134E0,-9.337387085E0,1.206677675E0
1.733817926E0,2.633621931E0,-9.346963882E0,1.211466074E0
1.735803700E0,2.659958124E0,-9.332598686E0,1.242590666E0
1.737816396E0,2.671929121E0,-9.332598686E0,1.254561663E0
1.739800324E0,2.669534922E0,-9.320627213E0,1.252167463E0
1.741813560E0,2.674323320E0,-9.318233490E0,1.261744261E0
1.743798564E0,2.679111719E0,-9.313444138E0,1.273715258E0
1.745812415E0,2.674323320E0,-9.294290543E0,1.288080573E0
1.747795188E0,2.643198729E0,-9.248801231E0,1.300051570E0
1.749809655E0,2.643198729E0,-9.248801231E0,1.309628367E0
1.751793352E0,2.607285738E0,-9.239224434E0,1.343147159E0
1.753807202E0,2.595314741E0,-9.227252960E0,1.350329757E0
1.755822207E0,2.583343744E0,-9.232041359E0,1.352723956E0
1.757805289E0,2.571372509E0,-9.205705643E0,1.347935557E0
1.759819832E0,2.545036316E0,-9.200917244E0,1.319205165E0
1.761803837E0,2.545036316E0,-9.200917244E0,1.319205165E0
1.763817918E0,2.545036316E0,-9.203310966E0,1.297657371E0
1.765801307E0,2.545036316E0,-9.203310966E0,1.273715258E0
1.767815466E0,2.554613113E0,-9.200917244E0,1.261744261E0
1.769799162E0,2.549824715E0,-9.205705643E0,1.249773264E0
1.771813321E0,2.573766708E0,-9.205705643E0,1.244984865E0
1.773796172E0,2.578555346E0,-9.217676163E0,1.256955862E0
1.775811869E0,2.585737944E0,-9.229647636E0,1.256955862E0
1.777794566E0,2.602497339E0,-9.236829758E0,1.261744261E0
1.779809339E0,2.590526342E0,-9.255983353E0,1.256955862E0
1.781791806E0,2.597708941E0,-9.263166428E0,1.244984865E0
1.783805965E0,2.602497339E0,-9.277531624E0,1.240196466E0
1.785820507E0,2.607285738E0,-9.296685219E0,1.235408068E0
1.787804512E0,2.597708941E0,-9.315838814E0,1.213860273E0
1.789817979E0,2.597708941E0,-9.325415611E0,1.209071875E0
1.791802060E0,2.609679937E0,-9.318233490E0,1.199495077E0
1.793816219E0,2.597708941E0,-9.311050415E0,1.192312479E0
1.795800530E0,2.600103140E0,-9.318233490E0,1.182735682E0
1.797814612E0,2.600103140E0,-9.320627213E0,1.151610970E0
1.799797771E0,2.590526342E0,-9.315838814E0,1.142034173E0
1.801812544E0,2.590526342E0,-9.313444138E0,1.156399369E0
1.803795242E0,2.571372509E0,-9.301473618E0,1.173158884E0
1.805810322E0,2.573766708E0,-9.313444138E0,1.177947283E0
1.807793097E0,2.578555346E0,-9.325415611E0,1.177947283E0
1.809807256E0,2.573766708E0,-9.351752281E0,1.182735682E0
1.811822029E0,2.576161146E0,-9.354146004E0,1.177947283E0
1.813805188E0,2.580949545E0,-9.346963882E0,1.192312479E0
1.815820193E0,2.588132143E0,-9.346963882E0,1.211466074E0
1.817803274E0,2.592920542E0,-9.356540680E0,1.213860273E0
1.819817432E0,2.571372509E0,-9.358934402E0,1.213860273E0
1.821800283E0,2.545036316E0,-9.378087997E0,1.223437071E0
1.823815903E0,2.547430515E0,-9.380482674E0,1.228225470E0
1.825799062E0,2.516305923E0,-9.390059471E0,1.235408068E0
1.827812220E0,2.468421936E0,-9.394847870E0,1.237802267E0
1.829796917E0,2.456450939E0,-9.387664795E0,1.225831270E0
1.831810999E0,2.432508945E0,-9.373299599E0,1.228225470E0
1.833793772E0,2.413355350E0,-9.363722801E0,1.228225470E0
1.835809854E0,2.401384354E0,-9.358934402E0,1.230619669E0
1.837792320E0,2.360682964E0,-9.351752281E0,1.228225470E0
1.839806478E0,2.348711967E0,-9.351752281E0,1.233013868E0
1.841821791E0,2.339135170E0,-9.358934402E0,1.237802267E0
1.843804334E0,2.303221941E0,-9.346963882E0,1.242590666E0
1.845817877E0,2.291250944E0,-9.337387085E0,1.237802267E0
1.847801498E0,2.300827742E0,-9.330204010E0,1.216254473E0
1.849816348E0,2.286462545E0,-9.337387085E0,1.185129881E0
1.851799737E0,2.286462545E0,-9.337387085E0,1.173158884E0
1.853814203E0,2.324769735E0,-9.354146004E0,1.177947283E0
1.855798516E0,2.336740971E0,-9.356540680E0,1.185129881E0
1.857811674E0,2.351106167E0,-9.361329079E0,1.185129881E0
1.859795140E0,2.375048161E0,-9.370905876E0,1.177947283E0
1.861808683E0,2.398990154E0,-9.363722801E0,1.180341482E0
1.863792918E0,2.403778553E0,-9.363722801E0,1.189918280E0
1.865808000E0,2.418143749E0,-9.368511200E0,1.165976286E0
1.867791159E0,2.434903145E0,-9.368511200E0,1.110909581E0
1.869805317E0,2.432508945E0,-9.375694275E0,1.077390790E0
1.871819091E0,2.425326347E0,-9.337387085E0,1.022324085E0
1.873803096E0,2.413355350E0,-9.325415611E0,1.012747288E0
1.875817869E0,2.406172752E0,-9.327810287E0,1.012747288E0
1.877800951E0,2.408566952E0,-9.323021889E0,1.007958889E0
1.879814186E0,2.408566952E0,-9.327810287E0,1.000776291E0
1.881799114E0,2.406172752E0,-9.318233490E0,9.696516991E-1
1.883813042E0,2.418143749E0,-9.318233490E0,9.169792533E-1
1.885795738E0,2.442085743E0,-9.325415611E0,8.882488012E-1
1.887810513E0,2.489969730E0,-9.366117477E0,8.619126081E-1
1.889794518E0,2.542642117E0,-9.370905876E0,8.571242094E-1
1.891808368E0,2.568978310E0,-9.387664795E0,8.571242094E-1
1.893792142E0,2.647987127E0,-9.414001465E0,8.714894056E-1
1.895808069E0,2.748543501E0,-9.445125580E0,8.810662031E-1
1.897821074E0,2.796427488E0,-9.457097054E0,8.762778044E-1
1.899804464E0,2.882618904E0,-9.502586365E0,8.619126081E-1
1.901817929E0,2.975992680E0,-9.550470352E0,8.619126081E-1
1.903802550E0,3.028665066E0,-9.569623947E0,8.643068075E-1
1.905816170E0,3.131615877E0,-9.598354340E0,8.834604025E-1
1.907798943E0,3.179499865E0,-9.610325813E0,9.050082564E-1
1.909813948E0,3.284844637E0,-9.629479408E0,9.720458984E-1
1.911796799E0,3.392583847E0,-9.646238327E0,1.017535686E0
1.913811265E0,3.447650433E0,-9.672574997E0,1.031900883E0
1.915796193E0,3.509899616E0,-9.691728592E0,1.055842996E0
1.917809120E0,3.533841610E0,-9.727641106E0,1.089361787E0
1.919792741E0,3.526659012E0,-9.737217903E0,1.113303781E0
1.921807284E0,3.481169224E0,-9.756371498E0,1.161187768E0
1.923821365E0,3.440467834E0,-9.787496567E0,1.204283476E0
1.925805370E0,3.416525841E0,-9.797073364E0,1.240196466E0
1.927819297E0,3.327940464E0,-9.816226959E0,1.323993564E0
1.929802917E0,3.241749048E0,-9.835380554E0,1.359906554E0
1.931816769E0,3.196259260E0,-9.835380554E0,1.367089152E0
1.933800773E0,3.112462282E0,-9.847352028E0,1.417367458E0
1.935815547E0,3.011905670E0,-9.859322548E0,1.498770237E0
1.937798935E0,2.956839085E0,-9.854534149E0,1.537077546E0
1.939813094E0,2.846705914E0,-9.861717224E0,1.635239720E0
1.941795638E0,2.806004286E0,-9.852140427E0,1.685518026E0
1.943810026E0,2.753331900E0,-9.864110947E0,1.738190413E0
1.945794724E0,2.676717520E0,-9.880870819E0,1.810016513E0
1.947807960E0,2.647987127E0,-9.883264542E0,1.850717902E0
1.949822656E0,2.566584110E0,-9.904812813E0,1.929726601E0
1.951806353E0,2.509123325E0,-9.890447617E0,2.035071373E0
1.953820281E0,2.470816135E0,-9.907206535E0,2.082955360E0
1.955804285E0,2.401384354E0,-9.938331604E0,2.207453966E0
1.957818983E0,2.322375536E0,-9.981427193E0,2.324769735E0
1.959801833E0,2.284068346E0,-9.991003990E0,2.375048161E0
1.961816838E0,2.214636564E0,-1.004367638E1,2.456450939E0
1.963799997E0,2.138022184E0,-1.007958889E1,2.557007313E0
1.965813539E0,2.102109194E0,-1.010113716E1,2.597708941E0
1.967797236E0,2.051830769E0,-1.013226128E1,2.650381327E0
1.969811317E0,2.027888775E0,-1.016578007E1,2.703053713E0
1.971795015E0,1.939303398E0,-1.016338634E1,2.743755102E0
1.973809173E0,1.869871497E0,-1.016338634E1,2.834734917E0
1.975793254E0,1.819593310E0,-1.017056847E1,2.889801502E0
1.977807336E0,1.766920805E0,-1.018253994E1,3.016694069E0
1.979821264E0,1.704671621E0,-1.018253994E1,3.167528868E0
1.981804884E0,1.680729628E0,-1.018732834E1,3.246537447E0
1.983820581E0,1.661576033E0,-1.019690514E1,3.411737442E0
1.985803662E0,1.659181833E0,-1.023521233E1,3.608062029E0
1.987816359E0,1.661576033E0,-1.025197124E1,3.711012602E0
1.989800595E0,1.687912226E0,-1.030703831E1,3.916913986E0
1.991814753E0,1.747767210E0,-1.035731697E1,4.149151325E0
1.993798450E0,1.783680320E0,-1.039562416E1,4.276044369E0
1.995814224E0,1.900996208E0,-1.048660374E1,4.515464306E0
1.997795767E0,2.030282974E0,-1.057040024E1,4.764461517E0
1.999810233E0,2.082955360E0,-1.062786102E1,4.884171486E0
2.001794776E0,2.188300371E0,-1.072362900E1,5.104437828E0
2.003808319E0,2.240972757E0,-1.079066753E1,5.221754074E0
2.005822171E0,2.312798738E0,-1.083376312E1,5.465962410E0
2.007805867E0,2.391807556E0,-1.090319443E1,5.736507416E0
2.009820103E0,2.415749550E0,-1.092474270E1,5.877765179E0
2.011803492E0,2.437297344E0,-1.097262669E1,6.160281181E0
2.013818496E0,2.408566952E0,-1.098938560E1,6.394912720E0
2.015802194E0,2.406172752E0,-1.100375080E1,6.502651691E0
2.017816044E0,2.353500366E0,-1.103487587E1,6.698976517E0
2.019799433E0,2.296039343E0,-1.105402946E1,6.895300865E0
2.021812669E0,2.262520552E0,-1.106599998E1,7.012616634E0
2.023797596E0,2.190694571E0,-1.108036518E1,7.235277653E0
2.025811755E0,2.116474390E0,-1.111867237E1,7.422025204E0
2.027794836E0,2.080561161E0,-1.114740276E1,7.503427982E0
2.029809379E0,1.999158382E0,-1.116655636E1,7.632715225E0
2.031792769E0,1.939303398E0,-1.122162342E1,7.769184589E0
2.033807158E0,1.917755604E0,-1.123838234E1,7.833827972E0
2.035822240E0,1.874659896E0,-1.126950741E1,7.967903137E0
2.037805937E0,1.857900500E0,-1.128866100E1,8.039729118E0
2.039818941E0,1.814804912E0,-1.133415127E1,8.164227486E0
2.041802331E0,1.750161409E0,-1.139400578E1,8.255207062E0
2.043816796E0,1.716642618E0,-1.142752457E1,8.291120529E0
2.045800493E0,1.656787634E0,-1.147062016E1,8.329427719E0
2.047815498E0,1.599326730E0,-1.150892735E1,8.394071579E0
2.049798579E0,1.572990537E0,-1.152568722E1,8.418013573E0
2.051812123E0,1.527500629E0,-1.158554173E1,8.482656479E0
2.053795820E0,1.510741234E0,-1.164060879E1,8.525752068E0
2.055811286E0,1.510741234E0,-1.166455078E1,8.518569946E0
2.057794291E0,1.517923832E0,-1.169328117E1,8.485051155E0
2.059808525E0,1.517923832E0,-1.171722317E1,8.465897560E0
2.061790992E0,1.529894829E0,-1.172919369E1,8.461109161E0
2.063806074E0,1.529894829E0,-1.173637676E1,8.461109161E0
2.065819924E0,1.517923832E0,-1.172919369E1,8.446743965E0
2.067803544E0,1.508347034E0,-1.172440529E1,8.446743965E0
2.069816857E0,1.477222443E0,-1.171961689E1,8.441955566E0
2.071801707E0,1.460463047E0,-1.170525169E1,8.427590370E0
2.073816482E0,1.436521053E0,-1.167412758E1,8.394071579E0
2.075799947E0,1.412579060E0,-1.164779091E1,8.372523308E0
2.077813491E0,1.398213744E0,-1.163821411E1,8.362946510E0
2.079796496E0,1.400607944E0,-1.163821411E1,8.341399193E0
2.081811653E0,1.417367458E0,-1.166933918E1,8.327033043E0
2.083795582E0,1.436521053E0,-1.166933918E1,8.305485725E0
2.085809125E0,1.491587639E0,-1.168849277E1,8.269572258E0
2.087793129E0,1.580173135E0,-1.170525169E1,8.238448143E0
2.089806749E0,1.623268723E0,-1.172440529E1,8.204929352E0
2.091821446E0,1.716642618E0,-1.174595356E1,8.128314972E0
2.093804835E0,1.800439715E0,-1.178426075E1,8.085219383E0
2.095819610E0,1.841141105E0,-1.180341434E1,8.063671112E0
2.097802690E0,1.912967205E0,-1.183693314E1,8.003816605E0
2.099817234E0,1.936909199E0,-1.185608673E1,7.936778545E0
2.101799700E0,2.008735180E0,-1.186805820E1,7.884106159E0
2.103813858E0,2.085349798E0,-1.189678860E1,7.769184589E0
2.105798710E0,2.109291792E0,-1.189918232E1,7.726089001E0
2.107811714E0,2.149993181E0,-1.190875912E1,7.671022415E0
2.109796257E0,2.212242365E0,-1.192073059E1,7.618350029E0
2.111809800E0,2.245761156E0,-1.192312431E1,7.599195957E0
2.113794728E0,2.317587137E0,-1.193509579E1,7.584830761E0
2.115808963E0,2.391807556E0,-1.194706631E1,7.529764175E0
2.117791660E0,2.427720547E0,-1.195424938E1,7.501033783E0
2.119805895E0,2.518700123E0,-1.198058510E1,7.479485989E0
2.121821208E0,2.621650934E0,-1.198776817E1,7.469909191E0
2.123803751E0,2.664746523E0,-1.198058510E1,7.457938194E0
2.125817602E0,2.729389906E0,-1.198537350E1,7.443572998E0
2.127800991E0,2.801215887E0,-1.196143150E1,7.402871609E0
2.129815995E0,2.822763920E0,-1.194227791E1,7.374141216E0
2.131798539E0,2.863465309E0,-1.194706631E1,7.328651428E0
2.133813312E0,2.882618904E0,-1.193748951E1,7.278373241E0
2.135797625E0,2.901772499E0,-1.194227791E1,7.247248650E0
2.137811476E0,2.877830505E0,-1.192791271E1,7.187393665E0
2.139794480E0,2.858676910E0,-1.192791271E1,7.163451672E0
2.141808639E0,2.820369720E0,-1.193270111E1,7.129932880E0
2.143824336E0,2.798821688E0,-1.194946098E1,7.108384609E0
2.145806879E0,2.782062292E0,-1.195424938E1,7.094019413E0
2.147819807E0,2.755726099E0,-1.196382618E1,7.055712223E0
2.149805657E0,2.748543501E0,-1.198776817E1,7.007828236E0
2.151819431E0,2.741360903E0,-1.198776817E1,6.976703644E0
2.153802513E0,2.758120298E0,-1.201889229E1,6.928819656E0
2.155817671E0,2.796427488E0,-1.205241108E1,6.873753071E0
2.157799830E0,2.817975283E0,-1.207395935E1,6.837840080E0
2.159814527E0,2.873042107E0,-1.210268974E1,6.770802498E0
2.161798300E0,2.940079689E0,-1.210747814E1,6.701370716E0
2.163812382E0,2.975992680E0,-1.211466026E1,6.658275127E0
2.165796155E0,3.021482468E0,-1.211466026E1,6.564900875E0
2.167810237E0,3.038241863E0,-1.208353615E1,6.526593685E0
2.169793627E0,3.057395458E0,-1.206438255E1,6.471527100E0
2.171807862E0,3.100491285E0,-1.201889229E1,6.423643112E0
2.173822559E0,3.098097086E0,-1.199495029E1,6.394912720E0
2.175806332E0,3.100491285E0,-1.195185471E1,6.358999729E0
2.177820106E0,3.126827478E0,-1.192551899E1,6.325480938E0
2.179803265E0,3.150769472E0,-1.190636539E1,6.296750546E0
2.181817115E0,3.191470861E0,-1.186326981E1,6.215347767E0
2.183801120E0,3.272873640E0,-1.183453941E1,6.141127586E0
2.185815587E0,3.313575268E0,-1.181777954E1,6.124367714E0
2.187799206E0,3.428496838E0,-1.184411621E1,6.124367714E0
2.189813365E0,3.555389643E0,-1.186566353E1,6.090848923E0
2.191797138E0,3.620033026E0,-1.187284660E1,6.071695328E0
2.193811220E0,3.744531393E0,-1.189439392E1,6.002263546E0
2.195796148E0,3.881000996E0,-1.191115379E1,5.928043365E0
2.197809999E0,3.945644379E0,-1.192073059E1,5.908889771E0
2.199793158E0,4.048594952E0,-1.194467258E1,5.853823185E0
2.201807316E0,4.101267338E0,-1.195185471E1,5.822698593E0
2.203820551E0,4.189853191E0,-1.198537350E1,5.805939198E0
2.205804556E0,4.247313976E0,-1.197819138E1,5.803544998E0
2.207818637E0,4.268861771E0,-1.196861458E1,5.803544998E0
2.209802411E0,4.299986362E0,-1.194467258E1,5.770026207E0
2.211815955E0,4.288015366E0,-1.188481712E1,5.619191170E0
2.213799574E0,4.261679173E0,-1.182975101E1,5.465962410E0
2.215815271E0,4.228160381E0,-1.181299114E1,5.714959621E0
2.217798661E0,4.230554581E0,-1.178186703E1,5.849034786E0
2.219812280E0,4.232948780E0,-1.172919369E1,5.817910194E0
2.221795593E0,4.213795185E0,-1.165497398E1,5.875370979E0
2.223810982E0,4.261679173E0,-1.159511852E1,5.932831764E0
2.225794141E0,4.285621166E0,-1.156878281E1,5.906495571E0
2.227807684E0,4.326322556E0,-1.153047562E1,5.882553577E0
2.229822150E0,4.307168961E0,-1.149216843E1,5.884947777E0
2.231805539E0,4.288015366E0,-1.145386124E1,5.877765179E0
2.233819621E0,4.237737179E0,-1.139400578E1,5.875370979E0
2.235804933E0,4.199429989E0,-1.137006378E1,5.868188381E0
2.237818092E0,4.137180328E0,-1.130063248E1,5.906495571E0
2.239801480E0,4.036623955E0,-1.126950741E1,5.937620163E0
2.241815639E0,3.983951569E0,-1.125753593E1,5.961562157E0
2.243799337E0,3.883395195E0,-1.123120022E1,5.987898350E0
2.245812879E0,3.780444384E0,-1.121922874E1,6.047753334E0
2.247796269E0,3.737348795E0,-1.121683502E1,6.076483727E0
2.249810196E0,3.684676409E0,-1.121683502E1,6.148310184E0
2.251795124E0,3.639186621E0,-1.122641182E1,6.263231754E0
2.253808590E0,3.622427225E0,-1.124317074E1,6.325480938E0
2.255823671E0,3.593696833E0,-1.126950741E1,6.454767704E0
2.257807369E0,3.598485231E0,-1.128626728E1,6.586448669E0
2.259820681E0,3.612850428E0,-1.129344940E1,6.660669327E0
2.261803762E0,3.598485231E0,-1.132457447E1,6.782773495E0
2.263817921E0,3.591302633E0,-1.134612179E1,6.892906666E0
2.265802540E0,3.593696833E0,-1.134372807E1,6.936002254E0
2.267816699E0,3.596091032E0,-1.135091019E1,6.991068840E0
2.269799397E0,3.591302633E0,-1.135091019E1,7.005434036E0
2.271813631E0,3.586514235E0,-1.137245846E1,7.031770229E0
2.273798175E0,3.574543238E0,-1.137724686E1,7.043741226E0
2.275812411E0,3.564966440E0,-1.137485218E1,7.038952827E0
2.277795722E0,3.521870613E0,-1.137485218E1,7.048529625E0
2.279809881E0,3.473986626E0,-1.138921738E1,7.026981831E0
2.281794501E0,3.464409828E0,-1.139879417E1,7.031770229E0
2.283806890E0,3.418920040E0,-1.138921738E1,7.031770229E0
2.285822587E0,3.366247654E0,-1.137724686E1,7.046135426E0
2.287805053E0,3.342305660E0,-1.136288166E1,7.034164429E0
2.289819750E0,3.303998232E0,-1.132696819E1,7.026981831E0
2.291802832E0,3.275267839E0,-1.130302620E1,7.005434036E0
2.293816759E0,3.263296843E0,-1.128387260E1,6.986280441E0
2.295801995E0,3.234566450E0,-1.120486355E1,6.969521046E0
2.297815538E0,3.205836058E0,-1.112824917E1,6.957550049E0
2.299798927E0,3.174711466E0,-1.109712505E1,6.924031258E0
2.301812701E0,3.167528868E0,-1.102529907E1,6.921637058E0
2.303797321E0,3.160346270E0,-1.098699188E1,6.907271862E0
2.305811172E0,3.129221678E0,-1.090798283E1,6.883329868E0
2.307793945E0,3.129221678E0,-1.083855152E1,6.854599476E0
2.309809027E0,3.117250681E0,-1.078827286E1,6.837840080E0
2.311822878E0,3.112462282E0,-1.072123528E1,6.806715488E0
2.313807190E0,3.102885485E0,-1.064701462E1,6.780379295E0
2.315822041E0,3.093308687E0,-1.059913063E1,6.758831501E0
2.317805046E0,3.088520288E0,-1.054406452E1,6.708553314E0
2.319818281E0,3.071760893E0,-1.046026707E1,6.639121532E0
2.321802978E0,3.064578056E0,-1.040998936E1,6.622362137E0
2.323815599E0,3.045424461E0,-1.031182671E1,6.588842869E0
2.325799910E0,3.031059265E0,-1.021366405E1,6.569689274E0
2.327813762E0,3.031059265E0,-1.015859795E1,6.562506676E0
2.329797766E0,3.026270866E0,-1.006522369E1,6.552929878E0
2.331811232E0,3.031059265E0,-1.000297451E1,6.543353081E0
2.333795545E0,3.057395458E0,-9.907206535E0,6.531382084E0
2.335810395E0,3.081337690E0,-9.794678688E0,6.562506676E0
2.337792861E0,3.095702887E0,-9.732429504E0,6.591237068E0
2.339807327E0,3.129221678E0,-9.627084732E0,6.643909931E0
2.341818409E0,3.172317266E0,-9.538499832E0,6.706159115E0
2.343804491E0,3.189076662E0,-9.497797966E0,6.751648903E0
2.345819264E0,3.246537447E0,-9.440337181E0,6.892906666E0
2.347803038E0,3.318363667E0,-9.421183586E0,7.007828236E0
2.349817505E0,3.351882458E0,-9.404424667E0,7.055712223E0
2.351801201E0,3.421314240E0,-9.380482674E0,7.113173485E0
2.353815052E0,3.500322819E0,-9.399636269E0,7.168240070E0
2.355799595E0,3.533841610E0,-9.397241592E0,7.192182064E0
2.357813523E0,3.596091032E0,-9.397241592E0,7.235277653E0
2.359797528E0,3.641580820E0,-9.414001465E0,7.264008045E0
2.361811609E0,3.718195200E0,-9.428366661E0,7.295132637E0
2.363794075E0,3.828328609E0,-9.428366661E0,7.326257229E0
2.365808542E0,3.881000996E0,-9.423578262E0,7.350199223E0
2.367822392E0,3.955221176E0,-9.423578262E0,7.386112213E0
2.369807012E0,4.015076160E0,-9.414001465E0,7.412448406E0
2.371820555E0,4.058171749E0,-9.390059471E0,7.386112213E0
2.373804329E0,4.120420933E0,-9.342175484E0,7.331045628E0
2.375818796E0,4.177882195E0,-9.253589630E0,7.302315235E0
2.377802107E0,4.199429989E0,-9.193734169E0,7.275979042E0
2.379816959E0,4.235342979E0,-9.112331390E0,7.216124058E0
2.381799347E0,4.247313976E0,-9.011775017E0,7.165845871E0
2.383815121E0,4.242525578E0,-8.954314232E0,7.146692276E0
2.385798126E0,4.228160381E0,-8.832210541E0,7.103596210E0
2.387811438E0,4.194641590E0,-8.700529099E0,7.062894821E0
2.389796674E0,4.165910721E0,-8.628703117E0,7.041347027E0
2.391809525E0,4.115632534E0,-8.477868080E0,7.015010834E0
2.393793221E0,4.094084740E0,-8.339004517E0,7.015010834E0
2.395807996E0,4.036623955E0,-8.262390137E0,7.029376030E0
2.397822231E0,3.976768970E0,-8.130708694E0,7.050923824E0
2.399804928E0,3.952826977E0,-8.073247910E0,7.050923824E0
2.401819702E0,3.895366192E0,-7.960720539E0,7.060500622E0
2.403803167E0,3.823540211E0,-7.874529362E0,7.046135426E0
2.405817249E0,3.792415380E0,-7.838616371E0,7.053318024E0
2.407800716E0,3.722983599E0,-7.766790390E0,7.070077419E0
2.409815105E0,3.643975019E0,-7.702147007E0,7.089231014E0
2.411799186E0,3.603273630E0,-7.678205013E0,7.103596210E0
2.413813037E0,3.493140221E0,-7.625532627E0,7.134721279E0
2.415797272E0,3.387795448E0,-7.560888767E0,7.182605267E0
2.417810893E0,3.325546265E0,-7.544129372E0,7.208941460E0
2.419794512E0,3.205836058E0,-7.479485989E0,7.283161640E0
2.421807517E0,3.090914488E0,-7.419631004E0,7.354987621E0
2.423822291E0,3.040636063E0,-7.386112213E0,7.393294811E0
2.425806295E0,2.930502892E0,-7.333439827E0,7.450755596E0
2.427820762E0,2.882618904E0,-7.295132637E0,7.520187378E0
2.429804074E0,2.791639090E0,-7.280767441E0,7.558494568E0
2.431818309E0,2.707842112E0,-7.230489254E0,7.623138428E0
2.433802007E0,2.664746523E0,-7.206547260E0,7.651868820E0
2.435816780E0,2.597708941E0,-7.149086475E0,7.692570210E0
2.437800400E0,2.547430515E0,-7.127538681E0,7.692570210E0
2.439814021E0,2.533065319E0,-7.108384609E0,7.697358608E0
2.441797640E0,2.518700123E0,-7.067683220E0,7.721300602E0
2.443811261E0,2.518700123E0,-7.034164429E0,7.766790390E0
2.445795188E0,2.523488522E0,-7.022193432E0,7.783549786E0
2.447808808E0,2.535459518E0,-7.005434036E0,7.812280178E0
2.449824121E0,2.537853718E0,-6.986280441E0,7.819462776E0
2.451807279E0,2.540247917E0,-6.976703644E0,7.812280178E0
2.453821437E0,2.537853718E0,-6.950367451E0,7.790732384E0
2.455805981E0,2.506729126E0,-6.921637058E0,7.754819393E0
2.457820139E0,2.494758129E0,-6.900089264E0,7.735665798E0
2.459802682E0,2.456450939E0,-6.859387875E0,7.702147007E0
2.461817071E0,2.434903145E0,-6.811503887E0,7.694964409E0
2.463801691E0,2.370259762E0,-6.806715488E0,7.682993412E0
2.465815542E0,2.322375536E0,-6.742072105E0,7.675810814E0
2.467798008E0,2.298433542E0,-6.708553314E0,7.678205013E0
2.469813474E0,2.248155355E0,-6.636727333E0,7.697358608E0
2.471796555E0,2.202665567E0,-6.586448669E0,7.711723804E0
2.473810637E0,2.193088770E0,-6.560112476E0,7.706935406E0
2.475795642E0,2.173935175E0,-6.466738701E0,7.692570210E0
2.477808569E0,2.161964178E0,-6.382941723E0,7.709329605E0
2.479822421E0,2.154781580E0,-6.347028732E0,7.723694801E0
2.481806733E0,2.142810583E0,-6.270414352E0,7.762001991E0
2.483820276E0,2.145204782E0,-6.191405773E0,7.785943985E0
2.485803665E0,2.152387381E0,-6.162675381E0,7.802703381E0
2.487817515E0,2.142810583E0,-6.069301128E0,7.812280178E0
2.489801751E0,2.152387381E0,-5.997475147E0,7.843404770E0
2.491815987E0,2.169146776E0,-5.961562157E0,7.852981567E0
2.493799299E0,2.171540976E0,-5.880159378E0,7.886500359E0
2.495814150E0,2.176329374E0,-5.844246387E0,7.908048153E0
2.497796847E0,2.197877169E0,-5.767632008E0,7.943961143E0
2.499811928E0,2.214636564E0,-5.710171223E0,7.982268333E0
2.501794472E0,2.221819162E0,-5.674258232E0,8.006210327E0
2.503808937E0,2.245761156E0,-5.590460777E0,8.030152321E0
2.505823096E0,2.264914751E0,-5.532999992E0,8.061277390E0
2.507806486E0,2.279279947E0,-5.509057999E0,8.063671112E0
2.509821490E0,2.276885748E0,-5.453991413E0,8.068459511E0
2.511805187E0,2.293645144E0,-5.406107426E0,8.034940720E0
2.513819038E0,2.288856745E0,-5.374982834E0,8.008605003E0
2.515804042E0,2.274491549E0,-5.300762653E0,7.977479935E0
2.517817201E0,2.281674147E0,-5.240907669E0,7.958326340E0
2.519800897E0,2.267308950E0,-5.200206280E0,7.955932140E0
2.521815979E0,2.233790159E0,-5.149928093E0,7.939172745E0
2.523798830E0,2.226607561E0,-5.111620426E0,7.874529362E0
2.525812065E0,2.166752577E0,-5.078101635E0,7.838616371E0
2.527796070E0,2.145204782E0,-5.011064053E0,7.776367188E0
2.529810844E0,2.128445387E0,-4.987122059E0,7.752425194E0
2.531793925E0,2.094926596E0,-4.936843872E0,7.702147007E0
2.533807776E0,2.070984364E0,-4.886565685E0,7.668628216E0
2.535823396E0,2.059013367E0,-4.850652695E0,7.661445618E0
2.537805862E0,2.003946781E0,-4.790797710E0,7.637503624E0
2.539820714E0,1.982398987E0,-4.723760128E0,7.592013359E0
2.541803487E0,1.963245392E0,-4.683058739E0,7.570465565E0
2.543818876E0,1.912967205E0,-4.587290287E0,7.532158375E0
2.545802188E0,1.884236693E0,-4.484339714E0,7.508216381E0
2.547815116E0,1.877054095E0,-4.438849926E0,7.489062786E0
2.549799813E0,1.833958507E0,-4.338293552E0,7.465120792E0
2.551813664E0,1.802833915E0,-4.192247391E0,7.424419403E0
2.553798207E0,1.793257117E0,-4.139574528E0,7.407660007E0
2.555812981E0,1.783680320E0,-4.017470360E0,7.362170219E0
2.557795139E0,1.764526606E0,-3.885789394E0,7.343016624E0
2.559809375E0,1.731007814E0,-3.821146011E0,7.314286232E0
2.561793687E0,1.726219416E0,-3.684676409E0,7.290344238E0
2.563807230E0,1.707065821E0,-3.615244627E0,7.285555840E0
2.565821081E0,1.690306425E0,-3.531447411E0,7.292738438E0
2.567804701E0,1.690306425E0,-3.440467834E0,7.273584843E0
2.569818936E0,1.675941229E0,-3.383007050E0,7.261613846E0
2.571802249E0,1.668758631E0,-3.301604033E0,7.230489254E0
2.573816484E0,1.644816518E0,-3.224989653E0,7.175422668E0
2.575801104E0,1.651999116E0,-3.179499865E0,7.153874874E0
2.577814954E0,1.635239720E0,-3.100491285E0,7.115567684E0
2.579798036E0,1.632845521E0,-3.028665066E0,7.070077419E0
2.581809349E0,1.644816518E0,-3.007117271E0,7.038952827E0
2.583825661E0,1.642422318E0,-2.956839085E0,7.000645638E0
2.585810589E0,1.644816518E0,-2.892195702E0,6.959944248E0
2.587793979E0,1.632845521E0,-2.870647907E0,6.943184853E0
2.589807829E0,1.589749932E0,-2.817975283E0,6.878541470E0
2.591822603E0,1.592144132E0,-2.774879694E0,6.845022678E0
2.593806299E0,1.577778935E0,-2.743755102E0,6.756437302E0
2.595821073E0,1.527500629E0,-2.695871115E0,6.672640324E0
2.597803309E0,1.522712231E0,-2.676717520E0,6.622362137E0
2.599818313E0,1.510741234E0,-2.636016130E0,6.519411087E0
2.601802011E0,1.493981838E0,-2.578555346E0,6.421248913E0
2.603815631E0,1.486799240E0,-2.545036316E0,6.370970726E0
2.605799327E0,1.453280449E0,-2.489969730E0,6.301538944E0
2.607813409E0,1.422155857E0,-2.410961151E0,6.256049156E0
2.609797721E0,1.414973259E0,-2.370259762E0,6.236895561E0
2.611811572E0,1.383848548E0,-2.267308950E0,6.179434776E0
2.613795577E0,1.355118155E0,-2.161964178E0,6.088454723E0
2.615809427E0,1.335964561E0,-2.102109194E0,6.054935932E0
2.617823586E0,1.319205165E0,-1.965639591E0,5.975927353E0
2.619807282E0,1.304839969E0,-1.848323703E0,5.882553577E0
2.621821210E0,1.300051570E0,-1.798045516E0,5.844246387E0
2.623804908E0,1.295263171E0,-1.697489023E0,5.765237808E0
2.625819373E0,1.276109457E0,-1.582567334E0,5.698200226E0
2.627801532E0,1.256955862E0,-1.539471745E0,5.674258232E0
2.629817229E0,1.244984865E0,-1.453280449E0,5.631162167E0
2.631799695E0,1.233013868E0,-1.419761658E0,5.604825974E0
2.633814162E0,1.223437071E0,-1.335964561E0,5.561730385E0
2.635799396E0,1.175553083E0,-1.273715258E0,5.528211594E0
2.637812247E0,1.156399369E0,-1.244984865E0,5.511452198E0
2.639796252E0,1.163581967E0,-1.170764685E0,5.451597214E0
2.641811103E0,1.149216771E0,-1.113303781E0,5.410895824E0
2.643793800E0,1.151610970E0,-1.079784989E0,5.391742229E0
2.645808266E0,1.149216771E0,-1.027112484E0,5.341464043E0
2.647821886E0,1.149216771E0,-9.840168953E-1,5.295974255E0
2.649805506E0,1.151610970E0,-9.648633003E-1,5.281609058E0
2.651820049E0,1.170764685E0,-9.169792533E-1,5.257667065E0
2.653803669E0,1.165976286E0,-8.259995580E-1,5.233725071E0
2.655818443E0,1.180341482E0,-7.733271718E-1,5.219359875E0
2.657801832E0,1.199495077E0,-6.847416759E-1,5.178658485E0
2.659814760E0,1.197100878E0,-6.416460276E-1,5.135562420E0
2.661798765E0,1.221042871E0,-5.339069963E-1,5.025429249E0
2.663813538E0,1.240196466E0,-3.854664862E-1,4.881777287E0
2.665797543E0,1.249773264E0,-3.088520169E-1,4.802768707E0
2.667811163E0,1.280897856E0,-1.795651317E-1,4.647145271E0
2.669794860E0,1.326387763E0,-4.070143029E-2,4.525041103E0
2.671808711E0,1.343147159E0,2.633621916E-2,4.472368717E0
2.673823100E0,1.391031146E0,1.651999205E-1,4.367023945E0
2.675808720E0,1.441309452E0,2.753331959E-1,4.280832767E0
2.677821033E0,1.458068848E0,3.280056417E-1,4.235342979E0
2.679804345E0,1.479616642E0,4.237737060E-1,4.139574528E0
2.681818888E0,1.510741234E0,4.979939461E-1,4.022258759E0
2.683803123E0,1.520318031E0,5.339069963E-1,3.976768970E0
2.685816128E0,1.527500629E0,6.105214357E-1,3.885789394E0
2.687800671E0,1.534683347E0,6.799532771E-1,3.825934410E0
2.689813983E0,1.498770237E0,7.206547260E-1,3.672705412E0
2.691798296E0,1.474828243E0,7.948749661E-1,3.497928619E0
2.693812378E0,1.465251446E0,8.331822157E-1,3.421314240E0
2.695796766E0,1.422155857E0,8.954314590E-1,3.275267839E0
2.697810002E0,1.357512355E0,9.481038451E-1,3.145981073E0
2.699793621E0,1.307234168E0,9.648633003E-1,3.088520288E0
2.701806934E0,1.230619669E0,1.036689281E0,2.959233284E0
2.703823478E0,1.127668977E0,1.094150186E0,2.863465309E0
2.705805712E0,1.070208192E0,1.130063176E0,2.813186884E0
2.707818871E0,9.337386489E-1,1.189918280E0,2.686294317E0
2.709803875E0,7.829039693E-1,1.252167463E0,2.511517525E0
2.711818265E0,7.134721279E-1,1.292868972E0,2.408566952E0
2.713801039E0,5.674257874E-1,1.367089152E0,2.200271368E0
2.715816735E0,4.165911078E-1,1.443703651E0,2.035071373E0
2.717799202E0,3.375824392E-1,1.489193439E0,1.972822189E0
2.719813438E0,1.987187415E-1,1.556231141E0,1.872265697E0
2.721797365E0,1.221042871E-1,1.592144132E0,1.826775908E0
2.723810908E0,-2.394201607E-2,1.673547029E0,1.702277422E0
2.725794605E0,-1.580173075E-1,1.759738207E0,1.553836942E0
2.727808456E0,-2.322375625E-1,1.812410712E0,1.491587639E0
2.729822691E0,-3.639186621E-1,1.912967205E0,1.379060149E0
2.731806926E0,-4.692635238E-1,1.991975784E0,1.319205165E0
2.733821700E0,-5.243301988E-1,2.039859772E0,1.314416766E0
2.735805090E0,-6.153098345E-1,2.169146776E0,1.340752959E0
2.737818633E0,-6.871358752E-1,2.319981337E0,1.414973259E0
2.739802638E0,-7.206547260E-1,2.391807556E0,1.458068848E0
2.741813795E0,-7.805097699E-1,2.528276920E0,1.517923832E0
2.743799031E0,-8.331822157E-1,2.712630510E0,1.482010841E0
2.745814036E0,-8.571242094E-1,2.822763920E0,1.429338455E0
2.747798117E0,-8.810662031E-1,3.021482468E0,1.266532660E0
2.749812276E0,-8.762778044E-1,3.215412855E0,1.144428372E0
2.751795665E0,-8.595184088E-1,3.318363667E0,1.110909581E0
2.753809747E0,-8.092401624E-1,3.531447411E0,1.048660398E0
2.755825136E0,-7.805097699E-1,3.691859007E0,1.027112484E0
2.757807986E0,-6.895300746E-1,3.763684988E0,9.983820915E-1
2.759821530E0,-5.841852427E-1,3.912125587E0,9.672574997E-1
2.761806073E0,-5.410895944E-1,3.974374771E0,9.337386489E-1
2.763819693E0,-4.548983276E-1,4.106055737E0,8.355764151E-1
2.765803698E0,-3.543418646E-1,4.197035789E0,7.422025204E-1
2.767817780E0,-3.136404157E-1,4.235342979E0,6.991068721E-1
2.769801245E0,-2.561795712E-1,4.304774761E0,6.105214357E-1
2.771815327E0,-2.346317619E-1,4.364629745E0,5.171475410E-1
2.773799023E0,-2.226607651E-1,4.395754337E0,4.740519226E-1
2.775813567E0,-2.418143749E-1,4.434061527E0,3.639186621E-1
2.777796572E0,-2.729389966E-1,4.472368717E0,2.777273953E-1
2.779811653E0,-3.208230138E-1,4.477157116E0,2.322375625E-1
2.781794196E0,-4.357447028E-1,4.477157116E0,1.556231081E-1
2.783808893E0,-5.051765442E-1,4.472368717E0,8.858546615E-2
2.785823974E0,-6.703764796E-1,4.448426723E0,5.506663769E-2
2.787805903E0,-8.499416113E-1,4.426878929E0,7.182605099E-3
2.789820599E0,-9.457096457E-1,4.405331135E0,-2.394201607E-2
2.791804373E0,-1.168370485E0,4.381389141E0,-4.788403213E-2
2.793818840E0,-1.374271750E0,4.326322556E0,-1.675941236E-2
2.795803382E0,-1.470039845E0,4.295197964E0,2.394201700E-3
2.797816926E0,-1.678335428E0,4.242525578E0,6.224924326E-2
2.799800006E0,-1.872265697E0,4.201824188E0,1.221042871E-1
2.801814473E0,-1.965639591E0,4.182670593E0,1.556231081E-1
2.803798478E0,-2.128445387E0,4.132391930E0,2.298433632E-1
2.805811405E0,-2.264914751E0,4.079719543E0,3.327940404E-1
2.807795718E0,-2.317587137E0,4.048594952E0,3.926490843E-1
2.809809877E0,-2.396595955E0,3.998316765E0,5.195417404E-1
2.811824419E0,-2.461239338E0,3.940855980E0,6.631938815E-1
2.813807193E0,-2.477998734E0,3.904942989E0,7.374141216E-1
2.815823428E0,-2.470816135E0,3.828328609E0,8.858546019E-1
2.817805587E0,-2.461239338E0,3.742137194E0,1.031900883E0
2.819819746E0,-2.408566952E0,3.699041605E0,1.110909581E0
2.821802288E0,-2.348711967E0,3.629609823E0,1.249773264E0
2.823817370E0,-2.308010340E0,3.591302633E0,1.321599364E0
2.825801914E0,-2.207453966E0,3.493140221E0,1.482010841E0
2.827815456E0,-2.116474390E0,3.397372246E0,1.644816518E0
2.829798615E0,-2.073378563E0,3.335123062E0,1.709460020E0
2.831812773E0,-1.970427990E0,3.236960649E0,1.836352706E0
2.833796778E0,-1.865083098E0,3.141192675E0,1.977610588E0
2.835811860E0,-1.812410712E0,3.090914488E0,2.044648170E0
2.837794864E0,-1.709460020E0,2.975992680E0,2.161964178E0
2.839809100E0,-1.613691926E0,2.868253708E0,2.291250944E0
2.841823797E0,-1.563413739E0,2.820369720E0,2.353500366E0
2.843806647E0,-1.477222443E0,2.691082716E0,2.480392933E0
2.845820191E0,-1.400607944E0,2.566584110E0,2.607285738E0
2.847804118E0,-1.369483352E0,2.518700123E0,2.655169725E0
2.849818046E0,-1.307234168E0,2.408566952E0,2.741360903E0
2.851801974E0,-1.283292055E0,2.315192938E0,2.784456491E0
2.853816439E0,-1.225831270E0,2.262520552E0,2.885013103E0
2.855800752E0,-1.158793569E0,2.183511972E0,2.985569477E0
2.857814602E0,-1.130063176E0,2.135627985E0,3.038241863E0
2.859797453E0,-1.063025594E0,2.044648170E0,3.141192675E0
2.861811304E0,-1.000776291E0,1.963245392E0,3.241749048E0
2.863796539E0,-9.720458984E-1,1.917755604E0,3.306392431E0
2.865810313E0,-9.026140571E-1,1.821987510E0,3.445256233E0
2.867792472E0,-8.499416113E-1,1.731007814E0,3.562572241E0
2.869807015E0,-8.140285611E-1,1.697489023E0,3.620033026E0
2.871822404E0,-7.254431248E-1,1.620874524E0,3.754108191E0
2.873805101E0,-6.488286853E-1,1.544260144E0,3.897760391E0
2.875819952E0,-6.057330370E-1,1.513135433E0,3.986345768E0
2.877802649E0,-5.099649429E-1,1.431732655E0,4.151545525E0
2.879817192E0,-3.830722570E-1,1.374271750E0,4.309563160E0
2.881801504E0,-3.280056417E-1,1.352723956E0,4.390965939E0
2.883815894E0,-2.250549644E-1,1.288080573E0,4.537012100E0
2.885798975E0,-1.747767180E-1,1.266532660E0,4.606443882E0
2.887812211E0,-6.703764945E-2,1.194706678E0,4.754884720E0
2.889796522E0,5.506663769E-2,1.137245774E0,4.891354084E0
2.891810681E0,1.101332754E-1,1.101332784E0,4.967968464E0
2.893794994E0,2.250549644E-1,1.058237195E0,5.135562420E0
2.895809844E0,3.160346150E-1,1.015141487E0,5.300762653E0
2.897823311E0,3.591302633E-1,9.816226959E-1,5.386953831E0
2.899806162E0,4.477157295E-1,9.265560508E-1,5.552153587E0
2.901820627E0,5.243301988E-1,8.738836050E-1,5.712565422E0
2.903803632E0,5.602431893E-1,8.451532125E-1,5.791574001E0
2.905818713E0,6.105214357E-1,7.781155705E-1,5.932831764E0
2.907801872E0,6.368576288E-1,7.278373241E-1,6.057330132E0
2.909816646E0,6.631938815E-1,7.062895298E-1,6.126761913E0
2.911800035E0,7.134721279E-1,6.560112834E-1,6.260837555E0
2.913813886E0,7.469909191E-1,6.105214357E-1,6.385335922E0
2.915798506E0,7.493851185E-1,5.793967843E-1,6.435614109E0
2.917811434E0,7.685387731E-1,5.099649429E-1,6.552929878E0
2.919795439E0,7.757213712E-1,4.812345505E-1,6.610390663E0
2.921811058E0,7.948749661E-1,4.405331016E-1,6.691793919E0
2.923792986E0,8.283938169E-1,3.806780577E-1,6.789956093E0
2.925807376E0,8.451532125E-1,3.591302633E-1,6.837840080E0
2.927822149E0,8.523358107E-1,2.944868207E-1,6.926425457E0
2.929805231E0,8.523358107E-1,2.442085743E-1,7.046135426E0
2.931818543E0,8.379706144E-1,2.059013397E-1,7.105990410E0
2.933803086E0,8.379706144E-1,1.244984865E-1,7.225700855E0
2.935817937E0,8.643068075E-1,4.548983276E-2,7.335834026E0
2.937801249E0,8.643068075E-1,2.394201700E-3,7.390900612E0
2.939814254E0,8.714894056E-1,-5.985504389E-2,7.515398979E0
2.941798490E0,8.738836050E-1,-1.364694983E-1,7.635109425E0
2.943813032E0,8.834604025E-1,-1.723825186E-1,7.685387611E0
2.945797883E0,9.026140571E-1,-2.298433632E-1,7.800309181E0
2.947810272E0,9.217676520E-1,-2.968810201E-1,7.929595947E0
2.949824662E0,9.624691010E-1,-3.351882398E-1,8.001421928E0
2.951809051E0,9.959878922E-1,-4.237737060E-1,8.147468567E0
2.953822517E0,1.022324085E0,-4.572925270E-1,8.216899872E0
2.955807752E0,1.079784989E0,-5.315127969E-1,8.360552788E0
2.957820681E0,1.139639974E0,-6.033388376E-1,8.508993149E0
2.959803531E0,1.170764685E0,-6.464344859E-1,8.585607529E0
2.961819228E0,1.252167463E0,-6.943184733E-1,8.748413086E0
2.963801694E0,1.319205165E0,-7.613561153E-1,8.872911453E0
2.965815468E0,1.357512355E0,-7.829039693E-1,8.918401718E0
2.967799780E0,1.424550056E0,-8.379706144E-1,9.004592896E0
2.969813708E0,1.496376038E0,-8.786720037E-1,9.078812599E0
2.971797713E0,1.527500629E0,-8.954314590E-1,9.124302864E0
2.973811179E0,1.606509328E0,-9.409212470E-1,9.205705643E0
2.975796722E0,1.654393315E0,-9.840168953E-1,9.275136948E0
2.977809342E0,1.680729628E0,-9.959878922E-1,9.306262016E0
2.979823269E0,1.728613615E0,-1.015141487E0,9.351752281E0
2.981806274E0,1.747767210E0,-1.031900883E0,9.337387085E0
2.983821048E0,1.790862918E0,-1.029506683E0,9.346963882E0
2.985805129E0,1.798045516E0,-1.022324085E0,9.368511200E0
2.987819519E0,1.817199111E0,-1.024718285E0,9.378087997E0
2.989802907E0,1.831564307E0,-1.029506683E0,9.402029991E0
2.991817374E0,1.850717902E0,-1.043871999E0,9.406818390E0
2.993801071E0,1.857900500E0,-1.055842996E0,9.411606789E0
2.995815921E0,1.845929503E0,-1.058237195E0,9.402029991E0
2.997798696E0,1.843535304E0,-1.070208192E0,9.370905876E0
2.999813162E0,1.838746905E0,-1.072602391E0,9.366117477E0
3.001796243E0,1.824381709E0,-1.079784989E0,9.366117477E0
3.003810710E0,1.802833915E0,-1.115697980E0,9.382876396E0
3.005793483E0,1.788468719E0,-1.132457376E0,9.414001465E0
3.007808257E0,1.764526606E0,-1.180341482E0,9.473855972E0
3.009822724E0,1.757344007E0,-1.240196466E0,9.521739960E0
3.011806651E0,1.759738207E0,-1.266532660E0,9.557653427E0
3.013820502E0,1.759738207E0,-1.326387763E0,9.619902611E0
3.015804892E0,1.762132406E0,-1.362300754E0,9.646238327E0
3.017818049E0,1.762132406E0,-1.422155857E0,9.701305389E0
3.019801824E0,1.783680320E0,-1.482010841E0,9.761159897E0
3.021815905E0,1.788468719E0,-1.498770237E0,9.777919769E0
3.023800525E0,1.802833915E0,-1.537077546E0,9.813833237E0
3.025814145E0,1.836352706E0,-1.572990537E0,9.832986832E0
3.027796919E0,1.845929503E0,-1.582567334E0,9.854534149E0
3.029811693E0,1.872265697E0,-1.596932530E0,9.907206535E0
3.031795698E0,1.896207690E0,-1.628057122E0,9.967061996E0
3.033809779E0,1.912967205E0,-1.630451322E0,9.993397713E0
3.035824861E0,1.944091797E0,-1.654393315E0,1.005325317E1
3.037807711E0,1.975216389E0,-1.687912226E0,1.011550236E1
3.039820870E0,1.982398987E0,-1.714248419E0,1.014902115E1
3.041806182E0,2.042253971E0,-1.759738207E0,1.019929886E1
3.043819417E0,2.099714994E0,-1.798045516E0,1.024000072E1
3.045802499E0,2.133233786E0,-1.829170108E0,1.025915432E1
3.047817196E0,2.195482969E0,-1.877054095E0,1.029027843E1
3.049800662E0,2.221819162E0,-1.900996208E0,1.032140350E1
3.051815129E0,2.281674147E0,-1.929726601E0,1.038365269E1
3.053798517E0,2.346317768E0,-1.970427990E0,1.042914295E1
3.055814522E0,2.389413357E0,-1.989581585E0,1.044590187E1
3.057796066E0,2.439691544E0,-2.015917778E0,1.047942066E1
3.059810147E0,2.487575531E0,-2.049436569E0,1.047702694E1
3.061823767E0,2.521094322E0,-2.049436569E0,1.045547867E1
3.063808003E0,2.559401512E0,-2.030282974E0,1.043871975E1
3.065822776E0,2.578555346E0,-2.044648170E0,1.040998936E1
3.067805627E0,2.602497339E0,-2.039859772E0,1.039083576E1
3.069820093E0,2.612074137E0,-2.037465572E0,1.036689377E1
3.071803713E0,2.619256735E0,-2.037465572E0,1.032379818E1
3.073818257E0,2.616862535E0,-2.027888775E0,1.029985619E1
3.075803491E0,2.595314741E0,-2.018311977E0,1.022563553E1
3.077816650E0,2.580949545E0,-2.047042370E0,1.016338634E1
3.079798808E0,2.566584110E0,-2.066195965E0,1.014423275E1
3.081814198E0,2.533065319E0,-2.092532396E0,1.012986755E1
3.083796664E0,2.511517525E0,-2.109291792E0,1.012986755E1
3.085811207E0,2.504334927E0,-2.142810583E0,1.012507915E1
3.087794904E0,2.470816135E0,-2.169146776E0,1.011310768E1
3.089808986E0,2.463633537E0,-2.190694571E0,1.011789608E1
3.091823221E0,2.439691544E0,-2.233790159E0,1.012268448E1
3.093807456E0,2.418143749E0,-2.269703150E0,1.015141487E1
3.095822230E0,2.410961151E0,-2.296039343E0,1.016099167E1
3.097805004E0,2.403778553E0,-2.360682964E0,1.018732834E1
3.099819163E0,2.430114746E0,-2.394201756E0,1.024000072E1
3.101801398E0,2.420537949E0,-2.427720547E0,1.027351952E1
3.103817095E0,2.403778553E0,-2.499546528E0,1.031900978E1
3.105801100E0,2.420537949E0,-2.535459518E0,1.035971069E1
3.107813412E0,2.410961151E0,-2.549824715E0,1.039083576E1
3.109798955E0,2.398990154E0,-2.578555346E0,1.045547867E1
3.111812805E0,2.391807556E0,-2.604891539E0,1.054166985E1
3.113795579E0,2.387019157E0,-2.636016130E0,1.058476543E1
3.115811507E0,2.370259762E0,-2.700659513E0,1.064701462E1
3.117793973E0,2.367865562E0,-2.715024710E0,1.067574501E1
3.119808132E0,2.346317768E0,-2.765302896E0,1.072602367E1
3.121822906E0,2.334346771E0,-2.789244890E0,1.077390766E1
3.123806295E0,2.331952572E0,-2.815581083E0,1.080263805E1
3.125819838E0,2.334346771E0,-2.873042107E0,1.087925243E1
3.127803842E0,2.351106167E0,-2.928108692E0,1.091755962E1
3.129818078E0,2.365471363E0,-2.959233284E0,1.094389629E1
3.131801083E0,2.384624958E0,-2.995146275E0,1.096783829E1
3.133816241E0,2.384624958E0,-3.059789658E0,1.098938560E1
3.135799323E0,2.382230759E0,-3.090914488E0,1.100135708E1
3.137813405E0,2.387019157E0,-3.114856482E0,1.102290440E1
3.139796870E0,2.401384354E0,-3.153163671E0,1.102769279E1
3.141808260E0,2.408566952E0,-3.169923067E0,1.103008747E1
3.143825187E0,2.420537949E0,-3.186682463E0,1.102051067E1
3.145808884E0,2.425326347E0,-3.198653460E0,1.100614548E1
3.147823274E0,2.420537949E0,-3.201047659E0,1.096783829E1
3.149807355E0,2.408566952E0,-3.208230257E0,1.091995430E1
3.151820898E0,2.403778553E0,-3.213018656E0,1.087925243E1
3.153804287E0,2.427720547E0,-3.234566450E0,1.081460953E1
3.155820292E0,2.420537949E0,-3.236960649E0,1.071884060E1
3.157802681E0,2.410961151E0,-3.256114244E0,1.066616821E1
3.159816301E0,2.398990154E0,-3.282450438E0,1.056800652E1
3.161800306E0,2.372653961E0,-3.280056238E0,1.044829655E1
3.163815003E0,2.353500366E0,-3.287238836E0,1.038125896E1
3.165798700E0,2.319981337E0,-3.275267839E0,1.022802925E1
3.167811628E0,2.300827742E0,-3.265691042E0,1.006522369E1
3.169796247E0,2.281674147E0,-3.256114244E0,9.998186111E0
3.171809867E0,2.238578558E0,-3.256114244E0,9.847352028E0
3.173824565E0,2.195482969E0,-3.232172251E0,9.710882187E0
3.175809569E0,2.176329374E0,-3.215412855E0,9.660603523E0
3.177822189E0,2.126051188E0,-3.191470861E0,9.569623947E0
3.179805579E0,2.092532396E0,-3.186682463E0,9.540893555E0
3.181819044E0,2.042253971E0,-3.177105665E0,9.545681953E0
3.183804280E0,1.994369984E0,-3.169923067E0,9.598354340E0
3.185818822E0,1.972822189E0,-3.160346270E0,9.631873131E0
3.187800674E0,1.939303398E0,-3.150769472E0,9.730035782E0
3.189815679E0,1.900996208E0,-3.169923067E0,9.813833237E0
3.191799375E0,1.879448295E0,-3.186682463E0,9.861717224E0
3.193814149E0,1.836352706E0,-3.203441858E0,9.909601212E0
3.195798154E0,1.793257117E0,-3.213018656E0,9.945513725E0
3.197810774E0,1.786074519E0,-3.220201254E0,9.955090523E0
3.199825856E0,1.786074519E0,-3.234566450E0,9.974244118E0
3.201810167E0,1.776497602E0,-3.234566450E0,9.986215591E0
3.203823711E0,1.759738207E0,-3.234566450E0,9.995792389E0
3.205807177E0,1.733402014E0,-3.241749048E0,1.001494598E1
3.207821027E0,1.709460020E0,-3.289633036E0,1.007001209E1
3.209804725E0,1.692700624E0,-3.308786631E0,1.009156036E1
3.211819499E0,1.680729628E0,-3.335123062E0,1.015859795E1
3.213801888E0,1.666364431E0,-3.371036053E0,1.017535686E1
3.215817969E0,1.654393315E0,-3.459621429E0,1.020169353E1
3.217800666E0,1.640028119E0,-3.536235809E0,1.019451046E1
3.219814209E0,1.637633920E0,-3.576937437E0,1.019211674E1
3.221797676E0,1.663970232E0,-3.696647406E0,1.017056847E1
3.223811834E0,1.692700624E0,-3.794809580E0,1.012507915E1
3.225796069E0,1.709460020E0,-3.861847401E0,1.009874249E1
3.227809689E0,1.771709204E0,-4.003105164E0,1.004846478E1
3.229823848E0,1.819593310E0,-4.110844135E0,9.979032516E0
3.231806930E0,1.843535304E0,-4.168305397E0,9.952696800E0
3.233822549E0,1.910573006E0,-4.285621166E0,9.888052940E0
3.235806862E0,1.965639591E0,-4.378994942E0,9.811438560E0
3.237819251E0,1.999158382E0,-4.426878929E0,9.789890289E0
3.239802640E0,2.054224968E0,-4.503493309E0,9.744400978E0
3.241818030E0,2.075772762E0,-4.553771496E0,9.662998199E0
3.243801110E0,2.128445387E0,-4.572925091E0,9.615114212E0
3.245815577E0,2.159569979E0,-4.608838081E0,9.524134636E0
3.247798967E0,2.176329374E0,-4.625597477E0,9.471462250E0
3.249813124E0,2.185906172E0,-4.647145271E0,9.399636269E0
3.251797360E0,2.209848166E0,-4.642356873E0,9.337387085E0
3.253811211E0,2.212242365E0,-4.635174274E0,9.299078941E0
3.255795523E0,2.193088770E0,-4.642356873E0,9.241618156E0
3.257808836E0,2.169146776E0,-4.599261284E0,9.203310966E0
3.259823224E0,2.164358377E0,-4.572925091E0,9.196128845E0
3.261806614E0,2.130839586E0,-4.548983097E0,9.200917244E0
3.263822004E0,2.118868589E0,-4.498704910E0,9.193734169E0
3.265804777E0,2.116474390E0,-4.481945515E0,9.198522568E0
3.267818013E0,2.102109194E0,-4.441244125E0,9.196128845E0
3.269802710E0,2.066195965E0,-4.371812344E0,9.176975250E0
3.271816483E0,2.066195965E0,-4.347870350E0,9.162610054E0
3.273800873E0,2.075772762E0,-4.280832767E0,9.126696587E0
3.275815338E0,2.075772762E0,-4.235342979E0,9.088389397E0
3.277798728E0,2.099714994E0,-4.213795185E0,9.085995674E0
3.279811887E0,2.116474390E0,-4.187458992E0,9.095572472E0
3.281796275E0,2.116474390E0,-4.177882195E0,9.114726067E0
3.283809819E0,2.140416384E0,-4.187458992E0,9.143456459E0
3.285823901E0,2.154781580E0,-4.189853191E0,9.203310966E0
3.287807905E0,2.159569979E0,-4.185064793E0,9.229647636E0
3.289821525E0,2.149993181E0,-4.220977783E0,9.270348549E0
3.291805452E0,2.138022184E0,-4.266467571E0,9.294290543E0
3.293819611E0,2.130839586E0,-4.295197964E0,9.306262016E0
3.295804539E0,2.128445387E0,-4.359841347E0,9.325415611E0
3.297818389E0,2.114080191E0,-4.462791920E0,9.354146004E0
3.299800933E0,2.111685991E0,-4.520252705E0,9.368511200E0
3.301812245E0,2.106897593E0,-4.627991676E0,9.404424667E0
3.303799019E0,2.092532396E0,-4.730942726E0,9.425971985E0
3.305813178E0,2.082955360E0,-4.783615112E0,9.433155060E0
3.307796566E0,2.094926596E0,-4.900930882E0,9.433155060E0
3.309811648E0,2.094926596E0,-4.965574265E0,9.435548782E0
3.311794422E0,2.116474390E0,-5.090072632E0,9.440337181E0
3.313808657E0,2.114080191E0,-5.207388878E0,9.411606789E0
3.315823662E0,2.111685991E0,-5.267243862E0,9.399636269E0
3.317806820E0,2.152387381E0,-5.365406036E0,9.368511200E0
3.319820979E0,2.171540976E0,-5.458779812E0,9.315838814E0
3.321805830E0,2.173935175E0,-5.506663799E0,9.294290543E0
3.323818834E0,2.188300371E0,-5.580883980E0,9.220070839E0
3.325802224E0,2.202665567E0,-5.667075634E0,9.150638580E0
3.327816383E0,2.212242365E0,-5.698200226E0,9.117119789E0
3.329800310E0,2.243366957E0,-5.765237808E0,9.054870605E0
3.331814469E0,2.260126352E0,-5.825092793E0,8.961497307E0
3.333797242E0,2.264914751E0,-5.849034786E0,8.904036522E0
3.335813247E0,2.269703150E0,-5.901707172E0,8.793902397E0
3.337796098E0,2.286462545E0,-5.954379559E0,8.676587105E0
3.339810256E0,2.281674147E0,-5.971138954E0,8.611943245E0
3.341823107E0,2.279279947E0,-6.009446144E0,8.506598473E0
3.343808650E0,2.279279947E0,-6.030993938E0,8.461109161E0
3.345823193E0,2.262520552E0,-6.016628742E0,8.358158112E0
3.347804736E0,2.248155355E0,-6.002263546E0,8.226476669E0
3.349820433E0,2.248155355E0,-5.985504150E0,8.178592682E0
3.351803745E0,2.255337954E0,-5.968744755E0,8.101978302E0
3.353816673E0,2.231395960E0,-5.930437565E0,8.030152321E0
3.355802216E0,2.229001760E0,-5.906495571E0,8.003816605E0
3.357814836E0,2.229001760E0,-5.872976780E0,7.946355343E0
3.359799225E0,2.209848166E0,-5.822698593E0,7.920019150E0
3.361813615E0,2.197877169E0,-5.793968201E0,7.917624950E0
3.363796696E0,2.181117773E0,-5.705382824E0,7.917624950E0
3.365810547E0,2.188300371E0,-5.628767967E0,7.917624950E0
3.367825321E0,2.188300371E0,-5.604825974E0,7.912836552E0
3.369809403E0,2.197877169E0,-5.518634796E0,7.884106159E0
3.371822561E0,2.224213362E0,-5.439626217E0,7.862558365E0
3.373806027E0,2.214636564E0,-5.398924828E0,7.850587368E0
3.375821340E0,2.217030764E0,-5.303156853E0,7.831433773E0
3.377804113E0,2.236184359E0,-5.267243862E0,7.821856976E0
3.379818349E0,2.272097349E0,-5.197812080E0,7.802703381E0
3.381801353E0,2.327163935E0,-5.128379822E0,7.785943985E0
3.383815819E0,2.343923569E0,-5.097255230E0,7.778761387E0
3.385800209E0,2.384624958E0,-5.056553841E0,7.769184589E0
3.387813751E0,2.442085743E0,-5.025429249E0,7.762001991E0
3.389797756E0,2.468421936E0,-5.025429249E0,7.752425194E0
3.391811837E0,2.513911724E0,-5.027823448E0,7.709329605E0
3.393794996E0,2.554613113E0,-5.082890034E0,7.694964409E0
3.395810386E0,2.573766708E0,-5.121197224E0,7.682993412E0
3.397824236E0,2.619256735E0,-5.221754074E0,7.627926826E0
3.399808241E0,2.662352324E0,-5.353435040E0,7.565677166E0
3.401822092E0,2.676717520E0,-5.415684223E0,7.534552574E0
3.403805712E0,2.683900118E0,-5.568912983E0,7.479485989E0
3.405819255E0,2.686294317E0,-5.705382824E0,7.431602001E0
3.407803259E0,2.724601507E0,-5.760449409E0,7.422025204E0
3.409817726E0,2.753331900E0,-5.882553577E0,7.400477409E0
3.411800808E0,2.770091295E0,-5.947196960E0,7.388506413E0
3.413815350E0,2.777273893E0,-6.071695328E0,7.386112213E0
3.415800201E0,2.806004286E0,-6.179434776E0,7.386112213E0
3.417813514E0,2.817975283E0,-6.222530365E0,7.376535416E0
3.419796595E0,2.846705914E0,-6.296750546E0,7.354987621E0
3.421810677E0,2.880224705E0,-6.368576527E0,7.359776020E0
3.423825219E0,2.911349297E0,-6.406883717E0,7.371747017E0
3.425808532E0,2.944868088E0,-6.476315498E0,7.405265808E0
3.427821845E0,2.949656487E0,-6.526593685E0,7.467514992E0
3.429806772E0,2.956839085E0,-6.543353081E0,7.486668587E0
3.431821238E0,3.011905670E0,-6.574477673E0,7.505822182E0
3.433804550E0,3.033453465E0,-6.586448669E0,7.532158375E0
3.435819940E0,3.050212860E0,-6.584054470E0,7.527369976E0
3.437802175E0,3.078943491E0,-6.567295074E0,7.522581577E0
3.439815949E0,3.093308687E0,-6.548141479E0,7.532158375E0
3.441800338E0,3.117250681E0,-6.536170483E0,7.520187378E0
3.443813882E0,3.145981073E0,-6.490680695E0,7.501033783E0
3.445797886E0,3.153163671E0,-6.466738701E0,7.503427982E0
3.447811352E0,3.162740469E0,-6.418854713E0,7.517793179E0
3.449826511E0,3.201047659E0,-6.370970726E0,7.536946774E0
3.451809592E0,3.215412855E0,-6.347028732E0,7.536946774E0
3.453823443E0,3.236960649E0,-6.289567947E0,7.517793179E0
3.455807370E0,3.246537447E0,-6.253654957E0,7.455543995E0
3.457821529E0,3.265691042E0,-6.232107162E0,7.422025204E0
3.459805611E0,3.289633036E0,-6.205770969E0,7.343016624E0
3.461818538E0,3.315969467E0,-6.203376770E0,7.273584843E0
3.463803466E0,3.327940464E0,-6.205770969E0,7.242460251E0
3.465817316E0,3.313575268E0,-6.222530365E0,7.163451672E0
3.467800398E0,3.313575268E0,-6.251260757E0,7.117961884E0
3.469815403E0,3.308786631E0,-6.282385349E0,7.103596210E0
3.471798253E0,3.294421434E0,-6.344634533E0,7.072471619E0
3.473812720E0,3.287238836E0,-6.394912720E0,7.060500622E0
3.475798186E0,3.275267839E0,-6.497863293E0,7.036558628E0
3.477810883E0,3.258508444E0,-6.584054470E0,6.995857239E0
3.479824349E0,3.253720045E0,-6.634333134E0,6.971915245E0
3.481808969E0,3.232172251E0,-6.727706909E0,6.967126846E0
3.483823128E0,3.220201254E0,-6.816292286E0,7.000645638E0
3.485805902E0,3.208230257E0,-6.868964672E0,7.010222435E0
3.487820060E0,3.201047659E0,-6.976703644E0,7.022193432E0
3.489803757E0,3.169923067E0,-7.058106422E0,7.010222435E0
3.491817993E0,3.167528868E0,-7.086836815E0,7.005434036E0
3.493801304E0,3.167528868E0,-7.146692276E0,6.983886242E0
3.495816694E0,3.177105665E0,-7.194576263E0,6.962338448E0
3.497800160E0,3.191470861E0,-7.228095055E0,6.955155849E0
3.499813934E0,3.203441858E0,-7.273584843E0,6.945579052E0
3.501797323E0,3.213018656E0,-7.311892033E0,6.950367451E0
3.503811558E0,3.224989653E0,-7.340622425E0,6.955155849E0
3.505826563E0,3.256114244E0,-7.390900612E0,6.962338448E0
3.507808414E0,3.265691042E0,-7.414842606E0,6.974309444E0
3.509823495E0,3.272873640E0,-7.450755596E0,7.012616634E0
3.511807577E0,3.282450438E0,-7.460332394E0,7.058106422E0
3.513822658E0,3.277662039E0,-7.460332394E0,7.089231014E0
3.515806894E0,3.251325846E0,-7.441178799E0,7.146692276E0
3.517819514E0,3.270479441E0,-7.400477409E0,7.184999466E0
3.519802672E0,3.275267839E0,-7.386112213E0,7.201758862E0
3.521817677E0,3.236960649E0,-7.357381821E0,7.242460251E0
3.523801066E0,3.201047659E0,-7.311892033E0,7.287950039E0
3.525814994E0,3.184288263E0,-7.290344238E0,7.297526836E0
3.527798614E0,3.155557871E0,-7.230489254E0,7.292738438E0
3.529812772E0,3.117250681E0,-7.177816868E0,7.309497833E0
3.531795623E0,3.095702887E0,-7.165845871E0,7.321468830E0
3.533811013E0,3.055001259E0,-7.144298077E0,7.350199223E0
3.535824786E0,3.026270866E0,-7.096413612E0,7.369352818E0
3.537808560E0,2.964021683E0,-7.077260017E0,7.376535416E0
3.539822641E0,2.904166698E0,-7.055712223E0,7.376535416E0
3.541805492E0,2.896984100E0,-7.062894821E0,7.378929615E0
3.543820267E0,2.865859509E0,-7.067683220E0,7.376535416E0
3.545804501E0,2.829946518E0,-7.050923824E0,7.357381821E0
3.547818045E0,2.815581083E0,-7.038952827E0,7.340622425E0
3.549801819E0,2.779668093E0,-7.022193432E0,7.268796444E0
3.551815900E0,2.762908697E0,-7.003039837E0,7.220912457E0
3.553799905E0,2.758120298E0,-7.003039837E0,7.194576263E0
3.555814063E0,2.753331900E0,-6.969521046E0,7.184999466E0
3.557797530E0,2.734178305E0,-6.964732647E0,7.199364662E0
3.559812227E0,2.726995707E0,-6.969521046E0,7.206547260E0
3.561796308E0,2.693476915E0,-6.971915245E0,7.199364662E0
3.563808928E0,2.671929121E0,-7.005434036E0,7.184999466E0
3.565823010E0,2.669534922E0,-7.036558628E0,7.165845871E0
3.567807091E0,2.662352324E0,-7.072471619E0,7.156269073E0
3.569821173E0,2.657563925E0,-7.129932880E0,7.151480675E0
3.571804562E0,2.659958124E0,-7.163451672E0,7.151480675E0
3.573819028E0,2.686294317E0,-7.230489254E0,7.175422668E0
3.575803033E0,2.686294317E0,-7.275979042E0,7.189787865E0
3.577816652E0,2.693476915E0,-7.371747017E0,7.220912457E0
3.579800350E0,2.719813108E0,-7.462726593E0,7.247248650E0
3.581814201E0,2.731784105E0,-7.489062786E0,7.249642849E0
3.583798820E0,2.767697096E0,-7.563282967E0,7.242460251E0
3.585812595E0,2.786850691E0,-7.630321026E0,7.232883453E0
3.587795676E0,2.801215887E0,-7.649474621E0,7.225700855E0
3.589810142E0,2.846705914E0,-7.690176010E0,7.223306656E0
3.591824609E0,2.894589901E0,-7.716512203E0,7.223306656E0
3.593808305E0,2.913743496E0,-7.730877399E0,7.211335659E0
3.595822771E0,2.968810081E0,-7.754819393E0,7.170634270E0
3.597805622E0,3.033453465E0,-7.752425194E0,7.110779285E0
3.599820088E0,3.050212860E0,-7.750030994E0,7.084442616E0
3.601804093E0,3.090914488E0,-7.752425194E0,7.034164429E0
3.603817636E0,3.110068083E0,-7.742848396E0,7.007828236E0
3.605801564E0,3.150769472E0,-7.733271599E0,6.947973251E0
3.607815492E0,3.169923067E0,-7.726089001E0,6.885724068E0
3.609798803E0,3.181894064E0,-7.730877399E0,6.842628479E0
3.611813347E0,3.193865061E0,-7.723694801E0,6.773196697E0
3.613797889E0,3.184288263E0,-7.711723804E0,6.706159115E0
3.615812048E0,3.189076662E0,-7.690176010E0,6.670246124E0
3.617824976E0,3.186682463E0,-7.649474621E0,6.600813866E0
3.619809365E0,3.189076662E0,-7.637503624E0,6.531382084E0
3.621819832E0,3.186682463E0,-7.635109425E0,6.493074894E0
3.623806298E0,3.169923067E0,-7.596801758E0,6.438008308E0
3.625821379E0,3.153163671E0,-7.544129372E0,6.382941723E0
3.627805307E0,3.138798475E0,-7.539340973E0,6.349422932E0
3.629819234E0,3.134010077E0,-7.503427982E0,6.291962147E0
3.631802316E0,3.126827478E0,-7.443572998E0,6.241683960E0
3.633817013E0,3.086126089E0,-7.417236805E0,6.224924564E0
3.635800787E0,3.043030262E0,-7.366958618E0,6.189011574E0
3.637814869E0,3.033453465E0,-7.326257229E0,6.179434776E0
3.639798258E0,3.028665066E0,-7.228095055E0,6.165069580E0
3.641814262E0,3.019088268E0,-7.110779285E0,6.136339188E0
3.643796498E0,3.009511471E0,-7.048529625E0,6.129156113E0
3.645809733E0,2.999934673E0,-6.943184853E0,6.121973515E0
3.647825045E0,3.016694069E0,-6.818686485E0,6.100425720E0
3.649807897E0,3.021482468E0,-6.763619900E0,6.100425720E0
3.651821978E0,3.028665066E0,-6.663063526E0,6.124367714E0
3.653805675E0,3.052607059E0,-6.607996464E0,6.169857979E0
3.655821449E0,3.076549292E0,-6.574477673E0,6.196194172E0
3.657803530E0,3.122039080E0,-6.555324078E0,6.253654957E0
3.659817689E0,3.186682463E0,-6.586448669E0,6.299144745E0
3.661800847E0,3.227383852E0,-6.619967937E0,6.318298340E0
3.663816467E0,3.299209833E0,-6.710947514E0,6.332663536E0
3.665799318E0,3.337517262E0,-6.837840080E0,6.342240334E0
3.667812784E0,3.406949043E0,-6.926425457E0,6.337451935E0
3.669797404E0,3.471592426E0,-7.108384609E0,6.301538944E0
3.671811639E0,3.512293816E0,-7.206547260E0,6.284779549E0
3.673826029E0,3.588908434E0,-7.386112213E0,6.256049156E0
3.675810726E0,3.679888010E0,-7.565677166E0,6.263231754E0
3.677822961E0,3.722983599E0,-7.654263020E0,6.265625954E0
3.679807043E0,3.809175014E0,-7.817068577E0,6.251260757E0
3.681820894E0,3.890577793E0,-7.946355343E0,6.224924564E0
3.683804898E0,3.938461781E0,-8.006210327E0,6.203376770E0
3.685818672E0,4.046200752E0,-8.075642586E0,6.191405773E0
3.687802676E0,4.161122322E0,-8.113949776E0,6.181828976E0
3.689816912E0,4.199429989E0,-8.135497093E0,6.169857979E0
3.691800532E0,4.307168961E0,-8.166622162E0,6.150704384E0
3.693814690E0,4.414907932E0,-8.161833763E0,6.124367714E0
3.695799387E0,4.453215122E0,-8.154650688E0,6.107608318E0
3.697812315E0,4.541800499E0,-8.159439087E0,6.062118530E0
3.699796242E0,4.587290287E0,-8.157045364E0,6.030993938E0
3.701810786E0,4.666299343E0,-8.161833763E0,5.963956356E0
3.703824251E0,4.721365929E0,-8.152256966E0,5.884947777E0
3.705808026E0,4.752490520E0,-8.152256966E0,5.841852188E0
3.707822108E0,4.786009312E0,-8.166622162E0,5.743690014E0
3.709806112E0,4.802768707E0,-8.185775757E0,5.650316238E0
3.711819040E0,4.802768707E0,-8.192957878E0,5.602431774E0
3.713803122E0,4.797980309E0,-8.207323074E0,5.504269600E0
3.715819356E0,4.733336926E0,-8.216899872E0,5.415684223E0
3.717800592E0,4.707000732E0,-8.209717751E0,5.365406036E0
3.719816596E0,4.639962673E0,-8.178592682E0,5.264849663E0
3.721799370E0,4.553771496E0,-8.149862289E0,5.195417881E0
3.723813837E0,4.505887508E0,-8.128314972E0,5.171475887E0
3.725796995E0,4.414907932E0,-8.070854187E0,5.137956619E0
3.727811077E0,4.307168961E0,-8.010998726E0,5.111620426E0
3.729825851E0,4.254496574E0,-7.972691536E0,5.111620426E0
3.731808932E0,4.139574528E0,-7.893682957E0,5.109226227E0
3.733823168E0,4.091690540E0,-7.829039574E0,5.116408825E0
3.735807479E0,4.015076160E0,-7.809885979E0,5.133168221E0
3.737821946E0,3.933673382E0,-7.742848396E0,5.147533417E0
3.739804720E0,3.892971992E0,-7.711723804E0,5.152322292E0
3.741818493E0,3.835511208E0,-7.682993412E0,5.166687489E0
3.743803191E0,3.768473387E0,-7.680599213E0,5.195417881E0
3.745817350E0,3.758896589E0,-7.682993412E0,5.221754074E0
3.747799815E0,3.737348795E0,-7.721300602E0,5.279214859E0
3.749814897E0,3.713406801E0,-7.781155586E0,5.346252441E0
3.751797670E0,3.703830004E0,-7.824251175E0,5.374982834E0
3.753813291E0,3.694253206E0,-7.953537941E0,5.398924828E0
3.755796680E0,3.701435804E0,-8.058882713E0,5.420472622E0
3.757810223E0,3.713406801E0,-8.113949776E0,5.451597214E0
3.759824689E0,3.730166197E0,-8.281543732E0,5.487510204E0
3.761808386E0,3.749319792E0,-8.420407295E0,5.535394192E0
3.763821621E0,3.763684988E0,-8.482656479E0,5.561730385E0
3.765806242E0,3.816357613E0,-8.609549522E0,5.604825974E0
3.767819784E0,3.837905407E0,-8.659827232E0,5.619191170E0
3.769803174E0,3.871424198E0,-8.746018410E0,5.612008572E0
3.771817640E0,3.938461781E0,-8.815450668E0,5.621585369E0
3.773801337E0,3.974374771E0,-8.844181061E0,5.635950565E0
3.775815880E0,4.015076160E0,-8.892065048E0,5.659893036E0
3.777799576E0,4.084507942E0,-8.906430244E0,5.671864033E0
3.779813658E0,4.108449936E0,-8.906430244E0,5.674258232E0
3.781796202E0,4.165910721E0,-8.918401718E0,5.640739441E0
3.783810283E0,4.213795185E0,-8.904036522E0,5.597643375E0
3.785825749E0,4.232948780E0,-8.892065048E0,5.576095581E0
3.787808754E0,4.264073372E0,-8.872911453E0,5.528211594E0
3.789823835E0,4.302380562E0,-8.858546257E0,5.489904404E0
3.791806994E0,4.316745758E0,-8.841787338E0,5.453991413E0
3.793821152E0,4.326322556E0,-8.815450668E0,5.386953831E0
3.795805772E0,4.326322556E0,-8.784325600E0,5.293580055E0
3.797818700E0,4.323928356E0,-8.762778282E0,5.252878666E0
3.799801704E0,4.338293552E0,-8.746018410E0,5.157110691E0
3.801817094E0,4.331110954E0,-8.734047890E0,5.118803024E0
3.803800175E0,4.302380562E0,-8.710105896E0,5.023035049E0
3.805813488E0,4.278438568E0,-8.707711220E0,4.932055473E0
3.807797723E0,4.273650169E0,-8.702922821E0,4.891354084E0
3.809812266E0,4.242525578E0,-8.657433510E0,4.781220913E0
3.811826040E0,4.225766182E0,-8.655038834E0,4.678270340E0
3.813810353E0,4.211400986E0,-8.643068314E0,4.632780075E0
3.815824895E0,4.180276394E0,-8.602366447E0,4.537012100E0
3.817807977E0,4.141968727E0,-8.537723541E0,4.450820923E0
3.819821828E0,4.113238335E0,-8.520963669E0,4.410119534E0
3.821805140E0,4.079719543E0,-8.489839554E0,4.316745758E0
3.823820299E0,4.058171749E0,-8.429984093E0,4.235342979E0
3.825803918E0,4.050989151E0,-8.391676903E0,4.194641590E0
3.827817462E0,4.005499363E0,-8.346187592E0,4.110844135E0
3.829801544E0,3.981557369E0,-8.312667847E0,4.072536945E0
3.831815394E0,3.957615376E0,-8.298302650E0,3.995922565E0
3.833799091E0,3.924096584E0,-8.271966934E0,3.933673382E0
3.835813864E0,3.907337189E0,-8.257601738E0,3.909731388E0
3.837797177E0,3.883395195E0,-8.250418663E0,3.881000996E0
3.839811028E0,3.866635799E0,-8.243236542E0,3.837905407E0
3.841825263E0,3.859453201E0,-8.243236542E0,3.823540211E0
3.843808268E0,3.842693806E0,-8.264783859E0,3.799597979E0
3.845822427E0,3.825934410E0,-8.305485725E0,3.818751812E0
3.847807123E0,3.816357613E0,-8.343792915E0,3.823540211E0
3.849820051E0,3.821146011E0,-8.422801971E0,3.854664803E0
3.851804671E0,3.821146011E0,-8.528146744E0,3.895366192E0
3.853819060E0,3.830722809E0,-8.573636055E0,3.916913986E0
3.855803450E0,3.859453201E0,-8.667010307E0,3.979163170E0
3.857816916E0,3.869029999E0,-8.801085472E0,4.027047157E0
3.859800074E0,3.883395195E0,-8.863334656E0,4.046200752E0
3.861813926E0,3.914519787E0,-8.980650902E0,4.065354347E0
3.863798468E0,3.943250179E0,-9.028534889E0,4.082113743E0
3.865811473E0,4.000710964E0,-9.114726067E0,4.141968727E0
3.867825939E0,4.086902142E0,-9.188945770E0,4.187458992E0
3.869809328E0,4.118026733E0,-9.232041359E0,4.209006786E0
3.871823718E0,4.218583584E0,-9.272743225E0,4.273650169E0
3.873807722E0,4.333505154E0,-9.311050415E0,4.319139957E0
3.875822496E0,4.381389141E0,-9.320627213E0,4.333505154E0
3.877805347E0,4.479551315E0,-9.318233490E0,4.331110954E0
3.879820044E0,4.592078686E0,-9.315838814E0,4.316745758E0
3.881803125E0,4.635174274E0,-9.299078941E0,4.304774761E0
3.883817591E0,4.707000732E0,-9.282320023E0,4.292803764E0
3.885801288E0,4.762067318E0,-9.263166428E0,4.283226967E0
3.887815524E0,4.781220913E0,-9.255983353E0,4.271255970E0
3.889799143E0,4.819528103E0,-9.234436035E0,4.230554581E0
3.891812687E0,4.845864296E0,-9.200917244E0,4.170699596E0
3.893827153E0,4.855441093E0,-9.196128845E0,4.137180328E0
3.895811542E0,4.850652695E0,-9.196128845E0,4.070142746E0
3.897826009E0,4.848258495E0,-9.186552048E0,4.027047157E0
3.899808705E0,4.824316502E0,-9.176975250E0,3.971980572E0
3.901823479E0,4.776432514E0,-9.167398453E0,3.916913986E0
3.903807176E0,4.757278919E0,-9.162610054E0,3.883395195E0
3.905821334E0,4.707000732E0,-9.165003777E0,3.806780815E0
3.907803801E0,4.630385876E0,-9.162610054E0,3.734954596E0
3.909818882E0,4.596867085E0,-9.157821655E0,3.708618402E0
3.911801733E0,4.525041103E0,-9.136273384E0,3.646369219E0
3.913815584E0,4.441244125E0,-9.121908188E0,3.593696833E0
3.915801127E0,4.398148537E0,-9.109937668E0,3.557783842E0
3.917814285E0,4.311957359E0,-9.095572472E0,3.507505417E0
3.919797983E0,4.240131378E0,-9.085995674E0,3.454833031E0
3.921813064E0,4.201824188E0,-9.078812599E0,3.426102638E0
3.923795530E0,4.125209332E0,-9.059659004E0,3.375824451E0
3.925809765E0,4.084507942E0,-9.026140213E0,3.342305660E0
3.927823924E0,3.986345768E0,-9.011775017E0,3.315969467E0
3.929807852E0,3.897760391E0,-8.987833023E0,3.265691042E0
3.931821779E0,3.861847401E0,-8.966285706E0,3.239354849E0
3.933806092E0,3.804386616E0,-8.916007042E0,3.201047659E0
3.935820251E0,3.742137194E0,-8.892065048E0,3.145981073E0
3.937803947E0,3.706224203E0,-8.880094528E0,3.122039080E0
3.939816875E0,3.624821424E0,-8.860940933E0,3.093308687E0
3.941800187E0,3.569754839E0,-8.836998940E0,3.078943491E0
3.943815038E0,3.541024208E0,-8.834604263E0,3.078943491E0
3.945798658E0,3.471592426E0,-8.829815865E0,3.081337690E0
3.947812585E0,3.397372246E0,-8.813055992E0,3.062183857E0
3.949827052E0,3.361459255E0,-8.815450668E0,3.052607059E0
3.951811288E0,3.303998232E0,-8.827422142E0,3.050212860E0
3.953824599E0,3.239354849E0,-8.853757858E0,3.026270866E0
3.955808912E0,3.213018656E0,-8.872911453E0,3.035847664E0
3.957823070E0,3.162740469E0,-8.889671326E0,3.055001259E0
3.959806152E0,3.122039080E0,-8.906430244E0,3.074155092E0
3.961821234E0,3.071760893E0,-8.935160637E0,3.114856482E0
3.963803622E0,3.019088268E0,-8.992621422E0,3.165134668E0
3.965818473E0,2.999934673E0,-9.018958092E0,3.196259260E0
3.967801477E0,2.999934673E0,-9.074024200E0,3.253720045E0
3.969815713E0,3.014299870E0,-9.141061783E0,3.325546265E0
3.971799949E0,3.023876667E0,-9.167398453E0,3.351882458E0
3.973814107E0,3.050212860E0,-9.227252960E0,3.423708439E0
3.975798497E0,3.088520288E0,-9.294290543E0,3.478775024E0
3.977811732E0,3.114856482E0,-9.323021889E0,3.483563423E0
3.979825813E0,3.210624456E0,-9.339780807E0,3.483563423E0
3.981808972E0,3.311181068E0,-9.342175484E0,3.473986626E0
3.983824668E0,3.368641853E0,-9.346963882E0,3.471592426E0
3.985807981E0,3.493140221E0,-9.349357605E0,3.462015629E0
3.987820371E0,3.615244627E0,-9.339780807E0,3.457227230E0
3.989805298E0,3.663128614E0,-9.337387085E0,3.452438831E0
3.991819072E0,3.756502390E0,-9.315838814E0,3.452438831E0
3.993803385E0,3.804386616E0,-9.275136948E0,3.442862034E0
3.995818466E0,3.904942989E0,-9.248801231E0,3.418920040E0
3.997801240E0,3.993528366E0,-9.203310966E0,3.349488258E0
3.999814244E0,4.034229755E0,-9.188945770E0,3.327940464E0
4.001799480E0,4.106055737E0,-9.153033257E0,3.287238836E0
4.003813331E0,4.170699596E0,-9.121908188E0,3.232172251E0
4.005796719E0,4.194641590E0,-9.114726067E0,3.208230257E0
4.007811417E0,4.254496574E0,-9.093177795E0,3.145981073E0
4.009824653E0,4.292803764E0,-9.069235802E0,3.074155092E0
4.011807810E0,4.309563160E0,-9.066842079E0,3.033453465E0
4.013821969E0,4.326322556E0,-9.038111687E0,2.954444885E0
4.015806819E0,4.328716755E0,-9.028534889E0,2.873042107E0
4.017821286E0,4.333505154E0,-9.018958092E0,2.849100113E0
4.019804368E0,4.338293552E0,-8.995016098E0,2.813186884E0
4.021815141E0,4.323928356E0,-8.983044624E0,2.741360903E0
4.023801300E0,4.316745758E0,-8.968679428E0,2.705447912E0
4.025815843E0,4.285621166E0,-8.947132111E0,2.650381327E0
4.027800078E0,4.271255970E0,-8.935160637E0,2.631227732E0
4.029813622E0,4.247313976E0,-8.889671326E0,2.576161146E0
4.031798010E0,4.213795185E0,-8.877699852E0,2.530671120E0
4.033811861E0,4.199429989E0,-8.858546257E0,2.516305923E0
4.035826866E0,4.177882195E0,-8.836998940E0,2.497152328E0
4.037809640E0,4.125209332E0,-8.834604263E0,2.494758129E0
4.039823491E0,4.108449936E0,-8.827422142E0,2.516305923E0
4.041807803E0,4.060565948E0,-8.839392662E0,2.557007313E0
4.043821654E0,4.027047157E0,-8.860940933E0,2.576161146E0
4.045804813E0,4.015076160E0,-8.872911453E0,2.588132143E0
4.047819509E0,3.969586372E0,-8.911218643E0,2.619256735E0
4.049802360E0,3.914519787E0,-8.959102631E0,2.655169725E0
4.051816827E0,3.888183594E0,-8.983044624E0,2.679111719E0
4.053800754E0,3.828328609E0,-9.047688484E0,2.719813108E0
4.055815605E0,3.758896589E0,-9.129091263E0,2.753331900E0
4.057798686E0,3.722983599E0,-9.165003777E0,2.777273893E0
4.059812768E0,3.646369219E0,-9.227252960E0,2.808398485E0
4.061826619E0,3.600879431E0,-9.246406555E0,2.822763920E0
4.063810700E0,3.517082214E0,-9.311050415E0,2.851494312E0
4.065825705E0,3.430891037E0,-9.346963882E0,2.887407303E0
4.067808248E0,3.392583847E0,-9.356540680E0,2.906560898E0
4.069822714E0,3.292027235E0,-9.373299599E0,2.966415882E0
4.071807026E0,3.186682463E0,-9.390059471E0,3.047818661E0
4.073820492E0,3.157952070E0,-9.387664795E0,3.083731890E0
4.075805189E0,3.093308687E0,-9.414001465E0,3.167528868E0
4.077818117E0,3.021482468E0,-9.416395187E0,3.213018656E0
4.079801737E0,2.999934673E0,-9.428366661E0,3.234566450E0
4.081816819E0,2.956839085E0,-9.445125580E0,3.275267839E0
4.083799670E0,2.908955097E0,-9.483432770E0,3.323152065E0
4.085813520E0,2.901772499E0,-9.507374763E0,3.335123062E0
4.087797448E0,2.887407303E0,-9.538499832E0,3.344699860E0
4.089811298E0,2.875436306E0,-9.550470352E0,3.359065056E0
4.091825457E0,2.904166698E0,-9.552865028E0,3.368641853E0
4.093809231E0,2.913743496E0,-9.579200745E0,3.361459255E0
4.095824312E0,2.925714493E0,-9.600749016E0,3.359065056E0
4.097808010E0,2.937685490E0,-9.607931137E0,3.344699860E0
4.099821245E0,2.956839085E0,-9.598354340E0,3.313575268E0
4.101804326E0,2.956839085E0,-9.598354340E0,3.292027235E0
4.103818716E0,2.966415882E0,-9.586383820E0,3.246537447E0
4.105802797E0,2.954444885E0,-9.583989143E0,3.215412855E0
4.107817186E0,2.954444885E0,-9.576807022E0,3.201047659E0
4.109800345E0,2.980781078E0,-9.574412346E0,3.167528868E0
4.111814503E0,2.973598480E0,-9.564835548E0,3.129221678E0
4.113798200E0,2.983175278E0,-9.557653427E0,3.107673883E0
4.115813898E0,2.971204281E0,-9.545681953E0,3.081337690E0
4.117796671E0,2.971204281E0,-9.531316757E0,3.047818661E0
4.119810753E0,2.975992680E0,-9.516951561E0,3.026270866E0
4.121825295E0,2.966415882E0,-9.495404243E0,2.987963676E0
4.123808300E0,2.973598480E0,-9.476250648E0,2.966415882E0
4.125822228E0,2.973598480E0,-9.476250648E0,2.920926094E0
4.127805848E0,2.985569477E0,-9.469067574E0,2.880224705E0
4.129819468E0,2.990357876E0,-9.461885452E0,2.863465309E0
4.131803780E0,3.002328873E0,-9.457097054E0,2.846705914E0
4.133818247E0,3.019088268E0,-9.442731857E0,2.798821688E0
4.135802559E0,3.014299870E0,-9.440337181E0,2.777273893E0
4.137816102E0,3.019088268E0,-9.437943459E0,2.748543501E0
4.139799184E0,3.033453465E0,-9.428366661E0,2.719813108E0
4.141812958E0,3.038241863E0,-9.428366661E0,2.710236311E0
4.143828423E0,3.026270866E0,-9.433155060E0,2.679111719E0
4.145812121E0,3.038241863E0,-9.433155060E0,2.669534922E0
4.147824740E0,3.038241863E0,-9.425971985E0,2.652775526E0
4.149809284E0,3.040636063E0,-9.402029991E0,2.604891539E0
4.151823135E0,3.040636063E0,-9.399636269E0,2.588132143E0
4.153806831E0,3.050212860E0,-9.397241592E0,2.571372509E0
4.155821990E0,3.052607059E0,-9.380482674E0,2.533065319E0
4.157804764E0,3.059789658E0,-9.382876396E0,2.528276920E0
4.159819230E0,3.069366693E0,-9.378087997E0,2.516305923E0
4.161803773E0,3.083731890E0,-9.375694275E0,2.513911724E0
4.163817316E0,3.081337690E0,-9.375694275E0,2.516305923E0
4.165800705E0,3.095702887E0,-9.380482674E0,2.518700123E0
4.167814556E0,3.126827478E0,-9.392453194E0,2.492363930E0
4.169798330E0,3.145981073E0,-9.402029991E0,2.482787132E0
4.171812719E0,3.157952070E0,-9.428366661E0,2.489969730E0
4.173826032E0,3.157952070E0,-9.464279175E0,2.497152328E0
4.175810882E0,3.167528868E0,-9.478644371E0,2.499546528E0
4.177824810E0,3.191470861E0,-9.550470352E0,2.523488522E0
4.179807814E0,3.196259260E0,-9.600749016E0,2.557007313E0
4.181818973E0,3.201047659E0,-9.627084732E0,2.566584110E0
4.183805363E0,3.189076662E0,-9.674968719E0,2.576161146E0
4.185819213E0,3.205836058E0,-9.725247383E0,2.571372509E0
