"Time (s)","Gyroscope x (rad/s)","Gyroscope y (rad/s)","Gyroscope z (rad/s)"
7.709932000E-3,6.963863969E-2,-5.668829679E-1,5.070181563E-2
9.815707000E-3,6.963863969E-2,-5.668829679E-1,5.070181563E-2
1.179909600E-2,6.963863969E-2,-5.668829679E-1,5.070181563E-2
1.381333100E-2,6.963863969E-2,-5.668829679E-1,5.070181563E-2
1.579764400E-2,6.963863969E-2,-5.668829679E-1,5.070181563E-2
1.781149500E-2,6.963863969E-2,-5.668829679E-1,5.070181563E-2
1.979480700E-2,6.963863969E-2,-5.668829679E-1,5.070181563E-2
2.180927300E-2,6.963863969E-2,-5.668829679E-1,5.070181563E-2
2.379174000E-2,6.963863969E-2,-5.668829679E-1,5.070181563E-2
2.580720500E-2,6.963863969E-2,-5.668829679E-1,5.070181563E-2
2.779028700E-2,6.963863969E-2,-5.668829679E-1,5.070181563E-2
2.980444500E-2,6.963863969E-2,-5.668829679E-1,5.070181563E-2
3.178875800E-2,6.963863969E-2,-5.668829679E-1,5.070181563E-2
3.380260900E-2,6.963863969E-2,-5.668829679E-1,5.070181563E-2
3.581822800E-2,6.963863969E-2,-5.668829679E-1,5.070181563E-2
3.780046400E-2,6.963863969E-2,-5.668829679E-1,5.070181563E-2
3.981462300E-2,6.963863969E-2,-5.668829679E-1,5.070181563E-2
4.179855000E-2,6.963863969E-2,-5.668829679E-1,5.070181563E-2
4.381301700E-2,6.963863969E-2,-5.668829679E-1,5.070181563E-2
4.579579000E-2,6.963863969E-2,-5.668829679E-1,5.070181563E-2
4.780971800E-2,6.963863969E-2,-5.668829679E-1,5.070181563E-2
4.979403100E-2,6.963863969E-2,-5.668829679E-1,5.070181563E-2
5.180780400E-2,6.963863969E-2,-5.668829679E-1,5.070181563E-2
5.379119300E-2,6.963863969E-2,-5.668829679E-1,5.070181563E-2
5.580727500E-2,6.963863969E-2,-5.668829679E-1,5.070181563E-2
5.778851000E-2,6.963863969E-2,-5.668829679E-1,5.070181563E-2
5.980359200E-2,6.963863969E-2,-5.668829679E-1,5.070181563E-2
6.181713400E-2,6.963863969E-2,-5.668829679E-1,5.070181563E-2
6.380198600E-2,6.963863969E-2,-5.668829679E-1,5.070181563E-2
6.581622100E-2,6.963863969E-2,-5.668829679E-1,5.070181563E-2
6.779830200E-2,6.963863969E-2,-5.668829679E-1,5.070181563E-2
6.981400000E-2,6.963863969E-2,-5.668829679E-1,5.070181563E-2
7.179738800E-2,-6.902777404E-2,-4.410447180E-1,3.622430861E-1
7.381070100E-2,-7.391469181E-2,-4.361577928E-1,3.762930036E-1
7.579616800E-2,-7.819075137E-2,-4.343251884E-1,3.933972120E-1
7.780855600E-2,-8.063421398E-2,-4.324925840E-1,3.982841372E-1
7.979279200E-2,-8.613199741E-2,-4.331034720E-1,4.159992337E-1
8.180756600E-2,-9.040805697E-2,-4.318817258E-1,4.251621962E-1
8.379095500E-2,-9.773843735E-2,-4.349360466E-1,4.422664344E-1
8.580457500E-2,-1.038470939E-1,-4.386012554E-1,4.581489265E-1
8.778765600E-2,-1.075122803E-1,-4.386012554E-1,4.642575979E-1
8.980235300E-2,-1.148426682E-1,-4.440990388E-1,4.819726646E-1
9.181689700E-2,-1.233947799E-1,-4.502076805E-1,4.960225821E-1
9.380028500E-2,-1.276708394E-1,-4.557054639E-1,5.021312237E-1
9.581506000E-2,-1.356120855E-1,-4.667010605E-1,5.186246037E-1
9.779783400E-2,-1.429424733E-1,-4.801400900E-1,5.314527750E-1
9.981199200E-2,-1.478293836E-1,-4.880813360E-1,5.381723046E-1
1.017956120E-1,-1.569923609E-1,-5.039638281E-1,5.497786999E-1
1.038089240E-1,-1.661553532E-1,-5.259549618E-1,5.619960427E-1
1.057937750E-1,-1.692096740E-1,-5.387831330E-1,5.674937963E-1
1.078073950E-1,-1.777617931E-1,-5.656611919E-1,5.772676468E-1
1.097913990E-1,-1.832595766E-1,-5.962044597E-1,5.809328556E-1
1.118058660E-1,-1.912008226E-1,-6.114761233E-1,5.943718553E-1
1.137892560E-1,-2.021963894E-1,-6.450737119E-1,6.017022729E-1
1.158052600E-1,-2.052507252E-1,-6.688974500E-1,6.096435189E-1
1.177868030E-1,-2.138028294E-1,-7.018841505E-1,6.169738770E-1
1.198009610E-1,-2.199114859E-1,-7.360926270E-1,6.255260110E-1
1.218156580E-1,-2.205223590E-1,-7.531968355E-1,6.298020482E-1
1.237990480E-1,-2.217440903E-1,-7.874053121E-1,6.365215778E-1
1.258129750E-1,-2.229658216E-1,-8.130616546E-1,6.401867867E-1
1.277966720E-1,-2.241875380E-1,-8.240572214E-1,6.420193911E-1
1.298113700E-1,-2.260201424E-1,-8.442157507E-1,6.450737119E-1
1.317951430E-1,-2.321287990E-1,-8.564330935E-1,6.407976151E-1
1.338089940E-1,-2.339613885E-1,-8.643743396E-1,6.401867867E-1
1.357933060E-1,-2.382374406E-1,-8.698720932E-1,6.365215778E-1
1.378064650E-1,-2.443460971E-1,-8.723155856E-1,6.298020482E-1
1.397899310E-1,-2.480112910E-1,-8.735373020E-1,6.273586154E-1
1.418037040E-1,-2.553416789E-1,-8.680394888E-1,6.224716902E-1
1.438191710E-1,-2.583959997E-1,-8.582656980E-1,6.151412725E-1
1.458030990E-1,-2.608394623E-1,-8.515461683E-1,6.114761233E-1
1.478154880E-1,-2.626720667E-1,-8.338310719E-1,6.078109145E-1
1.498004160E-1,-2.663372457E-1,-8.240572214E-1,6.035348773E-1
1.518141890E-1,-2.693915665E-1,-7.971791625E-1,5.986479521E-1
1.537985020E-1,-2.742784917E-1,-7.617489696E-1,5.949827433E-1
1.558133530E-1,-2.785545588E-1,-7.422012687E-1,5.949827433E-1
1.577957410E-1,-2.852740586E-1,-7.012733221E-1,5.937610269E-1
1.598099000E-1,-2.913827300E-1,-6.548475623E-1,5.913175344E-1
1.617939040E-1,-2.950479090E-1,-6.304129362E-1,5.937610269E-1
1.638074480E-1,-3.036000133E-1,-5.760459304E-1,5.986479521E-1
1.657918370E-1,-3.109304011E-1,-5.222898126E-1,6.035348773E-1
1.678059180E-1,-3.158173263E-1,-4.941899776E-1,6.084218025E-1
1.697890770E-1,-3.231477141E-1,-4.367686510E-1,6.175847650E-1
1.718034670E-1,-3.323107064E-1,-3.824016452E-1,6.285803318E-1
1.738167010E-1,-3.359758854E-1,-3.543018401E-1,6.346889734E-1
1.758023220E-1,-3.433062732E-1,-3.005456924E-1,6.462954283E-1
1.778154800E-1,-3.494149148E-1,-2.742784917E-1,6.554583907E-1
1.797986390E-1,-3.585779071E-1,-2.296853364E-1,6.670648456E-1
1.818081820E-1,-3.683517575E-1,-1.832595766E-1,6.817256212E-1
1.837964170E-1,-3.738495409E-1,-1.606575549E-1,6.853908300E-1
1.858106530E-1,-3.848451078E-1,-1.240056455E-1,6.933320761E-1
1.877949650E-1,-3.927863538E-1,-9.224065393E-2,7.031059265E-1
1.898093540E-1,-4.007275999E-1,-7.819075137E-2,7.067710757E-1
1.917924360E-1,-4.080579877E-1,-5.375614017E-2,7.147123218E-1
1.938065940E-1,-4.221078753E-1,-3.298672289E-2,7.165449262E-1
1.957919060E-1,-4.257730842E-1,-2.626720630E-2,7.189884186E-1
1.978045270E-1,-4.373795092E-1,-1.649336144E-2,7.226535678E-1
1.997878380E-1,-4.489859641E-1,-1.466076635E-2,7.208209634E-1
2.018023820E-1,-4.550946057E-1,-1.466076635E-2,7.214318514E-1
2.038159250E-1,-4.660901725E-1,-2.138028294E-2,7.220427394E-1
2.057996220E-1,-4.789183438E-1,-3.481931984E-2,7.214318514E-1
2.078140110E-1,-4.844161272E-1,-4.703662544E-2,7.232644558E-1
2.097980920E-1,-4.911356568E-1,-7.024950534E-2,7.214318514E-1
2.118116360E-1,-4.960225821E-1,-8.246681094E-2,7.208209634E-1
2.137952560E-1,-5.033529401E-1,-1.117883399E-1,7.189884186E-1
2.158103370E-1,-5.088507533E-1,-1.441642046E-1,7.141014934E-1
2.177940340E-1,-5.143485069E-1,-1.606575549E-1,7.141014934E-1
2.198075780E-1,-5.198463202E-1,-1.948660165E-1,7.086036801E-1
2.217901200E-1,-5.265658498E-1,-2.284636050E-1,7.043276429E-1
2.238057410E-1,-5.253441334E-1,-2.449569702E-1,7.000515461E-1
2.257894370E-1,-5.253441334E-1,-2.791654170E-1,6.945537925E-1
2.278032880E-1,-5.302310586E-1,-3.084869385E-1,6.829473376E-1
2.298174470E-1,-5.277875662E-1,-3.249803185E-1,6.786713004E-1
2.318009130E-1,-5.296201706E-1,-3.518583775E-1,6.701191664E-1
2.338153020E-1,-5.283984542E-1,-3.750712574E-1,6.615670323E-1
2.357996140E-1,-5.283984542E-1,-3.854559660E-1,6.566801667E-1
2.378128500E-1,-5.235115290E-1,-4.013384581E-1,6.450737119E-1
2.397960080E-1,-5.161811113E-1,-4.123340547E-1,6.395758986E-1
2.418107820E-1,-5.137376785E-1,-4.172209501E-1,6.365215778E-1
2.437940940E-1,-5.027421117E-1,-4.184426963E-1,6.291912198E-1
2.458085610E-1,-5.015203953E-1,-4.153883755E-1,6.255260110E-1
2.477919500E-1,-4.941899776E-1,-4.092797041E-1,6.188064814E-1
2.498064160E-1,-4.880813360E-1,-3.952298164E-1,6.133087277E-1
2.517898820E-1,-4.874704778E-1,-3.866777122E-1,6.108652353E-1
2.538042710E-1,-4.825835526E-1,-3.634648323E-1,6.078109145E-1
2.558187380E-1,-4.795292318E-1,-3.347541690E-1,6.065891981E-1
2.578018960E-1,-4.746423066E-1,-3.200933933E-1,6.096435189E-1
2.598163620E-1,-4.697553813E-1,-2.822197378E-1,6.065891981E-1
2.617991360E-1,-4.679227769E-1,-2.431243658E-1,6.102544069E-1
2.638135250E-1,-4.648684561E-1,-2.266310006E-1,6.145304441E-1
2.657978380E-1,-4.587597847E-1,-1.857030392E-1,6.181956530E-1
2.678113800E-1,-4.581489265E-1,-1.429424733E-1,6.230825782E-1
2.697954620E-1,-4.575380683E-1,-1.227839142E-1,6.273586154E-1
2.718098520E-1,-4.532620013E-1,-8.002334833E-2,6.310238242E-1
2.737930100E-1,-4.508185387E-1,-3.970624134E-2,6.414085031E-1
2.758080920E-1,-4.502076805E-1,-1.710422710E-2,6.450737119E-1
2.777910970E-1,-4.489859641E-1,2.015855350E-2,6.499606371E-1
2.798052540E-1,-4.508185387E-1,3.665191308E-2,6.554583907E-1
2.817893360E-1,-4.502076805E-1,7.269296050E-2,6.615670323E-1
2.838034940E-1,-4.477642179E-1,1.007927656E-1,6.688974500E-1
2.858164220E-1,-4.483750761E-1,1.117883399E-1,6.743952036E-1
2.878009660E-1,-4.483750761E-1,1.307251602E-1,6.792821288E-1
2.898148160E-1,-4.477642179E-1,1.411098689E-1,6.835582256E-1
2.917982050E-1,-4.489859641E-1,1.459967941E-1,6.878342628E-1
2.938127490E-1,-4.508185387E-1,1.466076523E-1,6.896668673E-1
2.957975990E-1,-4.532620013E-1,1.453859210E-1,6.884451509E-1
2.978105270E-1,-4.538728893E-1,1.380555481E-1,6.896668673E-1
2.997943000E-1,-4.550946057E-1,1.258382350E-1,6.933320761E-1
3.018080750E-1,-4.569272101E-1,1.075122803E-1,6.902777553E-1
3.037930800E-1,-4.612032473E-1,9.773843735E-2,6.902777553E-1
3.058071610E-1,-4.605923891E-1,7.269296050E-2,6.835582256E-1
3.077887810E-1,-4.636467099E-1,5.681046844E-2,6.811147332E-1
3.098037850E-1,-4.630358517E-1,2.565634064E-2,6.774495840E-1
3.118182520E-1,-4.624249935E-1,-4.886921961E-3,6.713408828E-1
3.138020260E-1,-4.624249935E-1,-2.199114859E-2,6.646214128E-1
3.158164140E-1,-4.581489265E-1,-5.864306539E-2,6.572909951E-1
3.177991890E-1,-4.563163519E-1,-9.529497474E-2,6.456845403E-1
3.198137320E-1,-4.544837475E-1,-1.130100712E-1,6.383541822E-1
3.217986590E-1,-4.544837475E-1,-1.453859210E-1,6.230825782E-1
3.238122030E-1,-4.495968223E-1,-1.759291887E-1,6.072000265E-1
3.257955140E-1,-4.477642179E-1,-1.899790913E-1,6.017022729E-1
3.278093660E-1,-4.434881806E-1,-2.174680233E-1,5.803219676E-1
3.297930630E-1,-4.404338300E-1,-2.388483137E-1,5.601634383E-1
3.318072210E-1,-4.392121136E-1,-2.467895597E-1,5.534439087E-1
3.337913030E-1,-4.386012554E-1,-2.620611787E-1,5.338962078E-1
3.358060000E-1,-4.355469346E-1,-2.693915665E-1,5.210680366E-1
3.377891580E-1,-4.343251884E-1,-2.736676335E-1,5.137376785E-1
3.398032400E-1,-4.324925840E-1,-2.718350291E-1,5.045747161E-1
3.418125510E-1,-4.300491214E-1,-2.645046413E-1,4.984660447E-1
3.437999410E-1,-4.269948006E-1,-2.602286041E-1,4.923573732E-1
3.458149460E-1,-4.251621962E-1,-2.431243658E-1,4.844161272E-1
3.477984120E-1,-4.227187634E-1,-2.345722616E-1,4.838052690E-1
3.498118780E-1,-4.214970171E-1,-2.144137025E-1,4.801400900E-1
3.517961910E-1,-4.172209501E-1,-1.863138974E-1,4.789183438E-1
3.538103490E-1,-4.202753007E-1,-1.692096740E-1,4.783074856E-1
3.557943540E-1,-4.178318381E-1,-1.368338168E-1,4.801400900E-1
3.578079730E-1,-4.178318381E-1,-1.020144969E-1,4.807509482E-1
3.597919780E-1,-4.159992337E-1,-8.429940045E-2,4.838052690E-1
3.618072910E-1,-4.123340547E-1,-4.581489414E-2,4.856378734E-1
3.637892180E-1,-4.111123085E-1,-6.108652335E-3,4.880813360E-1
3.658039920E-1,-4.123340547E-1,1.221730467E-2,4.905247986E-1
3.678175360E-1,-4.111123085E-1,4.703662544E-2,4.954117239E-1
3.698020780E-1,-4.080579877E-1,8.307767659E-2,5.027421117E-1
3.718160060E-1,-4.086688459E-1,9.773843735E-2,5.021312237E-1
3.737993180E-1,-4.080579877E-1,1.227839142E-1,5.057964325E-1
3.758141690E-1,-4.074471295E-1,1.337794960E-1,5.076290369E-1
3.777974820E-1,-4.074471295E-1,1.514945775E-1,5.070181489E-1
3.798116390E-1,-4.037819207E-1,1.618792862E-1,5.045747161E-1
3.817944140E-1,-4.050036669E-1,1.661553532E-1,5.051855445E-1
3.838101100E-1,-4.001167417E-1,1.685988009E-1,5.021312237E-1
3.857932690E-1,-4.013384581E-1,1.661553532E-1,4.978551865E-1
3.878068120E-1,-3.995058835E-1,1.637118906E-1,4.941899776E-1
3.897911240E-1,-3.940080702E-1,1.508837193E-1,4.935791194E-1
3.918052060E-1,-3.903428912E-1,1.325577646E-1,4.850270152E-1
3.937892110E-1,-3.933972120E-1,1.233947799E-1,4.819726646E-1
3.958028300E-1,-3.897320330E-1,9.651670605E-2,4.703662395E-1
3.978176050E-1,-3.848451078E-1,6.719517708E-2,4.642575979E-1
3.998012240E-1,-3.824016452E-1,5.192354694E-2,4.575380683E-1
4.018154600E-1,-3.787364662E-1,1.649336144E-2,4.483750761E-1
4.037987720E-1,-3.769038618E-1,-1.710422710E-2,4.440990388E-1
4.058130070E-1,-3.744603992E-1,-3.726277873E-2,4.355469346E-1
4.077960120E-1,-3.671300113E-1,-7.452555746E-2,4.239404798E-1
4.098102480E-1,-3.646865487E-1,-9.224065393E-2,4.172209501E-1
4.117941750E-1,-3.567453027E-1,-1.295034289E-1,4.062253833E-1
4.138077950E-1,-3.500257730E-1,-1.612684280E-1,3.915646076E-1
4.157926460E-1,-3.475823104E-1,-1.789835095E-1,3.885102868E-1
4.178058810E-1,-3.439171314E-1,-2.046398520E-1,3.732386529E-1
4.197895790E-1,-3.396410644E-1,-2.284636050E-1,3.622430861E-1
4.218037370E-1,-3.371976018E-1,-2.382374406E-1,3.573561609E-1
4.238176650E-1,-3.310889602E-1,-2.510656118E-1,3.494149148E-1
4.258016700E-1,-3.262020350E-1,-2.626720667E-1,3.396410644E-1
4.278155200E-1,-3.237585723E-1,-2.657263875E-1,3.353650272E-1
4.297991400E-1,-3.188716471E-1,-2.693915665E-1,3.280346394E-1
4.318145290E-1,-3.139847219E-1,-2.651155293E-1,3.188716471E-1
4.337976110E-1,-3.121521473E-1,-2.614503205E-1,3.170390725E-1
4.358130000E-1,-3.090978265E-1,-2.498438805E-1,3.097086847E-1
4.377949270E-1,-3.084869385E-1,-2.425135076E-1,3.048217595E-1
4.398084710E-1,-3.072652221E-1,-2.205223590E-1,2.981022298E-1
4.417942440E-1,-3.072652221E-1,-1.979203373E-1,2.938261926E-1
4.438072490E-1,-3.060434759E-1,-1.850921661E-1,2.889392674E-1
4.457908700E-1,-3.054326177E-1,-1.521054506E-1,2.871066630E-1
4.478051040E-1,-3.029891551E-1,-1.185078546E-1,2.828305960E-1
4.497890320E-1,-3.042109013E-1,-9.834930301E-2,2.816088796E-1
4.518023450E-1,-3.023782969E-1,-5.986479297E-2,2.791654170E-1
4.538167340E-1,-3.042109013E-1,-2.321287990E-2,2.773328125E-1
4.558010460E-1,-3.029891551E-1,-2.443460980E-3,2.785545588E-1
4.578152820E-1,-3.029891551E-1,3.726277873E-2,2.797762752E-1
4.597983630E-1,-3.011565804E-1,7.086037099E-2,2.785545588E-1
4.618127530E-1,-3.036000133E-1,8.857546002E-2,2.779437006E-1
4.637968340E-1,-3.036000133E-1,1.185078546E-1,2.779437006E-1
4.658112230E-1,-3.048217595E-1,1.441642046E-1,2.797762752E-1
4.677934590E-1,-3.060434759E-1,1.545489132E-1,2.791654170E-1
4.698082320E-1,-3.048217595E-1,1.728748679E-1,2.767219543E-1
4.717916220E-1,-3.036000133E-1,1.783726513E-1,2.736676335E-1
4.738054720E-1,-3.042109013E-1,1.881465018E-1,2.736676335E-1
4.757904000E-1,-3.036000133E-1,1.930334121E-1,2.675589919E-1
4.778039440E-1,-3.029891551E-1,1.881465018E-1,2.663372457E-1
4.798181010E-1,-3.029891551E-1,1.869247705E-1,2.596177161E-1
4.818023370E-1,-2.999348342E-1,1.753183305E-1,2.528982162E-1
4.838156500E-1,-3.017674387E-1,1.704314053E-1,2.510656118E-1
4.857984230E-1,-2.999348342E-1,1.551597714E-1,2.431243658E-1
4.878134280E-1,-2.968805134E-1,1.319468915E-1,2.339613885E-1
4.897972010E-1,-2.962696552E-1,1.166752651E-1,2.296853364E-1
4.918110530E-1,-2.932153046E-1,8.918632567E-2,2.217440903E-1
4.937953650E-1,-2.889392674E-1,5.558873713E-2,2.131919712E-1
4.958100620E-1,-2.864958048E-1,3.787364438E-2,2.070833147E-1
4.977931440E-1,-2.816088796E-1,6.108652451E-4,1.966986060E-1
4.998073790E-1,-2.767219543E-1,-3.726277873E-2,1.881465018E-1
5.017897680E-1,-2.761110961E-1,-5.681046844E-2,1.826487035E-1
5.038046190E-1,-2.675589919E-1,-9.712757170E-2,1.716531366E-1
5.058187000E-1,-2.651155293E-1,-1.154535338E-1,1.685988009E-1
5.078027050E-1,-2.571742535E-1,-1.514945775E-1,1.576032341E-1
5.098165560E-1,-2.559525371E-1,-1.857030392E-1,1.508837193E-1
5.118002520E-1,-2.516764700E-1,-2.003637999E-1,1.484402567E-1
5.138135650E-1,-2.455678284E-1,-2.260201424E-1,1.435533315E-1
5.157990310E-1,-2.388483137E-1,-2.541199327E-1,1.417207420E-1
5.178123430E-1,-2.370157093E-1,-2.626720667E-1,1.411098689E-1
5.197962710E-1,-2.321287990E-1,-2.773328125E-1,1.380555481E-1
5.218114290E-1,-2.266310006E-1,-2.944370508E-1,1.404990107E-1
5.237944340E-1,-2.235766798E-1,-2.993239760E-1,1.380555481E-1
5.258079780E-1,-2.199114859E-1,-3.048217595E-1,1.417207420E-1
5.277923660E-1,-2.138028294E-1,-3.066543639E-1,1.398881376E-1
5.298052950E-1,-2.125810981E-1,-3.084869385E-1,1.417207420E-1
5.317902220E-1,-2.083050460E-1,-3.090978265E-1,1.435533315E-1
5.338036880E-1,-2.046398520E-1,-3.029891551E-1,1.447750628E-1
5.358181550E-1,-2.040289938E-1,-3.005456924E-1,1.484402567E-1
5.378013130E-1,-1.979203373E-1,-2.919935882E-1,1.502728462E-1
5.398157790E-1,-1.973094791E-1,-2.864958048E-1,1.545489132E-1
5.417990920E-1,-1.948660165E-1,-2.712241709E-1,1.576032341E-1
5.438142500E-1,-1.905899495E-1,-2.565633953E-1,1.643227488E-1
5.457976390E-1,-1.893682331E-1,-2.504547536E-1,1.685988009E-1
5.478108740E-1,-1.869247705E-1,-2.327396572E-1,1.716531366E-1
5.497948020E-1,-1.844813079E-1,-2.162462920E-1,1.789835095E-1
5.518089610E-1,-1.844813079E-1,-2.070833147E-1,1.795943826E-1
5.537926570E-1,-1.814269722E-1,-1.942551434E-1,1.820378453E-1
5.558072010E-1,-1.802052408E-1,-1.783726513E-1,1.869247705E-1
5.577902830E-1,-1.808161139E-1,-1.740965992E-1,1.875356287E-1
5.598040560E-1,-1.771509200E-1,-1.655444801E-1,1.912008226E-1
5.618192150E-1,-1.759291887E-1,-1.594358236E-1,1.912008226E-1
5.638022960E-1,-1.777617931E-1,-1.594358236E-1,1.899790913E-1
5.658166850E-1,-1.765400618E-1,-1.563815027E-1,1.863138974E-1
5.678001520E-1,-1.734857261E-1,-1.576032341E-1,1.893682331E-1
5.698139250E-1,-1.734857261E-1,-1.606575549E-1,1.844813079E-1
5.717976990E-1,-1.710422635E-1,-1.667662114E-1,1.844813079E-1
5.738118580E-1,-1.704314053E-1,-1.716531366E-1,1.802052408E-1
5.757964010E-1,-1.685988009E-1,-1.814269722E-1,1.740965992E-1
5.778100210E-1,-1.661553532E-1,-1.948660165E-1,1.673770845E-1
5.797936400E-1,-1.667662114E-1,-2.021963894E-1,1.649336219E-1
5.818038760E-1,-1.643227488E-1,-2.180788964E-1,1.588249654E-1
5.838211120E-1,-1.624901593E-1,-2.400700450E-1,1.533271819E-1
5.858056540E-1,-1.618792862E-1,-2.498438805E-1,1.496619880E-1
5.877890440E-1,-1.618792862E-1,-2.742784917E-1,1.429424733E-1
5.898035110E-1,-1.624901593E-1,-3.023782969E-1,1.380555481E-1
5.918173610E-1,-1.618792862E-1,-3.164281845E-1,1.343903542E-1
5.938011350E-1,-1.557706445E-1,-3.451388776E-1,1.258382350E-1
5.958165240E-1,-1.514945775E-1,-3.799581826E-1,1.197295859E-1
5.977996060E-1,-1.533271819E-1,-3.964515328E-1,1.142318025E-1
5.998130720E-1,-1.453859210E-1,-4.300491214E-1,1.099557430E-1
6.017974610E-1,-1.429424733E-1,-4.440990388E-1,1.026253626E-1
6.038106200E-1,-1.392772794E-1,-4.807509482E-1,9.957103431E-2
6.057943930E-1,-1.386664063E-1,-5.106833577E-1,9.590584040E-2
6.078087820E-1,-1.374446750E-1,-5.290092826E-1,9.346238524E-2
6.097922490E-1,-1.374446750E-1,-5.583308339E-1,8.979719132E-2
6.118070220E-1,-1.343903542E-1,-5.900958180E-1,8.918632567E-2
6.137900270E-1,-1.337794960E-1,-6.047565937E-1,8.857546002E-2
6.158051860E-1,-1.325577646E-1,-6.371324658E-1,9.040805697E-2
6.177881900E-1,-1.343903542E-1,-6.682865620E-1,9.101892263E-2
6.198021180E-1,-1.337794960E-1,-6.835582256E-1,9.407325089E-2
6.218159680E-1,-1.325577646E-1,-7.147123218E-1,9.590584040E-2
6.238005890E-1,-1.362229437E-1,-7.495316267E-1,9.896016866E-2
6.258149780E-1,-1.356120855E-1,-7.660250068E-1,1.020144969E-1
6.277969050E-1,-1.392772794E-1,-7.996225953E-1,1.050688252E-1
6.298119870E-1,-1.392772794E-1,-8.381071091E-1,1.111774743E-1
6.317959150E-1,-1.398881376E-1,-8.564330935E-1,1.148426682E-1
6.338101500E-1,-1.404990107E-1,-8.955284357E-1,1.227839142E-1
6.357943860E-1,-1.423316002E-1,-9.144652486E-1,1.252273768E-1
6.378080050E-1,-1.453859210E-1,-9.553932548E-1,1.337794960E-1
6.397913180E-1,-1.478293836E-1,-9.987646937E-1,1.404990107E-1
6.418058610E-1,-1.490511149E-1,-1.020755768E0,1.435533315E-1
6.437892500E-1,-1.508837193E-1,-1.064127207E0,1.514945775E-1
6.458033320E-1,-1.539380401E-1,-1.111774802E0,1.594358236E-1
6.478178750E-1,-1.582140923E-1,-1.136209369E0,1.655444801E-1
6.498012640E-1,-1.618792862E-1,-1.188132882E0,1.747074574E-1
6.518151150E-1,-1.679879427E-1,-1.239445567E0,1.826487035E-1
6.537987350E-1,-1.710422635E-1,-1.269377947E0,1.857030392E-1
6.558129700E-1,-1.740965992E-1,-1.324966669E0,1.954768747E-1
6.577972060E-1,-1.777617931E-1,-1.385442376E0,2.040289938E-1
6.598111330E-1,-1.826487035E-1,-1.415374756E0,2.052507252E-1
6.617939080E-1,-1.844813079E-1,-1.477683067E0,2.150245607E-1
6.638082970E-1,-1.802052408E-1,-1.543045640E0,2.186897546E-1
6.657920700E-1,-1.759291887E-1,-1.575421453E0,2.229658216E-1
6.678064600E-1,-1.685988009E-1,-1.643227458E0,2.260201424E-1
6.697902330E-1,-1.643227488E-1,-1.676214218E0,2.254092693E-1
6.718043150E-1,-1.588249654E-1,-1.739133358E0,2.229658216E-1
6.738182430E-1,-1.582140923E-1,-1.798998117E0,2.211332172E-1
6.758040160E-1,-1.521054506E-1,-1.830763102E0,2.205223590E-1
6.778164060E-1,-1.514945775E-1,-1.880854130E0,2.186897546E-1
6.798001020E-1,-1.435533315E-1,-1.929112434E0,2.144137025E-1
6.818144920E-1,-1.411098689E-1,-1.950492740E0,2.119702399E-1
6.837973430E-1,-1.350012124E-1,-1.994475007E0,2.089159191E-1
6.858121160E-1,-1.301143020E-1,-2.025629044E0,2.089159191E-1
6.877955060E-1,-1.282816976E-1,-2.042733431E0,2.076941878E-1
6.898096650E-1,-1.215621829E-1,-2.069611549E0,2.064724565E-1
6.917935920E-1,-1.178969890E-1,-2.081218004E0,2.113593817E-1
6.938078280E-1,-1.148426682E-1,-2.091602564E0,2.095267773E-1
6.957915240E-1,-1.105666086E-1,-2.099543810E0,2.125810981E-1
6.978059910E-1,-1.093448773E-1,-2.100765467E0,2.186897546E-1
6.997893800E-1,-1.093448773E-1,-2.101376534E0,2.223549485E-1
7.018023070E-1,-1.081231460E-1,-2.092824221E0,2.290744632E-1
7.038183120E-1,-1.087340117E-1,-2.087937355E0,2.302961946E-1
7.058019330E-1,-1.087340117E-1,-2.072054863E0,2.400700450E-1
7.078148600E-1,-1.093448773E-1,-2.051896334E0,2.480112910E-1
7.097995570E-1,-1.111774743E-1,-2.040289879E0,2.516764700E-1
7.118131000E-1,-1.148426682E-1,-2.009135723E0,2.596177161E-1
7.137964890E-1,-1.178969890E-1,-1.977981687E0,2.669481039E-1
7.158118790E-1,-1.178969890E-1,-1.957823157E0,2.724458873E-1
7.177946520E-1,-1.221730486E-1,-1.919949412E0,2.828305960E-1
7.198081190E-1,-1.264491081E-1,-1.880854130E0,2.901609838E-1
7.217928160E-1,-1.295034289E-1,-1.857641220E0,2.938261926E-1
7.238059740E-1,-1.319468915E-1,-1.811215401E0,3.066543639E-1
7.257900560E-1,-1.362229437E-1,-1.766622305E0,3.139847219E-1
7.278045210E-1,-1.374446750E-1,-1.744631171E0,3.194825351E-1
7.298182950E-1,-1.374446750E-1,-1.700037956E0,3.280346394E-1
7.318017620E-1,-1.386664063E-1,-1.659109950E0,3.329215646E-1
7.338164580E-1,-1.404990107E-1,-1.637118816E0,3.408628106E-1
7.358008480E-1,-1.453859210E-1,-1.594969153E0,3.481931984E-1
7.378134680E-1,-1.453859210E-1,-1.576032281E0,3.518583775E-1
7.397977030E-1,-1.490511149E-1,-1.541823864E0,3.549126983E-1
7.418082470E-1,-1.527163088E-1,-1.509448051E0,3.634648323E-1
7.437946350E-1,-1.527163088E-1,-1.492343783E0,3.671300113E-1
7.458097940E-1,-1.563815027E-1,-1.467298269E0,3.714060783E-1
7.477931070E-1,-1.588249654E-1,-1.449583173E0,3.775147200E-1
7.498072650E-1,-1.594358236E-1,-1.439198494E0,3.799581826E-1
7.517910390E-1,-1.606575549E-1,-1.426981211E0,3.836233616E-1
7.538058120E-1,-1.624901593E-1,-1.418429136E0,3.866777122E-1
7.557900480E-1,-1.631010175E-1,-1.414153099E0,3.866777122E-1
7.578033610E-1,-1.637118906E-1,-1.412931323E0,3.903428912E-1
7.598171340E-1,-1.649336219E-1,-1.412931323E0,3.927863538E-1
7.618023700E-1,-1.655444801E-1,-1.415374756E0,3.964515328E-1
7.638150670E-1,-1.673770845E-1,-1.420261741E0,3.940080702E-1
7.657987630E-1,-1.673770845E-1,-1.423926830E0,3.933972120E-1
7.678135370E-1,-1.679879427E-1,-1.431868076E0,3.909537494E-1
7.697966180E-1,-1.667662114E-1,-1.441641927E0,3.940080702E-1
7.718098540E-1,-1.643227488E-1,-1.448361516E0,3.946189582E-1
7.737940900E-1,-1.643227488E-1,-1.459357023E0,3.970624208E-1
7.758092480E-1,-1.637118906E-1,-1.468520045E0,3.995058835E-1
7.777929450E-1,-1.655444801E-1,-1.472185254E0,4.013384581E-1
7.798064120E-1,-1.631010175E-1,-1.484402537E0,4.050036669E-1
7.817891850E-1,-1.612684280E-1,-1.489900351E0,4.092797041E-1
7.838048820E-1,-1.618792862E-1,-1.494787216E0,4.111123085E-1
7.858191170E-1,-1.606575549E-1,-1.503339410E0,4.166100919E-1
7.878012760E-1,-1.612684280E-1,-1.511891484E0,4.257730842E-1
7.898162810E-1,-1.612684280E-1,-1.515556693E0,4.282165468E-1
7.918000540E-1,-1.594358236E-1,-1.527773976E0,4.361577928E-1
7.938139050E-1,-1.606575549E-1,-1.534493446E0,4.453207552E-1
7.957985260E-1,-1.588249654E-1,-1.538158655E0,4.495968223E-1
7.978117600E-1,-1.569923609E-1,-1.546710849E0,4.563163519E-1
7.997953810E-1,-1.600466967E-1,-1.552208543E0,4.593706727E-1
8.018101540E-1,-1.569923609E-1,-1.563204169E0,4.703662395E-1
8.037933130E-1,-1.539380401E-1,-1.571145415E0,4.807509482E-1
8.058070870E-1,-1.521054506E-1,-1.574810624E0,4.838052690E-1
8.077904760E-1,-1.496619880E-1,-1.587027907E0,4.935791194E-1
8.098049420E-1,-1.459967941E-1,-1.598023534E0,5.027421117E-1
8.118191780E-1,-1.466076523E-1,-1.603521228E0,5.100724697E-1
8.138028740E-1,-1.441642046E-1,-1.619403720E0,5.186246037E-1
8.158175720E-1,-1.423316002E-1,-1.635286212E0,5.277875662E-1
8.178006530E-1,-1.417207420E-1,-1.642616630E0,5.332853794E-1
8.198148110E-1,-1.404990107E-1,-1.666440368E0,5.387831330E-1
8.217975860E-1,-1.398881376E-1,-1.689653277E0,5.479460955E-1
8.238120510E-1,-1.386664063E-1,-1.703703165E0,5.516113043E-1
8.257967480E-1,-1.386664063E-1,-1.734246373E0,5.583308339E-1
8.278102920E-1,-1.411098689E-1,-1.764178872E0,5.656611919E-1
8.297939880E-1,-1.417207420E-1,-1.781893969E0,5.681046844E-1
8.318078390E-1,-1.484402567E-1,-1.820989251E0,5.760459304E-1
8.337920740E-1,-1.441642046E-1,-1.839926124E0,5.803219676E-1
8.358080790E-1,-1.447750628E-1,-1.877188921E0,5.827654600E-1
8.377906230E-1,-1.472185254E-1,-1.916284323E0,5.876523852E-1
8.398043960E-1,-1.435533315E-1,-1.938275456E0,5.894849896E-1
8.418186320E-1,-1.429424733E-1,-1.977370739E0,5.937610269E-1
8.438017130E-1,-1.417207420E-1,-2.019520521E0,5.943718553E-1
8.458167180E-1,-1.398881376E-1,-2.040289879E0,5.949827433E-1
8.477998760E-1,-1.411098689E-1,-2.078163624E0,5.986479521E-1
8.498137270E-1,-1.398881376E-1,-2.115426302E0,5.968153477E-1
8.517968090E-1,-1.392772794E-1,-2.133752346E0,5.968153477E-1
8.538115060E-1,-1.374446750E-1,-2.168571711E0,5.974262357E-1
8.557958180E-1,-1.337794960E-1,-2.201558352E0,5.955936313E-1
8.578093610E-1,-1.331686229E-1,-2.218051672E0,5.962044597E-1
8.597936730E-1,-1.270599663E-1,-2.246762276E0,5.955936313E-1
8.618069080E-1,-1.233947799E-1,-2.260812283E0,5.931501389E-1
8.637912980E-1,-1.142318025E-1,-2.284025192E0,5.913175344E-1
8.658053790E-1,-1.038470939E-1,-2.306627274E0,5.870414972E-1
8.678189990E-1,-1.007927656E-1,-2.310903311E0,5.839871764E-1
8.698036200E-1,-9.468411654E-2,-2.324342251E0,5.778785348E-1
8.718171620E-1,-8.735372871E-2,-2.329229116E0,5.742133260E-1
8.738014750E-1,-8.429940045E-2,-2.332283497E0,5.705481172E-1
8.758161710E-1,-7.880161703E-2,-2.321898699E0,5.656611919E-1
8.777989460E-1,-7.269296050E-2,-2.309681416E0,5.668829679E-1
8.798128740E-1,-6.658431143E-2,-2.301129341E0,5.638286471E-1
8.817959550E-1,-6.169738993E-2,-2.280359983E0,5.650503635E-1
8.838109600E-1,-5.192354694E-2,-2.257147074E0,5.681046844E-1
8.857940400E-1,-4.642575979E-2,-2.244318962E0,5.699372888E-1
8.878082760E-1,-4.031710699E-2,-2.211332083E0,5.729916096E-1
8.897916660E-1,-3.481931984E-2,-2.178956270E0,5.791002512E-1
8.918066700E-1,-3.298672289E-2,-2.161852121E0,5.827654600E-1
8.937892130E-1,-2.993239649E-2,-2.120924234E0,5.900958180E-1
8.958048340E-1,-3.237585723E-2,-2.102598190E0,5.943718553E-1
8.978178380E-1,-2.565634064E-2,-2.065335512E0,6.010913849E-1
8.998015350E-1,-2.138028294E-2,-2.024407387E0,6.072000265E-1
9.018150020E-1,-1.893682219E-2,-2.004859686E0,6.120869517E-1
9.037993900E-1,-1.649336144E-2,-1.963931799E0,6.175847650E-1
9.058140870E-1,-1.038470957E-2,-1.921782017E0,6.249151230E-1
9.077975530E-1,-7.330383174E-3,-1.900401831E0,6.273586154E-1
9.098117120E-1,-4.886921961E-3,-1.861306429E0,6.322455406E-1
9.117954090E-1,-1.221730490E-3,-1.822211027E0,6.414085031E-1
9.138091820E-1,2.443460980E-3,-1.803885102E0,6.432411075E-1
9.157941110E-1,4.276056774E-3,-1.769065738E0,6.475171447E-1
9.178080380E-1,5.497787148E-3,-1.735468149E0,6.511823535E-1
9.197907350E-1,4.886921961E-3,-1.718974829E0,6.554583907E-1
9.218062010E-1,6.719517522E-3,-1.694540143E0,6.566801667E-1
9.237879750E-1,8.552113548E-3,-1.675603390E0,6.603453159E-1
9.258031340E-1,7.330383174E-3,-1.668883801E0,6.603453159E-1
9.278175230E-1,9.773843922E-3,-1.659109950E0,6.609562039E-1
9.298006810E-1,9.773843922E-3,-1.657277465E0,6.633996367E-1
9.318145320E-1,6.719517522E-3,-1.657888293E0,6.652322412E-1
9.337979210E-1,3.054326167E-3,-1.668272972E0,6.627888083E-1
9.358130030E-1,3.054326167E-3,-1.674381614E0,6.633996367E-1
9.377963920E-1,-1.221730490E-3,-1.700037956E0,6.621779203E-1
9.398104730E-1,-7.330383174E-3,-1.729970336E0,6.615670323E-1
9.417935550E-1,-9.773843922E-3,-1.748907208E0,6.627888083E-1
9.438084060E-1,-1.221730467E-2,-1.792889476E0,6.609562039E-1
9.457926410E-1,-1.588249579E-2,-1.841758728E0,6.566801667E-1
9.478053380E-1,-1.771509275E-2,-1.868025899E0,6.591235995E-1
9.498197270E-1,-1.160643995E-2,-1.929723263E0,6.530149579E-1
9.518034240E-1,-1.832595794E-3,-1.991420746E0,6.493497491E-1
9.538179680E-1,3.665191587E-3,-2.024407387E0,6.432411075E-1
9.558025100E-1,1.343903504E-2,-2.089770079E0,6.359107494E-1
9.578157460E-1,1.954768784E-2,-2.150245667E0,6.224716902E-1
9.598001360E-1,2.382374369E-2,-2.182621479E0,6.151412725E-1
9.618142170E-1,2.748893574E-2,-2.239432096E0,6.017022729E-1
9.637972990E-1,3.054326214E-2,-2.265699148E0,5.937610269E-1
9.658111490E-1,3.359758854E-2,-2.318233490E0,5.809328556E-1
9.677954610E-1,4.031710699E-2,-2.367713690E0,5.650503635E-1
9.698096200E-1,4.581489414E-2,-2.389704943E0,5.595525503E-1
9.717933170E-1,5.253441259E-2,-2.430632830E0,5.448917747E-1
9.738068600E-1,5.864306539E-2,-2.467895508E0,5.308418870E-1
9.757918640E-1,6.414084882E-2,-2.484389067E0,5.241223574E-1
9.778044840E-1,6.963863969E-2,-2.510656118E0,5.119050741E-1
9.798183360E-1,7.391469181E-2,-2.531425476E0,5.021312237E-1
9.818019550E-1,7.574728876E-2,-2.538145065E0,4.923573732E-1
9.838171140E-1,7.757988572E-2,-2.542421103E0,4.795292318E-1
9.858005030E-1,8.491026610E-2,-2.538755894E0,4.740314186E-1
9.878146610E-1,8.552113175E-2,-2.533258200E0,4.691445231E-1
9.897982820E-1,9.101892263E-2,-2.514932156E0,4.612032473E-1
9.918122090E-1,9.162978828E-2,-2.485610723E0,4.593706727E-1
9.937952910E-1,9.040805697E-2,-2.468506575E0,4.557054639E-1
9.958112190E-1,9.529497474E-2,-2.426356792E0,4.532620013E-1
9.977943000E-1,9.651670605E-2,-2.403754711E0,4.520402849E-1
9.998073050E-1,1.007927656E-1,-2.350609541E0,4.526511431E-1
1.001792464E0,1.001819000E-1,-2.290744781E0,4.544837475E-1
1.003805391E0,1.007927656E-1,-2.260812283E0,4.538728893E-1
1.005820242E0,1.007927656E-1,-2.194838762E0,4.569272101E-1
1.007803938E0,1.001819000E-1,-2.123367548E0,4.599815309E-1
1.009817789E0,1.001819000E-1,-2.086104870E0,4.605923891E-1
1.011802102E0,9.834930301E-2,-2.014022827E0,4.648684561E-1
1.013815875E0,9.651670605E-2,-1.937053680E0,4.679227769E-1
1.015800496E0,9.529497474E-2,-1.896736622E0,4.685336351E-1
1.017813116E0,9.162978828E-2,-1.819767594E0,4.715879560E-1
1.019797120E0,8.674286306E-2,-1.747074604E0,4.746423066E-1
1.021811279E0,8.552113175E-2,-1.709811807E0,4.776966274E-1
1.023795975E0,8.063421398E-2,-1.638340592E0,4.825835526E-1
1.025808826E0,7.819075137E-2,-1.604743004E0,4.856378734E-1
1.027792216E0,7.086037099E-2,-1.537547827E0,4.905247986E-1
1.029807912E0,6.291911751E-2,-1.479515672E0,4.966334403E-1
1.031790379E0,5.803219974E-2,-1.450194120E0,4.972442985E-1
1.033804615E0,5.314527452E-2,-1.399492264E0,5.027421117E-1
1.035820849E0,4.703662544E-2,-1.356120825E0,5.039638281E-1
1.037801777E0,4.337143153E-2,-1.334129691E0,5.076290369E-1
1.039816858E0,3.970624134E-2,-1.306640744E0,5.100724697E-1
1.041801171E0,3.481931984E-2,-1.282817006E0,5.112941861E-1
1.043814791E0,3.176499158E-2,-1.272432327E0,5.082398653E-1
1.045798488E0,2.748893574E-2,-1.266323686E0,5.076290369E-1
1.047812570E0,2.748893574E-2,-1.261436701E0,5.039638281E-1
1.049795728E0,2.748893574E-2,-1.258382440E0,5.002986193E-1
1.051809809E0,3.115412779E-2,-1.268767118E0,4.929682612E-1
1.053793584E0,3.604105115E-2,-1.280373573E0,4.856378734E-1
1.055808280E0,4.214970022E-2,-1.287703991E0,4.801400900E-1
1.057792593E0,5.131268129E-2,-1.306640744E0,4.685336351E-1
1.059805828E0,5.681046844E-2,-1.317636371E0,4.605923891E-1
1.061819063E0,6.658431143E-2,-1.337184072E0,4.447098970E-1
1.063804607E0,7.574728876E-2,-1.360396862E0,4.324925840E-1
1.065817611E0,8.002334833E-2,-1.370781660E0,4.239404798E-1
1.067801308E0,8.796459436E-2,-1.390329242E0,4.043927789E-1
1.069814852E0,9.712757170E-2,-1.411098719E0,3.854559660E-1
1.071799163E0,1.014036313E-1,-1.423926830E0,3.769038618E-1
1.073813937E0,1.099557430E-1,-1.444085479E0,3.622430861E-1
1.075797942E0,1.233947799E-1,-1.464244008E0,3.500257730E-1
1.077811716E0,1.288925707E-1,-1.472796082E0,3.408628106E-1
1.079794567E0,1.429424733E-1,-1.488678575E0,3.286454976E-1
1.081810571E0,1.563815027E-1,-1.503950238E0,3.133738637E-1
1.083792422E0,1.631010175E-1,-1.512502313E0,3.072652221E-1
1.085805889E0,1.740965992E-1,-1.519832730E0,2.981022298E-1
1.087820739E0,1.838704348E-1,-1.523497939E0,2.901609838E-1
1.089804667E0,1.893682331E-1,-1.522887111E0,2.858849466E-1
1.091819210E0,1.979203373E-1,-1.513113260E0,2.767219543E-1
1.093802522E0,1.997529417E-1,-1.507615447E0,2.724458873E-1
1.095817065E0,2.076941878E-1,-1.490511179E0,2.675589919E-1
1.097800146E0,2.144137025E-1,-1.462411404E0,2.645046413E-1
1.099814228E0,2.156354338E-1,-1.449583173E0,2.645046413E-1
1.101797926E0,2.217440903E-1,-1.415985584E0,2.638937831E-1
1.103813007E0,2.223549485E-1,-1.373225093E0,2.638937831E-1
1.105796473E0,2.223549485E-1,-1.353066564E0,2.675589919E-1
1.107809324E0,2.266310006E-1,-1.303586483E0,2.687807083E-1
1.109793713E0,2.266310006E-1,-1.254106402E0,2.724458873E-1
1.111807872E0,2.241875380E-1,-1.226617455E0,2.736676335E-1
1.113792183E0,2.241875380E-1,-1.171639562E0,2.785545588E-1
1.115806573E0,2.205223590E-1,-1.111774802E0,2.834414840E-1
1.117789347E0,2.205223590E-1,-1.084896684E0,2.871066630E-1
1.119803582E0,2.162462920E-1,-1.023199320E0,2.913827300E-1
1.121817972E0,2.089159191E-1,-9.663888216E-1,2.968805134E-1
1.123801745E0,2.052507252E-1,-9.352346659E-1,2.981022298E-1
1.125815827E0,2.015855312E-1,-8.747590184E-1,3.042109013E-1
1.127799293E0,1.966986060E-1,-8.442157507E-1,3.054326177E-1
1.129813143E0,1.869247705E-1,-7.855727077E-1,3.097086847E-1
1.131796456E0,1.820378453E-1,-7.293730974E-1,3.139847219E-1
1.133811307E0,1.759291887E-1,-7.000515461E-1,3.164281845E-1
1.135795927E0,1.667662114E-1,-6.456845403E-1,3.219259977E-1
1.137808239E0,1.551597714E-1,-5.943718553E-1,3.255911767E-1
1.139792782E0,1.545489132E-1,-5.711590052E-1,3.268128932E-1
1.141806018E0,1.466076523E-1,-5.296201706E-1,3.341432810E-1
1.143820792E0,1.331686229E-1,-4.880813360E-1,3.390302062E-1
1.145804796E0,1.301143020E-1,-4.728097022E-1,3.390302062E-1
1.147818724E0,1.203404516E-1,-4.453207552E-1,3.469714522E-1
1.149802114E0,1.087340117E-1,-4.190535545E-1,3.506366611E-1
1.151816502E0,1.032362282E-1,-4.098905921E-1,3.530801237E-1
1.153799584E0,9.285151958E-2,-3.952298164E-1,3.561344445E-1
1.155815588E0,8.918632567E-2,-3.860668242E-1,3.573561609E-1
1.157798670E0,7.941248268E-2,-3.860668242E-1,3.634648323E-1
1.159812290E0,7.208210230E-2,-3.872885704E-1,3.646865487E-1
1.161795679E0,6.780604273E-2,-3.885102868E-1,3.665191531E-1
1.163809838E0,5.681046844E-2,-3.964515328E-1,3.683517575E-1
1.165794458E0,4.764748737E-2,-4.086688459E-1,3.677408695E-1
1.167807693E0,4.337143153E-2,-4.153883755E-1,3.695734739E-1
1.169791314E0,3.481931984E-2,-4.312708676E-1,3.659082949E-1
1.171804625E0,2.993239649E-2,-4.502076805E-1,3.665191531E-1
1.173819399E0,2.504547499E-2,-4.612032473E-1,3.622430861E-1
1.175803635E0,2.076941915E-2,-4.850270152E-1,3.604104817E-1
1.177817870E0,1.160643995E-2,-5.112941861E-1,3.549126983E-1
1.179800875E0,1.038470957E-2,-5.259549618E-1,3.506366611E-1
1.181814803E0,5.497787148E-3,-5.546656251E-1,3.469714522E-1
1.183799653E0,-4.276056774E-3,-5.839871764E-1,3.371976018E-1
1.185813889E0,-6.108652335E-3,-6.010913849E-1,3.329215646E-1
1.187795739E0,-1.588249579E-2,-6.316346526E-1,3.274237812E-1
1.189810513E0,-1.710422710E-2,-6.475171447E-1,3.219259977E-1
1.191795134E0,-2.199114859E-2,-6.774495840E-1,3.066543639E-1
1.193808599E0,-2.871066704E-2,-7.104362845E-1,2.974913716E-1
1.195794143E0,-3.176499158E-2,-7.263187766E-1,2.944370508E-1
1.197806839E0,-3.420845419E-2,-7.586946487E-1,2.858849466E-1
1.199790536E0,-3.359758854E-2,-7.953465581E-1,2.773328125E-1
1.201804926E0,-3.726277873E-2,-8.093964458E-1,2.724458873E-1
1.203818545E0,-3.604105115E-2,-8.491026759E-1,2.651155293E-1
1.205802243E0,-3.726277873E-2,-8.869763613E-1,2.583959997E-1
1.207816709E0,-3.909537569E-2,-9.040805697E-1,2.553416789E-1
1.209800021E0,-3.787364438E-2,-9.456194043E-1,2.467895597E-1
1.211814488E0,-3.970624134E-2,-9.810495973E-1,2.412917763E-1
1.213797953E0,-3.909537569E-2,-9.981538057E-1,2.364048511E-1
1.215812650E0,-3.726277873E-2,-1.034805775E0,2.309070677E-1
1.217795502E0,-3.298672289E-2,-1.071457624E0,2.266310006E-1
1.219809967E0,-3.543018550E-2,-1.087950945E0,2.217440903E-1
1.221792664E0,-3.298672289E-2,-1.122159481E0,2.186897546E-1
1.223807439E0,-3.298672289E-2,-1.138652802E0,2.144137025E-1
1.225791212E0,-3.054326214E-2,-1.169806957E0,2.083050460E-1
1.227805371E0,-2.504547499E-2,-1.199128509E0,2.009746730E-1
1.229819836E0,-2.626720630E-2,-1.213178396E0,1.948660165E-1
1.231803226E0,-2.321287990E-2,-1.237612963E0,1.899790913E-1
1.233817308E0,-1.893682219E-2,-1.266934514E0,1.875356287E-1
1.235802543E0,-1.710422710E-2,-1.278540969E0,1.869247705E-1
1.237815778E0,-1.160643995E-2,-1.302364707E0,1.857030392E-1
1.239798322E0,-7.330383174E-3,-1.325577617E0,1.820378453E-1
1.241813634E0,-6.108652335E-3,-1.339627504E0,1.777617931E-1
1.243797408E0,-1.221730490E-3,-1.360396862E0,1.783726513E-1
1.245810643E0,3.054326167E-3,-1.383609772E0,1.771509200E-1
1.247794032E0,5.497787148E-3,-1.392772794E0,1.734857261E-1
1.249808499E0,1.038470957E-2,-1.408044338E0,1.728748679E-1
1.251792503E0,1.038470957E-2,-1.414153099E0,1.740965992E-1
1.253806892E0,1.221730467E-2,-1.426981211E0,1.704314053E-1
1.255789973E0,1.343903504E-2,-1.437365890E0,1.704314053E-1
1.257804132E0,1.404990070E-2,-1.438587666E0,1.698205322E-1
1.259818599E0,1.771509275E-2,-1.439198494E0,1.673770845E-1
1.261801449E0,1.954768784E-2,-1.438587666E0,1.673770845E-1
1.263816762E0,1.832595654E-2,-1.437976837E0,1.655444801E-1
1.265800843E0,2.199114859E-2,-1.436144233E0,1.643227488E-1
1.267813463E0,2.260201424E-2,-1.427592039E0,1.637118906E-1
1.269797776E0,2.443460934E-2,-1.422705173E0,1.649336219E-1
1.271812165E0,2.748893574E-2,-1.410487890E0,1.673770845E-1
1.273796169E0,2.809980139E-2,-1.398881435E0,1.692096740E-1
1.275811020E0,3.054326214E-2,-1.389107585E0,1.698205322E-1
1.277792870E0,3.054326214E-2,-1.374446750E0,1.704314053E-1
1.279807260E0,2.626720630E-2,-1.356120825E0,1.765400618E-1
1.281791880E0,2.809980139E-2,-1.347568750E0,1.765400618E-1
1.283805192E0,2.443460934E-2,-1.324966669E0,1.832595766E-1
1.285819582E0,2.076941915E-2,-1.304197311E0,1.887573600E-1
1.287803047E0,2.260201424E-2,-1.294423461E0,1.905899495E-1
1.289817437E0,2.076941915E-2,-1.267545342E0,1.960877478E-1
1.291800827E0,1.832595654E-2,-1.255938888E0,1.985312104E-1
1.293815369E0,1.710422710E-2,-1.228450060E0,2.034181207E-1
1.295798759E0,1.343903504E-2,-1.193630695E0,2.064724565E-1
1.297813148E0,1.160643995E-2,-1.178969979E0,2.083050460E-1
1.299796537E0,8.552113548E-3,-1.145372391E0,2.119702399E-1
1.301807080E0,6.719517522E-3,-1.111163855E0,2.150245607E-1
1.303794161E0,7.330383174E-3,-1.095281363E0,2.144137025E-1
1.305808012E0,4.886921961E-3,-1.057407737E0,2.144137025E-1
1.307792017E0,2.443460980E-3,-1.020755768E0,2.150245607E-1
1.309806098E0,2.443460980E-3,-1.003040791E0,2.119702399E-1
1.311820642E0,1.832595794E-3,-9.639453292E-1,2.131919712E-1
1.313803955E0,0.000000000E0,-9.285151958E-1,2.089159191E-1
1.315820266E0,6.108652451E-4,-9.095783234E-1,2.095267773E-1
1.317801887E0,-1.832595794E-3,-8.729264140E-1,2.058615834E-1
1.319816352E0,-3.054326167E-3,-8.368853927E-1,2.021963894E-1
1.321800665E0,-2.443460980E-3,-8.197811842E-1,1.979203373E-1
1.323813824E0,-2.443460980E-3,-7.843509912E-1,1.948660165E-1
1.325797597E0,-1.221730490E-3,-7.666358948E-1,1.912008226E-1
1.327812064E0,-4.276056774E-3,-7.299839854E-1,1.857030392E-1
1.329795684E0,-1.221730490E-3,-6.976081133E-1,1.795943826E-1
1.331809303E0,-6.108652451E-4,-6.768386960E-1,1.789835095E-1
1.333793231E0,0.000000000E0,-6.444628239E-1,1.704314053E-1
1.335808312E0,0.000000000E0,-6.120869517E-1,1.655444801E-1
1.337791163E0,6.108652451E-4,-5.949827433E-1,1.624901593E-1
1.339804630E0,1.221730490E-3,-5.607742667E-1,1.576032341E-1
1.341818557E0,3.054326167E-3,-5.314527750E-1,1.508837193E-1
1.343804101E0,4.276056774E-3,-5.155702829E-1,1.521054506E-1
1.345817336E0,6.108652335E-3,-4.838052690E-1,1.472185254E-1
1.347800033E0,9.162978269E-3,-4.544837475E-1,1.411098689E-1
1.349814807E0,1.282817032E-2,-4.410447180E-1,1.380555481E-1
1.351798580E0,1.466076635E-2,-4.166100919E-1,1.368338168E-1
1.353813893E0,1.343903504E-2,-4.019493461E-1,1.325577646E-1
1.355797975E0,1.832595654E-2,-3.793473244E-1,1.295034289E-1
1.357810902E0,2.015855350E-2,-3.579670191E-1,1.264491081E-1
1.359794830E0,1.954768784E-2,-3.463605940E-1,1.227839142E-1
1.361809065E0,2.443460934E-2,-3.268128932E-1,1.215621829E-1
1.363792685E0,2.626720630E-2,-3.090978265E-1,1.154535338E-1
1.365805998E0,2.687807009E-2,-3.005456924E-1,1.123992056E-1
1.367820771E0,3.237585723E-2,-2.877175212E-1,1.062905490E-1
1.369804391E0,3.298672289E-2,-2.742784917E-1,1.007927656E-1
1.371817704E0,3.359758854E-2,-2.681698501E-1,9.590584040E-2
1.373802247E0,4.031710699E-2,-2.559525371E-1,9.040805697E-2
1.375816790E0,4.092797264E-2,-2.431243658E-1,8.185594529E-2
1.377799486E0,4.153883830E-2,-2.388483137E-1,8.063421398E-2
1.379813414E0,4.459316283E-2,-2.296853364E-1,6.963863969E-2
1.381796419E0,4.642575979E-2,-2.205223590E-1,6.108652428E-2
1.383810885E0,4.642575979E-2,-2.174680233E-1,5.925392732E-2
1.385796121E0,4.581489414E-2,-2.101376504E-1,5.131268129E-2
1.387809356E0,4.948008433E-2,-2.064724565E-1,4.703662544E-2
1.389793360E0,5.070181563E-2,-2.034181207E-1,3.848451003E-2
1.391806904E0,4.886921868E-2,-1.966986060E-1,3.176499158E-2
1.393791293E0,5.009094998E-2,-1.954768747E-1,2.748893574E-2
1.395805759E0,5.009094998E-2,-1.918116808E-1,1.832595654E-2
1.397819226E0,5.253441259E-2,-1.912008226E-1,1.343903504E-2
1.399803230E0,5.314527452E-2,-1.899790913E-1,9.162978269E-3
1.401818312E0,5.070181563E-2,-1.863138974E-1,4.886921961E-3
1.403800547E0,5.253441259E-2,-1.881465018E-1,-1.221730490E-3
1.405814936E0,5.375614017E-2,-1.893682331E-1,-3.054326167E-3
1.407798326E0,5.253441259E-2,-1.899790913E-1,-6.719517522E-3
1.409812868E0,5.375614017E-2,-1.924225539E-1,-1.099557430E-2
1.411795642E0,5.131268129E-2,-1.924225539E-1,-1.466076635E-2
1.413810032E0,5.314527452E-2,-1.979203373E-1,-1.649336144E-2
1.415794959E0,5.131268129E-2,-1.991420686E-1,-2.076941915E-2
1.417808810E0,4.948008433E-2,-2.040289938E-1,-2.260201424E-2
1.419791276E0,4.825835302E-2,-2.058615834E-1,-2.565634064E-2
1.421805204E0,4.886921868E-2,-2.107485086E-1,-2.809980139E-2
1.423820824E0,4.642575979E-2,-2.180788964E-1,-2.993239649E-2
1.425805136E0,4.642575979E-2,-2.247984111E-1,-3.176499158E-2
1.427817526E0,4.276056588E-2,-2.272418737E-1,-3.481931984E-2
1.429802146E0,4.153883830E-2,-2.364048511E-1,-3.726277873E-2
1.431815996E0,4.214970022E-2,-2.437352389E-1,-4.031710699E-2
1.433799309E0,3.909537569E-2,-2.492330223E-1,-4.276056588E-2
1.435814697E0,3.787364438E-2,-2.577851415E-1,-4.459316283E-2
1.437797472E0,3.481931984E-2,-2.657263875E-1,-4.886921868E-2
1.439812015E0,3.787364438E-2,-2.718350291E-1,-5.009094998E-2
1.441795096E0,3.604105115E-2,-2.797762752E-1,-5.131268129E-2
1.443809255E0,3.481931984E-2,-2.883284092E-1,-5.558873713E-2
1.445793183E0,3.359758854E-2,-2.932153046E-1,-5.742133409E-2
1.447806802E0,3.420845419E-2,-2.987131178E-1,-6.047565863E-2
1.449820884E0,3.359758854E-2,-3.029891551E-1,-6.230825558E-2
1.451804965E0,3.115412779E-2,-3.066543639E-1,-6.414084882E-2
1.453819432E0,2.871066704E-2,-3.145956099E-1,-6.780604273E-2
1.455803744E0,2.993239649E-2,-3.158173263E-1,-6.902777404E-2
1.457816595E0,2.932153270E-2,-3.194825351E-1,-7.269296050E-2
1.459799984E0,2.809980139E-2,-3.213151097E-1,-7.513642311E-2
1.461811143E0,2.687807009E-2,-3.262020350E-1,-7.880161703E-2
1.463798224E0,2.687807009E-2,-3.286454976E-1,-8.063421398E-2
1.465812998E0,2.687807009E-2,-3.286454976E-1,-8.368854225E-2
1.467796310E0,2.565634064E-2,-3.292563558E-1,-8.429940045E-2
1.469810238E0,2.565634064E-2,-3.292563558E-1,-8.857546002E-2
1.471793628E0,2.504547499E-2,-3.310889602E-1,-9.101892263E-2
1.473808016E0,2.504547499E-2,-3.286454976E-1,-9.346238524E-2
1.475792406E0,2.382374369E-2,-3.268128932E-1,-9.407325089E-2
1.477806257E0,2.321287990E-2,-3.243694305E-1,-9.773843735E-2
1.479820338E0,2.321287990E-2,-3.237585723E-1,-9.957103431E-2
1.481804343E0,2.076941915E-2,-3.188716471E-1,-9.896016866E-2
1.483817655E0,2.138028294E-2,-3.170390725E-1,-1.001819000E-1
1.485801583E0,2.015855350E-2,-3.115412891E-1,-1.020144969E-1
1.487815434E0,1.832595654E-2,-3.054326177E-1,-1.001819000E-1
1.489799438E0,1.893682219E-2,-3.036000133E-1,-9.896016866E-2
1.491813674E0,2.015855350E-2,-2.956587672E-1,-9.651670605E-2
1.493797678E0,1.832595654E-2,-2.852740586E-1,-9.712757170E-2
1.495812375E0,1.649336144E-2,-2.822197378E-1,-9.407325089E-2
1.497794534E0,1.771509275E-2,-2.730567753E-1,-9.162978828E-2
1.499808999E0,1.466076635E-2,-2.657263875E-1,-8.735372871E-2
1.501792466E0,1.466076635E-2,-2.632829249E-1,-8.491026610E-2
1.503808086E0,1.527163107E-2,-2.528982162E-1,-8.307767659E-2
1.505790936E0,1.527163107E-2,-2.437352389E-1,-7.574728876E-2
1.507804403E0,1.588249579E-2,-2.437352389E-1,-7.574728876E-2
1.509818946E0,1.466076635E-2,-2.370157093E-1,-6.841690838E-2
1.511802643E0,1.527163107E-2,-2.309070677E-1,-6.475171447E-2
1.513816725E0,1.221730467E-2,-2.278527319E-1,-6.414084882E-2
1.515801036E0,1.221730467E-2,-2.229658216E-1,-5.986479297E-2
1.517814349E0,1.343903504E-2,-2.211332172E-1,-5.803219974E-2
1.519798585E0,1.221730467E-2,-2.205223590E-1,-5.436700583E-2
1.521813127E0,1.038470957E-2,-2.144137025E-1,-4.764748737E-2
1.523796440E0,8.552113548E-3,-2.113593817E-1,-4.520402849E-2
1.525809752E0,8.552113548E-3,-2.113593817E-1,-4.092797264E-2
1.527793988E0,6.108652335E-3,-2.052507252E-1,-3.909537569E-2
1.529807608E0,7.330383174E-3,-2.064724565E-1,-3.665191308E-2
1.531791612E0,4.276056774E-3,-2.058615834E-1,-3.115412779E-2
1.533806617E0,6.108652335E-3,-2.028072625E-1,-2.932153270E-2
1.535821083E0,1.221730490E-3,-2.009746730E-1,-2.504547499E-2
1.537804241E0,2.443460980E-3,-1.997529417E-1,-2.443460934E-2
1.539817708E0,1.221730490E-3,-1.997529417E-1,-2.199114859E-2
1.541800558E0,1.832595794E-3,-1.966986060E-1,-2.015855350E-2
1.543814948E0,0.000000000E0,-1.973094791E-1,-1.710422710E-2
1.545799876E0,1.832595794E-3,-1.960877478E-1,-1.588249579E-2
1.547813110E0,-2.443460980E-3,-1.973094791E-1,-1.404990070E-2
1.549797115E0,-1.832595794E-3,-1.985312104E-1,-1.038470957E-2
1.551811582E0,-2.443460980E-3,-2.015855312E-1,-9.773843922E-3
1.553795278E0,-1.832595794E-3,-2.015855312E-1,-8.552113548E-3
1.555809745E0,-4.886921961E-3,-2.015855312E-1,-5.497787148E-3
1.557792595E0,-5.497787148E-3,-2.040289938E-1,-7.941247895E-3
1.559807062E0,-4.276056774E-3,-2.064724565E-1,-3.054326167E-3
1.561820605E0,-4.886921961E-3,-2.089159191E-1,-1.832595794E-3
1.563805224E0,-8.552113548E-3,-2.119702399E-1,-1.832595794E-3
1.565818999E0,-6.719517522E-3,-2.138028294E-1,-1.221730490E-3
1.567801849E0,-7.941247895E-3,-2.186897546E-1,1.832595794E-3
1.569816931E0,-7.330383174E-3,-2.199114859E-1,1.221730490E-3
1.571800551E0,-8.552113548E-3,-2.241875380E-1,5.497787148E-3
1.573814401E0,-8.552113548E-3,-2.284636050E-1,7.330383174E-3
1.575799329E0,-1.038470957E-2,-2.315179259E-1,6.108652335E-3
1.577812027E0,-9.773843922E-3,-2.376265824E-1,8.552113548E-3
1.579795954E0,-1.160643995E-2,-2.388483137E-1,7.941247895E-3
1.581809805E0,-1.099557430E-2,-2.412917763E-1,9.162978269E-3
1.583794424E0,-1.099557430E-2,-2.437352389E-1,1.099557430E-2
1.585808891E0,-1.099557430E-2,-2.474004179E-1,1.343903504E-2
1.587791357E0,-1.038470957E-2,-2.510656118E-1,1.588249579E-2
1.589805823E0,-1.404990070E-2,-2.541199327E-1,1.649336144E-2
1.591819674E0,-1.527163107E-2,-2.541199327E-1,1.588249579E-2
1.593803679E0,-1.832595654E-2,-2.565633953E-1,1.710422710E-2
1.595818837E0,-1.710422710E-2,-2.608394623E-1,1.527163107E-2
1.597801919E0,-2.015855350E-2,-2.608394623E-1,1.832595654E-2
1.599815461E0,-2.199114859E-2,-2.614503205E-1,1.404990070E-2
1.601799159E0,-2.565634064E-2,-2.620611787E-1,1.527163107E-2
1.603813318E0,-2.626720630E-2,-2.632829249E-1,1.466076635E-2
1.605796937E0,-2.687807009E-2,-2.645046413E-1,1.649336144E-2
1.607811480E0,-2.871066704E-2,-2.638937831E-1,1.649336144E-2
1.609794793E0,-2.993239649E-2,-2.657263875E-1,1.710422710E-2
1.611808643E0,-3.054326214E-2,-2.657263875E-1,1.832595654E-2
1.613792725E0,-2.932153270E-2,-2.663372457E-1,1.710422710E-2
1.615807806E0,-2.871066704E-2,-2.663372457E-1,1.771509275E-2
1.617790196E0,-3.054326214E-2,-2.669481039E-1,2.015855350E-2
1.619804662E0,-3.054326214E-2,-2.693915665E-1,2.076941915E-2
1.621815820E0,-3.481931984E-2,-2.663372457E-1,2.443460934E-2
1.623802210E0,-3.665191308E-2,-2.651155293E-1,2.565634064E-2
1.625816984E0,-3.543018550E-2,-2.657263875E-1,2.748893574E-2
1.627800142E0,-3.909537569E-2,-2.632829249E-1,3.359758854E-2
1.629813993E0,-4.214970022E-2,-2.632829249E-1,3.420845419E-2
1.631798305E0,-4.398229718E-2,-2.614503205E-1,3.481931984E-2
1.633812387E0,-4.581489414E-2,-2.590068579E-1,3.787364438E-2
1.635796776E0,-4.948008433E-2,-2.559525371E-1,3.787364438E-2
1.637810242E0,-5.070181563E-2,-2.541199327E-1,3.909537569E-2
1.639793631E0,-5.375614017E-2,-2.516764700E-1,4.153883830E-2
1.641808098E0,-5.681046844E-2,-2.455678284E-1,4.092797264E-2
1.643791179E0,-5.681046844E-2,-2.455678284E-1,4.214970022E-2
1.645805953E0,-5.864306539E-2,-2.406809032E-1,4.214970022E-2
1.647819803E0,-6.169738993E-2,-2.357939780E-1,4.092797264E-2
1.649803193E0,-6.108652428E-2,-2.327396572E-1,4.520402849E-2
1.651817429E0,-6.536258012E-2,-2.309070677E-1,4.459316283E-2
1.653800817E0,-6.291911751E-2,-2.290744632E-1,4.459316283E-2
1.655816130E0,-6.414084882E-2,-2.254092693E-1,4.581489414E-2
1.657799519E0,-6.597344577E-2,-2.193006277E-1,4.276056588E-2
1.659813139E0,-6.658431143E-2,-2.186897546E-1,4.459316283E-2
1.661796144E0,-6.963863969E-2,-2.144137025E-1,4.337143153E-2
1.663811610E0,-7.147123665E-2,-2.089159191E-1,4.092797264E-2
1.665795307E0,-7.208210230E-2,-2.064724565E-1,4.276056588E-2
1.667807927E0,-7.391469181E-2,-2.028072625E-1,3.970624134E-2
1.669792777E0,-7.696902007E-2,-1.985312104E-1,3.726277873E-2
1.671806936E0,-7.819075137E-2,-1.966986060E-1,3.848451003E-2
1.673820786E0,-7.880161703E-2,-1.912008226E-1,3.420845419E-2
1.675805484E0,-8.124507964E-2,-1.881465018E-1,3.298672289E-2
1.677819027E0,-8.429940045E-2,-1.850921661E-1,3.176499158E-2
1.679802416E0,-8.491026610E-2,-1.765400618E-1,2.871066704E-2
1.681816882E0,-8.735372871E-2,-1.765400618E-1,2.993239649E-2
1.683799887E0,-8.796459436E-2,-1.698205322E-1,2.748893574E-2
1.685814430E0,-8.857546002E-2,-1.624901593E-1,2.321287990E-2
1.687797819E0,-9.162978828E-2,-1.588249654E-1,2.138028294E-2
1.689811670E0,-9.101892263E-2,-1.527163088E-1,1.954768784E-2
1.691795367E0,-9.468411654E-2,-1.453859210E-1,1.710422710E-2
1.693809833E0,-9.773843735E-2,-1.411098689E-1,1.404990070E-2
1.695794684E0,-1.014036313E-1,-1.337794960E-1,1.282817032E-2
1.697807996E0,-1.001819000E-1,-1.270599663E-1,1.404990070E-2
1.699791616E0,-1.044579595E-1,-1.215621829E-1,1.221730467E-2
1.701801851E0,-1.038470939E-1,-1.148426682E-1,1.038470957E-2
1.703819395E0,-1.050688252E-1,-1.050688252E-1,7.941247895E-3
1.705802784E0,-1.069014147E-1,-1.026253626E-1,8.552113548E-3
1.707817481E0,-1.069014147E-1,-9.162978828E-2,6.719517522E-3
1.709800870E0,-1.069014147E-1,-9.040805697E-2,6.108652335E-3
1.711815028E0,-1.081231460E-1,-8.185594529E-2,6.108652335E-3
1.713798803E0,-1.093448773E-1,-7.269296050E-2,1.038470957E-2
1.715813808E0,-1.093448773E-1,-6.780604273E-2,7.941247895E-3
1.717797273E0,-1.093448773E-1,-6.108652428E-2,9.773843922E-3
1.719810740E0,-1.099557430E-1,-5.253441259E-2,1.099557430E-2
1.721795051E0,-1.087340117E-1,-4.948008433E-2,9.773843922E-3
1.723808903E0,-1.093448773E-1,-4.337143153E-2,1.160643995E-2
1.725792677E0,-1.093448773E-1,-3.604105115E-2,1.282817032E-2
1.727806142E0,-1.069014147E-1,-3.298672289E-2,1.404990070E-2
1.729820609E0,-1.044579595E-1,-2.443460934E-2,1.221730467E-2
1.731804690E0,-1.026253626E-1,-2.138028294E-2,1.343903504E-2
1.733817926E0,-1.020144969E-1,-1.527163107E-2,1.038470957E-2
1.735803700E0,-9.834930301E-2,-1.160643995E-2,1.099557430E-2
1.737816396E0,-9.590584040E-2,-6.719517522E-3,1.160643995E-2
1.739800324E0,-9.590584040E-2,-4.276056774E-3,8.552113548E-3
1.741813560E0,-9.346238524E-2,-6.108652451E-4,8.552113548E-3
1.743798564E0,-9.224065393E-2,1.221730490E-3,7.330383174E-3
1.745812415E0,-9.101892263E-2,8.552113548E-3,9.162978269E-3
1.747795188E0,-8.674286306E-2,1.221730467E-2,7.330383174E-3
1.749809655E0,-8.552113175E-2,1.588249579E-2,7.941247895E-3
1.751793352E0,-8.429940045E-2,1.954768784E-2,9.773843922E-3
1.753807202E0,-8.002334833E-2,2.565634064E-2,8.552113548E-3
1.755822207E0,-7.880161703E-2,2.932153270E-2,9.773843922E-3
1.757805289E0,-7.452555746E-2,3.543018550E-2,1.221730467E-2
1.759819832E0,-7.147123665E-2,3.909537569E-2,1.221730467E-2
1.761803837E0,-7.147123665E-2,4.337143153E-2,1.404990070E-2
1.763817918E0,-6.902777404E-2,5.070181563E-2,1.527163107E-2
1.765801307E0,-6.719517708E-2,5.375614017E-2,1.893682219E-2
1.767815466E0,-6.719517708E-2,5.803219974E-2,2.015855350E-2
1.769799162E0,-6.475171447E-2,6.169738993E-2,2.443460934E-2
1.771813321E0,-6.475171447E-2,6.597344577E-2,2.626720630E-2
1.773796172E0,-6.414084882E-2,7.024950534E-2,2.748893574E-2
1.775811869E0,-6.230825558E-2,7.269296050E-2,3.054326214E-2
1.777794566E0,-6.230825558E-2,7.330382615E-2,3.481931984E-2
1.779809339E0,-5.925392732E-2,7.513642311E-2,3.359758854E-2
1.781791806E0,-5.742133409E-2,7.574728876E-2,3.604105115E-2
1.783805965E0,-5.803219974E-2,7.574728876E-2,3.604105115E-2
1.785820507E0,-5.558873713E-2,7.757988572E-2,3.970624134E-2
1.787804512E0,-5.558873713E-2,7.941248268E-2,4.703662544E-2
1.789817979E0,-5.681046844E-2,8.124507964E-2,4.642575979E-2
1.791802060E0,-5.681046844E-2,8.307767659E-2,4.886921868E-2
1.793816219E0,-5.436700583E-2,8.429940045E-2,4.825835302E-2
1.795800530E0,-5.619960278E-2,8.429940045E-2,5.253441259E-2
1.797814612E0,-5.253441259E-2,8.735372871E-2,5.558873713E-2
1.799797771E0,-5.619960278E-2,8.918632567E-2,5.803219974E-2
1.801812544E0,-5.314527452E-2,9.040805697E-2,5.925392732E-2
1.803795242E0,-5.192354694E-2,9.468411654E-2,6.108652428E-2
1.805810322E0,-5.436700583E-2,9.468411654E-2,6.414084882E-2
1.807793097E0,-5.436700583E-2,9.529497474E-2,6.536258012E-2
1.809807256E0,-5.192354694E-2,9.590584040E-2,6.780604273E-2
1.811822029E0,-5.253441259E-2,9.224065393E-2,6.658431143E-2
1.813805188E0,-5.314527452E-2,9.346238524E-2,6.963863969E-2
1.815820193E0,-5.070181563E-2,9.101892263E-2,6.780604273E-2
1.817803274E0,-5.009094998E-2,8.674286306E-2,6.902777404E-2
1.819817432E0,-4.825835302E-2,8.124507964E-2,7.391469181E-2
1.821800283E0,-4.886921868E-2,7.696902007E-2,7.269296050E-2
1.823815903E0,-4.703662544E-2,7.024950534E-2,7.635815442E-2
1.825799062E0,-4.764748737E-2,6.291911751E-2,7.696902007E-2
1.827812220E0,-4.886921868E-2,5.253441259E-2,7.941248268E-2
1.829796917E0,-4.886921868E-2,4.581489414E-2,8.063421398E-2
1.831810999E0,-5.192354694E-2,3.481931984E-2,8.491026610E-2
1.833793772E0,-5.131268129E-2,2.199114859E-2,8.735372871E-2
1.835809854E0,-5.192354694E-2,1.527163107E-2,9.101892263E-2
1.837792320E0,-5.314527452E-2,3.665191587E-3,9.346238524E-2
1.839806478E0,-5.619960278E-2,-1.221730467E-2,9.407325089E-2
1.841821791E0,-5.619960278E-2,-1.893682219E-2,9.407325089E-2
1.843804334E0,-5.558873713E-2,-3.481931984E-2,1.014036313E-1
1.845817877E0,-5.558873713E-2,-4.276056588E-2,1.001819000E-1
1.847801498E0,-5.497787148E-2,-6.108652428E-2,1.026253626E-1
1.849816348E0,-5.436700583E-2,-7.757988572E-2,1.032362282E-1
1.851799737E0,-5.619960278E-2,-8.368854225E-2,1.032362282E-1
1.853814203E0,-5.558873713E-2,-1.014036313E-1,1.032362282E-1
1.855798516E0,-5.742133409E-2,-1.178969890E-1,1.001819000E-1
1.857811674E0,-5.742133409E-2,-1.276708394E-1,9.896016866E-2
1.859795140E0,-5.681046844E-2,-1.411098689E-1,9.346238524E-2
1.861808683E0,-5.619960278E-2,-1.551597714E-1,8.735372871E-2
1.863792918E0,-5.619960278E-2,-1.606575549E-1,8.491026610E-2
1.865808000E0,-5.742133409E-2,-1.728748679E-1,7.941248268E-2
1.867791159E0,-5.742133409E-2,-1.789835095E-1,7.269296050E-2
1.869805317E0,-5.925392732E-2,-1.838704348E-1,6.719517708E-2
1.871819091E0,-5.803219974E-2,-1.820378453E-1,6.047565863E-2
1.873803096E0,-5.864306539E-2,-1.838704348E-1,5.803219974E-2
1.875817869E0,-5.558873713E-2,-1.795943826E-1,5.070181563E-2
1.877800951E0,-5.253441259E-2,-1.740965992E-1,4.825835302E-2
1.879814186E0,-5.253441259E-2,-1.710422635E-1,4.520402849E-2
1.881799114E0,-4.948008433E-2,-1.637118906E-1,4.398229718E-2
1.883813042E0,-4.825835302E-2,-1.569923609E-1,4.031710699E-2
1.885795738E0,-4.703662544E-2,-1.508837193E-1,4.214970022E-2
1.887810513E0,-4.703662544E-2,-1.374446750E-1,4.031710699E-2
1.889794518E0,-4.459316283E-2,-1.240056455E-1,3.970624134E-2
1.891808368E0,-4.276056588E-2,-1.172861308E-1,3.909537569E-2
1.893792142E0,-3.848451003E-2,-1.038470939E-1,3.726277873E-2
1.895808069E0,-3.726277873E-2,-8.674286306E-2,3.481931984E-2
1.897821074E0,-3.543018550E-2,-8.246681094E-2,3.420845419E-2
1.899804464E0,-3.176499158E-2,-6.597344577E-2,2.993239649E-2
1.901817929E0,-3.054326214E-2,-4.825835302E-2,2.443460934E-2
1.903802550E0,-3.115412779E-2,-3.726277873E-2,1.893682219E-2
1.905816170E0,-2.809980139E-2,-2.076941915E-2,1.038470957E-2
1.907798943E0,-2.565634064E-2,-1.282817032E-2,6.719517522E-3
1.909813948E0,-2.443460934E-2,-6.108652451E-4,-1.221730490E-3
1.911796799E0,-2.076941915E-2,1.282817032E-2,-1.038470957E-2
1.913811265E0,-2.076941915E-2,1.832595654E-2,-1.588249579E-2
1.915796193E0,-1.893682219E-2,2.871066704E-2,-2.321287990E-2
1.917809120E0,-1.832595654E-2,3.970624134E-2,-3.665191308E-2
1.919792741E0,-1.832595654E-2,4.398229718E-2,-3.848451003E-2
1.921807284E0,-2.015855350E-2,5.742133409E-2,-4.886921868E-2
1.923821365E0,-1.649336144E-2,7.147123665E-2,-5.558873713E-2
1.925805370E0,-1.466076635E-2,7.635815442E-2,-6.108652428E-2
1.927819297E0,-1.038470957E-2,8.796459436E-2,-6.536258012E-2
1.929802917E0,-5.497787148E-3,1.044579595E-1,-7.208210230E-2
1.931816769E0,-3.054326167E-3,1.111774743E-1,-7.574728876E-2
1.933800773E0,-1.221730490E-3,1.246165112E-1,-7.880161703E-2
1.935815547E0,6.719517522E-3,1.337794960E-1,-8.063421398E-2
1.937798935E0,1.038470957E-2,1.368338168E-1,-8.307767659E-2
1.939813094E0,1.832595654E-2,1.441642046E-1,-8.674286306E-2
1.941795638E0,2.260201424E-2,1.459967941E-1,-8.979719132E-2
1.943810026E0,3.115412779E-2,1.478293836E-1,-9.285151958E-2
1.945794724E0,4.092797264E-2,1.472185254E-1,-9.529497474E-2
1.947807960E0,4.398229718E-2,1.472185254E-1,-9.712757170E-2
1.949822656E0,5.436700583E-2,1.484402567E-1,-1.020144969E-1
1.951806353E0,6.230825558E-2,1.484402567E-1,-1.062905490E-1
1.953820281E0,6.658431143E-2,1.478293836E-1,-1.105666086E-1
1.955804285E0,8.002334833E-2,1.496619880E-1,-1.209513173E-1
1.957818983E0,9.407325089E-2,1.484402567E-1,-1.288925707E-1
1.959801833E0,1.014036313E-1,1.490511149E-1,-1.319468915E-1
1.961816838E0,1.142318025E-1,1.484402567E-1,-1.404990107E-1
1.963799997E0,1.282816976E-1,1.441642046E-1,-1.508837193E-1
1.965813539E0,1.356120855E-1,1.423316002E-1,-1.557706445E-1
1.967797236E0,1.514945775E-1,1.374446750E-1,-1.661553532E-1
1.969811317E0,1.643227488E-1,1.301143020E-1,-1.753183305E-1
1.971795015E0,1.692096740E-1,1.282816976E-1,-1.826487035E-1
1.973809173E0,1.826487035E-1,1.240056455E-1,-1.893682331E-1
1.975793254E0,1.899790913E-1,1.215621829E-1,-1.936442852E-1
1.977807336E0,2.058615834E-1,1.178969890E-1,-2.021963894E-1
1.979821264E0,2.247984111E-1,1.166752651E-1,-2.089159191E-1
1.981804884E0,2.339613885E-1,1.154535338E-1,-2.107485086E-1
1.983820581E0,2.577851415E-1,1.166752651E-1,-2.186897546E-1
1.985803662E0,2.767219543E-1,1.166752651E-1,-2.247984111E-1
1.987816359E0,2.913827300E-1,1.166752651E-1,-2.284636050E-1
1.989800595E0,3.158173263E-1,1.178969890E-1,-2.364048511E-1
1.991814753E0,3.433062732E-1,1.191187203E-1,-2.425135076E-1
1.993798450E0,3.561344445E-1,1.209513173E-1,-2.474004179E-1
1.995814224E0,3.872885704E-1,1.172861308E-1,-2.590068579E-1
1.997795767E0,4.141666293E-1,1.142318025E-1,-2.687807083E-1
1.999810233E0,4.318817258E-1,1.136209369E-1,-2.748893499E-1
2.001794776E0,4.618141353E-1,1.093448773E-1,-2.907718420E-1
2.003808319E0,4.752531648E-1,1.099557430E-1,-2.981022298E-1
2.005822171E0,5.027421117E-1,1.038470939E-1,-3.127630055E-1
2.007805867E0,5.363397002E-1,1.026253626E-1,-3.310889602E-1
2.009820103E0,5.516113043E-1,1.007927656E-1,-3.371976018E-1
2.011803492E0,5.858197808E-1,9.834930301E-2,-3.555235863E-1
2.013818496E0,6.175847650E-1,9.834930301E-2,-3.677408695E-1
2.015802194E0,6.334672570E-1,9.957103431E-2,-3.738495409E-1
2.017816044E0,6.676757336E-1,1.014036313E-1,-3.830125034E-1
2.019799433E0,7.000515461E-1,1.081231460E-1,-3.946189582E-1
2.021812669E0,7.189884186E-1,1.123992056E-1,-3.976732790E-1
2.023797596E0,7.544185519E-1,1.227839142E-1,-4.050036669E-1
2.025811755E0,7.910705209E-1,1.331686229E-1,-4.123340547E-1
2.027794836E0,8.069530129E-1,1.404990107E-1,-4.153883755E-1
2.029809379E0,8.436049223E-1,1.539380401E-1,-4.221078753E-1
2.031792769E0,8.808676600E-1,1.679879427E-1,-4.294382632E-1
2.033807158E0,8.973610401E-1,1.765400618E-1,-4.318817258E-1
2.035822240E0,9.334021211E-1,1.912008226E-1,-4.428772926E-1
2.037805937E0,9.541715384E-1,1.954768747E-1,-4.434881806E-1
2.039818941E0,9.914342761E-1,2.076941878E-1,-4.544837475E-1
2.041802331E0,1.029307961E0,2.193006277E-1,-4.599815309E-1
2.043816796E0,1.050688267E0,2.235766798E-1,-4.612032473E-1
2.045800493E0,1.089172721E0,2.302961946E-1,-4.667010605E-1
2.047815498E0,1.129489779E0,2.370157093E-1,-4.709770977E-1
2.049798579E0,1.148426652E0,2.400700450E-1,-4.715879560E-1
2.051812123E0,1.188743711E0,2.431243658E-1,-4.734205604E-1
2.053795820E0,1.233336926E0,2.425135076E-1,-4.752531648E-1
2.055811286E0,1.255328059E0,2.412917763E-1,-4.715879560E-1
2.057794291E0,1.292590857E0,2.394591719E-1,-4.703662395E-1
2.059808525E0,1.332297087E0,2.364048511E-1,-4.697553813E-1
2.061790992E0,1.353066564E0,2.333505303E-1,-4.654793143E-1
2.063806074E0,1.391551018E0,2.247984111E-1,-4.624249935E-1
2.065819924E0,1.429424644E0,2.193006277E-1,-4.526511431E-1
2.067803544E0,1.447139740E0,2.180788964E-1,-4.471533597E-1
2.069816857E0,1.485624313E0,2.083050460E-1,-4.386012554E-1
2.071801707E0,1.505172014E0,2.046398520E-1,-4.337143302E-1
2.073816482E0,1.544267297E0,2.021963894E-1,-4.196644127E-1
2.075799947E0,1.580308437E0,1.942551434E-1,-4.086688459E-1
2.077813491E0,1.599856019E0,1.912008226E-1,-3.988949955E-1
2.079796496E0,1.642005801E0,1.912008226E-1,-3.817907870E-1
2.081811653E0,1.679879427E0,1.857030392E-1,-3.665191531E-1
2.083795582E0,1.696983695E0,1.857030392E-1,-3.591887653E-1
2.085809125E0,1.737911582E0,1.802052408E-1,-3.433062732E-1
2.087793129E0,1.772730947E0,1.765400618E-1,-3.298672438E-1
2.089806749E0,1.791667819E0,1.722639948E-1,-3.213151097E-1
2.091821446E0,1.827708840E0,1.667662114E-1,-3.066543639E-1
2.093804835E0,1.862528086E0,1.588249654E-1,-2.962696552E-1
2.095819610E0,1.880854130E0,1.594358236E-1,-2.901609838E-1
2.097802690E0,1.915062547E0,1.527163088E-1,-2.797762752E-1
2.099817234E0,1.947438359E0,1.502728462E-1,-2.675589919E-1
2.101799700E0,1.961488247E0,1.490511149E-1,-2.608394623E-1
2.103813858E0,1.992642403E0,1.490511149E-1,-2.504547536E-1
2.105798710E0,2.006692410E0,1.514945775E-1,-2.443460971E-1
2.107811714E0,2.039679050E0,1.551597714E-1,-2.327396572E-1
2.109796257E0,2.067167997E0,1.618792862E-1,-2.186897546E-1
2.111809800E0,2.080606937E0,1.673770845E-1,-2.138028294E-1
2.113794728E0,2.109317780E0,1.783726513E-1,-1.966986060E-1
2.115808963E0,2.136806726E0,1.881465018E-1,-1.844813079E-1
2.117791660E0,2.147191286E0,1.960877478E-1,-1.783726513E-1
2.119805895E0,2.172236919E0,2.089159191E-1,-1.673770845E-1
2.121821208E0,2.189341068E0,2.205223590E-1,-1.551597714E-1
2.123803751E0,2.202780008E0,2.235766798E-1,-1.514945775E-1
2.125817602E0,2.221106052E0,2.321287990E-1,-1.404990107E-1
2.127800991E0,2.240042925E0,2.406809032E-1,-1.319468915E-1
2.129815995E0,2.249205828E0,2.425135076E-1,-1.301143020E-1
2.131798539E0,2.266921043E0,2.455678284E-1,-1.197295859E-1
2.133813312E0,2.274862289E0,2.467895597E-1,-1.136209369E-1
2.135797625E0,2.293188095E0,2.455678284E-1,-1.087340117E-1
2.137811476E0,2.304183722E0,2.449569702E-1,-9.957103431E-2
2.139794480E0,2.313957453E0,2.425135076E-1,-9.590584040E-2
2.141808639E0,2.328618288E0,2.394591719E-1,-8.979719132E-2
2.143824336E0,2.342668295E0,2.345722616E-1,-8.185594529E-2
2.145806879E0,2.351220369E0,2.321287990E-1,-7.880161703E-2
2.147819807E0,2.365881205E0,2.266310006E-1,-7.086037099E-2
2.149805657E0,2.379930973E0,2.205223590E-1,-6.414084882E-2
2.151819431E0,2.390315771E0,2.150245607E-1,-6.108652428E-2
2.153802513E0,2.408641577E0,2.089159191E-1,-5.742133409E-2
2.155817671E0,2.423913240E0,2.009746730E-1,-5.192354694E-2
2.157799830E0,2.431854486E0,1.954768747E-1,-5.192354694E-2
2.159814527E0,2.450791359E0,1.844813079E-1,-5.009094998E-2
2.161798300E0,2.463008642E0,1.722639948E-1,-4.642575979E-2
2.163812382E0,2.469117403E0,1.649336219E-1,-4.764748737E-2
2.165796155E0,2.481334686E0,1.527163088E-1,-4.337143153E-2
2.167810237E0,2.488054037E0,1.478293836E-1,-4.520402849E-2
2.169793627E0,2.499049664E0,1.392772794E-1,-4.276056588E-2
2.171807862E0,2.506380081E0,1.307251602E-1,-3.909537569E-2
2.173822559E0,2.512488842E0,1.301143020E-1,-4.031710699E-2
2.175806332E0,2.521651745E0,1.307251602E-1,-3.359758854E-2
2.177820106E0,2.533869028E0,1.307251602E-1,-2.748893574E-2
2.179803265E0,2.536312580E0,1.325577646E-1,-2.443460934E-2
2.181817115E0,2.543642998E0,1.435533315E-1,-1.771509275E-2
2.183801120E0,2.550362349E0,1.545489132E-1,-1.343903504E-2
2.185815587E0,2.554638386E0,1.618792862E-1,-9.773843922E-3
2.187799206E0,2.561968803E0,1.789835095E-1,-6.719517522E-3
2.189813365E0,2.569910049E0,1.991420686E-1,-3.665191587E-3
2.191797138E0,2.575407982E0,2.113593817E-1,-5.497787148E-3
2.193811220E0,2.582738161E0,2.370157093E-1,-6.719517522E-3
2.195796148E0,2.589457750E0,2.681698501E-1,-9.162978269E-3
2.197809999E0,2.591901302E0,2.864958048E-1,-9.773843922E-3
2.199793158E0,2.598620653E0,3.249803185E-1,-1.588249579E-2
2.201807316E0,2.601064205E0,3.451388776E-1,-1.832595654E-2
2.203820551E0,2.608394623E0,3.921754956E-1,-2.015855350E-2
2.205804556E0,2.616946697E0,4.422664344E-1,-2.015855350E-2
2.207818637E0,2.617557526E0,4.697553813E-1,-2.015855350E-2
2.209802411E0,2.624887943E0,5.277875662E-1,-1.771509275E-2
2.211815955E0,2.618168354E0,5.839871764E-1,-1.221730467E-2
2.213799574E0,2.615114212E0,6.145304441E-1,-7.330383174E-3
2.215815271E0,2.620001078E0,6.713408828E-1,6.108652335E-3
2.217798661E0,2.626720667E0,7.305948138E-1,1.893682219E-2
2.219812280E0,2.628553152E0,7.562511563E-1,2.993239649E-2
2.221795593E0,2.631607533E0,8.081747293E-1,4.398229718E-2
2.223810982E0,2.634050846E0,8.570439219E-1,6.108652428E-2
2.225794141E0,2.634661913E0,8.827002645E-1,6.841690838E-2
2.227807684E0,2.629774809E0,9.334021211E-1,8.674286306E-2
2.229822150E0,2.621222734E0,9.810495973E-1,1.020144969E-1
2.231805539E0,2.617557526E0,1.006095052E0,1.105666086E-1
2.233819621E0,2.612059832E0,1.042747021E0,1.295034289E-1
2.235804933E0,2.607783794E0,1.061683774E0,1.343903542E-1
2.237818092E0,2.609616280E0,1.091616154E0,1.539380401E-1
2.239801480E0,2.607172966E0,1.117272496E0,1.710422635E-1
2.241815639E0,2.605951071E0,1.128878951E0,1.777617931E-1
2.243799337E0,2.604118586E0,1.147204876E0,1.930334121E-1
2.245812879E0,2.601675034E0,1.164309144E0,2.052507252E-1
2.247796269E0,2.599231720E0,1.172861218E0,2.131919712E-1
2.249810196E0,2.600453377E0,1.184467673E0,2.260201424E-1
2.251795124E0,2.601675034E0,1.197295904E0,2.351831198E-1
2.253808590E0,2.599842548E0,1.203404546E0,2.364048511E-1
2.255823671E0,2.605340242E0,1.206458807E0,2.449569702E-1
2.257807369E0,2.611449003E0,1.207680583E0,2.474004179E-1
2.259820681E0,2.615725040E0,1.203404546E0,2.498438805E-1
2.261803762E0,2.624277115E0,1.197295904E0,2.498438805E-1
2.263817921E0,2.633440018E0,1.188132882E0,2.504547536E-1
2.265802540E0,2.638937950E0,1.177748203E0,2.492330223E-1
2.267816699E0,2.652987719E0,1.162476540E0,2.455678284E-1
2.269799397E0,2.658485651E0,1.152091861E0,2.443460971E-1
2.271813631E0,2.669481039E0,1.130711555E0,2.394591719E-1
2.273798175E0,2.682309389E0,1.109942198E0,2.357939780E-1
2.275812411E0,2.690861464E0,1.098946571E0,2.333505303E-1
2.277795722E0,2.698802710E0,1.073901057E0,2.315179259E-1
2.279809881E0,2.710409164E0,1.048244715E0,2.278527319E-1
2.281794501E0,2.715906858E0,1.037860036E0,2.247984111E-1
2.283806890E0,2.726902485E0,1.015258074E0,2.260201424E-1
2.285822587E0,2.737287045E0,9.889908433E-1,2.272418737E-1
2.287805053E0,2.744006634E0,9.798278809E-1,2.296853364E-1
2.289819750E0,2.752558708E0,9.547823668E-1,2.345722616E-1
2.291802832E0,2.762943506E0,9.309586287E-1,2.357939780E-1
2.293816759E0,2.764165163E0,9.187413454E-1,2.370157093E-1
2.295801995E0,2.769052267E0,8.955284357E-1,2.455678284E-1
2.297815538E0,2.770884752E0,8.845328689E-1,2.492330223E-1
2.299798927E0,2.775771618E0,8.607091308E-1,2.583959997E-1
2.301812701E0,2.776993513E0,8.338310719E-1,2.651155293E-1
2.303797321E0,2.775160789E0,8.222246170E-1,2.706133127E-1
2.305811172E0,2.777604342E0,7.929030657E-1,2.779437006E-1
2.307793945E0,2.776993513E0,7.635815740E-1,2.858849466E-1
2.309809027E0,2.774549961E0,7.507534027E-1,2.864958048E-1
2.311822878E0,2.770273924E0,7.183775306E-1,2.944370508E-1
2.313807190E0,2.765387058E0,6.872233748E-1,2.974913716E-1
2.315822041E0,2.761111021E0,6.682865620E-1,3.005456924E-1
2.317805046E0,2.758056641E0,6.340781450E-1,3.066543639E-1
2.319818281E0,2.746450186E0,5.998696685E-1,3.066543639E-1
2.321802978E0,2.738508940E0,5.815436840E-1,3.103195429E-1
2.323815599E0,2.731789351E0,5.491678715E-1,3.097086847E-1
2.325799910E0,2.719572067E0,5.180137157E-1,3.109304011E-1
2.327813762E0,2.714685202E0,5.021312237E-1,3.139847219E-1
2.329797766E0,2.703689575E0,4.728097022E-1,3.127630055E-1
2.331811232E0,2.698802710E0,4.587597847E-1,3.115412891E-1
2.333795545E0,2.687196255E0,4.343251884E-1,3.115412891E-1
2.335810395E0,2.677422285E0,4.098905921E-1,3.084869385E-1
2.337792861E0,2.672535419E0,3.995058835E-1,3.084869385E-1
2.339807327E0,2.662150621E0,3.848451078E-1,3.042109013E-1
2.341818409E0,2.652987719E0,3.726277947E-1,3.005456924E-1
2.343804491E0,2.648711681E0,3.695734739E-1,3.005456924E-1
2.345819264E0,2.641992092E0,3.665191531E-1,2.962696552E-1
2.347803038E0,2.640159607E0,3.689626157E-1,2.919935882E-1
2.349817505E0,2.638937950E0,3.714060783E-1,2.883284092E-1
2.351801201E0,2.635272741E0,3.824016452E-1,2.828305960E-1
2.353815052E0,2.636494398E0,3.976732790E-1,2.816088796E-1
2.355799595E0,2.637716055E0,4.074471295E-1,2.785545588E-1
2.357813523E0,2.638326883E0,4.324925840E-1,2.755002379E-1
2.359797528E0,2.641381264E0,4.593706727E-1,2.724458873E-1
2.361811609E0,2.642603159E0,4.721988440E-1,2.693915665E-1
2.363794075E0,2.647490025E0,5.045747161E-1,2.681698501E-1
2.365808542E0,2.650544405E0,5.192354321E-1,2.657263875E-1
2.367822392E0,2.652987719E0,5.546656251E-1,2.645046413E-1
2.369807012E0,2.661539793E0,5.919284225E-1,2.638937831E-1
2.371820555E0,2.659707308E0,6.133087277E-1,2.614503205E-1
2.373804329E0,2.665205002E0,6.524040699E-1,2.608394623E-1
2.375818796E0,2.664594173E0,6.957755089E-1,2.608394623E-1
2.377802107E0,2.666426897E0,7.171558142E-1,2.608394623E-1
2.379816959E0,2.663372517E0,7.599163651E-1,2.614503205E-1
2.381799347E0,2.657874584E0,8.051204085E-1,2.626720667E-1
2.383815121E0,2.657263756E0,8.277224302E-1,2.645046413E-1
2.385798126E0,2.651766062E0,8.735373020E-1,2.681698501E-1
2.387811438E0,2.642603159E0,9.205739498E-1,2.724458873E-1
2.389796674E0,2.638937950E0,9.443976879E-1,2.761110961E-1
2.391809525E0,2.629163980E0,9.938777685E-1,2.858849466E-1
2.393793221E0,2.621833563E0,1.043357849E0,2.877175212E-1
2.395807996E0,2.619390249E0,1.067181587E0,2.938261926E-1
2.397822231E0,2.611449003E0,1.117883444E0,3.023782969E-1
2.399804928E0,2.604729414E0,1.142318010E0,3.066543639E-1
2.401819702E0,2.596788168E0,1.187522054E0,3.139847219E-1
2.403803167E0,2.588846922E0,1.233336926E0,3.207042515E-1
2.405817249E0,2.582127333E0,1.255938888E0,3.249803185E-1
2.407800716E0,2.571131706E0,1.295645237E0,3.280346394E-1
2.409815105E0,2.560136318E0,1.332907915E0,3.341432810E-1
2.411799186E0,2.552805901E0,1.350623012E0,3.365867436E-1
2.413813037E0,2.541199446E0,1.379944563E0,3.396410644E-1
2.415797272E0,2.529592991E0,1.405600905E0,3.439171314E-1
2.417810893E0,2.524706125E0,1.415374756E0,3.475823104E-1
2.419794512E0,2.514321327E0,1.431868076E0,3.512475193E-1
2.421807517E0,2.505769253E0,1.442863703E0,3.561344445E-1
2.423822291E0,2.503936529E0,1.442863703E0,3.610213697E-1
2.425806295E0,2.500271559E0,1.444696307E0,3.652974069E-1
2.427820762E0,2.497217178E0,1.437365890E0,3.671300113E-1
2.429804074E0,2.492330313E0,1.431257248E0,3.714060783E-1
2.431818309E0,2.488665104E0,1.418429136E0,3.750712574E-1
2.433802007E0,2.486832380E0,1.408044338E0,3.756821156E-1
2.435816780E0,2.480112791E0,1.386664152E0,3.799581826E-1
2.437800400E0,2.481334686E0,1.362229466E0,3.811798990E-1
2.439814021E0,2.478280306E0,1.350012183E0,3.799581826E-1
2.441797640E0,2.477058649E0,1.317636371E0,3.811798990E-1
2.443811261E0,2.479501963E0,1.287093043E0,3.775147200E-1
2.445795188E0,2.481334686E0,1.269988894E0,3.762930036E-1
2.447808808E0,2.486221552E0,1.232726097E0,3.726277947E-1
2.449824121E0,2.489275932E0,1.195463300E0,3.665191531E-1
2.451807279E0,2.492330313E0,1.175304770E0,3.652974069E-1
2.453821437E0,2.498438835E0,1.140485406E0,3.597996235E-1
2.455805981E0,2.502714872E0,1.109331250E0,3.543018401E-1
2.457820139E0,2.502714872E0,1.092837930E0,3.530801237E-1
2.459802682E0,2.507601738E0,1.060462117E0,3.475823104E-1
2.461817071E0,2.510045290E0,1.048855662E0,3.494149148E-1
2.463801691E0,2.514321327E0,1.021977544E0,3.488040566E-1
2.465815542E0,2.519208193E0,9.981538057E-1,3.481931984E-1
2.467798008E0,2.522262573E0,9.841039181E-1,3.500257730E-1
2.469813474E0,2.524706125E0,9.615018964E-1,3.530801237E-1
2.471796555E0,2.530203819E0,9.395107627E-1,3.561344445E-1
2.473810637E0,2.533258200E0,9.285151958E-1,3.591887653E-1
2.475795642E0,2.539366722E0,9.071348906E-1,3.677408695E-1
2.477808569E0,2.543031931E0,8.851437569E-1,3.707951903E-1
2.479822421E0,2.545475483E0,8.741481900E-1,3.744603992E-1
2.481806733E0,2.552195072E0,8.539896011E-1,3.793473244E-1
2.483820276E0,2.555860281E0,8.374962807E-1,3.836233616E-1
2.485803665E0,2.559525490E0,8.271115422E-1,3.836233616E-1
2.487817515E0,2.565023184E0,8.148942590E-1,3.872885704E-1
2.489801751E0,2.569910049E0,7.990117669E-1,3.891211748E-1
2.491815987E0,2.573575258E0,7.916813493E-1,3.897320330E-1
2.493799299E0,2.579072952E0,7.794640660E-1,3.878994286E-1
2.495814150E0,2.581516504E0,7.715228200E-1,3.866777122E-1
2.497796847E0,2.587014198E0,7.611380816E-1,3.854559660E-1
2.499811928E0,2.590679407E0,7.476990819E-1,3.811798990E-1
2.501794472E0,2.591901302E0,7.434229851E-1,3.775147200E-1
2.503808937E0,2.598009825E0,7.342600226E-1,3.714060783E-1
2.505823096E0,2.603507757E0,7.226535678E-1,3.634648323E-1
2.507806486E0,2.605340242E0,7.171558142E-1,3.585779071E-1
2.509821490E0,2.613892317E0,7.104362845E-1,3.500257730E-1
2.511805187E0,2.617557526E0,7.012733221E-1,3.451388776E-1
2.513819038E0,2.621222734E0,6.969972253E-1,3.396410644E-1
2.515804042E0,2.626720667E0,6.878342628E-1,3.280346394E-1
2.517817201E0,2.632218361E0,6.750060916E-1,3.213151097E-1
2.519800897E0,2.635272741E0,6.707300544E-1,3.170390725E-1
2.521815979E0,2.641992092E0,6.591235995E-1,3.072652221E-1
2.523798830E0,2.644435644E0,6.462954283E-1,3.042109013E-1
2.525812065E0,2.646879196E0,6.414085031E-1,2.981022298E-1
2.527796070E0,2.652376890E0,6.310238242E-1,2.901609838E-1
2.529810844E0,2.650544405E0,6.255260110E-1,2.871066630E-1
2.531793925E0,2.657263756E0,6.163630486E-1,2.834414840E-1
2.533807776E0,2.660318136E0,6.065891981E-1,2.797762752E-1
2.535823396E0,2.662761688E0,6.004805565E-1,2.779437006E-1
2.537805862E0,2.665815830E0,5.876523852E-1,2.761110961E-1
2.539820714E0,2.670702934E0,5.717698932E-1,2.724458873E-1
2.541803487E0,2.674368143E0,5.632177591E-1,2.730567753E-1
2.543818876E0,2.675589800E0,5.479460955E-1,2.693915665E-1
2.545802188E0,2.676811457E0,5.277875662E-1,2.669481039E-1
2.547815116E0,2.675589800E0,5.198463202E-1,2.645046413E-1
2.549799813E0,2.675589800E0,5.015203953E-1,2.620611787E-1
2.551813664E0,2.676200628E0,4.850270152E-1,2.608394623E-1
2.553798207E0,2.673146248E0,4.783074856E-1,2.596177161E-1
2.555812981E0,2.670702934E0,4.654793143E-1,2.510656118E-1
2.557795139E0,2.668259382E0,4.587597847E-1,2.504547536E-1
2.559809375E0,2.664594173E0,4.428772926E-1,2.406809032E-1
2.561793687E0,2.661539793E0,4.312708676E-1,2.345722616E-1
2.563807230E0,2.660318136E0,4.269948006E-1,2.278527319E-1
2.565821081E0,2.657263756E0,4.184426963E-1,2.168571651E-1
2.567804701E0,2.654209375E0,4.086688459E-1,2.083050460E-1
2.569818936E0,2.651766062E0,4.062253833E-1,2.034181207E-1
2.571802249E0,2.646268129E0,3.976732790E-1,1.881465018E-1
2.573816484E0,2.641992092E0,3.921754956E-1,1.765400618E-1
2.575801104E0,2.639548779E0,3.897320330E-1,1.728748679E-1
2.577814954E0,2.634661913E0,3.860668242E-1,1.606575549E-1
2.579798036E0,2.626720667E0,3.787364662E-1,1.472185254E-1
2.581809349E0,2.626720667E0,3.750712574E-1,1.392772794E-1
2.583825661E0,2.621833563E0,3.671300113E-1,1.282816976E-1
2.585810589E0,2.615725040E0,3.597996235E-1,1.191187203E-1
2.587793979E0,2.612670660E0,3.567453027E-1,1.136209369E-1
2.589807829E0,2.609616280E0,3.500257730E-1,1.038470939E-1
2.591822603E0,2.607172966E0,3.445279896E-1,9.773843735E-2
2.593806299E0,2.598620653E0,3.335324228E-1,8.918632567E-2
2.595821073E0,2.592512131E0,3.231477141E-1,8.063421398E-2
2.597803309E0,2.585181713E0,3.182607889E-1,7.757988572E-2
2.599818313E0,2.579684019E0,3.048217595E-1,7.086037099E-2
2.601802011E0,2.568688393E0,2.919935882E-1,6.658431143E-2
2.603815631E0,2.561968803E0,2.840523422E-1,6.475171447E-2
2.605799327E0,2.547307968E0,2.663372457E-1,5.436700583E-2
2.607813409E0,2.536312580E0,2.522873580E-1,4.886921868E-2
2.609797721E0,2.530203819E0,2.449569702E-1,4.764748737E-2
2.611811572E0,2.515542984E0,2.284636050E-1,4.276056588E-2
2.613795577E0,2.502104044E0,2.131919712E-1,3.543018550E-2
2.615809427E0,2.492941141E0,2.052507252E-1,3.176499158E-2
2.617823586E0,2.477058649E0,1.887573600E-1,2.321287990E-2
2.619807282E0,2.459343433E0,1.747074574E-1,1.404990070E-2
2.621821210E0,2.449569702E0,1.692096740E-1,7.330383174E-3
2.623804908E0,2.432465315E0,1.533271819E-1,-3.054326167E-3
2.625819373E0,2.414139509E0,1.411098689E-1,-1.710422710E-2
2.627801532E0,2.403143883E0,1.337794960E-1,-2.260201424E-2
2.629817229E0,2.382985353E0,1.246165112E-1,-3.604105115E-2
2.631799695E0,2.371989727E0,1.154535338E-1,-4.214970022E-2
2.633814162E0,2.348165989E0,1.087340117E-1,-6.108652428E-2
2.635799396E0,2.324953079E0,1.032362282E-1,-7.574728876E-2
2.637812247E0,2.313957453E0,9.957103431E-2,-8.246681094E-2
2.639796252E0,2.291966438E0,9.651670605E-2,-9.896016866E-2
2.641811103E0,2.274862289E0,9.101892263E-2,-1.142318025E-1
2.643793800E0,2.263255835E0,8.735372871E-2,-1.209513173E-1
2.645808266E0,2.244318962E0,8.368854225E-2,-1.368338168E-1
2.647821886E0,2.225382090E0,7.574728876E-2,-1.551597714E-1
2.649805506E0,2.218662500E0,7.391469181E-2,-1.624901593E-1
2.651820049E0,2.196671486E0,6.963863969E-2,-1.734857261E-1
2.653803669E0,2.179567099E0,6.230825558E-2,-1.912008226E-1
2.655818443E0,2.168571711E0,5.986479297E-2,-1.985312104E-1
2.657801832E0,2.150245667E0,5.558873713E-2,-2.174680233E-1
2.659814760E0,2.139860868E0,5.253441259E-2,-2.241875380E-1
2.661798765E0,2.122145891E0,5.070181563E-2,-2.388483137E-1
2.663813538E0,2.095878601E0,5.314527452E-2,-2.565633953E-1
2.665797543E0,2.086104870E0,5.558873713E-2,-2.638937831E-1
2.667811163E0,2.058005095E0,6.230825558E-2,-2.816088796E-1
2.669794860E0,2.031737804E0,7.452555746E-2,-2.993239760E-1
2.671808711E0,2.014633656E0,8.246681094E-2,-3.078760803E-1
2.673823100E0,1.988977194E0,9.651670605E-2,-3.249803185E-1
2.675808720E0,1.960877419E0,1.191187203E-1,-3.433062732E-1
2.677821033E0,1.948049307E0,1.295034289E-1,-3.543018401E-1
2.679804345E0,1.918727756E0,1.557706445E-1,-3.701843321E-1
2.681818888E0,1.890017033E0,1.857030392E-1,-3.860668242E-1
2.683803123E0,1.873523712E0,2.003637999E-1,-3.940080702E-1
2.685816128E0,1.847256541E0,2.315179259E-1,-4.092797041E-1
2.687800671E0,1.832595706E0,2.492330223E-1,-4.159992337E-1
2.689813983E0,1.803885102E0,2.871066630E-1,-4.306600094E-1
2.691798296E0,1.772120118E0,3.237585723E-1,-4.416555762E-1
2.693812378E0,1.757459283E0,3.371976018E-1,-4.465425014E-1
2.695796766E0,1.728748679E0,3.756821156E-1,-4.569272101E-1
2.697810002E0,1.697594523E0,4.105014503E-1,-4.642575979E-1
2.699793621E0,1.685377240E0,4.276056588E-1,-4.673119187E-1
2.701806934E0,1.656666517E0,4.587597847E-1,-4.685336351E-1
2.703823478E0,1.625512362E0,4.856378734E-1,-4.734205604E-1
2.705805712E0,1.614516854E0,4.966334403E-1,-4.740314186E-1
2.707818871E0,1.583973527E0,5.192354321E-1,-4.721988440E-1
2.709803875E0,1.553430319E0,5.351179838E-1,-4.715879560E-1
2.711818265E0,1.536326051E0,5.424483418E-1,-4.703662395E-1
2.713801039E0,1.503950238E0,5.522221923E-1,-4.667010605E-1
2.715816735E0,1.466076612E0,5.571091175E-1,-4.593706727E-1
2.717799202E0,1.447750688E0,5.589417219E-1,-4.550946057E-1
2.719813438E0,1.411098719E0,5.540547967E-1,-4.495968223E-1
2.721797365E0,1.395216227E0,5.473352671E-1,-4.465425014E-1
2.723810908E0,1.353677392E0,5.375614166E-1,-4.349360466E-1
2.725794605E0,1.312138557E0,5.204572082E-1,-4.294382632E-1
2.727808456E0,1.289536476E0,5.143485069E-1,-4.239404798E-1
2.729822691E0,1.242499948E0,4.929682612E-1,-4.172209501E-1
2.731806926E0,1.194852471E0,4.709770977E-1,-4.086688459E-1
2.733821700E0,1.171639562E0,4.612032473E-1,-4.068362415E-1
2.735805090E0,1.124602914E0,4.367686510E-1,-3.988949955E-1
2.737818633E0,1.078177214E0,4.166100919E-1,-3.958406746E-1
2.739802638E0,1.053742528E0,4.062253833E-1,-3.921754956E-1
2.741813795E0,1.012814522E0,3.866777122E-1,-3.885102868E-1
2.743799031E0,9.676105380E-1,3.683517575E-1,-3.848451078E-1
2.745814036E0,9.431759119E-1,3.628539443E-1,-3.854559660E-1
2.747798117E0,8.918632865E-1,3.549126983E-1,-3.830125034E-1
2.749812276E0,8.405506015E-1,3.500257730E-1,-3.799581826E-1
2.751795665E0,8.136724830E-1,3.488040566E-1,-3.793473244E-1
2.753809747E0,7.635815740E-1,3.481931984E-1,-3.805690408E-1
2.755825136E0,7.367035151E-1,3.481931984E-1,-3.787364662E-1
2.757807986E0,6.835582256E-1,3.518583775E-1,-3.787364662E-1
2.759821530E0,6.334672570E-1,3.536909819E-1,-3.787364662E-1
2.761806073E0,6.078109145E-1,3.555235863E-1,-3.805690408E-1
2.763819693E0,5.571091175E-1,3.646865487E-1,-3.805690408E-1
2.765803698E0,5.051855445E-1,3.738495409E-1,-3.848451078E-1
2.767817780E0,4.764748812E-1,3.799581826E-1,-3.836233616E-1
2.769801245E0,4.245513380E-1,3.909537494E-1,-3.842342496E-1
2.771815327E0,3.665191531E-1,4.105014503E-1,-3.830125034E-1
2.773799023E0,3.359758854E-1,4.190535545E-1,-3.836233616E-1
2.775813567E0,2.761110961E-1,4.398229718E-1,-3.824016452E-1
2.777796572E0,2.174680233E-1,4.642575979E-1,-3.762930036E-1
2.779811653E0,1.869247705E-1,4.776966274E-1,-3.695734739E-1
2.781794196E0,1.276708394E-1,5.039638281E-1,-3.585779071E-1
2.783808893E0,6.719517708E-2,5.326744914E-1,-3.433062732E-1
2.785823974E0,3.726277873E-2,5.455026627E-1,-3.323107064E-1
2.787805903E0,-1.954768784E-2,5.736024380E-1,-3.127630055E-1
2.789820599E0,-5.375614017E-2,5.864306092E-1,-2.987131178E-1
2.791804373E0,-1.111774743E-1,6.102544069E-1,-2.675589919E-1
2.793818840E0,-1.698205322E-1,6.285803318E-1,-2.339613885E-1
2.795803382E0,-1.997529417E-1,6.346889734E-1,-2.174680233E-1
2.797816926E0,-2.583959997E-1,6.432411075E-1,-1.783726513E-1
2.799800006E0,-3.145956099E-1,6.462954283E-1,-1.374446750E-1
2.801814473E0,-3.420845270E-1,6.462954283E-1,-1.172861308E-1
2.803798478E0,-3.958406746E-1,6.365215778E-1,-7.391469181E-2
2.805811405E0,-4.440990388E-1,6.212499738E-1,-3.359758854E-2
2.807795718E0,-4.703662395E-1,6.126978397E-1,-1.527163107E-2
2.809809877E0,-5.174028873E-1,5.858197808E-1,2.504547499E-2
2.811824419E0,-5.613851547E-1,5.540547967E-1,5.803219974E-2
2.813807193E0,-5.827654600E-1,5.338962078E-1,7.269296050E-2
2.815823428E0,-6.230825782E-1,4.905247986E-1,1.014036313E-1
2.817805587E0,-6.652322412E-1,4.410447180E-1,1.148426682E-1
2.819819746E0,-6.841690540E-1,4.141666293E-1,1.337794960E-1
2.821802288E0,-7.226535678E-1,3.500257730E-1,1.508837193E-1
2.823817370E0,-7.428121567E-1,3.194825351E-1,1.545489132E-1
2.825801914E0,-7.788531780E-1,2.486221492E-1,1.655444801E-1
2.827815456E0,-8.136724830E-1,1.716531366E-1,1.692096740E-1
2.829798615E0,-8.350527883E-1,1.356120855E-1,1.692096740E-1
2.831812773E0,-8.674286604E-1,5.375614017E-2,1.624901593E-1
2.833796778E0,-9.010262489E-1,-3.176499158E-2,1.594358236E-1
2.835811860E0,-9.162978530E-1,-7.452555746E-2,1.533271819E-1
2.837794864E0,-9.511171579E-1,-1.637118906E-1,1.417207420E-1
2.839809100E0,-9.828822017E-1,-2.504547536E-1,1.288925707E-1
2.841823797E0,-9.969320893E-1,-2.901609838E-1,1.221730486E-1
2.843806647E0,-1.026864529E0,-3.775147200E-1,1.123992056E-1
2.845820191E0,-1.056796908E0,-4.581489265E-1,9.896016866E-2
2.847804118E0,-1.074512005E0,-4.954117239E-1,9.285151958E-2
2.849818046E0,-1.100779176E0,-5.729916096E-1,8.246681094E-2
2.851801974E0,-1.115439892E0,-6.096435189E-1,7.819075137E-2
2.853816439E0,-1.141096234E0,-6.774495840E-1,7.513642311E-2
2.855800752E0,-1.166141748E0,-7.397578359E-1,6.780604273E-2
2.857814602E0,-1.175915599E0,-7.703011036E-1,6.963863969E-2
2.859797453E0,-1.199739337E0,-8.228355050E-1,6.963863969E-2
2.861811304E0,-1.222341299E0,-8.717046976E-1,7.269296050E-2
2.863796539E0,-1.236391306E0,-8.918632865E-1,7.757988572E-2
2.865810313E0,-1.255938888E0,-9.291260242E-1,8.124507964E-2
2.867792472E0,-1.277930140E0,-9.572258592E-1,9.162978828E-2
2.869807015E0,-1.290758252E0,-9.706648588E-1,9.407325089E-2
2.871822404E0,-1.309695125E0,-9.889908433E-1,1.093448773E-1
2.873805101E0,-1.332297087E0,-9.981538057E-1,1.197295859E-1
2.875819952E0,-1.339016676E0,-1.005484223E0,1.288925707E-1
2.877802649E0,-1.356731653E0,-1.005484223E0,1.453859210E-1
2.879817192E0,-1.376279354E0,-1.002429843E0,1.606575549E-1
2.881801504E0,-1.382998943E0,-9.975429177E-1,1.679879427E-1
2.883815894E0,-1.398270488E0,-9.877691269E-1,1.820378453E-1
2.885798975E0,-1.405600905E0,-9.798278809E-1,1.887573600E-1
2.887812211E0,-1.421483397E0,-9.645562172E-1,2.040289938E-1
2.889796522E0,-1.435533285E0,-9.431759119E-1,2.156354338E-1
2.891810681E0,-1.442863703E0,-9.309586287E-1,2.199114859E-1
2.893794994E0,-1.456913590E0,-9.059131742E-1,2.315179259E-1
2.895809844E0,-1.471574426E0,-8.820894361E-1,2.406809032E-1
2.897823311E0,-1.478293896E0,-8.649851680E-1,2.419026345E-1
2.899806162E0,-1.491732955E0,-8.387179971E-1,2.498438805E-1
2.901820627E0,-1.500895858E0,-8.112290502E-1,2.547308207E-1
2.903803632E0,-1.507615447E0,-7.965682745E-1,2.547308207E-1
2.905818713E0,-1.514945865E0,-7.684684992E-1,2.571742535E-1
2.907801872E0,-1.526552200E0,-7.415903807E-1,2.547308207E-1
2.909816646E0,-1.530828357E0,-7.287622094E-1,2.559525371E-1
2.911800035E0,-1.536936998E0,-7.061602473E-1,2.541199327E-1
2.913813886E0,-1.546710849E0,-6.853908300E-1,2.480112910E-1
2.915798506E0,-1.549765110E0,-6.780604124E-1,2.461786866E-1
2.917811434E0,-1.556484699E0,-6.615670323E-1,2.376265824E-1
2.919795439E0,-1.563204169E0,-6.542366743E-1,2.351831198E-1
2.921811058E0,-1.571756244E0,-6.432411075E-1,2.272418737E-1
2.923792986E0,-1.582141042E0,-6.352998614E-1,2.162462920E-1
2.925807376E0,-1.587027907E0,-6.359107494E-1,2.113593817E-1
2.927822149E0,-1.596190929E0,-6.359107494E-1,1.985312104E-1
2.929805231E0,-1.609629869E0,-6.383541822E-1,1.893682331E-1
2.931818543E0,-1.615738630E0,-6.420193911E-1,1.857030392E-1
2.933803086E0,-1.626734138E0,-6.487388611E-1,1.722639948E-1
2.935817937E0,-1.640173197E0,-6.585127115E-1,1.600466967E-1
2.937801249E0,-1.643838406E0,-6.640105247E-1,1.545489132E-1
2.939814254E0,-1.655444860E0,-6.768386960E-1,1.417207420E-1
2.941798490E0,-1.665218711E0,-6.921103001E-1,1.288925707E-1
2.943813032E0,-1.668883801E0,-6.976081133E-1,1.258382350E-1
2.945797883E0,-1.680490255E0,-7.128797174E-1,1.136209369E-1
2.947810272E0,-1.687209845E0,-7.299839854E-1,1.044579595E-1
2.949824662E0,-1.692707539E0,-7.379252315E-1,9.773843735E-2
2.951809051E0,-1.700037956E0,-7.507534027E-1,8.552113175E-2
2.953822517E0,-1.702481389E0,-7.593054771E-1,7.880161703E-2
2.955807752E0,-1.705535769E0,-7.745771408E-1,6.780604273E-2
2.957820681E0,-1.709811807E0,-7.886270285E-1,5.497787148E-2
2.959803531E0,-1.712255239E0,-7.959573865E-1,5.131268129E-2
2.961819228E0,-1.713477015E0,-8.106181622E-1,3.481931984E-2
2.963801694E0,-1.712255239E0,-8.252789378E-1,2.321287990E-2
2.965815468E0,-1.712255239E0,-8.313875794E-1,1.466076635E-2
2.967799780E0,-1.712866187E0,-8.454375267E-1,-2.443460980E-3
2.969813708E0,-1.707979202E0,-8.594874144E-1,-1.771509275E-2
2.971797713E0,-1.708590150E0,-8.655960560E-1,-2.443460934E-2
2.973811179E0,-1.703703165E0,-8.778133392E-1,-4.214970022E-2
2.975796722E0,-1.698205352E0,-8.900306821E-1,-6.047565863E-2
2.977809342E0,-1.698816299E0,-8.943067193E-1,-6.719517708E-2
2.979823269E0,-1.692707539E0,-9.040805697E-1,-8.307767659E-2
2.981806274E0,-1.687820673E0,-9.108000994E-1,-1.007927656E-1
2.983821048E0,-1.689042449E0,-9.175195694E-1,-1.069014147E-1
2.985805129E0,-1.681712031E0,-9.230173826E-1,-1.227839142E-1
2.987819519E0,-1.679268599E0,-9.272934198E-1,-1.319468915E-1
2.989802907E0,-1.672549009E0,-9.315695167E-1,-1.453859210E-1
2.991817374E0,-1.667662144E0,-9.388998747E-1,-1.594358236E-1
2.993801071E0,-1.664607763E0,-9.382890463E-1,-1.631010175E-1
2.995815921E0,-1.658499122E0,-9.419541955E-1,-1.734857261E-1
2.997798696E0,-1.652390480E0,-9.443976879E-1,-1.838704348E-1
2.999813162E0,-1.651779652E0,-9.456194043E-1,-1.899790913E-1
3.001796243E0,-1.648114443E0,-9.486737251E-1,-1.973094791E-1
3.003810710E0,-1.647503614E0,-9.480628371E-1,-2.034181207E-1
3.005793483E0,-1.645671010E0,-9.498954415E-1,-2.052507252E-1
3.007808257E0,-1.643838406E0,-9.523389339E-1,-2.113593817E-1
3.009822724E0,-1.639562368E0,-9.511171579E-1,-2.150245607E-1
3.011806651E0,-1.642616630E0,-9.480628371E-1,-2.150245607E-1
3.013820502E0,-1.640173197E0,-9.474520087E-1,-2.144137025E-1
3.015804892E0,-1.637729764E0,-9.492846131E-1,-2.156354338E-1
3.017818049E0,-1.635286212E0,-9.498954415E-1,-2.168571651E-1
3.019801824E0,-1.629788518E0,-9.492846131E-1,-2.131919712E-1
3.021815905E0,-1.629177570E0,-9.492846131E-1,-2.131919712E-1
3.023800525E0,-1.624901533E0,-9.492846131E-1,-2.119702399E-1
3.025814145E0,-1.623068929E0,-9.498954415E-1,-2.101376504E-1
3.027796919E0,-1.623068929E0,-9.505063295E-1,-2.107485086E-1
3.029811693E0,-1.620014668E0,-9.480628371E-1,-2.119702399E-1
3.031795698E0,-1.622458100E0,-9.462302923E-1,-2.125810981E-1
3.033809779E0,-1.620014668E0,-9.486737251E-1,-2.162462920E-1
3.035824861E0,-1.621847272E0,-9.456194043E-1,-2.138028294E-1
3.037807711E0,-1.621236324E0,-9.413433671E-1,-2.199114859E-1
3.039820870E0,-1.620014668E0,-9.425650835E-1,-2.199114859E-1
3.041806182E0,-1.620014668E0,-9.382890463E-1,-2.272418737E-1
3.043819417E0,-1.616960287E0,-9.340129495E-1,-2.315179259E-1
3.045802499E0,-1.615738630E0,-9.291260242E-1,-2.345722616E-1
3.047817196E0,-1.613295078E0,-9.217956662E-1,-2.449569702E-1
3.049800662E0,-1.611462474E0,-9.211847782E-1,-2.443460971E-1
3.051815129E0,-1.610240817E0,-9.144652486E-1,-2.571742535E-1
3.053798517E0,-1.604743004E0,-9.059131742E-1,-2.645046413E-1
3.055814522E0,-1.605353832E0,-9.016370773E-1,-2.712241709E-1
3.057796066E0,-1.602299571E0,-8.906415105E-1,-2.816088796E-1
3.059810147E0,-1.598023534E0,-8.802568316E-1,-2.938261926E-1
3.061823767E0,-1.594969153E0,-8.729264140E-1,-3.005456924E-1
3.063808003E0,-1.591303945E0,-8.588765264E-1,-3.139847219E-1
3.065822776E0,-1.589471340E0,-8.454375267E-1,-3.237585723E-1
3.067805627E0,-1.586417079E0,-8.344419003E-1,-3.323107064E-1
3.069820093E0,-1.580919266E0,-8.185594082E-1,-3.439171314E-1
3.071803713E0,-1.579086661E0,-7.990117669E-1,-3.573561609E-1
3.073818257E0,-1.576032281E0,-7.898487449E-1,-3.628539443E-1
3.075803491E0,-1.572367191E0,-7.684684992E-1,-3.720169365E-1
3.077816650E0,-1.569923639E0,-7.495316267E-1,-3.817907870E-1
3.079798808E0,-1.571756244E0,-7.348709106E-1,-3.860668242E-1
3.081814198E0,-1.569923639E0,-7.141014934E-1,-3.933972120E-1
3.083796664E0,-1.567480206E0,-7.006624341E-1,-3.970624208E-1
3.085811207E0,-1.567480206E0,-6.768386960E-1,-4.025602043E-1
3.087794904E0,-1.568701982E0,-6.530149579E-1,-4.037819207E-1
3.089808986E0,-1.567480206E0,-6.395758986E-1,-4.068362415E-1
3.091823221E0,-1.563204169E0,-6.126978397E-1,-4.068362415E-1
3.093807456E0,-1.560149789E0,-5.913175344E-1,-4.086688459E-1
3.095822230E0,-1.557706356E0,-5.766568184E-1,-4.092797041E-1
3.097805004E0,-1.552208543E0,-5.516113043E-1,-4.105014503E-1
3.099819163E0,-1.548543453E0,-5.290092826E-1,-4.086688459E-1
3.101801398E0,-1.544267297E0,-5.174028873E-1,-4.092797041E-1
3.103817095E0,-1.536326051E0,-4.966334403E-1,-4.092797041E-1
3.105801100E0,-1.528384805E0,-4.776966274E-1,-4.092797041E-1
3.107813412E0,-1.525941372E0,-4.697553813E-1,-4.080579877E-1
3.109798955E0,-1.517389297E0,-4.520402849E-1,-4.105014503E-1
3.111812805E0,-1.506393671E0,-4.392121136E-1,-4.111123085E-1
3.113795579E0,-1.503950238E0,-4.343251884E-1,-4.129449129E-1
3.115811507E0,-1.492343783E0,-4.190535545E-1,-4.117231667E-1
3.117793973E0,-1.486235142E0,-4.129449129E-1,-4.105014503E-1
3.119808132E0,-1.479515672E0,-4.013384581E-1,-4.135557711E-1
3.121822906E0,-1.469130874E0,-3.915646076E-1,-4.153883755E-1
3.123806295E0,-1.463022232E0,-3.878994286E-1,-4.141666293E-1
3.125819838E0,-1.453248382E0,-3.781255782E-1,-4.178318381E-1
3.127803842E0,-1.447750688E0,-3.689626157E-1,-4.178318381E-1
3.129818078E0,-1.442863703E0,-3.640756905E-1,-4.190535545E-1
3.131801083E0,-1.433089852E0,-3.555235863E-1,-4.196644127E-1
3.133816241E0,-1.426370382E0,-3.433062732E-1,-4.221078753E-1
3.135799323E0,-1.422705173E0,-3.390302062E-1,-4.208861589E-1
3.137813405E0,-1.411709547E0,-3.304781020E-1,-4.245513380E-1
3.139796870E0,-1.404379249E0,-3.188716471E-1,-4.251621962E-1
3.141808260E0,-1.400714040E0,-3.115412891E-1,-4.276056588E-1
3.143825187E0,-1.395216227E0,-3.017674387E-1,-4.294382632E-1
3.145808884E0,-1.390940189E0,-2.981022298E-1,-4.294382632E-1
3.147823274E0,-1.385442376E0,-2.871066630E-1,-4.318817258E-1
3.149807355E0,-1.382387996E0,-2.779437006E-1,-4.367686510E-1
3.151820898E0,-1.380555511E0,-2.748893499E-1,-4.343251884E-1
3.153804287E0,-1.380555511E0,-2.651155293E-1,-4.392121136E-1
3.155820292E0,-1.376279354E0,-2.547308207E-1,-4.422664344E-1
3.157802681E0,-1.376890302E0,-2.516764700E-1,-4.440990388E-1
3.159816301E0,-1.381777167E0,-2.443460971E-1,-4.471533597E-1
3.161800306E0,-1.388496757E0,-2.370157093E-1,-4.495968223E-1
3.163815003E0,-1.393383622E0,-2.327396572E-1,-4.502076805E-1
3.165798700E0,-1.404379249E0,-2.278527319E-1,-4.563163519E-1
3.167811628E0,-1.417818189E0,-2.211332172E-1,-4.575380683E-1
3.169796247E0,-1.425148606E0,-2.168571651E-1,-4.593706727E-1
3.171809867E0,-1.443474531E0,-2.095267773E-1,-4.630358517E-1
3.173824565E0,-1.458746195E0,-2.046398520E-1,-4.660901725E-1
3.175809569E0,-1.469130874E0,-2.052507252E-1,-4.673119187E-1
3.177822189E0,-1.484402537E0,-2.003637999E-1,-4.691445231E-1
3.179805579E0,-1.495398164E0,-1.979203373E-1,-4.697553813E-1
3.181819044E0,-1.511280656E0,-1.954768747E-1,-4.697553813E-1
3.183804280E0,-1.527773976E0,-1.948660165E-1,-4.691445231E-1
3.185818822E0,-1.537547827E0,-1.936442852E-1,-4.697553813E-1
3.187800674E0,-1.553430319E0,-1.887573600E-1,-4.685336351E-1
3.189815679E0,-1.568701982E0,-1.857030392E-1,-4.685336351E-1
3.191799375E0,-1.574810624E0,-1.820378453E-1,-4.660901725E-1
3.193814149E0,-1.588860512E0,-1.777617931E-1,-4.648684561E-1
3.195798154E0,-1.600466967E0,-1.692096740E-1,-4.630358517E-1
3.197810774E0,-1.612684250E0,-1.649336219E-1,-4.624249935E-1
3.199825856E0,-1.622458100E0,-1.649336219E-1,-4.593706727E-1
3.201810167E0,-1.631621122E0,-1.612684280E-1,-4.550946057E-1
3.203823711E0,-1.635286212E0,-1.594358236E-1,-4.550946057E-1
3.205807177E0,-1.640784025E0,-1.618792862E-1,-4.508185387E-1
3.207821027E0,-1.640784025E0,-1.704314053E-1,-4.483750761E-1
3.209804725E0,-1.642005801E0,-1.704314053E-1,-4.471533597E-1
3.211819499E0,-1.634675384E0,-1.795943826E-1,-4.428772926E-1
3.213801888E0,-1.630399346E0,-1.857030392E-1,-4.410447180E-1
3.215817969E0,-1.620625496E0,-1.905899495E-1,-4.379903674E-1
3.217800666E0,-1.609019041E0,-1.997529417E-1,-4.361577928E-1
3.219814209E0,-1.605964780E0,-2.034181207E-1,-4.324925840E-1
3.221797676E0,-1.591914773E0,-2.113593817E-1,-4.318817258E-1
3.223811834E0,-1.580308437E0,-2.174680233E-1,-4.306600094E-1
3.225796069E0,-1.573588848E0,-2.217440903E-1,-4.294382632E-1
3.227809689E0,-1.561982393E0,-2.272418737E-1,-4.288274050E-1
3.229823848E0,-1.549765110E0,-2.345722616E-1,-4.276056588E-1
3.231806930E0,-1.542434692E0,-2.382374406E-1,-4.288274050E-1
3.233822549E0,-1.528384805E0,-2.480112910E-1,-4.269948006E-1
3.235806862E0,-1.514945865E0,-2.541199327E-1,-4.276056588E-1
3.237819251E0,-1.507004619E0,-2.577851415E-1,-4.269948006E-1
3.239802640E0,-1.498452425E0,-2.663372457E-1,-4.251621962E-1
3.241818030E0,-1.492343783E0,-2.700024247E-1,-4.257730842E-1
3.243801110E0,-1.486845970E0,-2.736676335E-1,-4.245513380E-1
3.245815577E0,-1.481348276E0,-2.730567753E-1,-4.251621962E-1
3.247798967E0,-1.479515672E0,-2.718350291E-1,-4.208861589E-1
3.249813124E0,-1.474628687E0,-2.706133127E-1,-4.172209501E-1
3.251797360E0,-1.478293896E0,-2.651155293E-1,-4.123340547E-1
3.253811211E0,-1.477072120E0,-2.602286041E-1,-4.129449129E-1
3.255795523E0,-1.480126500E0,-2.516764700E-1,-4.043927789E-1
3.257808836E0,-1.483180761E0,-2.388483137E-1,-3.982841372E-1
3.259823224E0,-1.483791709E0,-2.321287990E-1,-3.940080702E-1
3.261806614E0,-1.488067746E0,-2.150245607E-1,-3.848451078E-1
3.263822004E0,-1.489289522E0,-1.966986060E-1,-3.762930036E-1
3.265804777E0,-1.492343783E0,-1.863138974E-1,-3.726277947E-1
3.267818013E0,-1.495398164E0,-1.631010175E-1,-3.604104817E-1
3.269802710E0,-1.495398164E0,-1.404990107E-1,-3.524692357E-1
3.271816483E0,-1.498452425E0,-1.295034289E-1,-3.469714522E-1
3.273800873E0,-1.501506805E0,-1.069014147E-1,-3.384193480E-1
3.275815338E0,-1.499674201E0,-8.613199741E-2,-3.378084898E-1
3.277798728E0,-1.501506805E0,-7.635815442E-2,-3.316998184E-1
3.279811887E0,-1.502728462E0,-6.108652428E-2,-3.243694305E-1
3.281796275E0,-1.500285029E0,-5.375614017E-2,-3.231477141E-1
3.283809819E0,-1.497841597E0,-4.642575979E-2,-3.225368559E-1
3.285823901E0,-1.492954612E0,-4.092797264E-2,-3.213151097E-1
3.287807905E0,-1.489900351E0,-3.848451003E-2,-3.225368559E-1
3.289821525E0,-1.485624313E0,-3.848451003E-2,-3.262020350E-1
3.291805452E0,-1.481959105E0,-4.581489414E-2,-3.262020350E-1
3.293819611E0,-1.480126500E0,-4.703662544E-2,-3.292563558E-1
3.295804539E0,-1.477683067E0,-5.558873713E-2,-3.316998184E-1
3.297818389E0,-1.472185254E0,-6.841690838E-2,-3.359758854E-1
3.299800933E0,-1.470963478E0,-7.574728876E-2,-3.353650272E-1
3.301812245E0,-1.464854836E0,-9.407325089E-2,-3.390302062E-1
3.303799019E0,-1.455080986E0,-1.178969890E-1,-3.396410644E-1
3.305813178E0,-1.448361516E0,-1.295034289E-1,-3.396410644E-1
3.307796566E0,-1.437365890E0,-1.557706445E-1,-3.384193480E-1
3.309811648E0,-1.432479024E0,-1.698205322E-1,-3.414736688E-1
3.311794422E0,-1.418429136E0,-1.991420686E-1,-3.396410644E-1
3.313808657E0,-1.407433510E0,-2.302961946E-1,-3.371976018E-1
3.315823662E0,-1.398270488E0,-2.461786866E-1,-3.353650272E-1
3.317806820E0,-1.383609772E0,-2.767219543E-1,-3.310889602E-1
3.319820979E0,-1.370781660E0,-3.090978265E-1,-3.268128932E-1
3.321805830E0,-1.361007810E0,-3.255911767E-1,-3.249803185E-1
3.323818834E0,-1.346346974E0,-3.555235863E-1,-3.219259977E-1
3.325802224E0,-1.332297087E0,-3.848451078E-1,-3.188716471E-1
3.327816383E0,-1.322523236E0,-3.988949955E-1,-3.158173263E-1
3.329800310E0,-1.308473349E0,-4.257730842E-1,-3.133738637E-1
3.331814469E0,-1.290147424E0,-4.502076805E-1,-3.097086847E-1
3.333797242E0,-1.282206178E0,-4.630358517E-1,-3.103195429E-1
3.335813247E0,-1.268767118E0,-4.807509482E-1,-3.066543639E-1
3.337796098E0,-1.256549835E0,-5.015203953E-1,-3.017674387E-1
3.339810256E0,-1.249830246E0,-5.082398653E-1,-3.017674387E-1
3.341823107E0,-1.237002134E0,-5.229006410E-1,-2.993239760E-1
3.343808650E0,-1.232726097E0,-5.277875662E-1,-2.944370508E-1
3.345823193E0,-1.221119642E0,-5.424483418E-1,-2.944370508E-1
3.347804736E0,-1.208291411E0,-5.552765131E-1,-2.895501256E-1
3.349820433E0,-1.201571941E0,-5.589417219E-1,-2.895501256E-1
3.351803745E0,-1.190576315E0,-5.699372888E-1,-2.840523422E-1
3.353816673E0,-1.177748203E0,-5.839871764E-1,-2.809980214E-1
3.355802216E0,-1.171639562E0,-5.888741016E-1,-2.767219543E-1
3.357814836E0,-1.161865711E0,-6.041457057E-1,-2.706133127E-1
3.359799225E0,-1.155146122E0,-6.175847650E-1,-2.651155293E-1
3.361813615E0,-1.147204876E0,-6.236934066E-1,-2.608394623E-1
3.363796696E0,-1.138041973E0,-6.377432942E-1,-2.571742535E-1
3.365810547E0,-1.129489779E0,-6.524040699E-1,-2.498438805E-1
3.367825321E0,-1.128268123E0,-6.548475623E-1,-2.455678284E-1
3.369809403E0,-1.124602914E0,-6.688974500E-1,-2.394591719E-1
3.371822561E0,-1.121548533E0,-6.811147332E-1,-2.345722616E-1
3.373806027E0,-1.120326877E0,-6.866125464E-1,-2.315179259E-1
3.375821340E0,-1.119716048E0,-6.994407177E-1,-2.247984111E-1
3.377804113E0,-1.116661668E0,-7.006624341E-1,-2.211332172E-1
3.379818349E0,-1.115439892E0,-7.110471725E-1,-2.168571651E-1
3.381801353E0,-1.116050839E0,-7.220427394E-1,-2.101376504E-1
3.383815819E0,-1.114218235E0,-7.281513810E-1,-2.083050460E-1
3.385800209E0,-1.112385631E0,-7.415903807E-1,-2.021963894E-1
3.387813751E0,-1.110553026E0,-7.525860071E-1,-1.973094791E-1
3.389797756E0,-1.109942198E0,-7.611380816E-1,-1.960877478E-1
3.391811837E0,-1.112996459E0,-7.751879692E-1,-1.912008226E-1
3.393794996E0,-1.116050839E0,-7.874053121E-1,-1.857030392E-1
3.395810386E0,-1.118494272E0,-7.947356701E-1,-1.850921661E-1
3.397824236E0,-1.124602914E0,-8.045095205E-1,-1.802052408E-1
3.399808241E0,-1.133765936E0,-8.106181622E-1,-1.783726513E-1
3.401822092E0,-1.140485406E0,-8.142833710E-1,-1.753183305E-1
3.403805712E0,-1.149648428E0,-8.167268038E-1,-1.704314053E-1
3.405819255E0,-1.158200502E0,-8.173376918E-1,-1.649336219E-1
3.407803259E0,-1.163087368E0,-8.142833710E-1,-1.618792862E-1
3.409817726E0,-1.168585181E0,-8.142833710E-1,-1.545489132E-1
3.411800808E0,-1.171028733E0,-8.130616546E-1,-1.514945775E-1
3.413815350E0,-1.173472166E0,-8.118399382E-1,-1.435533315E-1
3.415800201E0,-1.176526427E0,-8.087855577E-1,-1.362229437E-1
3.417813514E0,-1.175915599E0,-8.093964458E-1,-1.307251602E-1
3.419796595E0,-1.179580808E0,-8.051204085E-1,-1.227839142E-1
3.421810677E0,-1.181413412E0,-8.057312369E-1,-1.172861308E-1
3.423825219E0,-1.182635069E0,-8.026769161E-1,-1.130100712E-1
3.425808532E0,-1.183246017E0,-8.045095205E-1,-1.069014147E-1
3.427821845E0,-1.185078621E0,-8.038986921E-1,-1.020144969E-1
3.429806772E0,-1.185078621E0,-8.038986921E-1,-9.957103431E-2
3.431821238E0,-1.183246017E0,-8.057312369E-1,-9.407325089E-2
3.433804550E0,-1.182024240E0,-8.069530129E-1,-9.101892263E-2
3.435819940E0,-1.182024240E0,-8.087855577E-1,-9.162978828E-2
3.437802175E0,-1.179580808E0,-8.106181622E-1,-8.796459436E-2
3.439815949E0,-1.175915599E0,-8.124507666E-1,-8.857546002E-2
3.441800338E0,-1.176526427E0,-8.118399382E-1,-8.796459436E-2
3.443813882E0,-1.171639562E0,-8.142833710E-1,-8.918632567E-2
3.445797886E0,-1.171028733E0,-8.136724830E-1,-9.101892263E-2
3.447811352E0,-1.166141748E0,-8.142833710E-1,-9.224065393E-2
3.449826511E0,-1.154535294E0,-8.148942590E-1,-9.590584040E-2
3.451809592E0,-1.152091861E0,-8.161159754E-1,-9.834930301E-2
3.453823443E0,-1.142318010E0,-8.179485798E-1,-1.050688252E-1
3.455807370E0,-1.131933331E0,-8.210029006E-1,-1.087340117E-1
3.457821529E0,-1.127046347E0,-8.210029006E-1,-1.093448773E-1
3.459805611E0,-1.118494272E0,-8.228355050E-1,-1.123992056E-1
3.461818538E0,-1.108109593E0,-8.240572214E-1,-1.172861308E-1
3.463803466E0,-1.101390004E0,-8.246681094E-1,-1.185078546E-1
3.465817316E0,-1.095281363E0,-8.228355050E-1,-1.215621829E-1
3.467800398E0,-1.087340117E0,-8.234463334E-1,-1.215621829E-1
3.469815403E0,-1.080620646E0,-8.234463334E-1,-1.185078546E-1
3.471798253E0,-1.074512005E0,-8.185594082E-1,-1.142318025E-1
3.473812720E0,-1.069625020E0,-8.179485798E-1,-1.148426682E-1
3.475798186E0,-1.062294602E0,-8.118399382E-1,-1.093448773E-1
3.477810883E0,-1.054964304E0,-8.045095205E-1,-1.032362282E-1
3.479824349E0,-1.055575132E0,-7.996225953E-1,-9.712757170E-2
3.481808969E0,-1.053131700E0,-7.892379165E-1,-8.491026610E-2
3.483823128E0,-1.051909924E0,-7.745771408E-1,-7.574728876E-2
3.485805902E0,-1.049466491E0,-7.672467232E-1,-6.902777404E-2
3.487820060E0,-1.049466491E0,-7.525860071E-1,-5.070181563E-2
3.489803757E0,-1.050688267E0,-7.312057018E-1,-3.604105115E-2
3.491817993E0,-1.052520871E0,-7.208209634E-1,-2.932153270E-2
3.493801304E0,-1.052520871E0,-6.976081133E-1,-1.527163107E-2
3.495816694E0,-1.056185961E0,-6.725626588E-1,1.832595794E-3
3.497800160E0,-1.058018565E0,-6.621779203E-1,8.552113548E-3
3.499813934E0,-1.064738154E0,-6.316346526E-1,2.382374369E-2
3.501797323E0,-1.065959811E0,-6.029239893E-1,3.481931984E-2
3.503811558E0,-1.069014192E0,-5.894849896E-1,4.031710699E-2
3.505826563E0,-1.078177214E0,-5.583308339E-1,5.131268129E-2
3.507808414E0,-1.080009699E0,-5.448917747E-1,5.925392732E-2
3.509823495E0,-1.087340117E0,-5.155702829E-1,6.352998316E-2
3.511807577E0,-1.093448758E0,-4.868595898E-1,6.902777404E-2
3.513822658E0,-1.097724795E0,-4.715879560E-1,7.330382615E-2
3.515806894E0,-1.106276989E0,-4.459316432E-1,7.452555746E-2
3.517819514E0,-1.116050839E0,-4.159992337E-1,7.330382615E-2
3.519802672E0,-1.117883444E0,-4.056145251E-1,7.452555746E-2
3.521817677E0,-1.127657294E0,-3.793473244E-1,7.147123665E-2
3.523801066E0,-1.135598540E0,-3.549126983E-1,7.024950534E-2
3.525814994E0,-1.138652802E0,-3.445279896E-1,6.719517708E-2
3.527798614E0,-1.147815824E0,-3.213151097E-1,6.108652428E-2
3.529812772E0,-1.155146122E0,-3.017674387E-1,5.436700583E-2
3.531795623E0,-1.159422278E0,-2.938261926E-1,5.314527452E-2
3.533811013E0,-1.166752577E0,-2.791654170E-1,4.764748737E-2
3.535824786E0,-1.172250390E0,-2.651155293E-1,4.398229718E-2
3.537808560E0,-1.174693823E0,-2.590068579E-1,4.337143153E-2
3.539822641E0,-1.178969979E0,-2.528982162E-1,3.848451003E-2
3.541805492E0,-1.180802464E0,-2.504547536E-1,3.665191308E-2
3.543820267E0,-1.184467673E0,-2.516764700E-1,3.481931984E-2
3.545804501E0,-1.185078621E0,-2.565633953E-1,3.543018550E-2
3.547818045E0,-1.185689449E0,-2.577851415E-1,3.604105115E-2
3.549801819E0,-1.185689449E0,-2.718350291E-1,3.176499158E-2
3.551815900E0,-1.183246017E0,-2.895501256E-1,3.543018550E-2
3.553799905E0,-1.182024240E0,-3.005456924E-1,3.420845419E-2
3.555814063E0,-1.179580808E0,-3.219259977E-1,3.665191308E-2
3.557797530E0,-1.176526427E0,-3.494149148E-1,3.970624134E-2
3.559812227E0,-1.174693823E0,-3.677408695E-1,3.909537569E-2
3.561796308E0,-1.172250390E0,-3.976732790E-1,4.703662544E-2
3.563808928E0,-1.167974353E0,-4.324925840E-1,4.948008433E-2
3.565823010E0,-1.166141748E0,-4.483750761E-1,5.253441259E-2
3.567807091E0,-1.161865711E0,-4.831944108E-1,5.925392732E-2
3.569821173E0,-1.158811331E0,-5.027421117E-1,6.169738993E-2
3.571804562E0,-1.156978726E0,-5.393940210E-1,6.841690838E-2
3.573819028E0,-1.152091861E0,-5.717698932E-1,8.002334833E-2
3.575803033E0,-1.149648428E0,-5.882632136E-1,8.491026610E-2
3.577816652E0,-1.142318010E0,-6.206390858E-1,9.162978828E-2
3.579800350E0,-1.136209369E0,-6.517932415E-1,1.020144969E-1
3.581814201E0,-1.133154988E0,-6.646214128E-1,1.087340117E-1
3.583798820E0,-1.129489779E0,-6.914994717E-1,1.178969890E-1
3.585812595E0,-1.123992085E0,-7.141014934E-1,1.282816976E-1
3.587795676E0,-1.120937705E0,-7.257078886E-1,1.331686229E-1
3.589810142E0,-1.116050839E0,-7.391469479E-1,1.459967941E-1
3.591824609E0,-1.111163855E0,-7.550294399E-1,1.545489132E-1
3.593808305E0,-1.107498646E0,-7.611380816E-1,1.600466967E-1
3.595822771E0,-1.102611780E0,-7.696902156E-1,1.704314053E-1
3.597805622E0,-1.099557400E0,-7.733554244E-1,1.795943826E-1
3.599820088E0,-1.101390004E0,-7.751879692E-1,1.844813079E-1
3.601804093E0,-1.097724795E0,-7.757988572E-1,1.948660165E-1
3.603817636E0,-1.095281363E0,-7.715228200E-1,1.966986060E-1
3.605801564E0,-1.091005325E0,-7.617489696E-1,2.052507252E-1
3.607815492E0,-1.090394497E0,-7.495316267E-1,2.138028294E-1
3.609798803E0,-1.089172721E0,-7.446447611E-1,2.144137025E-1
3.611813347E0,-1.089783549E0,-7.263187766E-1,2.229658216E-1
3.613797889E0,-1.086729288E0,-7.061602473E-1,2.284636050E-1
3.615812048E0,-1.086118460E0,-6.963863969E-1,2.315179259E-1
3.617824976E0,-1.087340117E0,-6.737843752E-1,2.376265824E-1
3.619809365E0,-1.087340117E0,-6.530149579E-1,2.449569702E-1
3.621819832E0,-1.085507512E0,-6.438519955E-1,2.510656118E-1
3.623806298E0,-1.087950945E0,-6.243042946E-1,2.559525371E-1
3.625821379E0,-1.087950945E0,-6.108652353E-1,2.657263875E-1
3.627805307E0,-1.087340117E0,-6.017022729E-1,2.712241709E-1
3.629819234E0,-1.088561893E0,-5.876523852E-1,2.834414840E-1
3.631802316E0,-1.089172721E0,-5.821545720E-1,2.950479090E-1
3.633817013E0,-1.091005325E0,-5.815436840E-1,2.993239760E-1
3.635800787E0,-1.091005325E0,-5.809328556E-1,3.139847219E-1
3.637814869E0,-1.087950945E0,-5.791002512E-1,3.176499307E-1
3.639798258E0,-1.089172721E0,-5.864306092E-1,3.323107064E-1
3.641814262E0,-1.091616154E0,-5.943718553E-1,3.475823104E-1
3.643796498E0,-1.091005325E0,-6.017022729E-1,3.530801237E-1
3.645809733E0,-1.096503139E0,-6.206390858E-1,3.646865487E-1
3.647825045E0,-1.094670534E0,-6.401867867E-1,3.775147200E-1
3.649807897E0,-1.095281363E0,-6.530149579E-1,3.842342496E-1
3.651821978E0,-1.095892191E0,-6.798930168E-1,3.915646076E-1
3.653805675E0,-1.094670534E0,-7.092145681E-1,4.025602043E-1
3.655821449E0,-1.095892191E0,-7.269296646E-1,4.080579877E-1
3.657803530E0,-1.089172721E0,-7.611380816E-1,4.117231667E-1
3.659817689E0,-1.087950945E0,-7.965682745E-1,4.184426963E-1
3.661800847E0,-1.082453251E0,-8.148942590E-1,4.184426963E-1
3.663816467E0,-1.080620646E0,-8.478809595E-1,4.227187634E-1
3.665799318E0,-1.081231475E0,-8.790351152E-1,4.196644127E-1
3.667812784E0,-1.081231475E0,-8.918632865E-1,4.184426963E-1
3.669797404E0,-1.080620646E0,-9.132435322E-1,4.166100919E-1
3.671811639E0,-1.082453251E0,-9.224064946E-1,4.117231667E-1
3.673826029E0,-1.083674908E0,-9.352346659E-1,4.056145251E-1
3.675810726E0,-1.084896684E0,-9.431759119E-1,4.056145251E-1
3.677822961E0,-1.089172721E0,-9.437867999E-1,4.001167417E-1
3.679807043E0,-1.088561893E0,-9.425650835E-1,3.970624208E-1
3.681820894E0,-1.086118460E0,-9.364564419E-1,3.933972120E-1
3.683804898E0,-1.089783549E0,-9.321803451E-1,3.903428912E-1
3.685818672E0,-1.085507512E0,-9.187413454E-1,3.860668242E-1
3.687802676E0,-1.085507512E0,-8.979719281E-1,3.799581826E-1
3.689816912E0,-1.085507512E0,-8.888089061E-1,3.769038618E-1
3.691800532E0,-1.083064079E0,-8.625417352E-1,3.744603992E-1
3.693814690E0,-1.080009699E0,-8.307767510E-1,3.671300113E-1
3.695799387E0,-1.080620646E0,-8.136724830E-1,3.628539443E-1
3.697812315E0,-1.081231475E0,-7.757988572E-1,3.591887653E-1
3.699796242E0,-1.078788042E0,-7.574729323E-1,3.567453027E-1
3.701810786E0,-1.080009699E0,-7.141014934E-1,3.488040566E-1
3.703824251E0,-1.078788042E0,-6.695083380E-1,3.420845270E-1
3.705808026E0,-1.078177214E0,-6.481280327E-1,3.402519524E-1
3.707822108E0,-1.077566266E0,-5.980370641E-1,3.329215646E-1
3.709806112E0,-1.076955438E0,-5.503895879E-1,3.286454976E-1
3.711819040E0,-1.078177214E0,-5.259549618E-1,3.268128932E-1
3.713803122E0,-1.078788042E0,-4.776966274E-1,3.249803185E-1
3.715819356E0,-1.076955438E0,-4.312708676E-1,3.268128932E-1
3.717800592E0,-1.073901057E0,-4.074471295E-1,3.268128932E-1
3.719816596E0,-1.073901057E0,-3.671300113E-1,3.304781020E-1
3.721799370E0,-1.072068453E0,-3.280346394E-1,3.359758854E-1
3.723813837E0,-1.069625020E0,-3.103195429E-1,3.426954150E-1
3.725796995E0,-1.067181587E0,-2.816088796E-1,3.524692357E-1
3.727811077E0,-1.059240341E0,-2.547308207E-1,3.659082949E-1
3.729825851E0,-1.057407737E0,-2.480112910E-1,3.732386529E-1
3.731808932E0,-1.051299095E0,-2.357939780E-1,3.872885704E-1
3.733823168E0,-1.047023058E0,-2.302961946E-1,3.940080702E-1
3.735807479E0,-1.041525245E0,-2.266310006E-1,4.098905921E-1
3.737821946E0,-1.036027431E0,-2.284636050E-1,4.251621962E-1
3.739804720E0,-1.035416603E0,-2.327396572E-1,4.306600094E-1
3.741818493E0,-1.029918790E0,-2.419026345E-1,4.434881806E-1
3.743803191E0,-1.025642753E0,-2.583959997E-1,4.563163519E-1
3.745817350E0,-1.018923283E0,-2.675589919E-1,4.587597847E-1
3.747799815E0,-1.019534111E0,-2.889392674E-1,4.636467099E-1
3.749814897E0,-1.010371089E0,-3.139847219E-1,4.703662395E-1
3.751797670E0,-1.009760261E0,-3.255911767E-1,4.685336351E-1
3.753813291E0,-1.005484223E0,-3.530801237E-1,4.709770977E-1
3.755796680E0,-9.993755221E-1,-3.799581826E-1,4.673119187E-1
3.757810223E0,-9.993755221E-1,-3.940080702E-1,4.648684561E-1
3.759824689E0,-9.932668805E-1,-4.239404798E-1,4.587597847E-1
3.761808386E0,-9.896016717E-1,-4.532620013E-1,4.514294267E-1
3.763821621E0,-9.883799553E-1,-4.648684561E-1,4.459316432E-1
3.765806242E0,-9.822713137E-1,-4.966334403E-1,4.361577928E-1
3.767819784E0,-9.804387093E-1,-5.106833577E-1,4.300491214E-1
3.769803174E0,-9.749409556E-1,-5.363397002E-1,4.141666293E-1
3.771817640E0,-9.718865752E-1,-5.607742667E-1,4.031710625E-1
3.773801337E0,-9.682214260E-1,-5.723807216E-1,3.952298164E-1
3.775815880E0,-9.651671052E-1,-5.919284225E-1,3.793473244E-1
3.777799576E0,-9.566149712E-1,-6.120869517E-1,3.634648323E-1
3.779813658E0,-9.547823668E-1,-6.163630486E-1,3.536909819E-1
3.781796202E0,-9.474520087E-1,-6.285803318E-1,3.378084898E-1
3.783810283E0,-9.425650835E-1,-6.395758986E-1,3.213151097E-1
3.785825749E0,-9.401215911E-1,-6.414085031E-1,3.152064681E-1
3.787808754E0,-9.321803451E-1,-6.432411075E-1,3.029891551E-1
3.789823835E0,-9.272934198E-1,-6.432411075E-1,2.883284092E-1
3.791806994E0,-9.230173826E-1,-6.414085031E-1,2.834414840E-1
3.793821152E0,-9.150761366E-1,-6.334672570E-1,2.761110961E-1
3.795805772E0,-9.089674950E-1,-6.224716902E-1,2.669481039E-1
3.797818700E0,-9.046914577E-1,-6.194173694E-1,2.632829249E-1
3.799801704E0,-8.991936445E-1,-6.059783101E-1,2.614503205E-1
3.801817094E0,-8.979719281E-1,-5.968153477E-1,2.608394623E-1
3.803800175E0,-8.912523985E-1,-5.803219676E-1,2.608394623E-1
3.805813488E0,-8.845328689E-1,-5.650503635E-1,2.620611787E-1
3.807797723E0,-8.814785480E-1,-5.571091175E-1,2.657263875E-1
3.809812266E0,-8.735373020E-1,-5.430592299E-1,2.681698501E-1
3.811826040E0,-8.686503768E-1,-5.277875662E-1,2.773328125E-1
3.813810353E0,-8.655960560E-1,-5.222898126E-1,2.828305960E-1
3.815824895E0,-8.588765264E-1,-5.106833577E-1,2.907718420E-1
3.817807977E0,-8.521569967E-1,-5.009095073E-1,2.999348342E-1
3.819821828E0,-8.503243923E-1,-4.972442985E-1,3.042109013E-1
3.821805140E0,-8.436049223E-1,-4.917465150E-1,3.152064681E-1
3.823820299E0,-8.368853927E-1,-4.911356568E-1,3.255911767E-1
3.825803918E0,-8.332201838E-1,-4.935791194E-1,3.298672438E-1
3.827817462E0,-8.295549750E-1,-4.948008358E-1,3.378084898E-1
3.829801544E0,-8.240572214E-1,-4.984660447E-1,3.457497358E-1
3.831815394E0,-8.210029006E-1,-5.045747161E-1,3.530801237E-1
3.833799091E0,-8.185594082E-1,-5.167919993E-1,3.616322279E-1
3.835813864E0,-8.167268038E-1,-5.216789246E-1,3.634648323E-1
3.837797177E0,-8.118399382E-1,-5.393940210E-1,3.683517575E-1
3.839811028E0,-8.130616546E-1,-5.558874011E-1,3.744603992E-1
3.841825263E0,-8.142833710E-1,-5.674937963E-1,3.769038618E-1
3.843808268E0,-8.118399382E-1,-5.870414972E-1,3.793473244E-1
3.845822427E0,-8.142833710E-1,-6.090326309E-1,3.842342496E-1
3.847807123E0,-8.161159754E-1,-6.218608022E-1,3.842342496E-1
3.849820051E0,-8.203920126E-1,-6.456845403E-1,3.842342496E-1
3.851804671E0,-8.246681094E-1,-6.670648456E-1,3.824016452E-1
3.853819060E0,-8.295549750E-1,-6.750060916E-1,3.848451078E-1
3.855803450E0,-8.362745047E-1,-6.927211881E-1,3.836233616E-1
3.857816916E0,-8.417723179E-1,-7.073819637E-1,3.781255782E-1
3.859800074E0,-8.442157507E-1,-7.141014934E-1,3.750712574E-1
3.861813926E0,-8.533787727E-1,-7.183775306E-1,3.714060783E-1
3.863798468E0,-8.558222055E-1,-7.232644558E-1,3.683517575E-1
3.865811473E0,-8.631525636E-1,-7.226535678E-1,3.610213697E-1
3.867825939E0,-8.655960560E-1,-7.159340382E-1,3.524692357E-1
3.869809328E0,-8.662069440E-1,-7.110471725E-1,3.469714522E-1
3.871823718E0,-8.662069440E-1,-6.982190013E-1,3.371976018E-1
3.873807722E0,-8.643743396E-1,-6.792821288E-1,3.249803185E-1
3.875822496E0,-8.637634516E-1,-6.688974500E-1,3.194825351E-1
3.877805347E0,-8.625417352E-1,-6.438519955E-1,3.066543639E-1
3.879820044E0,-8.607091308E-1,-6.169738770E-1,2.938261926E-1
3.881803125E0,-8.588765264E-1,-5.992587805E-1,2.834414840E-1
3.883817591E0,-8.576548100E-1,-5.583308339E-1,2.706133127E-1
3.885801288E0,-8.582656980E-1,-5.192354321E-1,2.528982162E-1
3.887815524E0,-8.552113175E-1,-4.966334403E-1,2.486221492E-1
3.889799143E0,-8.564330935E-1,-4.465425014E-1,2.351831198E-1
3.891812687E0,-8.552113175E-1,-3.964515328E-1,2.223549485E-1
3.893827153E0,-8.552113175E-1,-3.726277947E-1,2.162462920E-1
3.895811542E0,-8.570439219E-1,-3.188716471E-1,2.028072625E-1
3.897826009E0,-8.564330935E-1,-2.913827300E-1,1.985312104E-1
3.899808705E0,-8.576548100E-1,-2.394591719E-1,1.905899495E-1
3.901823479E0,-8.570439219E-1,-1.838704348E-1,1.826487035E-1
3.903807176E0,-8.570439219E-1,-1.594358236E-1,1.795943826E-1
3.905821334E0,-8.582656980E-1,-1.087340117E-1,1.765400618E-1
3.907803801E0,-8.594874144E-1,-5.742133409E-2,1.734857261E-1
3.909818882E0,-8.600982428E-1,-3.359758854E-2,1.722639948E-1
3.911801733E0,-8.613200188E-1,1.099557430E-2,1.747074574E-1
3.913815584E0,-8.607091308E-1,5.375614017E-2,1.759291887E-1
3.915801127E0,-8.613200188E-1,7.513642311E-2,1.765400618E-1
3.917814285E0,-8.619308472E-1,1.130100712E-1,1.802052408E-1
3.919797983E0,-8.649851680E-1,1.490511149E-1,1.832595766E-1
3.921813064E0,-8.619308472E-1,1.637118906E-1,1.838704348E-1
3.923795530E0,-8.643743396E-1,1.930334121E-1,1.893682331E-1
3.925809765E0,-8.655960560E-1,2.193006277E-1,1.905899495E-1
3.927823924E0,-8.631525636E-1,2.296853364E-1,1.912008226E-1
3.929807852E0,-8.649851680E-1,2.467895597E-1,1.912008226E-1
3.931821779E0,-8.631525636E-1,2.522873580E-1,1.918116808E-1
3.933806092E0,-8.643743396E-1,2.626720667E-1,1.942551434E-1
3.935820251E0,-8.637634516E-1,2.681698501E-1,1.905899495E-1
3.937803947E0,-8.631525636E-1,2.675589919E-1,1.899790913E-1
3.939816875E0,-8.619308472E-1,2.626720667E-1,1.875356287E-1
3.941800187E0,-8.607091308E-1,2.528982162E-1,1.857030392E-1
3.943815038E0,-8.619308472E-1,2.461786866E-1,1.838704348E-1
3.945798658E0,-8.600982428E-1,2.254092693E-1,1.808161139E-1
3.947812585E0,-8.570439219E-1,2.003637999E-1,1.789835095E-1
3.949827052E0,-8.588765264E-1,1.869247705E-1,1.753183305E-1
3.951811288E0,-8.576548100E-1,1.514945775E-1,1.747074574E-1
3.953824599E0,-8.558222055E-1,1.154535338E-1,1.728748679E-1
3.955808912E0,-8.564330935E-1,9.590584040E-2,1.722639948E-1
3.957823070E0,-8.576548100E-1,5.253441259E-2,1.716531366E-1
3.959806152E0,-8.588765264E-1,5.497787148E-3,1.747074574E-1
3.961821234E0,-8.570439219E-1,-2.199114859E-2,1.734857261E-1
3.963803622E0,-8.607091308E-1,-7.024950534E-2,1.747074574E-1
3.965818473E0,-8.613200188E-1,-9.346238524E-2,1.753183305E-1
3.967801477E0,-8.625417352E-1,-1.472185254E-1,1.777617931E-1
3.969815713E0,-8.613200188E-1,-1.966986060E-1,1.795943826E-1
3.971799949E0,-8.619308472E-1,-2.229658216E-1,1.826487035E-1
3.973814107E0,-8.600982428E-1,-2.687807083E-1,1.832595766E-1
3.975798497E0,-8.570439219E-1,-3.121521473E-1,1.844813079E-1
3.977811732E0,-8.570439219E-1,-3.316998184E-1,1.844813079E-1
3.979825813E0,-8.546004891E-1,-3.689626157E-1,1.844813079E-1
3.981808972E0,-8.509352803E-1,-4.007275999E-1,1.820378453E-1
