"Time (s)","Linear Acceleration x (m/s^2)","Linear Acceleration y (m/s^2)","Linear Acceleration z (m/s^2)"
1.579764400E-2,-1.972131729E-1,4.613294601E-1,-3.930964470E-1
2.379174000E-2,-1.798839569E-1,4.581470490E-1,-2.878050804E-1
3.178875800E-2,-2.069656849E-1,4.486064911E-1,-1.796503067E-1
3.981462300E-2,-2.858893871E-1,4.306159019E-1,-2.368750572E-1
4.780971800E-2,-2.586386204E-1,3.658800125E-1,-2.967848778E-1
5.580727500E-2,-1.151711941E-1,3.754587173E-1,-3.458380699E-1
6.380198600E-2,-9.288477898E-2,4.020547867E-1,-3.854913712E-1
7.179738800E-2,-2.152025700E-1,4.426331520E-1,-4.705533981E-1
7.979279200E-2,-3.008177280E-1,4.718689919E-1,-5.587844849E-1
8.778765600E-2,-3.619139194E-1,5.146069527E-1,-5.951147079E-1
9.581506000E-2,-4.640607834E-1,5.592999458E-1,-6.757383347E-1
1.038089240E-1,-5.528018475E-1,6.305718422E-1,-7.097067833E-1
1.118058660E-1,-6.294078827E-1,6.823306084E-1,-7.479410172E-1
1.198009610E-1,-7.003524303E-1,6.804580688E-1,-6.627221107E-1
1.277966720E-1,-5.933938026E-1,5.907177925E-1,-6.282439232E-1
1.357933060E-1,-2.143335342E-1,4.711942673E-1,-8.889894485E-1
1.438191710E-1,1.405918598E-1,3.578529358E-1,-9.499373436E-1
1.518141890E-1,4.572715759E-1,2.610096931E-1,-8.896961212E-1
1.598099000E-1,6.069855690E-1,1.883668900E-1,-8.530983925E-1
1.678059180E-1,5.223405361E-1,1.542520523E-1,-7.670154572E-1
1.758023220E-1,3.530766964E-1,7.375860214E-2,-6.298804283E-1
1.837964170E-1,1.612803936E-1,5.717992783E-2,-5.015358925E-1
1.917924360E-1,-1.780676842E-2,8.692169189E-2,-4.401240349E-1
1.997878380E-1,-2.963006496E-1,1.098351479E-1,-3.351082802E-1
2.078140110E-1,-5.297944546E-1,1.305794716E-1,-2.240581512E-1
2.158103370E-1,-6.796112061E-1,8.734560013E-2,-7.824993134E-2
2.238057410E-1,-6.051008701E-1,3.723430634E-2,-4.895019531E-2
2.318009130E-1,-3.753221035E-1,-1.067533493E-1,-1.114869118E-1
2.397960080E-1,-1.789152622E-1,-2.878613472E-1,-5.617141724E-4
2.477919500E-1,1.675705910E-1,-3.420867920E-1,-7.332038879E-2
2.558187380E-1,3.359391689E-1,-3.974695206E-1,-1.794528961E-1
2.638135250E-1,4.120831490E-1,-4.475684166E-1,-1.953320503E-1
2.718098520E-1,3.918797970E-1,-4.659633636E-1,-1.123242378E-1
2.798052540E-1,2.092366219E-1,-4.097681046E-1,-7.107210159E-2
2.878009660E-1,-4.944276810E-2,-3.743834496E-1,1.457214355E-3
2.957975990E-1,-2.844951153E-1,-3.491964340E-1,7.567930222E-2
3.037930800E-1,-4.575967789E-1,-2.981667519E-1,1.267871857E-1
3.118182520E-1,-6.032049656E-1,-2.490534782E-1,2.469334602E-1
3.198137320E-1,-5.351734161E-1,-2.756781578E-1,3.008456230E-1
3.278093660E-1,-2.058393955E-1,-3.808956146E-1,2.125124931E-1
3.358060000E-1,1.080207825E-1,-4.235191345E-1,6.386470795E-2
3.437999410E-1,3.306069374E-1,-4.342451096E-1,1.002922058E-1
3.517961910E-1,5.776789188E-1,-4.322986603E-1,5.885648727E-2
3.597919780E-1,6.577453613E-1,-4.486761093E-1,7.722759247E-2
3.678175360E-1,5.629260540E-1,-4.160413742E-1,1.046247482E-1
3.758141690E-1,4.309856892E-1,-4.033527374E-1,1.626429558E-1
3.838101100E-1,2.320091724E-1,-3.625192642E-1,2.187409401E-1
3.918052060E-1,-3.510832787E-2,-3.127613068E-1,3.380589485E-1
3.998012240E-1,-2.077438831E-1,-2.827854156E-1,3.591928482E-1
4.077960120E-1,-2.790017128E-1,-2.347822189E-1,3.425498009E-1
4.157926460E-1,-2.145602703E-1,-2.169046402E-1,2.357678413E-1
4.238176650E-1,-6.722640991E-2,-1.979999542E-1,1.226968765E-1
4.318145290E-1,2.121493816E-1,-2.378025055E-1,6.028461456E-2
4.398084710E-1,5.098192692E-1,-2.286500931E-1,-4.801988602E-2
4.478051040E-1,6.427352428E-1,-2.112483978E-1,-7.365512848E-2
4.558010460E-1,6.367504597E-1,-1.926479340E-1,-5.573940277E-2
4.637968340E-1,4.892172813E-1,-1.819448471E-1,1.257753372E-2
4.717916220E-1,3.373889923E-1,-1.619195938E-1,9.336566925E-2
4.798181010E-1,1.234540939E-1,-1.634397507E-1,1.824679375E-1
4.878134280E-1,-1.010122299E-1,-1.098957062E-1,2.804636955E-1
4.958100620E-1,-2.546992302E-1,-1.022253036E-1,3.760309219E-1
5.038046190E-1,-2.946469784E-1,-7.883071899E-2,3.926992416E-1
5.118002520E-1,-4.054932594E-1,-8.017539978E-2,2.615947723E-1
5.197962710E-1,-4.039134979E-1,-1.082944870E-1,1.406540871E-1
5.277923660E-1,-1.524994373E-1,-1.628904343E-1,8.976984024E-2
5.358181550E-1,-2.105116844E-2,-1.218347549E-1,5.561923981E-2
5.438142500E-1,1.577877998E-2,-1.093521118E-1,3.556251526E-2
5.518089610E-1,4.565429688E-2,-8.718299866E-2,6.463384628E-2
5.598040560E-1,3.249096870E-2,-7.224178314E-2,1.187095642E-1
5.678001520E-1,-3.429985046E-2,-4.316234589E-2,1.548771858E-1
5.757964010E-1,-1.417982578E-1,2.037048340E-3,1.851363182E-1
5.838211120E-1,-3.078002930E-1,3.919315338E-2,1.808791161E-1
5.918173610E-1,-4.105389118E-1,7.067298889E-2,1.877188683E-1
5.998130720E-1,-4.669818878E-1,8.699989319E-2,1.317119598E-1
6.078087820E-1,-5.248018503E-1,9.103298187E-2,-1.512336731E-2
6.158051860E-1,-6.348311901E-1,1.294956207E-1,-1.676788330E-1
6.238005890E-1,-6.915056705E-1,1.959095001E-1,-2.433490753E-1
6.317959150E-1,-7.560211420E-1,2.664585114E-1,-2.770619392E-1
6.397913180E-1,-9.026515484E-1,3.339004517E-1,-3.071684837E-1
6.478178750E-1,-1.078749537E0,3.362007141E-1,-3.379831314E-1
6.558129700E-1,-1.270339608E0,3.453979492E-1,-3.927526474E-1
6.638082970E-1,-1.343464971E0,2.937288284E-1,-1.327295303E-1
6.718043150E-1,-1.149626493E0,2.042388916E-1,-2.047157288E-1
6.798001020E-1,-9.046750069E-1,8.868026733E-2,-4.542803764E-1
6.877955060E-1,-6.770005226E-1,-4.101181030E-2,-5.586941242E-1
6.957915240E-1,-3.864581585E-1,-9.363555908E-2,-7.286853790E-1
7.038183120E-1,-9.591579437E-2,-6.673717499E-2,-8.117418289E-1
7.118131000E-1,1.957492828E-1,-5.593967438E-2,-8.847200871E-1
7.198081190E-1,3.350744247E-1,-8.616447449E-3,-8.507359028E-1
7.278045210E-1,3.079869747E-1,-6.597614288E-2,-6.849856377E-1
7.358008480E-1,2.825522423E-1,-1.299390793E-1,-6.393837929E-1
7.437946350E-1,1.269044876E-1,-1.720924377E-1,-6.379566193E-1
7.517910390E-1,-5.047678947E-2,-3.163814545E-1,-5.124387741E-1
7.598171340E-1,-1.354398727E-1,-4.166116714E-1,-4.487497807E-1
7.678135370E-1,-1.372625828E-1,-4.447412491E-1,-3.728022575E-1
7.758092480E-1,-2.399094105E-1,-5.466508865E-1,-2.772855759E-1
7.838048820E-1,-2.302880287E-1,-5.356225967E-1,-3.011093140E-1
7.918000540E-1,-2.177786827E-1,-4.606962204E-1,-2.519552708E-1
7.997953810E-1,-2.119820118E-1,-3.460626602E-1,-2.214567661E-1
8.077904760E-1,-3.167333603E-1,-2.462186813E-1,-1.806755066E-1
8.158175720E-1,-4.319210052E-1,-1.796283722E-1,-2.035632133E-1
8.238120510E-1,-5.400876999E-1,-1.074113846E-1,-2.556650639E-1
8.318078390E-1,-6.365724802E-1,-6.748104095E-2,-3.142428398E-1
8.398043960E-1,-6.916307211E-1,-2.755737305E-2,-2.024750710E-1
8.477998760E-1,-6.400183439E-1,-1.910114288E-2,-2.478888035E-1
8.557958180E-1,-4.925446510E-1,-1.091461182E-1,-3.250248432E-1
8.637912980E-1,-2.403466702E-1,-2.600917816E-1,-1.958651543E-1
8.718171620E-1,1.234593391E-1,-4.104309082E-1,-4.762911797E-1
8.798128740E-1,3.292193413E-1,-4.769763947E-1,-6.520998478E-1
8.878082760E-1,5.854032040E-1,-5.409727097E-1,-5.927107334E-1
8.958048340E-1,7.990753651E-1,-5.437936783E-1,-6.150574684E-1
9.037993900E-1,9.951689243E-1,-5.252590179E-1,-5.282723904E-1
9.117954090E-1,9.932920933E-1,-4.930429459E-1,-3.978970051E-1
9.197907350E-1,8.720886707E-1,-4.233083725E-1,-3.485610485E-1
9.278175230E-1,5.588834286E-1,-3.420505524E-1,-2.705073357E-1
9.358130030E-1,2.175855637E-1,-2.606344223E-1,-3.041291237E-1
9.438084060E-1,-1.751229763E-1,-1.568756104E-1,-3.018736839E-1
9.518034240E-1,-4.141709805E-1,-1.772174835E-1,1.522789001E-1
9.598001360E-1,-3.855528831E-1,-2.078247070E-1,-1.347398758E-1
9.677954610E-1,-2.163927555E-1,-3.232841492E-1,-3.715922832E-1
9.757918640E-1,1.048789024E-1,-4.327201843E-1,-4.671373367E-1
9.838171140E-1,5.333986282E-1,-4.521980286E-1,-6.535664797E-1
9.918122090E-1,8.106398582E-1,-3.456974030E-1,-7.602953911E-1
9.998073050E-1,1.072904110E0,-3.023128510E-1,-8.489019871E-1
1.007803938E0,1.303854942E0,-2.433462143E-1,-8.442962170E-1
1.015800496E0,1.391976357E0,-2.140531540E-1,-7.805349827E-1
1.023795975E0,1.245284796E0,-1.636657715E-1,-7.532572746E-1
1.031790379E0,9.819371700E-1,-4.625797272E-2,-6.613690853E-1
1.039816858E0,6.620202065E-1,1.627063751E-2,-4.710173607E-1
1.047812570E0,3.934350014E-1,-2.393722534E-3,-2.854701281E-1
1.055808280E0,2.778654099E-1,-1.029500961E-1,4.440832138E-2
1.063804607E0,2.633471489E-1,-2.426176071E-1,-2.190351486E-2
1.071799163E0,3.067944050E-1,-3.091526031E-1,-1.953454018E-1
1.079794567E0,4.266281128E-1,-3.577823639E-1,-1.812053919E-1
1.087820739E0,6.126465797E-1,-3.527879715E-1,-3.027268648E-1
1.095817065E0,7.173786163E-1,-3.008947372E-1,-4.537625313E-1
1.103813007E0,7.942879200E-1,-1.563558578E-1,-5.862931013E-1
1.111807872E0,8.522300720E-1,-6.477069855E-2,-6.527577639E-1
1.119803582E0,8.230049610E-1,-2.811145782E-2,-6.961030960E-1
1.127799293E0,7.916610241E-1,-6.752109528E-2,-7.019674778E-1
1.135795927E0,6.250627041E-1,-1.585588455E-1,-7.604068518E-1
1.143820792E0,4.303035736E-1,-2.934627533E-1,-7.444938421E-1
1.151816502E0,2.556838989E-1,-3.547029495E-1,-6.873656511E-1
1.159812290E0,1.220290661E-1,-4.023170471E-1,-5.504939556E-1
1.167807693E0,3.772830963E-2,-4.126682281E-1,-4.435561895E-1
1.175803635E0,1.522326469E-2,-3.360700607E-1,-3.137186766E-1
1.183799653E0,-3.100037575E-2,-2.784118652E-1,-2.471089363E-1
1.191795134E0,-1.208219528E-1,-2.111186981E-1,-2.096773386E-1
1.199790536E0,-1.337516308E-1,-1.849145889E-1,-6.422495842E-2
1.207816709E0,-1.757969856E-1,-1.232137680E-1,-6.357085705E-2
1.215812650E0,-2.522029877E-1,-4.751205444E-2,-8.208382130E-2
1.223807439E0,-3.179502487E-1,3.253269196E-2,-7.627022266E-2
1.231803226E0,-3.875837326E-1,1.121873856E-1,-1.555237770E-1
1.239798322E0,-3.412079811E-1,1.172380447E-1,-1.788595915E-1
1.247794032E0,-2.809519768E-1,1.389141083E-1,-2.707645893E-1
1.255789973E0,-1.375222206E-1,1.292514801E-1,-3.667834401E-1
1.263816762E0,2.841234207E-3,1.432752609E-1,-4.407206774E-1
1.271812165E0,1.092038155E-1,1.426906586E-1,-5.168324709E-1
1.279807260E0,2.013463974E-1,1.468162537E-1,-5.665600896E-1
1.287803047E0,2.723071575E-1,1.366443634E-1,-5.270914435E-1
1.295798759E0,3.814766407E-1,1.334896088E-1,-4.517249465E-1
1.303794161E0,5.272917747E-1,1.679964066E-1,-4.098936915E-1
1.311820642E0,6.686744690E-1,9.562969208E-2,-3.419867754E-1
1.319816352E0,7.887382507E-1,3.521251678E-2,-2.608504891E-1
1.327812064E0,8.325326443E-1,-1.037311554E-2,-1.738566160E-1
1.335808312E0,7.999479771E-1,-1.656627655E-2,-1.154635549E-1
1.343804101E0,7.134048939E-1,1.214885712E-2,-4.980421066E-2
1.351798580E0,5.958559513E-1,-4.024505615E-4,2.288991213E-2
1.359794830E0,4.577209949E-1,8.380889893E-3,6.005084515E-2
1.367820771E0,3.592715263E-1,-1.159667969E-2,1.266191602E-1
1.375816790E0,2.501411438E-1,1.153469086E-2,1.441004872E-1
1.383810885E0,1.610043049E-1,2.347087860E-2,1.279705763E-1
1.391806904E0,2.006053925E-2,8.659839630E-2,1.128940582E-1
1.399803230E0,-1.159470081E-1,1.911783218E-1,1.138333678E-1
1.407798326E0,-2.802727222E-1,2.559700012E-1,1.098872423E-1
1.415794959E0,-4.185190201E-1,3.215370178E-1,9.229534864E-2
1.423820824E0,-5.202438831E-1,3.706502914E-1,5.894786119E-2
1.431815996E0,-6.120560169E-1,3.935832977E-1,8.834517002E-2
1.439812015E0,-6.311171055E-1,4.048690796E-1,1.035223007E-1
1.447806802E0,-6.197838783E-1,3.615961075E-1,1.685165167E-1
1.455803744E0,-5.733423233E-1,3.259811401E-1,1.850672364E-1
1.463798224E0,-5.113441944E-1,3.265686035E-1,2.460820079E-1
1.471793628E0,-3.989624977E-1,2.983703613E-1,2.582879663E-1
1.479820338E0,-3.776011467E-1,2.963924408E-1,2.527624965E-1
1.487815434E0,-3.918640614E-1,2.704877853E-1,2.344751358E-1
1.495812375E0,-4.167842865E-1,2.305364609E-1,2.342197299E-1
1.503808086E0,-4.400005341E-1,2.078285217E-1,2.068786025E-1
1.511802643E0,-4.137609005E-1,1.903572083E-1,1.932989955E-1
1.519798585E0,-3.955404758E-1,1.470460892E-1,1.509200335E-1
1.527793988E0,-4.616453648E-1,1.330852509E-1,1.518383026E-1
1.535821083E0,-4.565145969E-1,9.339141846E-2,1.410340071E-1
1.543814948E0,-4.686107635E-1,1.625061035E-3,1.805062890E-1
1.551811582E0,-5.047981739E-1,-7.511997223E-2,2.147744298E-1
1.559807062E0,-5.147879124E-1,-1.511774063E-1,1.915870309E-1
1.567801849E0,-5.225808620E-1,-1.882934570E-1,2.185041904E-1
1.575799329E0,-5.307948589E-1,-1.960811615E-1,1.834194660E-1
1.583794424E0,-5.041117668E-1,-2.058544159E-1,1.774754524E-1
1.591819674E0,-4.453804493E-1,-1.962366104E-1,1.741396189E-1
1.599815461E0,-3.844525814E-1,-1.938257217E-1,1.311339140E-1
1.607811480E0,-3.437566757E-1,-1.270675659E-1,1.273988485E-1
1.615807806E0,-3.111639023E-1,-1.205186844E-1,1.954015493E-1
1.623802210E0,-2.939195633E-1,-1.262969971E-1,1.820137501E-1
1.631798305E0,-2.544901371E-1,-1.253480911E-1,1.601543427E-1
1.639793631E0,-1.982884407E-1,-1.321287155E-1,1.113829613E-1
1.647819803E0,-1.472167969E-1,-1.251783371E-1,9.316575527E-2
1.655816130E0,-1.224756241E-1,-1.714372635E-1,5.985677242E-2
1.663811610E0,-9.033417702E-2,-1.942272186E-1,4.218459129E-3
1.671806936E0,-6.974577904E-2,-1.839342117E-1,2.220869064E-4
1.679802416E0,-1.055247784E-1,-1.428003311E-1,-4.255771637E-4
1.687797819E0,-1.491932869E-1,-1.138191223E-1,2.554237843E-2
1.695794684E0,-1.742770672E-1,-8.738708496E-2,1.338899136E-2
1.703819395E0,-1.922802925E-1,-3.704547882E-2,3.002572060E-2
1.711815028E0,-1.912362576E-1,1.235008240E-3,5.578446388E-2
1.719810740E0,-1.517624855E-1,2.987480164E-2,1.189823747E-1
1.727806142E0,-6.708598137E-2,2.717781067E-2,1.881892085E-1
1.735803700E0,2.484321594E-4,5.524253845E-2,2.603542209E-1
1.743798564E0,2.368307114E-2,7.565975189E-2,2.919738889E-1
1.751793352E0,-4.407691956E-2,1.507682800E-1,3.589180708E-1
1.759819832E0,-1.020236015E-1,1.897525787E-1,3.298714757E-1
1.767815466E0,-8.799266815E-2,1.903238297E-1,2.659334540E-1
1.775811869E0,-5.209636688E-2,1.621704102E-1,2.539665699E-1
1.783805965E0,-3.034496307E-2,1.148948669E-1,2.298188210E-1
1.791802060E0,-1.799511909E-2,7.490062714E-2,1.822504997E-1
1.799797771E0,-3.166413307E-2,7.820320129E-2,1.190624237E-1
1.807793097E0,-3.764867783E-2,6.972503662E-2,1.497470140E-1
1.815820193E0,-2.181458473E-2,4.936122894E-2,1.781815290E-1
1.823815903E0,-5.607438087E-2,1.707649231E-2,1.899386644E-1
1.831810999E0,-1.637043953E-1,2.577590942E-2,1.854313612E-1
1.839806478E0,-2.389516830E-1,4.928779602E-2,1.866670847E-1
1.847801498E0,-2.772004604E-1,7.321262360E-2,1.674923897E-1
1.855798516E0,-2.312510014E-1,4.949283600E-2,1.351934671E-1
1.863792918E0,-1.552188396E-1,4.478359222E-2,1.401882172E-1
1.871819091E0,-1.268606186E-1,7.326221466E-2,-2.476859093E-2
1.879814186E0,-1.387605667E-1,8.458995819E-2,-4.241871834E-2
1.887810513E0,-5.393767357E-2,4.773902893E-2,-1.764841080E-1
1.895808069E0,2.069847584E-1,-3.010940552E-2,-1.525298357E-1
1.903802550E0,4.884858131E-1,-1.538333893E-1,-1.656236649E-1
1.911796799E0,8.492057323E-1,-2.311124802E-1,-1.059043407E-2
1.919792741E0,9.721951485E-1,-3.250970840E-1,8.516192436E-2
1.927819297E0,7.575109005E-1,-4.087114334E-1,2.934796810E-1
1.935815547E0,4.258155823E-1,-4.567604065E-1,4.622755051E-1
1.943810026E0,1.538479328E-1,-4.663944244E-1,6.912877560E-1
1.951806353E0,-1.017494202E-1,-4.977474213E-1,9.716203213E-1
1.959801833E0,-3.359067440E-1,-6.038408279E-1,1.285424471E0
1.967797236E0,-5.740656853E-1,-7.506437302E-1,1.527745605E0
1.975793254E0,-8.100260496E-1,-7.947425842E-1,1.728175282E0
1.983820581E0,-9.700725079E-1,-8.273363113E-1,2.205085516E0
1.991814753E0,-8.874077797E-1,-9.953069687E-1,2.892563105E0
1.999810233E0,-5.624563694E-1,-1.275325775E0,3.579460621E0
2.007805867E0,-2.745122910E-1,-1.561900139E0,4.394362450E0
2.015802194E0,-2.850272655E-1,-1.676159859E0,5.115601540E0
2.023797596E0,-5.281703472E-1,-1.768837929E0,5.795275688E0
2.031792769E0,-8.087196350E-1,-1.928540230E0,6.266726494E0
2.039818941E0,-9.634007215E-1,-2.061997414E0,6.589700222E0
2.047815498E0,-1.210128903E0,-2.260493279E0,6.737629414E0
2.055811286E0,-1.330349445E0,-2.442788124E0,6.769941330E0
2.063806074E0,-1.342328072E0,-2.544157028E0,6.610754013E0
2.071801707E0,-1.441592693E0,-2.545467377E0,6.466262341E0
2.079796496E0,-1.528606534E0,-2.513275146E0,6.261589050E0
2.087793129E0,-1.372265935E0,-2.617794037E0,6.031272888E0
2.095819610E0,-1.130966067E0,-2.756373405E0,5.721016884E0
2.103813858E0,-9.036266804E-1,-2.893465996E0,5.283907413E0
2.111809800E0,-7.570462227E-1,-2.966954231E0,4.964704514E0
2.119805895E0,-4.939579964E-1,-3.075004578E0,4.689339161E0
2.127800991E0,-2.172911167E-1,-3.110179901E0,4.450860023E0
2.135797625E0,-1.195533276E-1,-3.148800850E0,4.130078793E0
2.143824336E0,-2.231824398E-1,-3.217485428E0,3.823494196E0
2.151819431E0,-2.796335220E-1,-3.321177483E0,3.522114277E0
2.159814527E0,-1.459887028E-1,-3.505755424E0,3.144709110E0
2.167810237E0,2.100419998E-2,-3.560944557E0,2.727634668E0
2.175806332E0,8.467316628E-2,-3.508298874E0,2.386394739E0
2.183801120E0,2.596867085E-1,-3.473838806E0,1.995072842E0
2.191797138E0,6.121730804E-1,-3.598978043E0,1.751246929E0
2.199793158E0,1.049076080E0,-3.762116432E0,1.357262611E0
2.207818637E0,1.281935930E0,-3.882049561E0,1.128488541E0
2.215815271E0,1.261243820E0,-3.826551914E0,8.585634232E-1
2.223810982E0,1.325679064E0,-3.712028027E0,8.922786713E-1
2.231805539E0,1.394683123E0,-3.677278042E0,6.505508423E-1
2.239801480E0,1.196156502E0,-3.600994110E0,5.250396729E-1
2.247796269E0,9.584043026E-1,-3.658758640E0,4.797592163E-1
2.255823671E0,8.825137615E-1,-3.824690342E0,6.759624481E-1
2.263817921E0,9.512476921E-1,-4.018671036E0,9.339666367E-1
2.271813631E0,1.017416477E0,-4.167813301E0,8.947334290E-1
2.279809881E0,9.732306004E-1,-4.313482761E0,7.142505646E-1
2.287805053E0,9.068088531E-1,-4.422525883E0,5.480103493E-1
2.295801995E0,8.616225719E-1,-4.404781342E0,3.138155937E-1
2.303797321E0,8.478899002E-1,-4.331570625E0,8.610582352E-2
2.311822878E0,8.579163551E-1,-4.213906288E0,-1.748375893E-1
2.319818281E0,8.708400726E-1,-4.103597164E0,-4.966406822E-1
2.327813762E0,8.780722618E-1,-3.954142094E0,-7.203345299E-1
2.335810395E0,9.711167812E-1,-3.743711472E0,-8.606433868E-1
2.343804491E0,1.117029905E0,-3.601938725E0,-8.058543205E-1
2.351801201E0,1.385469675E0,-3.640902042E0,-5.733695030E-1
2.359797528E0,1.643499255E0,-3.833313465E0,-5.484170914E-1
2.367822392E0,1.999751687E0,-4.005195141E0,-5.503635406E-1
2.375818796E0,2.272186279E0,-4.001247883E0,-7.569413185E-1
2.383815121E0,2.395966530E0,-3.870934963E0,-1.033763885E0
2.391809525E0,2.338631630E0,-3.565045834E0,-1.284195900E0
2.399804928E0,2.257971048E0,-3.332113266E0,-1.364507198E0
2.407800716E0,2.121531963E0,-3.197117805E0,-1.457749844E0
2.415797272E0,1.890295029E0,-3.162485600E0,-1.453477383E0
2.423822291E0,1.654100418E0,-3.158606529E0,-1.346047878E0
2.431818309E0,1.434568882E0,-3.174681664E0,-1.214259148E0
2.439814021E0,1.370807409E0,-3.225377321E0,-1.232468128E0
2.447808808E0,1.478405118E0,-3.296921492E0,-1.204369068E0
2.455805981E0,1.546532631E0,-3.391304255E0,-1.343815327E0
2.463801691E0,1.498462677E0,-3.456883430E0,-1.492462635E0
2.471796555E0,1.413008928E0,-3.419932842E0,-1.535978794E0
2.479822421E0,1.441955090E0,-3.366564989E0,-1.591835022E0
2.487817515E0,1.502148628E0,-3.277598858E0,-1.566756725E0
2.495814150E0,1.601760268E0,-3.239314556E0,-1.528826237E0
2.503808937E0,1.725484252E0,-3.156421900E0,-1.455371857E0
2.511805187E0,1.816267729E0,-3.128326654E0,-1.491559982E0
2.519800897E0,1.820299149E0,-3.060827017E0,-1.604069233E0
2.527796070E0,1.714437604E0,-2.989162207E0,-1.809911728E0
2.535823396E0,1.629920840E0,-2.922828197E0,-1.944269180E0
2.543818876E0,1.470177054E0,-2.727599144E0,-2.086358547E0
2.551813664E0,1.327882290E0,-2.369848251E0,-2.199699402E0
2.559809375E0,1.232176781E0,-2.062615395E0,-2.320501328E0
2.567804701E0,1.179833412E0,-1.780880809E0,-2.378129482E0
2.575801104E0,1.142909288E0,-1.653006196E0,-2.519854069E0
2.583825661E0,1.148840666E0,-1.598605156E0,-2.698940277E0
2.591822603E0,1.127582908E0,-1.619371057E0,-2.882226467E0
2.599818313E0,1.072599649E0,-1.682335973E0,-3.230917931E0
2.607813409E0,1.006841063E0,-1.657193661E0,-3.512765884E0
2.615809427E0,9.392326474E-1,-1.545278311E0,-3.727851391E0
2.623804908E0,9.131001830E-1,-1.334609509E0,-4.027241707E0
2.631799695E0,8.616353273E-1,-1.245557666E0,-4.193241119E0
2.639796252E0,8.005282879E-1,-1.180056810E0,-4.348326683E0
2.647821886E0,7.932842970E-1,-1.171401262E0,-4.502422810E0
2.655818443E0,8.303040266E-1,-1.133909345E0,-4.574406147E0
2.663813538E0,8.952268362E-1,-9.145783186E-1,-4.904510021E0
2.671808711E0,1.004327536E0,-6.652754545E-1,-5.303993702E0
2.679804345E0,1.151238084E0,-4.238602519E-1,-5.624853611E0
2.687800671E0,1.224275589E0,-3.155244589E-1,-5.925119400E0
2.695796766E0,1.138778448E0,-2.406573892E-1,-6.461230278E0
2.703823478E0,8.812878132E-1,-1.745246649E-1,-6.857653618E0
2.711818265E0,5.116696954E-1,-1.005046368E-1,-7.296493053E0
2.719813438E0,4.513642192E-2,4.678535461E-2,-7.816303253E0
2.727808456E0,-3.385324478E-1,1.966150999E-1,-8.180448532E0
2.735805090E0,-6.784545183E-1,4.580618143E-1,-8.315260887E0
2.743799031E0,-8.590766788E-1,9.191124439E-1,-8.159203529E0
2.751795665E0,-8.521369696E-1,1.454638958E0,-8.517011642E0
2.759821530E0,-5.441907048E-1,1.990817547E0,-8.649257660E0
2.767817780E0,-2.399056852E-1,2.269936562E0,-8.908292770E0
2.775813567E0,-1.312806904E-1,2.438141346E0,-9.236835480E0
2.783808893E0,-3.525137305E-1,2.461313248E0,-9.508430481E0
2.791804373E0,-9.674158692E-1,2.370178938E0,-9.643979073E0
2.799800006E0,-1.619428039E0,2.205214024E0,-9.475812912E0
2.807795718E0,-2.014381886E0,2.080908060E0,-9.209781647E0
2.815823428E0,-2.124253750E0,1.901485920E0,-8.723388672E0
2.823817370E0,-1.930747032E0,1.715871334E0,-8.296654701E0
2.831812773E0,-1.578737259E0,1.422005773E0,-7.792920589E0
2.839809100E0,-1.228340626E0,1.122843504E0,-7.351125717E0
2.847804118E0,-1.012354851E0,8.516116142E-1,-7.002141953E0
2.855800752E0,-8.482688069E-1,6.018403769E-1,-6.687706470E0
2.863796539E0,-7.244033813E-1,4.281213284E-1,-6.383295059E0
2.871822404E0,-5.514721870E-1,2.292094231E-1,-5.951734543E0
2.879817192E0,-2.880747020E-1,8.610856533E-2,-5.411651134E0
2.887812211E0,-5.092573911E-2,1.465761662E-2,-4.980494499E0
2.895809844E0,2.572628856E-1,-5.276310444E-2,-4.447391987E0
2.903803632E0,4.329889417E-1,-1.062695980E-1,-3.967984676E0
2.911800035E0,5.251518488E-1,-1.764083505E-1,-3.508605003E0
2.919795439E0,5.325314403E-1,-2.298391461E-1,-3.167422295E0
2.927822149E0,5.577646494E-1,-2.928442955E-1,-2.858187199E0
2.935817937E0,5.187700987E-1,-4.152134061E-1,-2.453892231E0
2.943813032E0,4.847830832E-1,-5.033890009E-1,-2.107562065E0
2.951809051E0,5.405063629E-1,-6.221626997E-1,-1.646589279E0
2.959803531E0,6.550342441E-1,-7.110686302E-1,-1.207258224E0
2.967799780E0,8.449524641E-1,-7.684134245E-1,-7.846679688E-1
2.975796722E0,1.007306814E0,-7.808976769E-1,-5.080327988E-1
2.983821048E0,1.073254228E0,-6.943383813E-1,-4.276514053E-1
2.991817374E0,1.060450077E0,-5.781726837E-1,-3.568382263E-1
2.999813162E0,9.743518233E-1,-4.784580469E-1,-3.842773438E-1
3.007808257E0,8.252384067E-1,-4.592454433E-1,-2.610368729E-1
3.015804892E0,7.473477125E-1,-5.147239566E-1,-7.087135315E-2
3.023800525E0,7.127970457E-1,-5.645641685E-1,1.165952682E-1
3.031795698E0,7.308895588E-1,-5.317651033E-1,2.918062210E-1
3.039820870E0,7.385202646E-1,-4.974884987E-1,4.979772568E-1
3.047817196E0,8.674062490E-1,-5.458227396E-1,6.656007767E-1
3.055814522E0,9.724568129E-1,-5.504176617E-1,8.494739532E-1
3.063808003E0,1.049873710E0,-4.895428419E-1,8.722238541E-1
3.071803713E0,1.016725659E0,-4.025963545E-1,7.881031036E-1
3.079798808E0,8.769654036E-1,-3.403977156E-1,6.396446228E-1
3.087794904E0,7.040346861E-1,-3.519057035E-1,6.396446228E-1
3.095822230E0,5.775032043E-1,-3.864114285E-1,7.184209824E-1
3.103817095E0,5.137046576E-1,-4.961779118E-1,9.070739746E-1
3.111812805E0,4.537767172E-1,-5.069036484E-1,1.160152435E0
3.119808132E0,3.666505814E-1,-5.719268322E-1,1.375065804E0
3.127803842E0,3.340413570E-1,-6.378440857E-1,1.597874641E0
3.135799323E0,3.307037354E-1,-7.028558254E-1,1.713794708E0
3.143825187E0,3.366632462E-1,-7.011773586E-1,1.765775681E0
3.151820898E0,2.896270752E-1,-6.321570873E-1,1.657544136E0
3.159816301E0,2.563381195E-1,-6.076176167E-1,1.379714966E0
3.167811628E0,1.310923100E-1,-4.965527058E-1,9.112901688E-1
3.175809569E0,-1.946282387E-2,-3.490433693E-1,5.428838730E-1
3.183804280E0,-2.268857956E-1,-2.034449577E-1,5.189037323E-1
3.191799375E0,-3.665648699E-1,-1.172554493E-1,8.226671219E-1
3.199825856E0,-4.830585718E-1,-6.021809578E-2,9.773035049E-1
3.207821027E0,-5.817153454E-1,-8.442163467E-3,1.117096901E0
3.215817969E0,-6.603294611E-1,-7.101774216E-2,1.294964790E0
3.223811834E0,-6.480901241E-1,-3.003880978E-1,1.266180038E0
3.231806930E0,-5.254424810E-1,-5.709245205E-1,1.142635345E0
3.239802640E0,-3.447504044E-1,-8.072695732E-1,9.835081100E-1
3.247798967E0,-2.542905807E-1,-8.335163593E-1,7.604007721E-1
3.255795523E0,-2.671852112E-1,-7.571280003E-1,5.800685883E-1
3.263822004E0,-3.660936356E-1,-5.218517780E-1,5.809526443E-1
3.271816483E0,-4.358365536E-1,-2.808074951E-1,5.970268250E-1
3.279811887E0,-3.942723274E-1,-3.251314163E-2,5.748348236E-1
3.287807905E0,-3.549034595E-1,5.561113358E-2,7.523555756E-1
3.295804539E0,-3.891565800E-1,-3.630018234E-2,8.910179138E-1
3.303799019E0,-4.317693710E-1,-3.251018524E-1,1.036284447E0
3.311794422E0,-4.213624001E-1,-6.020803452E-1,1.098413467E0
3.319820979E0,-3.881294727E-1,-8.894510269E-1,1.024897575E0
3.327816383E0,-3.773579597E-1,-1.049381256E0,8.798360825E-1
3.335813247E0,-3.555991650E-1,-1.176492691E0,6.115722656E-1
3.343808650E0,-3.846490383E-1,-1.232563972E0,3.340587616E-1
3.351803745E0,-4.457483292E-1,-1.100446701E0,2.892398834E-2
3.359799225E0,-5.253715515E-1,-8.874812126E-1,-1.007413864E-1
3.367825321E0,-5.776302814E-1,-6.050052643E-1,-5.721998215E-2
3.375821340E0,-5.750205517E-1,-2.409529686E-1,-8.998823166E-2
3.383815819E0,-4.699380398E-1,2.475595474E-2,-9.636259079E-2
3.391811837E0,-3.193612099E-1,1.507444382E-1,-1.217236519E-1
3.399808241E0,-1.910769939E-1,-1.188282967E-1,-2.206711769E-1
3.407803259E0,-1.496522427E-1,-4.669961929E-1,-3.167343140E-1
3.415800201E0,-8.983826637E-2,-8.221979141E-1,-3.005318642E-1
3.423825219E0,-7.191419601E-3,-9.816355705E-1,-2.584037781E-1
3.431821238E0,6.812834740E-2,-1.078480721E0,-6.376075745E-2
3.439815949E0,1.214902401E-1,-9.809098244E-1,2.585315704E-2
3.447811352E0,1.602332592E-1,-7.818541527E-1,7.604789734E-2
3.455807370E0,2.107613087E-1,-5.499830246E-1,7.837867737E-2
3.463803466E0,2.567238808E-1,-4.396133423E-1,-7.118701935E-2
3.471798253E0,1.867108345E-1,-5.186233521E-1,-1.780538559E-1
3.479824349E0,1.100997925E-1,-7.490954399E-1,-2.150182724E-1
3.487820060E0,2.471065521E-2,-1.030998230E0,-1.002960205E-1
3.495816694E0,-2.615976334E-2,-1.185900211E0,-9.494876862E-2
3.503811558E0,1.173019409E-3,-1.266547680E0,-3.648233414E-2
3.511807577E0,4.336977005E-2,-1.319219589E0,1.323938370E-1
3.519802672E0,2.589368820E-2,-1.177940845E0,3.409600258E-1
3.527798614E0,-1.002984047E-1,-9.558353424E-1,4.957900047E-1
3.535824786E0,-2.330834866E-1,-7.562780380E-1,6.351356506E-1
3.543820267E0,-3.950011730E-1,-6.631989479E-1,7.042226791E-1
3.551815900E0,-4.986188412E-1,-5.354852676E-1,6.100459099E-1
3.559812227E0,-5.365326405E-1,-4.408030510E-1,6.570730209E-1
3.567807091E0,-6.060795784E-1,-4.840455055E-1,6.693296432E-1
3.575803033E0,-5.909831524E-1,-6.291890144E-1,7.671699524E-1
3.583798820E0,-5.232207775E-1,-8.585863113E-1,8.873605728E-1
3.591824609E0,-4.143230915E-1,-9.540400505E-1,9.391641617E-1
3.599820088E0,-2.789545059E-1,-9.299569130E-1,8.736753464E-1
3.607815492E0,-1.790671349E-1,-8.485159874E-1,7.494668961E-1
3.615812048E0,-1.761136055E-1,-7.554960251E-1,6.075649261E-1
3.623806298E0,-2.055449486E-1,-6.054439545E-1,4.465541840E-1
3.631802316E0,-2.516348362E-1,-3.964576721E-1,3.176183701E-1
3.639798258E0,-3.459475040E-1,-1.264405251E-1,3.042764664E-1
3.647825045E0,-3.482618332E-1,3.347449303E-1,2.973341942E-1
3.655821449E0,-2.768142223E-1,6.264009476E-1,4.453082085E-1
3.663816467E0,-4.604148865E-2,5.326128006E-1,6.308627129E-1
3.671811639E0,1.681499481E-1,7.747220993E-2,6.341023445E-1
3.679807043E0,4.588201046E-1,-4.909052849E-1,6.590476036E-1
3.687802676E0,7.994720936E-1,-7.434158325E-1,6.550827026E-1
3.695799387E0,1.078333616E0,-7.380719185E-1,6.509675980E-1
3.703824251E0,1.334162951E0,-6.885242462E-1,5.007166862E-1
3.711819040E0,1.406991720E0,-6.814689636E-1,2.904992104E-1
3.719816596E0,1.240742683E0,-6.195635796E-1,2.301979065E-2
3.727811077E0,9.098777771E-1,-4.056596756E-1,-6.405544281E-2
3.735807479E0,6.236875057E-1,-1.600594521E-1,1.955652237E-2
3.743803191E0,3.844604492E-1,1.111268997E-2,1.400833130E-1
3.751797670E0,3.269562721E-1,-9.226226807E-2,3.766379356E-1
3.759824689E0,3.592429161E-1,-5.091691017E-1,5.481319427E-1
3.767819784E0,4.707810879E-1,-8.458671570E-1,7.432403564E-1
3.775815880E0,6.489338875E-1,-1.035227776E0,8.526492119E-1
3.783810283E0,8.451037407E-1,-1.003949642E0,8.636236191E-1
3.791806994E0,9.429981709E-1,-8.987126350E-1,7.961192131E-1
3.799801704E0,9.586486816E-1,-7.618680000E-1,5.743474960E-1
3.807797723E0,8.893890381E-1,-6.792411804E-1,3.816189766E-1
3.815824895E0,7.939617634E-1,-5.405511856E-1,9.737396240E-2
3.823820299E0,6.712484360E-1,-3.326644897E-1,-1.387338638E-1
3.831815394E0,5.696523190E-1,-1.683826447E-1,-3.164434433E-1
3.839811028E0,4.754343033E-1,-8.332347870E-2,-4.148559570E-1
3.847807123E0,4.189615250E-1,-1.552677155E-1,-3.688521385E-1
3.855803450E0,4.540345669E-1,-4.497747421E-1,-1.500692368E-1
3.863798468E0,5.296518803E-1,-7.811069489E-1,2.038097382E-2
3.871823718E0,7.979936600E-1,-9.936590195E-1,2.828192711E-1
3.879820044E0,1.166259050E0,-1.004627228E0,3.978257179E-1
3.887815524E0,1.352660418E0,-9.128904343E-1,4.231181145E-1
3.895811542E0,1.423011065E0,-8.214664459E-1,2.903668880E-1
3.903807176E0,1.334723711E0,-7.570619583E-1,1.681184769E-1
3.911801733E0,1.111600161E0,-7.006616592E-1,-8.663177490E-3
3.919797983E0,8.391625881E-1,-6.213140488E-1,-1.441893578E-1
3.927823924E0,5.995726585E-1,-5.192556381E-1,-2.304751873E-1
3.935820251E0,3.685314655E-1,-3.734779358E-1,-3.501350880E-1
3.943815038E0,1.776940823E-1,-2.917966843E-1,-3.676249981E-1
3.951811288E0,-5.284285545E-2,-2.618150711E-1,-3.457226753E-1
3.959806152E0,-2.317833900E-1,-3.188648224E-1,-2.688980103E-1
3.967801477E0,-3.514730930E-1,-4.637765884E-1,-3.293561935E-2
3.975798497E0,-2.603266239E-1,-6.602134705E-1,2.525811195E-1
3.983824668E0,2.048349380E-2,-6.893472672E-1,3.083803654E-1
3.991819072E0,4.061160088E-1,-6.361865997E-1,3.526086807E-1
3.999814244E0,6.786465645E-1,-4.894838333E-1,2.898774147E-1
4.007811417E0,8.920392990E-1,-3.757705688E-1,1.675450802E-1
4.015806819E0,9.592769146E-1,-2.946796417E-1,-4.877996445E-2
4.023801300E0,9.415450096E-1,-2.196121216E-1,-1.637387276E-1
4.031798010E0,8.344385624E-1,-1.141757965E-1,-2.890770435E-1
4.039823491E0,7.269721031E-1,-5.007743835E-2,-2.575409412E-1
4.047819509E0,5.880963802E-1,-1.205377579E-1,-1.120164394E-1
4.055815605E0,3.799660206E-1,-3.253250122E-1,6.132268906E-2
4.063810700E0,1.432225704E-1,-4.942493439E-1,1.960294247E-1
4.071807026E0,-1.800227165E-1,-5.605325699E-1,4.257726669E-1
4.079801737E0,-3.576471806E-1,-5.863332748E-1,6.431424618E-1
4.087797448E0,-4.594640732E-1,-6.840333939E-1,7.820320129E-1
4.095824312E0,-4.103462696E-1,-7.342548370E-1,8.240320683E-1
4.103818716E0,-3.599653244E-1,-7.086439133E-1,7.382903099E-1
4.111814503E0,-3.447942734E-1,-6.767549515E-1,6.471476555E-1
4.119810753E0,-3.353271484E-1,-6.192378998E-1,5.693914890E-1
4.127805848E0,-3.183767796E-1,-5.620164871E-1,4.473662376E-1
4.135802559E0,-2.813863754E-1,-5.241718292E-1,3.667056561E-1
4.143828423E0,-2.598156929E-1,-5.078649521E-1,2.892916203E-1
4.151823135E0,-2.344841957E-1,-4.651784897E-1,2.176012993E-1
4.159819230E0,-1.938199997E-1,-4.344654083E-1,1.639354229E-1
4.167814556E0,-1.241922379E-1,-4.397506714E-1,1.577565670E-1
4.175810882E0,-7.197284698E-2,-5.171461105E-1,1.827425957E-1
4.183805363E0,-4.018712044E-2,-7.051906586E-1,2.771739960E-1
4.191801458E0,-2.933979034E-3,-8.148698807E-1,3.046815395E-1
4.199797092E0,3.284764290E-2,-7.648448944E-1,3.436281681E-1
4.207822956E0,4.317545891E-2,-6.104326248E-1,3.092610836E-1
4.215819975E0,4.526114464E-2,-4.783706665E-1,1.392426491E-1
4.223815378E0,8.075952530E-3,-3.540935516E-1,3.532075882E-2
4.231810705E0,-4.833698273E-2,-2.707777023E-1,-4.312014580E-2
4.239805261E0,-1.252274513E-1,-1.825180054E-1,-1.080219746E-1
4.247802203E0,-1.646327972E-1,-1.393699646E-1,-1.448452473E-1
4.255828375E0,-1.810581684E-1,-9.579849243E-2,-1.460106373E-1
4.263822856E0,-1.373984814E-1,-7.612037659E-2,-1.735539436E-1
4.271819412E0,-9.906673431E-2,-2.785491943E-2,-1.888468266E-1
4.279814507E0,-1.047701836E-1,-1.574707031E-2,-1.725630760E-1
4.287809603E0,-7.313299179E-2,-1.583194733E-2,-1.844305992E-1
4.295806544E0,-4.215955734E-2,-2.322006226E-2,-1.933264732E-1
4.303801948E0,1.487278938E-2,-4.979419708E-2,-2.281979322E-1
4.311827273E0,1.224756241E-2,-8.835792542E-2,-1.963127851E-1
4.319823292E0,-6.330251694E-3,-1.604633331E-1,-2.917480469E-2
4.327818080E0,-6.179642677E-2,-2.254333496E-1,1.404910088E-1
4.335815022E0,-1.226694584E-1,-3.000288010E-1,3.025457859E-1
4.343809732E0,-1.366217136E-1,-3.223171234E-1,4.369523525E-1
4.351805443E0,-1.310298443E-1,-3.165731430E-1,4.695913792E-1
4.359801538E0,-1.190171242E-1,-2.830076218E-1,4.515373707E-1
4.367828019E0,-6.126475334E-2,-2.672977448E-1,3.696761131E-1
4.375823960E0,2.874517441E-2,-2.502861023E-1,1.663911343E-1
4.383819056E0,9.561562538E-2,-2.676343918E-1,-7.057166100E-2
4.391814151E0,2.069346905E-1,-3.071260452E-1,-3.529262543E-1
4.399808939E0,2.806043625E-1,-3.613309860E-1,-6.150584221E-1
4.407805880E0,3.345649242E-1,-3.263702393E-1,-8.211300373E-1
4.415801668E0,4.017181396E-1,-2.469806671E-1,-9.692746401E-1
4.423826840E0,4.474632740E-1,-1.567220688E-1,-1.014775753E0
4.431823167E0,4.510338306E-1,-6.359291077E-2,-1.034017563E0
4.439818262E0,3.721320629E-1,-4.652214050E-2,-1.046227694E0
4.447815204E0,2.568881512E-1,-2.647686005E-2,-9.946049452E-1
4.455810376E0,1.443817616E-1,-2.503967285E-2,-9.091250896E-1
4.463805395E0,7.078361511E-2,-1.609706879E-2,-8.318214417E-1
4.471801105E0,1.947450638E-2,-1.413822174E-2,-7.658755779E-1
4.479827278E0,-4.742240906E-2,-1.193904877E-2,-7.333586216E-1
4.487822988E0,-9.574508667E-2,-1.660442352E-2,-6.847836971E-1
4.495819700E0,-1.653840542E-1,-1.598358154E-3,-6.278437376E-1
4.503813179E0,-1.961460114E-1,1.370716095E-2,-5.668716431E-1
4.511809814E0,-2.145736217E-1,5.793666840E-2,-4.711374044E-1
4.519804986E0,-1.997926235E-1,6.874084473E-2,-4.430190325E-1
4.527801312E0,-1.814033985E-1,6.027603149E-2,-3.887374401E-1
4.535826869E0,-1.982142925E-1,5.166053772E-2,-3.483159542E-1
4.543822811E0,-1.908318996E-1,4.752349854E-2,-2.835141420E-1
4.551818290E0,-1.597816944E-1,1.896190643E-2,-2.853139639E-1
4.559813694E0,-1.271526814E-1,-1.739311218E-2,-2.840420008E-1
4.567809404E0,-1.001255512E-1,-3.986072540E-2,-2.933089733E-1
4.575805422E0,-5.480098724E-2,-4.843044281E-2,-2.914420366E-1
4.583830672E0,-1.276922226E-2,-9.571075439E-3,-3.118412495E-1
4.591827229E0,2.387094498E-2,-4.768276215E-2,-3.066706657E-1
4.599822709E0,4.568886757E-2,-5.735492706E-2,-2.878443003E-1
4.607818420E0,5.758023262E-2,-1.946830750E-2,-2.581938505E-1
4.615814439E0,7.377529144E-2,1.250267029E-3,-2.108768225E-1
4.623810149E0,7.520365715E-2,7.233619690E-3,-1.984790564E-1
4.631804322E0,9.514975548E-2,3.196430206E-2,-1.872638464E-1
4.639800955E0,4.072308540E-2,3.730201721E-2,-1.652302742E-1
4.647827359E0,2.707719803E-2,4.965114594E-2,-1.157652140E-1
4.655823685E0,5.430936813E-2,4.029369354E-2,-5.816864967E-2
4.663817627E0,8.861112595E-2,-1.236248016E-2,-7.825863361E-2
4.671813645E0,8.680725098E-2,-4.840183258E-2,-9.883689880E-2
4.679809048E0,6.090450287E-2,-1.511859894E-2,-1.174006462E-1
4.687803836E0,4.697775841E-2,6.164550781E-3,-1.241880655E-1
4.695801085E0,3.563165665E-2,2.748012543E-2,-1.072317362E-1
4.703827257E0,5.069327354E-2,6.074047089E-2,-1.026046276E-1
4.711822276E0,8.202171326E-2,1.081438065E-1,-1.006944180E-1
4.719818063E0,9.859013557E-2,1.027202606E-1,-1.060866117E-1
4.727813390E0,7.413911819E-2,1.162939072E-1,-7.826280594E-2
4.735810331E0,8.546400070E-2,1.561059952E-1,-5.795001984E-2
4.743804273E0,8.246326447E-2,1.384477615E-1,-6.174135208E-2
4.751800599E0,5.110311508E-2,1.232814789E-1,-7.769525051E-2
4.759826695E0,2.514171600E-2,1.106853485E-1,-5.081355572E-2
4.767821867E0,6.672143936E-2,8.620929718E-2,-1.733338833E-2
4.775818424E0,4.634428024E-2,7.852935791E-2,-1.779985428E-2
4.783814519E0,3.092765808E-2,5.886936188E-2,-1.635718346E-2
4.791808384E0,2.792930603E-2,5.371093750E-2,-4.137122631E-2
4.799804633E0,4.419064522E-2,4.142284393E-2,-1.121056080E-2
4.807800729E0,5.100440979E-2,2.200603485E-2,-2.170801163E-2
4.815827132E0,6.978940964E-2,2.894687653E-2,-8.103847504E-3
4.823821612E0,1.001567841E-1,4.297924042E-2,-3.969717026E-2
4.831817092E0,1.085107327E-1,4.256725311E-2,-9.463703632E-2
4.839813342E0,1.020290852E-1,4.208850861E-2,-1.130161285E-1
4.847809052E0,1.000092030E-1,4.155445099E-2,-1.118313074E-1
4.855805147E0,1.358783245E-1,5.290794373E-2,-1.197884083E-1
4.863800243E0,1.569635868E-1,6.415939331E-2,-1.322212219E-1
4.871826647E0,1.729693413E-1,8.251190186E-2,-1.325216293E-1
4.879822357E0,2.147653103E-1,5.041980743E-2,-1.254582405E-1
4.887817221E0,2.177660465E-1,3.495597839E-2,-1.396551132E-1
4.895814086E0,2.086210251E-1,4.815387726E-2,-1.035907269E-1
4.903808335E0,1.874763966E-1,4.936885834E-2,-1.082172394E-1
4.911804893E0,1.500301361E-1,6.025314331E-2,-5.584526062E-2
4.919800295E0,1.418511868E-1,6.409645081E-2,-2.295351028E-2
4.927826160E0,1.055889130E-1,5.850696564E-2,1.894080639E-2
4.935822794E0,7.741737366E-2,4.529953003E-4,1.318856478E-1
4.943817659E0,5.472683907E-2,-2.398204803E-2,2.605611086E-1
4.951813369E0,3.796577454E-3,-7.758140564E-3,3.829681873E-1
4.959808773E0,-2.572226524E-2,1.748371124E-2,6.167922020E-1
4.967804714E0,-6.266307831E-2,-3.771781921E-3,7.509739399E-1
4.975801118E0,-1.134805679E-1,9.910583496E-3,7.865847349E-1
4.983825366E0,-1.036694050E-1,-4.955577850E-2,9.891227484E-1
4.991821078E0,-5.958557129E-2,-2.031555176E-1,1.322184443E0
4.999817403E0,5.874633789E-3,-3.605031967E-1,1.911460876E0
5.007812884E0,3.723764420E-2,-4.189414978E-1,2.543592930E0
5.015809133E0,1.293039322E-1,-4.815359116E-1,3.230241776E0
5.023804536E0,2.357163429E-1,-4.616880417E-1,3.659923792E0
5.031800324E0,2.418086529E-1,-4.255342484E-1,3.956813097E0
5.039825573E0,8.256006241E-2,-4.175252914E-1,3.971424341E0
5.047821284E0,-2.302424908E-1,-5.390958786E-1,4.221747398E0
5.055818149E0,-5.971264839E-1,-8.413667679E-1,4.732211113E0
5.063812705E0,-9.570720196E-1,-1.218201637E0,5.240059853E0
5.071809032E0,-1.491215467E0,-1.557107925E0,5.716781139E0
5.079804435E0,-1.998517990E0,-1.690661430E0,6.039404392E0
5.087800069E0,-2.628679514E0,-1.738759041E0,6.259297371E0
5.095827241E0,-3.208604574E0,-1.761448860E0,6.272369862E0
5.103822337E0,-3.534882545E0,-1.768641472E0,6.079726696E0
5.111817124E0,-3.586495876E0,-1.722358704E0,5.857080460E0
5.119812759E0,-3.338391781E0,-1.690307617E0,5.702358246E0
5.127808546E0,-2.795881748E0,-1.802662849E0,5.524604321E0
5.135805411E0,-2.193620682E0,-2.036138535E0,5.264057636E0
5.143829506E0,-1.449702621E0,-2.378898621E0,4.797395706E0
5.151825525E0,-6.644475460E-1,-2.658991814E0,4.269116402E0
5.159821851E0,-1.067965031E-1,-2.854981422E0,3.754280567E0
5.167817176E0,4.218368530E-1,-2.957054138E0,3.050904751E0
5.175813503E0,7.615041733E-1,-3.058374405E0,2.552837610E0
5.183808367E0,1.027713299E0,-3.127465248E0,2.149255037E0
5.191804079E0,1.118304253E0,-3.236463547E0,1.955283165E0
5.199799404E0,1.051991224E0,-3.344679832E0,1.666708708E0
5.207825962E0,9.023404121E-1,-3.473414421E0,1.462996006E0
5.215821980E0,7.251443863E-1,-3.534216881E0,1.298095703E0
5.223816691E0,4.814293385E-1,-3.510553360E0,1.102383137E0
5.231811555E0,3.264620304E-1,-3.438751221E0,9.728684425E-1
5.239808190E0,2.501115799E-1,-3.418734550E0,9.508080482E-1
5.247803823E0,2.577881813E-1,-3.448564529E0,9.691352844E-1
5.255830304E0,3.144302368E-1,-3.516251564E0,9.638447762E-1
5.263825399E0,4.741187096E-1,-3.547437668E0,1.009624958E0
5.271821725E0,6.044881344E-1,-3.549511909E0,1.151759624E0
5.279816897E0,7.281670570E-1,-3.498855591E0,1.101896286E0
5.287813224E0,8.515522480E-1,-3.561184883E0,1.038278103E0
5.295809165E0,9.536781311E-1,-3.635125160E0,9.251160622E-1
5.303803646E0,1.025525808E0,-3.668038368E0,8.643770218E-1
5.311829817E0,1.093485117E0,-3.727079868E0,7.858686447E-1
5.327821547E0,1.142183781E0,-3.580449104E0,2.749118805E-1
5.335817258E0,1.086476564E0,-3.459483624E0,-6.651401520E-3
5.343813584E0,1.068459034E0,-3.328605175E0,-7.741451263E-2
5.351808141E0,1.160155535E0,-3.315884590E0,-1.038103104E-1
5.359803159E0,1.316117287E0,-3.345237255E0,-6.970930099E-2
5.367829101E0,1.473369241E0,-3.352421761E0,3.150939941E-3
5.375826581E0,1.623307347E0,-3.393118858E0,5.954742432E-2
5.383819908E0,1.680960894E0,-3.472934723E0,9.672784805E-2
5.391816233E0,1.716941595E0,-3.556430340E0,-3.136682510E-2
5.399811560E0,1.761632442E0,-3.591411591E0,-1.740098000E-1
5.407807347E0,1.831050038E0,-3.569567204E0,-3.947272301E-1
5.415804213E0,1.886775494E0,-3.488792896E0,-6.649827957E-1
5.423830154E0,1.905021310E0,-3.377308846E0,-9.102196693E-1
5.431825173E0,1.842109203E0,-3.287322044E0,-1.137691498E0
5.439820960E0,1.735605359E0,-3.148998737E0,-1.299582958E0
5.447816364E0,1.711779594E0,-3.081357956E0,-1.335942745E0
5.455813305E0,1.685219526E0,-2.977138519E0,-1.237600803E0
5.463808015E0,1.732177377E0,-2.923753738E0,-1.113919735E0
5.471803496E0,1.813643694E0,-2.934467793E0,-1.039703846E0
5.479830207E0,1.868534803E0,-3.009189129E0,-8.470630646E-1
5.487824763E0,1.871642828E0,-3.104885101E0,-6.507396698E-1
5.495821089E0,1.825490952E0,-3.114291668E0,-4.916534424E-1
5.503816800E0,1.813891768E0,-3.116598129E0,-3.339157104E-1
5.511812203E0,1.782131195E0,-3.006503344E0,-1.416025162E-1
5.519807299E0,1.785773993E0,-2.829804182E0,-1.684665680E-2
5.527803240E0,1.830849767E0,-2.720810175E0,4.250335693E-2
5.535830644E0,1.828269601E0,-2.758556366E0,1.897268295E-1
5.543824508E0,1.808342695E0,-2.900156975E0,2.333040237E-1
5.551820219E0,1.727346182E0,-3.064793587E0,2.090320587E-1
5.559816314E0,1.672694564E0,-3.156940460E0,2.246990204E-1
5.567811641E0,1.559480667E0,-3.206246853E0,2.203121185E-1
5.575808890E0,1.479957819E0,-3.120178223E0,1.628189087E-1
5.583803447E0,1.432705641E0,-3.069707870E0,1.261482239E-1
5.591829004E0,1.413853288E0,-3.038981199E0,2.155590057E-2
5.599824715E0,1.441126108E0,-3.098110676E0,-1.389961243E-1
5.607820348E0,1.464697123E0,-3.125143290E0,-4.367504120E-1
5.615817060E0,1.431278944E0,-3.174975395E0,-7.804794312E-1
5.623811539E0,1.378428817E0,-3.214724064E0,-1.042673111E0
5.631807251E0,1.210657239E0,-3.204702854E0,-1.328834534E0
5.639802961E0,1.066783786E0,-3.098546982E0,-1.650102615E0
5.647829980E0,9.703893661E-1,-2.858466387E0,-1.962361813E0
5.655824844E0,8.818547130E-1,-2.584012270E0,-2.233240128E0
5.663820248E0,8.044794202E-1,-2.432661533E0,-2.404392242E0
5.671815958E0,7.883802056E-1,-2.264168262E0,-2.516823292E0
5.679811592E0,8.320386410E-1,-2.173726797E0,-2.717431068E0
5.687807610E0,8.719049096E-1,-2.037623405E0,-3.082850456E0
5.695803629E0,8.851541281E-1,-1.990575433E0,-3.656847000E0
5.703828878E0,8.739490509E-1,-1.879152179E0,-4.497011185E0
5.711824897E0,7.495862842E-1,-1.840112686E0,-5.323514938E0
5.719820069E0,6.511552930E-1,-1.723002553E0,-6.086506844E0
5.727816011E0,4.838076830E-1,-1.492834330E0,-6.963656425E0
5.735812029E0,4.299908578E-1,-1.305418372E0,-7.560603142E0
5.743807202E0,4.874897003E-1,-1.018896937E0,-8.206256866E0
5.751802528E0,6.502560973E-1,-8.016434908E-1,-8.389128685E0
5.759829085E0,9.682960510E-1,-7.454861999E-1,-8.375484467E0
5.767824180E0,1.404100895E0,-6.170815229E-1,-8.797739983E0
5.775821429E0,1.785527349E0,-4.650299549E-1,-8.861820221E0
5.783814987E0,2.005317450E0,-2.119058371E-1,-8.742590904E0
5.791810928E0,1.935544252E0,6.959748268E-2,-9.062540054E0
5.799806947E0,1.498298168E0,5.485682487E-1,-9.573075294E0
5.807802426E0,7.943379283E-1,9.809985161E-1,-9.932436943E0
5.815830368E0,5.469313264E-2,1.374758005E0,-1.021036053E1
5.823824617E0,-9.162864685E-1,1.830567837E0,-1.026352406E1
5.831819636E0,-1.657771111E0,2.115220070E0,-1.019971371E1
5.839815423E0,-2.313626528E0,2.293742418E0,-1.012883663E1
5.847811442E0,-2.680250168E0,2.177588224E0,-9.878353119E0
5.855807768E0,-2.757335901E0,1.915199995E0,-9.563122749E0
5.863802787E0,-2.697447538E0,1.514470816E0,-9.102165222E0
5.871828651E0,-2.545159578E0,1.191965818E0,-8.730957031E0
5.879824132E0,-2.322207689E0,8.890883923E-1,-8.323093414E0
5.887820073E0,-2.112154961E0,5.941050053E-1,-7.898253918E0
5.895816707E0,-1.778345346E0,1.844639778E-1,-7.532341957E0
5.903811264E0,-1.403725624E0,-2.632524967E-1,-7.152786255E0
5.911807283E0,-1.020133018E0,-5.894171000E-1,-6.911220551E0
5.919802301E0,-5.067891479E-1,-9.228320122E-1,-6.607724667E0
5.927828551E0,-4.659435153E-2,-1.128881693E0,-6.361078262E0
5.935825415E0,4.504976869E-1,-1.310081840E0,-6.151316643E0
5.943819665E0,8.307296038E-1,-1.298210859E0,-5.963473320E0
5.951815298E0,1.034702539E0,-1.165790319E0,-5.689626694E0
5.959811086E0,1.299515724E0,-9.531897902E-1,-5.265054703E0
5.967806489E0,1.529009938E0,-8.405093551E-1,-4.723831177E0
5.975802739E0,1.903054118E0,-8.347772956E-1,-3.924894333E0
5.983829526E0,2.194228172E0,-8.997443914E-1,-3.287704945E0
5.991824083E0,2.538302898E0,-9.704012275E-1,-2.829275608E0
5.999819717E0,2.593930960E0,-1.103039384E0,-2.453858376E0
6.007815813E0,2.369684935E0,-1.271822453E0,-2.065434456E0
6.015812369E0,1.900035858E0,-1.436145186E0,-1.764131546E0
6.023806311E0,1.512168884E0,-1.470568538E0,-1.449032784E0
6.031802560E0,1.122192621E0,-1.441806078E0,-1.009792328E0
6.039828195E0,9.445022941E-1,-1.368082762E0,-8.676156998E-1
6.047824136E0,8.751591444E-1,-1.271476030E0,-9.026956558E-1
6.055820847E0,7.360625267E-1,-1.199716806E0,-1.035935402E0
6.063816173E0,5.116553307E-1,-1.140504599E0,-1.219292641E0
6.071811345E0,1.890653372E-1,-1.098961830E0,-1.217990875E0
6.079806133E0,-6.067097187E-2,-9.628705978E-1,-8.688850403E-1
6.087801843E0,-1.496572495E-1,-7.339909673E-1,-2.126874924E-1
6.095828247E0,1.993560791E-2,-4.929675460E-1,5.324935913E-1
6.103823111E0,3.543298244E-1,-3.502620459E-1,1.059723854E0
6.111819053E0,6.973987818E-1,-3.016157150E-1,1.192163467E0
6.119815379E0,8.071162701E-1,-4.043523073E-1,1.106723785E0
6.127810552E0,6.411731243E-1,-5.978826284E-1,9.967632294E-1
6.135806800E0,2.562576532E-1,-6.213457584E-1,7.272872925E-1
6.143802819E0,-1.509292126E-1,-5.262414217E-1,5.763473511E-1
6.151828068E0,-5.829932690E-1,-4.082680941E-1,4.783143997E-1
6.159823779E0,-8.526189327E-1,-2.599647045E-1,5.103263855E-1
6.167819182E0,-8.576705456E-1,-1.131771803E-1,4.637222290E-1
6.175815586E0,-5.460680723E-1,-5.921208858E-2,4.903507233E-1
6.183810296E0,-1.218481064E-1,-1.458587646E-1,5.382957458E-1
6.191806084E0,4.481580257E-1,-4.538402557E-1,7.412719727E-1
6.199801718E0,8.563241959E-1,-7.719478607E-1,9.252834320E-1
6.207827352E0,1.170632362E0,-1.003865480E0,9.942979813E-1
6.215824909E0,1.287603378E0,-1.017520666E0,1.115263939E0
6.223819389E0,1.308698893E0,-1.124978065E0,1.340636253E0
6.231815100E0,1.313990116E0,-1.404955626E0,1.660842896E0
6.239810426E0,1.292899370E0,-1.553251743E0,1.550804138E0
6.247805906E0,1.278328657E0,-1.504441738E0,9.477510452E-1
6.255832617E0,1.236942053E0,-1.256317616E0,4.643230438E-1
6.263827174E0,1.177321434E0,-9.754333496E-1,3.647994995E-2
6.271822885E0,1.103913784E0,-7.865436077E-1,-2.016124725E-1
6.279819211E0,1.056843758E0,-6.883676052E-1,-4.800224304E-1
6.287814230E0,1.095638514E0,-7.674324512E-1,-6.040334702E-1
6.295811171E0,1.164488077E0,-9.398512840E-1,-3.218889236E-1
6.303806882E0,1.231442928E0,-1.346539497E0,4.020471573E-1
6.311801977E0,1.323078871E0,-1.663785458E0,9.651346207E-1
6.319827842E0,1.469173670E0,-1.913897991E0,1.369172096E0
6.327823322E0,1.574971914E0,-1.958250999E0,1.295454025E0
6.335820187E0,1.503942966E0,-1.818162441E0,1.015999794E0
6.343814359E0,1.267498493E0,-1.558953285E0,4.942102432E-1
6.351810069E0,9.254040718E-1,-1.237560749E0,-5.186748505E-2
6.359806165E0,5.625469685E-1,-8.610706329E-1,-4.871892929E-1
6.367831646E0,2.835035324E-1,-5.990438461E-1,-5.592231750E-1
6.375828356E0,2.070860863E-1,-5.773468018E-1,-4.305214882E-1
6.383823682E0,3.985433578E-1,-8.126430511E-1,-5.023002625E-2
6.391819393E0,7.459225655E-1,-1.068439484E0,3.350687027E-1
6.399813949E0,1.219789505E0,-1.367223740E0,7.144546509E-1
6.407809892E0,1.500957251E0,-1.543933868E0,8.471937180E-1
6.415806294E0,1.437098026E0,-1.599485397E0,7.243599892E-1
6.423832390E0,1.053377390E0,-1.532601833E0,4.373087883E-1
6.431827562E0,5.603721142E-1,-1.328616619E0,1.259202957E-1
6.439822966E0,-2.426600456E-2,-9.049439430E-1,-3.855800629E-1
6.447818907E0,-4.250252247E-1,-4.864068031E-1,-5.219268799E-1
6.455814618E0,-6.916794777E-1,-1.774358749E-1,-4.168739319E-1
6.463809713E0,-6.209883690E-1,-1.615762711E-1,-5.464172363E-2
6.471805501E0,-2.275853157E-1,-2.295451164E-1,2.541093826E-1
6.479831904E0,4.466781616E-1,-2.821764946E-1,5.697813034E-1
6.487827077E0,1.014954329E0,-2.710838318E-1,8.191990852E-1
6.495823402E0,1.429634094E0,-3.444380760E-1,7.893571854E-1
6.503818498E0,1.518232107E0,-5.352921486E-1,6.494355202E-1
6.511814824E0,1.404935837E0,-7.592520714E-1,5.640020370E-1
6.519810535E0,1.154397249E0,-9.878659248E-1,5.528583527E-1
6.527805630E0,8.649234772E-1,-1.009368896E0,6.167321205E-1
6.535833265E0,5.395386219E-1,-8.703656197E-1,8.964262009E-1
6.543827206E0,3.570013046E-1,-7.199473381E-1,1.167765617E0
6.551822533E0,1.549255848E-1,-6.591606140E-1,1.229044914E0
6.559818012E0,3.912210464E-3,-8.477625847E-1,1.178801537E0
6.567813647E0,-7.838177681E-2,-1.050064564E0,1.052690983E0
6.575810357E0,-1.084954739E-1,-1.237676144E0,8.837962151E-1
6.583804760E0,-1.485691071E-1,-1.268679619E0,6.035423279E-1
6.591831855E0,-9.863281250E-2,-1.297412395E0,2.724099159E-1
6.599827567E0,-4.281806946E-2,-1.203342915E0,-4.262351990E-2
6.607823277E0,5.489492416E-2,-8.993129730E-1,-1.071004868E-1
6.615819681E0,2.666645050E-1,-4.042553902E-1,1.614074707E-1
6.623814160E0,5.345025063E-1,-5.272340775E-2,5.772538185E-1
6.631809487E0,9.044044018E-1,-5.663537979E-2,1.080076218E0
6.639804967E0,1.121070385E0,-4.033522606E-1,1.370193005E0
6.647831447E0,1.219469786E0,-1.086177349E0,1.477398396E0
6.655828081E0,1.079208374E0,-1.554946423E0,1.484907150E0
6.663822484E0,8.749160767E-1,-1.680133820E0,1.414403439E0
6.671818271E0,5.616998672E-1,-1.659722328E0,1.127407074E0
6.679814828E0,3.071823120E-1,-1.602977276E0,8.333854675E-1
6.687809078E0,-1.303291321E-2,-1.372772217E0,4.637737274E-1
6.695806019E0,-3.098461628E-1,-9.268922806E-1,3.223757744E-1
6.703831269E0,-4.631280899E-1,-5.161409378E-1,4.171376228E-1
6.711827517E0,-3.746037483E-1,-1.431236267E-1,5.058507919E-1
6.719822383E0,-2.105293274E-1,1.318364143E-1,7.060112953E-1
6.727817477E0,-3.005862236E-2,3.409986496E-1,8.397707939E-1
6.735814958E0,1.197907925E-1,3.520774841E-1,9.020717144E-1
6.743809130E0,2.283573151E-1,2.200984955E-1,8.933804035E-1
6.751804918E0,2.788107395E-1,-1.006736755E-1,9.256267548E-1
6.759831398E0,2.627489567E-1,-4.643726349E-1,8.777594566E-1
6.767827417E0,2.393147945E-1,-7.473201752E-1,8.282341957E-1
6.775823435E0,2.430920601E-1,-7.868070602E-1,8.286259174E-1
6.783818454E0,3.170459270E-1,-6.749362946E-1,8.239953518E-1
6.791813318E0,3.405053616E-1,-4.893560410E-1,9.326455593E-1
6.799809260E0,3.284852505E-1,-2.988042831E-1,1.003804684E0
6.807804970E0,2.817471027E-1,-1.258392334E-1,9.478795528E-1
6.815832451E0,1.754152775E-1,-4.532337189E-2,8.812167645E-1
6.823826315E0,1.217126846E-2,2.753257751E-3,7.196516991E-1
6.831822642E0,-5.834865570E-2,-2.595996857E-2,6.104707718E-1
6.839817967E0,-5.372142792E-2,-1.751985550E-1,4.844522476E-1
6.847813371E0,7.987999916E-2,-5.145359039E-1,5.785052776E-1
6.855810005E0,2.545335293E-1,-1.018346786E0,7.985188961E-1
6.863805408E0,3.576078415E-1,-1.632719040E0,1.024076939E0
6.871831657E0,4.054446220E-1,-1.918100357E0,1.193794012E0
6.879826753E0,4.169218540E-1,-1.881363869E0,1.292923450E0
6.887821848E0,4.145627022E-1,-1.585227966E0,1.343141556E0
6.895818713E0,3.125281334E-1,-1.195327759E0,1.333461523E0
6.903812962E0,1.507494450E-1,-8.456192017E-1,1.308115482E0
6.911808981E0,-1.393103600E-2,-5.771684647E-1,1.252162933E0
6.919804691E0,-1.740276814E-1,-3.417472839E-1,1.209208012E0
6.927831095E0,-1.972527504E-1,-2.539958954E-1,1.100194693E0
6.935827113E0,-1.645784378E-1,-3.208723068E-1,1.020926476E0
6.943821978E0,-6.582593918E-2,-4.758882523E-1,8.510911465E-1
6.951817073E0,-5.602908134E-2,-5.561008453E-1,6.953566074E-1
6.959813399E0,-1.031417847E-1,-6.183567047E-1,5.424065590E-1
6.967809033E0,-1.172499657E-1,-6.163263321E-1,4.148006439E-1
6.975805974E0,-1.351935863E-1,-6.304235458E-1,2.733585835E-1
6.983830070E0,-9.203195572E-2,-7.246618271E-1,3.044767380E-1
6.991826088E0,4.736900330E-2,-8.273439407E-1,2.886888981E-1
6.999821492E0,1.762709618E-1,-9.510040283E-1,1.828906536E-1
7.007816587E0,2.844123840E-1,-9.858980179E-1,3.451895714E-2
7.015814452E0,3.376567364E-1,-8.654823303E-1,2.206158638E-2
7.023809162E0,3.503077030E-1,-6.234750748E-1,1.399292946E-1
7.031804258E0,3.388864994E-1,-3.846845627E-1,2.529809475E-1
7.039830815E0,3.982205391E-1,-1.664848328E-1,3.334980011E-1
7.047825834E0,4.577848911E-1,-2.687454224E-2,2.943838835E-1
7.055822775E0,4.664075375E-1,4.105758667E-2,2.672568560E-1
7.063816717E0,4.166054726E-1,2.535820007E-2,2.236831188E-1
7.071813350E0,3.306150436E-1,-4.469299316E-2,1.409733295E-1
7.079808446E0,1.732628345E-1,-1.685457230E-1,4.430902004E-2
7.087804387E0,4.878592491E-2,-2.617111206E-1,1.817345619E-3
7.095831252E0,-9.897136688E-2,-3.737936020E-1,-4.055130482E-2
7.103826578E0,-1.533079147E-1,-4.508295059E-1,-8.434653282E-2
7.111821982E0,-1.467378139E-1,-5.652837753E-1,-7.753920555E-2
7.119817692E0,-1.070570946E-1,-6.364660263E-1,-9.292137623E-2
7.127812865E0,-8.826327324E-2,-6.793861389E-1,-1.122446060E-1
7.135809806E0,-1.389811039E-1,-6.752586365E-1,-7.386898994E-2
7.143834440E0,-2.275977135E-1,-6.960401535E-1,2.673177719E-1
7.151830766E0,-4.480032921E-1,-6.960744858E-1,5.377953053E-1
7.159826093E0,-7.225103378E-1,-5.932016373E-1,8.025270700E-1
7.167821880E0,-1.064619303E0,-4.589385986E-1,1.305786371E0
7.175818822E0,-1.328027487E0,-3.820705414E-1,1.687154531E0
7.183813533E0,-1.456720471E0,-3.797731400E-1,1.906394720E0
7.191808628E0,-1.493967772E0,-4.574117661E-1,1.953083634E0
7.199834570E0,-1.337414384E0,-4.936666489E-1,1.816270828E0
7.207830512E0,-1.022441864E0,-4.290819168E-1,1.384449363E0
7.215827145E0,-5.826861858E-1,-2.874317169E-1,9.698294401E-1
7.223821318E0,-2.398517132E-1,-1.664104462E-1,6.737369299E-1
7.231817336E0,1.242914200E-1,-3.197383881E-2,1.764689684E-1
7.239812817E0,3.504223824E-1,7.591533661E-2,-2.233585119E-1
7.247808450E0,5.607206821E-1,1.650161743E-1,-5.759756565E-1
7.255804237E0,6.587560177E-1,2.191553116E-1,-8.660199642E-1
7.263830410E0,6.601736546E-1,2.288455963E-1,-1.095432043E0
7.271826659E0,5.620894432E-1,2.377462387E-1,-1.222038507E0
7.279821755E0,4.423561096E-1,1.962490082E-1,-1.223404408E0
7.287816927E0,3.296027184E-1,1.425275803E-1,-1.103523493E0
7.295813484E0,2.359566689E-1,8.748817444E-2,-1.040550232E0
7.303807656E0,2.043108940E-1,-7.626533508E-3,-9.378917217E-1
7.311833521E0,2.809133530E-1,-5.488777161E-2,-9.444038868E-1
7.319829924E0,3.953204155E-1,-9.560585022E-2,-9.151993990E-1
7.327825866E0,5.086214542E-1,-1.084804535E-1,-9.508914948E-1
7.335821653E0,5.861446857E-1,-1.486473083E-1,-9.938672185E-1
7.337805658E0,6.169483662E-1,-1.225004196E-1,-9.967226982E-1
7.339818817E0,6.121599674E-1,-1.009521484E-1,-9.895401001E-1
7.341832129E0,6.025831699E-1,-9.377002716E-2,-9.847516418E-1
7.343817364E0,5.858237743E-1,-1.033468246E-1,-9.655980468E-1
7.351812152E0,5.640461445E-1,-6.801700592E-2,-8.977817893E-1
7.359808478E0,4.856078625E-1,-4.000854492E-2,-8.502444625E-1
7.367834573E0,3.820362091E-1,-1.911544800E-2,-7.628191710E-1
7.375831592E0,2.442910671E-1,-3.149795532E-2,-6.787275672E-1
7.383824841E0,6.076669693E-2,-1.230812073E-2,-5.760247707E-1
7.391821399E0,-4.680800438E-2,3.354072571E-2,-4.452461004E-1
7.399816263E0,-1.453604698E-1,4.610347748E-2,-3.111555576E-1
7.407811974E0,-1.494338512E-1,5.371952057E-2,-2.466313839E-1
7.415808838E0,-1.149168015E-1,2.749538422E-2,-2.127805948E-1
7.423834396E0,-4.679727554E-2,3.177452087E-2,-1.897323132E-1
7.431830106E0,1.636838913E-2,3.529930115E-2,-1.636252403E-1
7.439826202E0,1.292939186E-1,2.135372162E-2,-1.455208063E-1
7.447821528E0,2.294590473E-1,4.270744324E-2,-2.060972452E-1
7.455816624E0,2.476274967E-1,6.597995758E-2,-2.299907207E-1
7.463811411E0,2.440941334E-1,1.008996964E-1,-2.363958359E-1
7.471807815E0,2.169137001E-1,1.068611145E-1,-1.970487833E-1
7.479834294E0,1.688430309E-1,1.079225540E-1,-1.575175524E-1
7.487829082E0,1.004173756E-1,8.274078369E-2,-1.297404766E-1
7.495826639E0,3.539562225E-2,6.959152222E-2,-8.237898350E-2
7.503820504E0,-3.818273544E-2,6.135845184E-2,-6.769001484E-2
7.511816137E0,-8.734822273E-2,6.514930725E-2,-7.051610947E-2
7.519812849E0,-1.339120865E-1,6.660079956E-2,-6.389880180E-2
7.527808175E0,-1.160233021E-1,5.843067169E-2,-6.666123867E-2
7.535834424E0,-1.008474827E-1,4.063320160E-2,-8.098900318E-2
7.543829519E0,-8.356118202E-2,2.520751953E-2,-1.043032408E-1
7.551825461E0,-4.016160965E-2,3.611564636E-2,-1.534054279E-1
7.559821172E0,-2.788805962E-2,4.946994781E-2,-1.757498980E-1
7.567816267E0,-5.757808685E-3,5.337047577E-2,-1.811485291E-1
7.575813209E0,2.398133278E-2,7.419204712E-2,-1.960012913E-1
7.583807688E0,2.308821678E-2,7.121658325E-2,-1.703156233E-1
7.591833861E0,3.917193413E-2,6.587791443E-2,-1.449415684E-1
7.599829033E0,4.100537300E-2,6.291580200E-2,-1.534954309E-1
7.607824975E0,4.527521133E-2,5.754089355E-2,-1.550923586E-1
7.615821301E0,4.957699776E-2,5.451011658E-2,-1.307786703E-1
7.623816089E0,3.720951080E-2,4.428672791E-2,-1.235311031E-1
7.631811876E0,3.697490692E-2,4.362678528E-2,-7.608544827E-2
7.639807818E0,-1.064062119E-2,3.589153290E-2,-4.351353645E-2
7.647833759E0,1.386499405E-2,2.819442749E-2,-2.098608017E-2
7.655830702E0,-2.598690987E-2,4.688358307E-2,-3.628134727E-3
7.663825489E0,-4.642891884E-2,4.408550262E-2,1.829087734E-2
7.671820816E0,-9.298896790E-2,4.852294922E-2,3.286767006E-2
7.679815910E0,-1.107251644E-1,5.064201355E-2,1.902091503E-2
7.687811930E0,-9.502267838E-2,1.077651978E-4,2.228832245E-2
7.695808024E0,-4.827165604E-2,-1.210403442E-2,1.866495609E-2
7.703832967E0,-3.291964531E-2,-1.241207123E-2,1.289749146E-2
7.711829292E0,2.056956291E-2,3.996849060E-3,7.259726524E-3
7.719824696E0,4.520535469E-2,2.511882782E-2,-2.495610714E-2
7.727820329E0,9.142899513E-2,1.988410950E-2,-6.699264050E-2
7.735817271E0,1.088192463E-1,-2.190589905E-3,-7.104444504E-2
7.743811212E0,1.117279530E-1,-1.236152649E-2,-9.922552109E-2
7.751807539E0,8.597946167E-2,1.097297668E-2,-9.897243977E-2
7.759833403E0,7.726573944E-2,-8.713722229E-3,-7.017183304E-2
7.767828807E0,5.217599869E-2,-1.395225525E-2,-5.370879173E-2
7.775825748E0,1.071047783E-2,-4.734039307E-3,-3.042078018E-2
7.783820459E0,-3.042721748E-2,1.174163818E-2,-1.460313797E-2
7.791815862E0,-5.715918541E-2,-5.308151245E-3,8.227109909E-3
7.799811650E0,-7.450222969E-2,-1.524829865E-2,3.341233730E-2
7.807807053E0,-7.766771317E-2,-6.834220886E-2,5.388247967E-2
7.815834457E0,-9.514403343E-2,-1.142253876E-1,1.773656607E-1
7.823829244E0,-8.328199387E-2,-2.485733032E-1,3.767523766E-1
7.831824571E0,-1.286077499E-2,-4.212732315E-1,6.304091215E-1
7.839820358E0,8.947014809E-2,-6.471071243E-1,8.260037899E-1
7.847815685E0,1.903440952E-1,-1.012770653E0,1.311613441E0
7.855812395E0,2.017083168E-1,-1.355669022E0,1.815501094E0
7.863836645E0,1.131842136E-1,-1.771141052E0,2.560772419E0
7.871833586E0,-6.118774414E-3,-2.089074135E0,3.463870525E0
7.879828988E0,-1.491842270E-1,-2.217087746E0,4.198938370E0
7.887824777E0,-3.219823837E-1,-2.167863846E0,4.580053806E0
7.895821333E0,-5.072317123E-1,-1.920569420E0,4.552482605E0
7.903815891E0,-9.549543858E-1,-1.518682480E0,4.509497643E0
7.911811601E0,-1.499363542E0,-1.201523781E0,4.451308250E0
7.919806389E0,-2.089809656E0,-1.009057999E0,4.377120018E0
7.927833484E0,-2.557645321E0,-1.120074272E0,4.409495831E0
7.935828811E0,-2.753133535E0,-1.363715172E0,4.575346470E0
7.943823675E0,-2.707536221E0,-1.669896126E0,4.826821327E0
7.951820232E0,-2.568976641E0,-1.897512436E0,5.180533409E0
7.959816327E0,-2.495767832E0,-2.029938698E0,5.544368267E0
7.967811116E0,-2.459414721E0,-2.089097023E0,5.837013245E0
7.975807441E0,-2.369966030E0,-2.115940094E0,6.026924610E0
7.983833845E0,-2.252817869E0,-2.067632675E0,6.082849503E0
7.991828709E0,-2.109311581E0,-2.052151680E0,5.951534271E0
7.999824420E0,-1.914836168E0,-2.014741898E0,5.670608997E0
8.007819515E0,-1.718504906E0,-2.046895981E0,5.302447319E0
8.015816150E0,-1.408671618E0,-2.117445946E0,4.843677044E0
8.023810245E0,-1.095447302E0,-2.166944504E0,4.314662933E0
8.031806341E0,-8.570833206E-1,-2.240921021E0,3.891836166E0
8.039832513E0,-5.219392776E-1,-2.377470970E0,3.497741222E0
8.047828762E0,-2.084832191E-1,-2.505009651E0,3.157266855E0
8.055825165E0,1.611504555E-1,-2.690856934E0,2.852386713E0
8.063820492E0,4.966840744E-1,-2.842304230E0,2.552989006E0
8.071815356E0,7.339050770E-1,-2.966384888E0,2.236059427E0
8.079811298E0,8.725068569E-1,-3.029833794E0,1.938131809E0
8.087806778E0,9.563832283E-1,-3.027648926E0,1.674220085E0
8.095833797E0,9.543826580E-1,-2.978761673E0,1.440745831E0
8.103828045E0,9.884867668E-1,-2.912035942E0,1.369885445E0
8.111823757E0,1.012112141E0,-2.959650040E0,1.215498447E0
8.119820005E0,9.641563892E-1,-2.956575871E0,1.067230225E0
8.127815178E0,9.173908234E-1,-2.951099396E0,9.664239883E-1
8.135811504E0,9.801902771E-1,-2.961764812E0,8.530602455E-1
8.143806291E0,1.070074797E0,-3.058349609E0,6.123404503E-1
8.151833310E0,1.169284821E0,-3.137787342E0,3.095979691E-1
8.159828099E0,1.232150316E0,-3.086882591E0,-3.510570526E-2
8.167823578E0,1.245436430E0,-2.921355247E0,-2.200422287E-1
8.175820750E0,1.311319113E0,-2.770679951E0,-2.056989670E-1
8.183815000E0,1.386996746E0,-2.739315987E0,-4.006547928E-1
8.191810633E0,1.521246433E0,-2.746067524E0,-4.728813171E-1
8.199806729E0,1.597154379E0,-2.762001991E0,-4.918308258E-1
8.207832286E0,1.710795164E0,-2.763240337E0,-4.529561996E-1
8.215829535E0,1.874457598E0,-2.768940926E0,-3.420495987E-1
8.223823707E0,1.971321106E0,-2.770040035E0,-3.154034615E-1
8.231819034E0,2.039768934E0,-2.793994427E0,-4.266624451E-1
8.239815360E0,2.050449848E0,-2.835194588E0,-5.956892967E-1
8.247810456E0,1.961936951E0,-2.812051773E0,-8.363761902E-1
8.255807781E0,1.853222847E0,-2.711800575E0,-9.708633423E-1
8.263832108E0,1.815152407E0,-2.649075985E0,-1.092295647E0
8.271829049E0,1.845053196E0,-2.552018642E0,-1.135984421E0
8.279823760E0,1.866179466E0,-2.568865776E0,-1.197579384E0
8.287819548E0,1.838063598E0,-2.611443043E0,-1.138631821E0
8.295815798E0,1.753402472E0,-2.700335503E0,-1.037503719E0
8.303810354E0,1.728004694E0,-2.756897926E0,-8.971185684E-1
8.311805373E0,1.686240673E0,-2.656628609E0,-7.584199905E-1
8.319832468E0,1.724338889E0,-2.547625542E0,-5.638260841E-1
8.327827564E0,1.775765538E0,-2.415378094E0,-3.540458679E-1
8.335824274E0,1.817167759E0,-2.409046173E0,-2.372951508E-1
8.343818755E0,1.800873041E0,-2.465134621E0,-3.218412399E-1
8.351815004E0,1.723878384E0,-2.606709957E0,-3.220500946E-1
8.359810715E0,1.644429803E0,-2.767534733E0,-3.696298599E-1
8.367836579E0,1.443058848E0,-2.828256607E0,-4.978532791E-1
8.375833598E0,1.311061740E0,-2.834830761E0,-5.580844879E-1
8.383827770E0,1.128418803E0,-2.803916454E0,-5.140457153E-1
8.391823174E0,9.956414104E-1,-2.711515903E0,-5.331172943E-1
8.399819192E0,9.266541004E-1,-2.609734535E0,-6.343126297E-1
8.407814595E0,9.176592231E-1,-2.453200817E0,-7.835521698E-1
8.415811536E0,9.632499218E-1,-2.340052128E0,-8.423271179E-1
8.423836786E0,1.065057993E0,-2.304454803E0,-7.927570343E-1
8.431831573E0,1.161447763E0,-2.296542645E0,-8.092222214E-1
8.439827592E0,1.197958112E0,-2.354713440E0,-8.025426865E-1
8.447823303E0,1.249059439E0,-2.375972986E0,-7.550144196E-1
8.455820782E0,1.266620159E0,-2.376068592E0,-6.514148712E-1
8.463815032E0,1.255176306E0,-2.334725857E0,-5.521545410E-1
8.471810435E0,1.192603350E0,-2.311029196E0,-5.104503632E-1
8.479836531E0,1.086096048E0,-2.241116285E0,-5.355644226E-1
8.487831395E0,9.095641375E-1,-2.123969555E0,-5.412044525E-1
8.495828875E0,7.758103609E-1,-2.022588491E0,-5.583171844E-1
8.503823355E0,6.483076215E-1,-1.839804649E0,-5.389900208E-1
8.511818528E0,5.470315814E-1,-1.646442652E0,-5.885610580E-1
8.519814161E0,4.531590343E-1,-1.423067212E0,-8.231582642E-1
8.527809873E0,3.940314651E-1,-1.174044371E0,-1.074432373E0
8.535837044E0,2.838783860E-1,-9.910730124E-1,-1.380188942E0
8.543832371E0,1.754662991E-1,-8.338096142E-1,-1.585898399E0
8.551827851E0,1.245874166E-1,-6.887249947E-1,-1.762990475E0
8.559822870E0,9.607511759E-2,-5.227373838E-1,-1.879530907E0
8.567818580E0,1.395876408E-1,-4.578809738E-1,-1.970121861E0
8.575814061E0,2.125852704E-1,-4.312068820E-1,-2.159647942E0
8.583840232E0,3.036553860E-1,-3.867242932E-1,-2.568039417E0
8.591835944E0,3.617103696E-1,-3.792984486E-1,-2.924788952E0
8.599831962E0,3.505272269E-1,-3.167608082E-1,-3.409486771E0
8.607826981E0,2.966658175E-1,-2.890426517E-1,-3.979180336E0
8.615823306E0,2.140876353E-1,-1.156448051E-1,-4.758544922E0
8.623818172E0,8.488377929E-2,4.703680426E-2,-5.498792648E0
8.631813805E0,-4.804351926E-2,1.659390479E-1,-5.910605431E0
8.639810439E0,-9.812894464E-2,3.490116298E-1,-6.152460098E0
8.647836304E0,-1.140826344E-1,5.320181847E-1,-6.344571590E0
8.655832630E0,-7.927295566E-2,7.579221725E-1,-6.288722515E0
8.663826571E0,-7.522284985E-3,9.371716976E-1,-6.322923183E0
8.671822514E0,1.501391828E-1,1.042989254E0,-6.550547600E0
8.679818532E0,2.841177583E-1,1.118305802E0,-6.919292927E0
8.687814320E0,3.233058155E-1,1.172115684E0,-7.338609219E0
8.695810569E0,2.715492845E-1,1.264072299E0,-7.794264793E0
8.703836434E0,1.516336799E-1,1.306930304E0,-8.260204315E0
8.711831221E0,-8.362248540E-3,1.344816566E0,-8.571423531E0
8.719827009E0,-2.371269464E-1,1.410586596E0,-8.515193939E0
8.727822950E0,-4.114715457E-1,1.477270126E0,-8.388447762E0
8.735818662E0,-6.513561010E-1,1.620259523E0,-8.227041245E0
8.743813218E0,-8.412115574E-1,1.743437052E0,-8.095634460E0
8.751809467E0,-1.055099130E0,1.835891962E0,-7.984521866E0
8.759835948E0,-1.187960863E0,1.787237048E0,-7.963185310E0
8.767831350E0,-1.302557349E0,1.620290399E0,-7.825670242E0
8.775827985E0,-1.313839316E0,1.416555166E0,-7.667897701E0
8.783822772E0,-1.255403996E0,1.299610257E0,-7.485052109E0
8.791818175E0,-1.169185758E0,1.270909905E0,-7.274637222E0
8.799813578E0,-1.041628480E0,1.301142931E0,-7.050889969E0
8.807809905E0,-9.176667333E-1,1.344733715E0,-6.729841232E0
8.815836384E0,-8.223745823E-1,1.368162513E0,-6.471652031E0
8.823830942E0,-7.478207946E-1,1.314103365E0,-6.225748062E0
8.831826960E0,-5.878058076E-1,1.225644946E0,-5.888873577E0
8.839822902E0,-4.714942276E-1,1.119626760E0,-5.606821060E0
8.847818305E0,-3.404580951E-1,1.019880533E0,-5.190231323E0
8.855814631E0,-2.271006107E-1,9.923239946E-1,-4.880703449E0
8.863809419E0,-1.007929146E-1,9.886150360E-1,-4.556050301E0
8.871835591E0,-1.045790315E-2,1.088496685E0,-4.283345222E0
8.879830686E0,7.824659348E-3,1.196772575E0,-4.055365562E0
8.887827090E0,1.962661743E-2,1.351391912E0,-3.862340927E0
8.895823031E0,-4.308930039E-2,1.395985484E0,-3.807010651E0
8.903817281E0,-1.444884241E-1,1.275466561E0,-3.623481750E0
8.911813607E0,-2.158263922E-1,9.546911716E-1,-3.340425491E0
8.919809241E0,-2.977311313E-1,6.654640436E-1,-2.831040859E0
8.927835413E0,-3.387086689E-1,3.134337664E-1,-2.145669937E0
8.935832047E0,-3.596191704E-1,1.268389374E-1,-1.641140938E0
8.943827142E0,-3.431071639E-1,5.744278431E-2,-1.173732758E0
8.951822315E0,-3.066898882E-1,1.472143531E-1,-6.833276749E-1
8.959818256E0,-2.946059704E-1,2.919358909E-1,-2.726602554E-1
8.967813660E0,-3.697781563E-1,4.487740993E-1,-3.723144531E-3
8.975810293E0,-5.152541399E-1,5.460090637E-1,1.404590607E-1
8.983834620E0,-7.604196668E-1,5.567080975E-1,2.892236710E-1
8.991831330E0,-1.049774170E0,4.534907937E-1,4.783782959E-1
8.999826118E0,-1.305974483E0,2.429242134E-1,7.030105591E-1
9.007822060E0,-1.413138390E0,1.430771351E-1,8.004798889E-1
9.015818694E0,-1.436331034E0,2.086220980E-1,6.111469269E-1
9.023814174E0,-1.408439517E0,4.046103954E-1,4.583978653E-1
9.031808654E0,-1.329285145E0,5.767945051E-1,4.645099640E-1
9.039835364E0,-1.131781816E0,6.694215536E-1,4.259786606E-1
9.047831153E0,-8.006491661E-1,5.687538385E-1,4.698553085E-1
9.055828017E0,-5.061097741E-1,3.573644161E-1,4.743976593E-1
9.063821573E0,-2.728471160E-1,4.697287083E-2,7.028856277E-1
9.071817592E0,-1.304717660E-1,-1.777884960E-1,9.806003571E-1
9.079813918E0,-6.866765022E-2,-4.502093792E-1,1.240224838E0
9.087808783E0,-6.195080280E-2,-5.597109795E-1,1.327476501E0
9.095836186E0,-5.541110039E-2,-4.944207668E-1,1.233963966E0
9.103831513E0,-4.688775539E-2,-1.578507423E-1,1.013556480E0
9.111826300E0,2.896785736E-5,2.077300549E-1,6.817932129E-1
9.119822011E0,1.151360273E-1,4.681317806E-1,3.381290436E-1
9.127817414E0,1.848901510E-1,5.074367523E-1,1.543769836E-1
9.135814664E0,2.829474211E-1,3.731737137E-1,-7.619380951E-2
9.143808297E0,3.135910034E-1,1.185362339E-1,2.602863312E-2
9.151835008E0,3.295972347E-1,-1.769132614E-1,3.483400345E-1
9.159830796E0,4.267303944E-1,-5.300061703E-1,7.179183960E-1
9.167826507E0,5.407080650E-1,-7.446405888E-1,9.338655472E-1
9.175822217E0,7.588573694E-1,-8.864986897E-1,1.034325600E0
9.183817544E0,9.757080078E-1,-8.900525570E-1,9.269399643E-1
9.191812716E0,1.125136375E0,-8.360815048E-1,4.985589981E-1
9.199809273E0,1.104122162E0,-6.334381104E-1,-1.796894073E-1
9.207834599E0,9.125560522E-1,-3.352162838E-1,-6.602048874E-1
9.215830849E0,6.257691383E-1,-9.046792984E-3,-7.231760025E-1
9.223825328E0,4.077954292E-1,1.384644508E-1,-4.482021332E-1
9.231821732E0,3.195025921E-1,-3.557991982E-2,-1.431665421E-1
9.239817750E0,4.935357571E-1,-3.859999180E-1,1.334943771E-1
9.247813154E0,8.054404259E-1,-5.859231949E-1,2.675123215E-1
9.255810095E0,1.200331450E0,-7.101209164E-1,2.851028442E-1
9.263834652E0,1.439604282E0,-7.594599724E-1,2.312889099E-1
9.271830363E0,1.544531822E0,-7.971568108E-1,8.664131165E-2
9.279825843E0,1.436387062E0,-7.481737137E-1,-3.579139709E-3
9.287821246E0,1.200438976E0,-6.570024490E-1,-1.547241211E-1
9.295818726E0,9.646179676E-1,-6.733341217E-1,3.288269043E-3
9.303812052E0,8.029098511E-1,-8.085622787E-1,1.882095337E-1
9.311838763E0,7.513420582E-1,-9.722619057E-1,3.195447922E-1
9.319835397E0,7.559084892E-1,-1.010172844E0,4.286575317E-1
9.327830185E0,9.043056965E-1,-9.555702209E-1,5.128040314E-1
9.335827434E0,1.116424799E0,-8.510255814E-1,4.234175682E-1
9.343822222E0,1.235162497E0,-7.653050423E-1,4.096026421E-1
9.351817086E0,1.321339369E0,-7.617835999E-1,4.966654778E-1
9.359813104E0,1.369556189E0,-8.380289078E-1,5.091834068E-1
9.367839200E0,1.306051731E0,-9.132266045E-1,4.657292366E-1
9.375835910E0,1.151529074E0,-9.310936928E-1,6.075987816E-1
9.383830314E0,8.621222973E-1,-8.819618225E-1,9.103426933E-1
9.391825717E0,6.526315212E-1,-8.560824394E-1,1.189399719E0
9.399821197E0,5.603840351E-1,-8.179507256E-1,1.242044449E0
9.407816523E0,4.220609665E-1,-8.252782822E-1,1.191095829E0
9.415814157E0,2.841448784E-1,-8.725733757E-1,1.183510780E0
9.423839022E0,8.880138397E-2,-9.637012482E-1,1.038092136E0
9.431834502E0,-3.159713745E-2,-9.844222069E-1,7.774958611E-1
9.439829905E0,-8.776545525E-2,-9.411578178E-1,5.551295280E-1
9.447825539E0,-1.050455570E-1,-8.816637993E-1,2.438592911E-1
9.455821942E0,-1.384630203E-1,-7.717585564E-1,-8.623075485E-2
9.463816345E0,-2.165081501E-1,-6.978473663E-1,-4.615535736E-1
9.471812363E0,-3.381116390E-1,-6.499614716E-1,-3.435654640E-1
9.479838613E0,-4.592144489E-1,-6.974015236E-1,5.429410934E-2
9.487834324E0,-4.220211506E-1,-8.319230080E-1,6.541128159E-1
9.495830573E0,-2.564511299E-1,-9.263505936E-1,1.099982262E0
9.503825668E0,4.023981094E-2,-1.011670589E0,1.472040176E0
9.511821457E0,2.811233997E-1,-1.039669037E0,1.562321186E0
9.519816475E0,4.421017170E-1,-1.064726830E0,1.469509125E0
9.527812263E0,3.881213665E-1,-9.719586372E-1,1.160357475E0
9.535839665E0,1.722755432E-1,-7.919425964E-1,8.195290565E-1
9.543834377E0,-1.367652416E-1,-4.995698929E-1,3.206114769E-1
9.551829779E0,-3.542027473E-1,-2.023901939E-1,-1.605086327E-1
9.559825183E0,-4.838957787E-1,1.727967262E-1,-6.815400124E-1
9.567821509E0,-5.235579014E-1,3.527212143E-1,-7.591252327E-1
9.575816682E0,-5.417175293E-1,2.508397102E-1,-6.032733917E-1
9.583812930E0,-4.210002422E-1,-2.538452148E-1,-2.657413483E-1
9.591837873E0,-1.324117184E-1,-6.905031204E-1,-2.325248718E-2
9.599833891E0,3.306896687E-1,-1.019218445E0,3.429727554E-1
9.607829986E0,7.323398590E-1,-1.079727173E0,5.863146782E-1
9.615826235E0,1.059977055E0,-9.979276657E-1,6.981635094E-1
9.623820485E0,1.094641209E0,-8.820357323E-1,6.723651886E-1
9.631816503E0,9.287481308E-1,-7.928752899E-1,4.371953011E-1
9.639812136E0,5.786981583E-1,-6.276082993E-1,4.375219345E-2
9.647837694E0,3.041584492E-1,-4.124379158E-1,-2.165837288E-1
9.655834328E0,9.575057030E-2,-1.707830429E-1,-3.649134636E-1
9.663829731E0,-1.547169685E-2,-2.414526939E-1,-3.085203171E-1
9.671825826E0,-6.795740128E-2,-5.915236473E-1,-1.761093140E-1
9.679820922E0,-3.768658638E-2,-1.118905067E0,7.085371017E-2
9.687816325E0,8.422088623E-2,-1.393557549E0,3.573436737E-1
9.695812959E0,3.295366764E-1,-1.507841110E0,7.782196999E-1
9.703837592E0,5.936667919E-1,-1.527442932E0,1.088802338E0
9.711834227E0,8.320224285E-1,-1.535601616E0,1.052874088E0
9.719829937E0,8.585579395E-1,-1.513821602E0,8.959050179E-1
9.727825341E0,7.367389202E-1,-1.418542862E0,7.348279953E-1
9.735821359E0,4.561512470E-1,-1.212762833E0,5.510244370E-1
9.743816685E0,1.854782104E-1,-9.770994186E-1,3.137435913E-1
9.751812088E0,-7.746601105E-2,-6.530694962E-1,9.412717819E-2
9.759838646E0,-2.976574898E-1,-2.376689911E-1,-2.904415131E-3
9.767833433E0,-4.601154327E-1,1.241559982E-1,5.040955544E-2
9.775830990E0,-5.460181236E-1,2.667522430E-1,2.747399807E-1
9.783823854E0,-5.259666443E-1,1.231746674E-1,6.788923740E-1
9.791820566E0,-2.951650620E-1,-3.824539185E-1,9.249448776E-1
9.799816199E0,-2.856206894E-2,-7.832689285E-1,1.070672512E0
9.807812218E0,2.471718788E-1,-9.356842041E-1,1.188435555E0
9.815838775E0,4.953079224E-1,-9.474954605E-1,1.099693775E0
9.823833794E0,6.374053955E-1,-8.949947357E-1,9.603900909E-1
9.831829273E0,7.242822647E-1,-8.139066696E-1,7.175707817E-1
9.839824908E0,7.004952431E-1,-7.162332535E-1,5.315110683E-1
9.847820310E0,5.792832375E-1,-6.066932678E-1,4.580309391E-1
9.855817252E0,3.445022106E-1,-5.165424347E-1,6.727740765E-1
9.863841347E0,1.247963905E-1,-6.131095886E-1,1.047536850E0
9.871838520E0,-1.106090546E-1,-8.768577576E-1,1.245742559E0
9.879833307E0,-2.945823669E-1,-9.922838211E-1,1.419539690E0
9.887829403E0,-4.214701653E-1,-9.652643204E-1,1.658555746E0
9.895826268E0,-4.427862167E-1,-8.946456909E-1,1.840843439E0
9.903820748E0,-4.290850163E-1,-8.573207855E-1,1.930989027E0
9.911816151E0,-4.741852283E-1,-8.655672073E-1,1.957261562E0
9.919811631E0,-5.633423328E-1,-8.785314560E-1,1.988936186E0
9.927838111E0,-6.495947838E-1,-8.452291489E-1,2.045320749E0
9.935834053E0,-6.263482571E-1,-7.938976288E-1,1.992065191E0
9.943828302E0,-5.646452904E-1,-7.099380493E-1,1.761638165E0
9.951824935E0,-5.122690201E-1,-6.650657654E-1,1.516960621E0
9.959820570E0,-5.263845921E-1,-5.967702866E-1,1.267946720E0
9.967815049E0,-5.721707344E-1,-4.858350754E-1,9.551339149E-1
9.975811684E0,-6.455395222E-1,-4.446077347E-1,8.187854290E-1
9.983837932E0,-6.914925575E-1,-5.106506348E-1,7.776889801E-1
9.991833644E0,-7.251291275E-1,-6.234722137E-1,7.563374043E-1
9.999829277E0,-6.544809341E-1,-7.063665390E-1,8.723351955E-1
1.000782445E1,-4.747710228E-1,-8.078851700E-1,8.710031509E-1
1.001582078E1,-2.504527569E-1,-8.044843674E-1,8.505074978E-1
1.002381526E1,-4.730224609E-4,-7.952947617E-1,9.017190933E-1
1.003181181E1,2.046899796E-1,-7.715997696E-1,6.925380230E-1
1.003983745E1,3.153686523E-1,-7.595891953E-1,2.990601063E-1
1.004783339E1,3.044426441E-1,-6.415643692E-1,5.999422073E-2
1.005583002E1,2.080225945E-1,-5.074605942E-1,-1.326994896E-1
1.006382458E1,3.094935417E-2,-3.129758835E-1,-2.999569178E-1
1.007182029E1,-1.131114960E-1,-1.624670029E-1,-4.230114222E-1
1.007981569E1,-2.455170155E-1,-3.610515594E-2,-5.137865543E-1
1.008781133E1,-3.766138554E-1,8.867263794E-3,-4.718840122E-1
1.009583881E1,-5.407233238E-1,-1.477241516E-3,-3.016916513E-1
1.010383229E1,-7.623417377E-1,-5.730152130E-2,-5.301427841E-2
1.011182808E1,-8.885970116E-1,-1.090888977E-1,3.317260742E-1
1.011982463E1,-9.510762691E-1,-1.315765381E-1,6.743354797E-1
1.012781950E1,-8.754653931E-1,-1.477556229E-1,9.442086220E-1
1.013581675E1,-6.699290276E-1,-2.116680145E-1,1.064779520E0
1.014381246E1,-4.146349430E-1,-2.932910919E-1,1.178539991E0
1.015183740E1,-2.255239487E-1,-3.064594269E-1,1.071396351E0
1.015983365E1,-3.534817696E-2,-2.889671326E-1,9.963133335E-1
1.016782882E1,1.019108295E-1,-2.401266098E-1,7.866659164E-1
1.017582476E1,1.877098083E-1,-1.018209457E-1,5.336854458E-1
1.018381963E1,2.353067398E-1,-1.216220856E-2,2.263443470E-1
1.019181534E1,2.597041130E-1,6.525516510E-2,2.355933189E-2
1.019981074E1,2.823438644E-1,9.734249115E-2,-2.165541649E-1
1.020783776E1,2.593777180E-1,1.380920410E-1,-4.136755466E-1
1.021583355E1,2.669820786E-1,1.683053970E-1,-5.302666426E-1
1.022382856E1,2.824871540E-1,1.803817749E-1,-6.296861172E-1
1.023182404E1,3.667662144E-1,2.094240189E-1,-7.153192759E-1
1.023982029E1,4.452457428E-1,1.520996094E-1,-7.221564054E-1
1.024781547E1,4.873890877E-1,1.184606552E-1,-8.271675110E-1
1.025584195E1,5.534801483E-1,7.734966278E-2,-7.818717957E-1
1.026383674E1,5.611901283E-1,4.096698761E-2,-7.133452892E-1
1.027183329E1,5.402874947E-1,3.568172455E-2,-6.422165632E-1
1.027982777E1,5.204236507E-1,-1.260852814E-2,-6.006528139E-1
1.028782387E1,4.426410198E-1,-6.538295746E-2,-5.462683439E-1
1.029582104E1,3.360245228E-1,-1.080656052E-1,-5.076018572E-1
1.030381529E1,2.652890682E-1,-1.047859192E-1,-4.275934696E-1
1.031181123E1,1.751434803E-1,-1.249885559E-1,-3.706452847E-1
1.031983710E1,1.581056118E-1,-1.712226868E-1,-3.790571690E-1
1.032783165E1,1.418089867E-1,-1.814966202E-1,-3.285257816E-1
1.033582882E1,1.637365818E-1,-1.608114243E-1,-3.118681908E-1
1.034382307E1,1.826202869E-1,-1.523313522E-1,-3.810422421E-1
1.035181902E1,2.125725746E-1,-1.249208450E-1,-4.325432777E-1
1.035981565E1,2.107336521E-1,-1.048259735E-1,-4.400433302E-1
1.036784151E1,2.250978947E-1,-9.442996979E-2,-4.754922390E-1
1.037583730E1,2.034244537E-1,-9.839344025E-2,-4.960000515E-1
1.038383294E1,1.964271069E-1,-9.506797791E-2,-4.756060839E-1
1.039182811E1,1.469268799E-1,-8.444118500E-2,-4.411480427E-1
1.039982436E1,1.410243511E-1,-5.216693878E-2,-4.404308796E-1
1.040782014E1,1.424007416E-1,-3.911972046E-2,-4.447510242E-1
1.041581586E1,1.458880901E-1,-2.135753632E-2,-5.179542303E-1
1.042384172E1,1.085720062E-1,2.512264252E-2,-4.781546593E-1
1.043183674E1,3.577184677E-2,7.663345337E-2,-4.975701571E-1
1.043983253E1,6.888389587E-3,7.580661774E-2,-4.496581554E-1
1.044782754E1,-2.290248871E-2,9.434413910E-2,-3.988022804E-1
1.045582479E1,-3.671693802E-2,1.011457443E-1,-3.787701130E-1
1.046381904E1,-4.709672928E-2,1.366624832E-1,-3.298152685E-1
1.047181498E1,-5.432653427E-2,1.314105988E-1,-2.875427008E-1
1.047984085E1,-5.880212784E-2,1.093788147E-1,-2.915525436E-1
1.048783633E1,-6.546044350E-2,9.933567047E-2,-3.101958036E-1
1.049583266E1,-7.679343224E-2,9.896278381E-2,-3.284264803E-1
1.050382683E1,-4.259204865E-2,1.105518341E-1,-2.820388079E-1
1.051182316E1,1.798701286E-2,7.410240173E-2,-2.172995806E-1
1.051981917E1,7.333302498E-2,7.076644897E-2,-2.015408278E-1
1.052781458E1,1.328003407E-1,7.174396515E-2,-1.939191818E-1
1.053584129E1,1.893422604E-1,3.391075134E-2,-1.399006844E-1
1.054383708E1,2.189605236E-1,2.905082703E-2,-1.306015253E-1
1.055183179E1,1.837654114E-1,3.102111816E-2,-1.348299980E-1
1.055982788E1,1.131966114E-1,3.769779205E-2,-8.817505836E-2
1.056782413E1,9.633016586E-2,6.363105774E-2,-1.956105232E-2
1.057581984E1,8.501267433E-2,3.935050964E-2,3.075349331E-2
1.058381409E1,4.534697533E-2,3.896427155E-2,9.657526016E-2
1.059184088E1,-5.980968475E-3,-2.110481262E-3,1.114151478E-1
1.059983620E1,-6.901025772E-2,1.915645599E-2,1.261105537E-1
1.060783130E1,-6.475949287E-2,-2.882766724E-2,1.771680117E-1
1.061582832E1,-3.409242630E-2,-5.039405823E-2,1.710363626E-1
1.062382426E1,-1.084589958E-2,-3.133583069E-2,1.530945301E-1
1.063181936E1,3.372788429E-2,-5.072212219E-2,1.708189249E-1
1.063981453E1,6.140923500E-2,-4.148864746E-2,1.283819675E-1
1.064784093E1,7.487130165E-2,-2.995395660E-2,1.376852989E-1
1.065583664E1,7.897090912E-2,-3.045368195E-2,1.197421551E-1
1.066383151E1,7.112145424E-2,1.335144043E-5,1.295341253E-1
1.067182745E1,4.694414139E-2,-2.455711365E-2,1.240360737E-1
1.067982324E1,1.126050949E-2,-5.863094330E-2,1.465350389E-1
1.068781887E1,-3.565859795E-2,-5.903053284E-2,2.087713480E-1
1.069581558E1,-3.176569939E-2,-4.260063171E-2,2.198333740E-1
1.070384106E1,-4.404568672E-2,-1.897907257E-2,2.606085539E-1
1.071183623E1,-3.943753242E-2,-2.912616730E-2,3.307756186E-1
1.071983310E1,-8.457875252E-2,8.179664612E-3,5.384856462E-1
1.072782704E1,-1.573176384E-1,6.387805939E-2,7.248432636E-1
1.073582329E1,-2.252714634E-1,9.220123291E-2,9.286953211E-1
1.074381838E1,-2.714488506E-1,-6.907463074E-3,1.183969736E0
1.075181417E1,-3.174023628E-1,-1.901950836E-1,1.492123723E0
1.076783659E1,-4.187042713E-1,-6.805067062E-1,2.421439409E0
1.077583238E1,-5.286428928E-1,-9.132661819E-1,2.870806456E0
1.078382771E1,-6.228053570E-1,-1.036241531E0,3.164546013E0
1.079182280E1,-6.963989735E-1,-1.185769081E0,3.415265560E0
1.079981767E1,-7.754731178E-1,-1.218213081E0,3.547194958E0
1.080781484E1,-8.607256413E-1,-1.193969727E0,3.678698778E0
1.081584132E1,-9.980664253E-1,-1.166252136E0,3.943131447E0
1.082383588E1,-1.207664013E0,-1.185221672E0,4.310200691E0
1.083183182E1,-1.490039587E0,-1.298568726E0,4.722984314E0
1.083982761E1,-1.771442890E0,-1.446336746E0,5.045486450E0
1.084782232E1,-1.967717171E0,-1.621542931E0,5.296676636E0
1.085581957E1,-2.184884787E0,-1.834004402E0,5.454086781E0
1.086381412E1,-2.369051456E0,-2.007555008E0,5.380245686E0
1.087183960E1,-2.607713699E0,-2.094333649E0,5.190535069E0
1.087983624E1,-2.734535933E0,-2.125536919E0,5.083450317E0
1.088783225E1,-2.716723919E0,-2.156153679E0,4.864312172E0
1.089582835E1,-2.550196409E0,-2.222326279E0,4.569478989E0
1.090382221E1,-2.333098412E0,-2.309783936E0,4.318585396E0
1.091181854E1,-2.045916557E0,-2.334547997E0,4.111979008E0
1.091981364E1,-1.747074008E0,-2.404591560E0,3.966947079E0
1.092783981E1,-1.351660967E0,-2.587401390E0,3.874586344E0
1.093583644E1,-9.976286888E-1,-2.737389565E0,3.749856949E0
1.094383154E1,-7.543816566E-1,-2.893183708E0,3.585692644E0
1.095182694E1,-4.711866379E-1,-3.040960312E0,3.322034121E0
1.095982265E1,-2.860829830E-1,-3.147256851E0,3.020765305E0
1.096781798E1,-1.719136238E-1,-3.181278229E0,2.663895130E0
1.097581469E1,-9.388303757E-2,-3.241075516E0,2.413304806E0
1.098383925E1,2.859163284E-2,-3.331370354E0,2.229255199E0
1.099183503E1,2.503552437E-1,-3.445374489E0,2.111349583E0
1.099983198E1,4.586908817E-1,-3.518882751E0,2.004115105E0
1.100782699E1,7.370994091E-1,-3.633972168E0,1.890130997E0
1.101582309E1,9.578063488E-1,-3.720934391E0,1.679701328E0
1.102381811E1,1.161584139E0,-3.742000580E0,1.216583252E0
1.103181382E1,1.298929930E0,-3.660668850E0,8.128280640E-1
1.103983945E1,1.421558142E0,-3.540666580E0,5.028171539E-1
1.104783578E1,1.576404810E0,-3.371803284E0,3.611354828E-1
1.105583149E1,1.719958067E0,-3.299857616E0,2.318282127E-1
1.106382566E1,1.887220860E0,-3.315285683E0,1.153755188E-2
1.107182284E1,1.985033274E0,-3.411464691E0,-1.301827431E-1
1.107981801E1,1.998985291E0,-3.484599590E0,-2.892718315E-1
1.108781333E1,1.977504730E0,-3.485133648E0,-3.867583275E-1
1.109584074E1,1.934663534E0,-3.542654037E0,-5.728025436E-1
1.110383522E1,1.886950493E0,-3.515871048E0,-8.920202255E-1
1.111183131E1,1.848610401E0,-3.418702126E0,-1.154181480E0
1.111982641E1,1.856519699E0,-3.183558941E0,-1.341810703E0
1.112782235E1,1.889055967E0,-2.961555958E0,-1.622982979E0
1.113581814E1,1.947222233E0,-2.846848011E0,-1.793246746E0
1.114384300E1,2.040576220E0,-2.777314663E0,-1.939769745E0
1.115184002E1,2.129778624E0,-2.812590599E0,-2.050902843E0
1.115983542E1,2.183442116E0,-2.804120064E0,-2.129602432E0
1.116783021E1,2.186090469E0,-2.667871952E0,-2.279039383E0
1.117582715E1,2.181740284E0,-2.492281437E0,-2.465880394E0
1.118382286E1,2.175549030E0,-2.239338875E0,-2.609854221E0
1.119181788E1,2.149070740E0,-2.095397472E0,-2.605738163E0
1.119981359E1,2.141763687E0,-1.942977428E0,-2.559254646E0
1.120784007E1,2.145831823E0,-1.894329071E0,-2.470832825E0
1.121583586E1,2.167518616E0,-1.858128548E0,-2.274718761E0
1.122383057E1,2.162456036E0,-1.851034164E0,-1.959982395E0
1.123182636E1,2.140578747E0,-1.867144108E0,-1.663214684E0
1.123982145E1,2.016516209E0,-1.851497650E0,-1.441553116E0
1.124781770E1,1.890453696E0,-1.783081532E0,-1.403334618E0
1.125581349E1,1.674389839E0,-1.589944363E0,-1.528839111E0
1.126383997E1,1.435268044E0,-1.375412464E0,-1.739987373E0
1.127183476E1,1.235638499E0,-1.224301338E0,-1.944052219E0
1.127983170E1,1.033180952E0,-1.050822735E0,-2.119712830E0
1.128782610E1,8.444259167E-1,-9.180645943E-1,-1.984000683E0
1.129582304E1,5.998196602E-1,-7.953681946E-1,-1.637377262E0
1.130381691E1,4.483388662E-1,-7.578945160E-1,-1.360159874E0
1.131184316E1,3.020834923E-1,-7.267251015E-1,-1.034247875E0
1.131983910E1,2.765495777E-1,-6.785416603E-1,-6.926155090E-1
1.132783489E1,2.049077749E-1,-6.177940369E-1,-4.360532761E-1
1.133583214E1,1.372507811E-1,-4.643974304E-1,-3.620223999E-1
1.134382623E1,1.260340214E-2,-3.055937290E-1,-3.050537109E-1
1.135182171E1,-1.498000622E-1,-9.590244293E-2,-2.841529846E-1
1.135981735E1,-2.797490358E-1,1.133859158E-1,-2.709808350E-1
1.136781283E1,-3.513326645E-1,2.464015484E-1,-2.839870453E-1
1.137584084E1,-4.037377834E-1,2.911031246E-1,-2.666368484E-1
1.138383410E1,-4.643325806E-1,2.374668121E-1,-1.554117203E-1
1.139183034E1,-5.339806080E-1,2.140686512E-1,-6.735801697E-3
1.139982667E1,-5.527272224E-1,2.940125465E-1,1.148509979E-2
1.140782184E1,-6.006730795E-1,3.512029648E-1,3.639698029E-2
1.141581778E1,-6.303431988E-1,4.541091919E-1,8.222293854E-2
1.142384373E1,-6.018848419E-1,5.213356018E-1,7.983779907E-2
1.143183874E1,-6.395482421E-1,5.880112648E-1,-6.906700134E-2
1.143983484E1,-6.477680206E-1,5.735857487E-1,-2.442731857E-1
1.144783017E1,-6.891229153E-1,6.003713608E-1,-4.478988647E-1
1.145582718E1,-7.375427485E-1,6.244506836E-1,-6.800022125E-1
1.146382074E1,-7.871158123E-1,6.323778629E-1,-8.825082779E-1
1.147181676E1,-8.963032961E-1,6.381015778E-1,-1.024157524E0
1.147984324E1,-9.778254032E-1,6.306594610E-1,-9.894838333E-1
1.148783857E1,-1.031722784E0,6.851512194E-1,-8.739624023E-1
1.149583458E1,-9.668248296E-1,8.374592066E-1,-8.236255646E-1
1.150383099E1,-8.672682047E-1,9.085716009E-1,-7.664451599E-1
1.151182631E1,-7.816116810E-1,1.020189524E0,-8.101444244E-1
1.151982118E1,-7.366936803E-1,1.039954185E0,-8.776988983E-1
1.152781750E1,-6.940203309E-1,1.146764874E0,-1.112920761E0
1.153584368E1,-6.773883104E-1,1.138907194E0,-1.355334282E0
1.154383777E1,-6.986426115E-1,1.081748962E0,-1.602499008E0
1.155183441E1,-7.192896008E-1,1.052114129E0,-1.876022339E0
1.155983050E1,-7.608076930E-1,1.028947115E0,-2.034674168E0
1.156782583E1,-7.579528689E-1,1.076602578E0,-2.057072639E0
1.157582185E1,-7.365843654E-1,1.095798135E0,-1.952801228E0
1.158381756E1,-6.860835552E-1,1.148263931E0,-1.832232475E0
1.159184373E1,-5.837881565E-1,1.202549338E0,-1.784145355E0
1.159983882E1,-4.890590906E-1,1.225089312E0,-1.851744175E0
1.160783400E1,-4.158296585E-1,1.268815637E0,-2.102151394E0
1.161582994E1,-3.931024671E-1,1.245031238E0,-2.420494556E0
1.162382534E1,-4.889960885E-1,1.220237017E0,-2.845066071E0
1.163182105E1,-6.427268982E-1,1.135777593E0,-3.213016510E0
1.163981615E1,-8.845834732E-1,1.061259508E0,-3.562653542E0
1.164784270E1,-1.130501509E0,1.047881603E0,-3.769482613E0
1.165583965E1,-1.250200033E0,1.088637233E0,-3.831180096E0
1.166383497E1,-1.282248497E0,1.238260269E0,-4.013613224E0
1.167183015E1,-1.195504189E0,1.325121641E0,-4.304981232E0
1.167982555E1,-1.014380693E0,1.419751406E0,-4.686454296E0
1.168782149E1,-8.869389296E-1,1.511729836E0,-5.069892883E0
1.169581759E1,-7.766155601E-1,1.548056364E0,-5.379023075E0
1.170384245E1,-6.927787066E-1,1.658085108E0,-5.733889103E0
1.171183855E1,-6.821535826E-1,1.746294856E0,-6.122762680E0
1.171983395E1,-7.483736277E-1,1.882507682E0,-6.562505722E0
1.172783020E1,-8.700388670E-1,1.945813179E0,-6.883234978E0
1.173582591E1,-1.069191456E0,1.984371424E0,-7.106496811E0
1.174382108E1,-1.242365003E0,1.973406553E0,-7.261229515E0
1.175181618E1,-1.309317470E0,2.001543999E0,-7.467200279E0
1.175984235E1,-1.282446146E0,1.999355912E0,-7.599967003E0
1.176783837E1,-1.212509155E0,2.068111420E0,-7.566260338E0
1.177583469E1,-1.098916054E0,2.193391562E0,-7.651016712E0
1.178382940E1,-9.744814634E-1,2.284472227E0,-7.705824375E0
1.179182488E1,-9.318345785E-1,2.223957062E0,-7.639646530E0
1.179982113E1,-8.784539104E-1,2.053732872E0,-7.397246361E0
1.180781631E1,-9.120796919E-1,1.889991879E0,-7.055405617E0
1.181584333E1,-1.042237282E0,1.848774672E0,-6.542132378E0
1.182383842E1,-1.188607097E0,1.921789885E0,-6.058325768E0
1.183183382E1,-1.319186449E0,1.992067099E0,-5.634646416E0
1.183982953E1,-1.454637527E0,1.994855404E0,-5.395322800E0
1.184782525E1,-1.592319250E0,1.983344555E0,-5.225159645E0
1.185582096E1,-1.788579702E0,1.880129337E0,-4.944260120E0
1.186381636E1,-1.959632277E0,1.737926245E0,-4.619468689E0
1.187184253E1,-2.024140358E0,1.631139755E0,-4.135653973E0
1.187983824E1,-2.007764339E0,1.535487890E0,-3.590638638E0
1.188783334E1,-1.965441346E0,1.461822867E0,-3.041499138E0
1.189583028E1,-1.831557989E0,1.317281604E0,-2.583713531E0
1.190382507E1,-1.620272756E0,1.235559344E0,-2.245714188E0
1.191182047E1,-1.385405540E0,1.097639322E0,-1.850121498E0
1.191981618E1,-1.226027727E0,9.867666960E-1,-1.521235466E0
1.192784266E1,-1.109081745E0,9.209240079E-1,-1.184870720E0
1.193583906E1,-1.094144583E0,8.087188005E-1,-8.291749954E-1
1.194383347E1,-1.141544700E0,7.290529013E-1,-5.908803940E-1
1.195182918E1,-1.180439949E0,7.224678993E-1,-4.392251968E-1
1.195982489E1,-1.211133122E0,7.675871253E-1,-3.888320923E-1
1.196781975E1,-1.177534461E0,8.158473969E-1,-4.447765350E-1
1.197581693E1,-1.142974973E0,8.729574680E-1,-5.255317688E-1
1.198384225E1,-1.186189413E0,9.561680555E-1,-4.800052643E-1
1.199183727E1,-1.256934166E0,9.960848093E-1,-1.977710724E-1
1.199983390E1,-1.278259516E0,1.021123171E0,1.610012054E-1
1.200782931E1,-1.184263706E0,9.859601259E-1,5.917615891E-1
1.201582563E1,-9.782351255E-1,9.018886089E-1,8.720436096E-1
1.202381981E1,-7.641712427E-1,7.766861916E-1,1.036460876E0
1.203181529E1,-4.935532212E-1,5.703561306E-1,1.000493050E0
1.203984207E1,-3.237291574E-1,3.877992630E-1,8.265008926E-1
1.204783771E1,-2.193472385E-1,1.939413548E-1,5.892715454E-1
1.205583442E1,-1.705412865E-1,1.332190037E-1,5.647745132E-1
1.206382951E1,-1.091775894E-1,2.335202694E-1,6.688337326E-1
1.207182515E1,-1.251709461E-2,4.099289179E-1,8.300886154E-1
1.207982001E1,9.225034714E-2,6.245846748E-1,9.037618637E-1
1.208781603E1,2.536041737E-1,7.036381960E-1,8.674020767E-1
1.209584343E1,2.946316004E-1,5.742231607E-1,8.501138687E-1
1.210383730E1,2.091517448E-1,1.564729214E-1,7.636756897E-1
1.211183363E1,9.473764896E-2,-3.070795536E-1,6.919527054E-1
1.211982864E1,2.631855011E-2,-6.321325302E-1,6.421775818E-1
1.212782435E1,1.143825054E-2,-8.762187958E-1,5.330657959E-1
1.213582130E1,2.230191231E-2,-8.359405994E-1,4.261684418E-1
1.215184195E1,1.506316662E-1,-9.555745125E-2,5.816488266E-1
1.215983774E1,3.010274172E-1,3.630599976E-1,7.203083038E-1
1.216783306E1,4.477943182E-1,5.569586754E-1,9.024200439E-1
1.217583000E1,4.404220581E-1,5.457906723E-1,1.015739441E0
1.218382448E1,3.245130777E-1,2.960844040E-1,1.103796005E0
1.219181989E1,1.367152929E-1,-1.399140358E-1,1.098224640E0
1.219981560E1,-1.347422600E-3,-6.190369129E-1,1.098116875E0
1.220784239E1,-2.728962898E-2,-8.677339554E-1,8.922271729E-1
1.221583810E1,5.196452141E-3,-8.382890224E-1,5.152616501E-1
1.222383296E1,1.415121555E-2,-6.307559013E-1,2.208251953E-1
1.223182921E1,9.066605568E-2,-3.342051506E-1,1.552162170E-1
1.223982461E1,2.028863430E-1,5.590295792E-2,1.943874359E-2
1.224781978E1,3.216028214E-1,2.587728500E-1,-4.855918884E-2
1.225581642E1,5.097744465E-1,3.030312061E-1,7.350349426E-2
1.226384075E1,5.554497242E-1,2.152280807E-1,2.350597382E-1
1.227183738E1,4.995539188E-1,1.416225433E-1,4.653759003E-1
1.227983270E1,3.615243435E-1,4.113674164E-3,7.749500275E-1
1.228782872E1,2.599856853E-1,-2.435817719E-1,9.500169754E-1
1.229582474E1,1.803166866E-1,-5.911436081E-1,7.954483032E-1
1.230382045E1,1.717061996E-1,-8.915882111E-1,6.186742783E-1
1.231184609E1,2.019743919E-1,-9.926409721E-1,4.980573654E-1
1.231984172E1,2.120823860E-1,-9.094176292E-1,2.073774338E-1
1.232783682E1,2.200276852E-1,-6.540575027E-1,-1.802453995E-1
1.233583345E1,3.144812584E-1,-3.146977425E-1,-5.049171448E-1
1.234382732E1,3.410165310E-1,-1.567125320E-2,-6.927499771E-1
1.235182364E1,4.600954056E-1,1.433353424E-1,-6.968536377E-1
1.235982004E1,5.341181755E-1,1.901283264E-1,-4.768238068E-1
1.236784676E1,5.482938290E-1,1.383533478E-1,-1.216716766E-1
1.237584185E1,5.789432526E-1,-9.426879883E-2,3.767266273E-1
1.238383825E1,5.964863300E-1,-4.577860832E-1,6.680173874E-1
1.239183243E1,6.263489723E-1,-9.728784561E-1,7.834758759E-1
1.239982875E1,6.556479931E-1,-1.335037231E0,7.957730293E-1
1.240782439E1,5.955624580E-1,-1.489281654E0,8.375988007E-1
1.241582048E1,4.868435860E-1,-1.535852432E0,8.261981010E-1
1.242384596E1,3.128960133E-1,-1.478895187E0,7.147955894E-1
1.243184136E1,1.320772171E-1,-1.333142281E0,2.824435234E-1
1.243983769E1,-1.191649437E-1,-1.080832958E0,-6.601667404E-2
1.244783256E1,-2.887003422E-1,-8.187255859E-1,-1.864528656E-1
1.245582881E1,-3.798103333E-1,-5.222115517E-1,-1.628293991E-1
1.246382452E1,-4.000501633E-1,-3.479175568E-1,1.047439575E-1
1.247181961E1,-2.554283142E-1,-3.993020058E-1,5.328092575E-1
1.247984578E1,-5.101776123E-2,-6.020741463E-1,9.260683060E-1
1.248784149E1,1.890594959E-1,-9.129114151E-1,1.221341610E0
1.249583751E1,3.868031502E-1,-1.159322739E0,1.328540802E0
1.250383207E1,4.387683868E-1,-1.244517803E0,1.365332127E0
1.251182801E1,3.639771938E-1,-1.248844147E0,1.185678005E0
1.251982342E1,2.061889172E-1,-1.155963421E0,9.682660103E-1
1.252781920E1,-1.083767414E-1,-9.313139915E-1,6.777906418E-1
1.253584661E1,-3.756844997E-1,-6.074147224E-1,3.220143318E-1
1.254384132E1,-5.693089962E-1,-2.779760361E-1,-2.727508545E-3
1.255183680E1,-6.914784908E-1,-8.218765259E-3,1.016902924E-2
1.255983212E1,-7.612450123E-1,-2.497529984E-2,1.708650589E-1
1.256782814E1,-7.044465542E-1,-3.334932327E-1,2.911734581E-1
1.257582478E1,-4.473750591E-1,-6.551237106E-1,5.007371902E-1
1.258384887E1,-1.052105427E-1,-8.463678360E-1,6.526994705E-1
1.259184581E1,1.968996525E-1,-8.097043037E-1,7.852735519E-1
1.259984060E1,3.865177631E-1,-7.042326927E-1,8.101148605E-1
1.260783662E1,4.945406914E-1,-6.623172760E-1,6.940040588E-1
1.261583318E1,4.536235332E-1,-6.555752754E-1,5.093331337E-1
1.262382735E1,2.563922405E-1,-6.361150742E-1,2.688684464E-1
1.263182375E1,1.971077919E-2,-5.492553711E-1,1.142272949E-1
1.263981938E1,-1.772954464E-1,-4.378275871E-1,4.298591614E-2
1.264784563E1,-3.672130108E-1,-3.663296700E-1,1.159524918E-1
1.265584188E1,-4.804413319E-1,-4.799718857E-1,2.159185410E-1
1.266383513E1,-5.642559528E-1,-6.509003639E-1,2.280707359E-1
1.267183184E1,-5.725820065E-1,-7.235136032E-1,3.332853317E-1
1.267982778E1,-5.659816265E-1,-6.933116913E-1,3.593716621E-1
1.268782350E1,-4.662411213E-1,-6.114087105E-1,3.201727867E-1
1.269581928E1,-3.734426498E-1,-5.089135170E-1,2.058277130E-1
1.270384576E1,-2.649786472E-1,-4.264798164E-1,1.042237282E-1
1.271184017E1,-1.591744423E-1,-3.924469948E-1,-2.777242661E-2
1.271983595E1,-4.622554779E-2,-4.088816643E-1,-1.443219185E-1
1.272783220E1,5.486679077E-2,-3.940782547E-1,-1.684145927E-1
1.273582891E1,1.367044449E-1,-3.886756897E-1,-8.533668518E-2
1.274382239E1,2.924973965E-1,-4.386463165E-1,-9.984970093E-4
1.275181880E1,4.676468372E-1,-5.152554512E-1,1.512970924E-1
1.275984528E1,7.055878639E-1,-6.811313629E-1,2.988142967E-1
1.276784091E1,8.589656353E-1,-8.451032639E-1,4.265427589E-1
1.277583724E1,9.239397049E-1,-9.638447762E-1,5.172309875E-1
1.278383172E1,8.871216774E-1,-1.027527809E0,5.224857330E-1
1.279182774E1,7.252705097E-1,-9.737796783E-1,4.872899055E-1
1.279982314E1,4.551477432E-1,-8.246574402E-1,4.297256470E-1
1.280781893E1,2.130498886E-1,-6.543254852E-1,3.355526924E-1
1.281584533E1,-4.201412201E-3,-4.053993225E-1,2.746868134E-1
1.282384012E1,-1.306054592E-1,-2.622432709E-1,1.785986423E-1
1.283183614E1,-2.008171082E-1,-2.247667313E-1,1.275396347E-1
1.283983185E1,-2.680873871E-1,-2.041292191E-1,3.642559052E-2
1.284782756E1,-2.795400620E-1,-2.259407043E-1,4.551792145E-2
1.285582327E1,-1.798539162E-1,-3.475894928E-1,2.075297832E-1
1.286381844E1,-1.881170273E-2,-5.446252823E-1,3.700139523E-1
1.287184523E1,1.936087608E-1,-7.119874954E-1,5.640845299E-1
1.287984125E1,4.141426086E-1,-8.571901321E-1,6.888043880E-1
1.288783665E1,5.633108616E-1,-8.972244263E-1,8.195681572E-1
1.289583205E1,6.503341198E-1,-9.212188721E-1,8.645033836E-1
1.290382646E1,5.819571018E-1,-9.223051071E-1,7.508540154E-1
1.291182248E1,4.155285358E-1,-9.320344925E-1,5.828771591E-1
1.291981857E1,2.350094318E-1,-9.170455933E-1,3.645930290E-1
1.292784497E1,6.934738159E-2,-9.298276901E-1,1.918184757E-1
1.293584138E1,-6.889009476E-2,-8.741588593E-1,5.057764053E-2
1.294383616E1,-1.291675568E-1,-8.359270096E-1,8.364439011E-3
1.295183095E1,-1.066155434E-1,-8.555278778E-1,-1.789093018E-2
1.295982720E1,-8.327674866E-2,-8.256473541E-1,-5.028486252E-2
1.296782330E1,-4.785132408E-2,-7.463073730E-1,-5.461835861E-2
1.297581955E1,6.337404251E-3,-6.201038361E-1,-8.604979515E-2
1.298384426E1,8.150267601E-2,-5.524139404E-1,-9.906840324E-2
1.299184028E1,1.727905273E-1,-5.432624817E-1,-1.105430126E-1
1.299983599E1,2.279171944E-1,-5.756292343E-1,-1.153829098E-1
1.300783131E1,2.716944218E-1,-6.491289139E-1,-1.709201336E-1
1.301582864E1,2.862701416E-1,-7.131948471E-1,-1.365747452E-1
1.302382312E1,2.884933949E-1,-7.346057892E-1,-1.237416267E-1
1.303181844E1,2.784636021E-1,-7.851581573E-1,-7.986330986E-2
1.303984531E1,2.484738827E-1,-8.173017502E-1,6.356000900E-3
1.304784033E1,1.427474022E-1,-8.911218643E-1,1.272273064E-2
1.305583665E1,-1.821947098E-2,-9.110832214E-1,1.140117645E-2
1.306383175E1,-1.803932190E-1,-8.460674286E-1,-1.078724861E-2
1.307182661E1,-3.901815414E-1,-6.985015869E-1,-2.567768097E-3
1.307982294E1,-5.139288902E-1,-6.119718552E-1,-6.620407104E-2
1.308781804E1,-5.918774605E-1,-4.712495804E-1,-1.412800550E-1
1.309584544E1,-5.803394318E-1,-3.670377731E-1,-1.723971367E-1
1.310384053E1,-5.359222889E-1,-2.655687332E-1,-1.812310219E-1
1.311183563E1,-3.795750141E-1,-2.123851776E-1,-1.800777912E-1
1.311983126E1,-2.002968788E-1,-2.580194473E-1,-1.862946749E-1
1.312782667E1,-2.950382233E-2,-3.618612289E-1,-1.952122450E-1
1.313582338E1,6.111216545E-2,-4.545879364E-1,-1.765513420E-1
1.314384863E1,1.199643612E-1,-5.600490570E-1,-1.499848366E-1
1.315184403E1,1.643598080E-1,-6.182374954E-1,-1.947212219E-1
1.315983974E1,1.610307693E-1,-6.697616577E-1,-2.054389715E-1
1.316783514E1,1.697247028E-1,-7.122764587E-1,-2.087169886E-1
1.317583232E1,1.614272594E-1,-7.243185043E-1,-1.209019423E-1
1.318382749E1,1.138772964E-1,-7.157430649E-1,-4.316866398E-2
1.319182228E1,3.833532333E-2,-6.651754379E-1,5.050897598E-4
1.319981830E1,-7.498097420E-2,-5.653514862E-1,5.861175060E-2
1.320784439E1,-2.049350739E-1,-4.378404617E-1,8.605384827E-2
1.321584049E1,-2.913074493E-1,-3.159732819E-1,1.047463417E-1
1.322383497E1,-3.475027084E-1,-2.449474335E-1,1.147416830E-1
1.323183091E1,-3.583250046E-1,-2.293004990E-1,1.137146950E-1
1.323982693E1,-3.091130257E-1,-2.929401398E-1,1.180950403E-1
1.324782241E1,-2.262370586E-1,-3.328933716E-1,9.928107262E-2
1.325584950E1,-1.911458969E-1,-3.108310699E-1,8.859419823E-2
1.326384421E1,-1.607966423E-1,-2.937870026E-1,6.456160545E-2
1.327184062E1,-1.209330559E-1,-2.913303375E-1,3.699326515E-2
1.327983448E1,-1.071989536E-1,-2.770042419E-1,3.011631966E-2
1.328783134E1,-8.847546577E-2,-2.963094711E-1,7.956504822E-3
1.329582682E1,-9.354066849E-2,-2.654581070E-1,1.123154163E-2
1.330382184E1,-7.924008369E-2,-2.706403732E-1,2.306818962E-2
1.331181763E1,-1.053521633E-1,-2.471971512E-1,3.386604786E-2
1.331984434E1,-1.384923458E-1,-2.119312286E-1,1.010334492E-1
1.332783882E1,-1.473264694E-1,-1.982908249E-1,1.743898392E-1
1.333583646E1,-2.085597515E-1,-2.135210037E-1,2.441085577E-1
1.334383094E1,-2.575151920E-1,-2.145433426E-1,3.052262068E-1
1.335182719E1,-3.064279556E-1,-2.182216644E-1,3.311585188E-1
1.335982197E1,-2.933356762E-1,-2.437973022E-1,3.481295109E-1
1.336784822E1,-2.838079929E-1,-2.387247086E-1,2.969716787E-1
1.337584424E1,-2.139315605E-1,-2.461261749E-1,2.098118067E-1
1.338383872E1,-1.321957111E-1,-2.157049179E-1,4.219317436E-2
1.339183466E1,-5.500793457E-2,-2.239332199E-1,-7.864856720E-2
1.339983037E1,1.849389076E-2,-2.059955597E-1,-2.583698034E-1
1.340782585E1,1.062536240E-1,-1.857261658E-1,-3.928064108E-1
1.341582341E1,1.836183071E-1,-1.460323334E-1,-4.967892766E-1
1.342384804E1,2.414193153E-1,-1.343803406E-1,-5.968804955E-1
1.343184376E1,2.635815144E-1,-1.220560074E-1,-6.736983061E-1
1.343983970E1,2.273778915E-1,-1.042127609E-1,-7.321428657E-1
1.344783518E1,1.544713974E-1,-9.773540497E-2,-7.372282147E-1
1.345583120E1,4.842662811E-2,-7.879829407E-2,-7.417577505E-1
1.346382560E1,-2.578091621E-2,-4.498863220E-2,-7.077028155E-1
1.347182192E1,-1.082842350E-1,-2.734756470E-2,-6.711860299E-1
1.347984779E1,-1.466042995E-1,1.473045349E-2,-6.396101117E-1
1.348784381E1,-1.744298935E-1,6.438732147E-2,-6.299754977E-1
1.349584052E1,-1.494035721E-1,9.988498688E-2,-6.423200369E-1
1.350383554E1,-7.031893730E-2,1.183948517E-1,-6.682049632E-1
1.351183040E1,1.881933212E-2,1.078071594E-1,-7.070932388E-1
1.351982634E1,6.937098503E-2,9.427928925E-2,-7.183026075E-1
1.352782121E1,1.198363304E-1,5.391025543E-2,-7.161843181E-1
1.353584892E1,1.279044151E-1,6.101226807E-2,-6.989496946E-1
1.354384301E1,8.790683746E-2,4.879760742E-2,-6.793127060E-1
1.355183872E1,7.722353935E-2,4.614925385E-2,-6.550240517E-1
1.355983451E1,1.219344139E-1,6.494808197E-2,-6.288099289E-1
1.356783053E1,2.041013241E-1,9.778690338E-2,-6.386790276E-1
1.357582655E1,2.531580925E-1,1.180982590E-1,-6.318026781E-1
1.358382134E1,2.898759842E-1,1.281652451E-1,-6.578156948E-1
1.359184782E1,2.642939091E-1,1.185216904E-1,-6.611720324E-1
1.359984322E1,2.748529911E-1,8.918476105E-2,-6.277747750E-1
1.360783862E1,2.811980247E-1,5.932521820E-2,-5.558721423E-1
1.361583618E1,2.695302963E-1,6.726551056E-2,-4.706617296E-1
1.362383028E1,2.760617733E-1,6.513881683E-2,-3.753530681E-1
1.363182637E1,2.986421585E-1,1.056146622E-1,-2.900941074E-1
1.363982239E1,2.897629738E-1,1.624097824E-1,-2.300853729E-1
1.364784725E1,3.278849125E-1,1.516542435E-1,-1.997849345E-1
1.365584358E1,3.153486252E-1,1.094198227E-1,-1.916138530E-1
1.366383929E1,2.724730968E-1,6.949520111E-2,-1.891577244E-1
1.367183446E1,2.146430016E-1,2.975845337E-2,-1.729249358E-1
1.367982987E1,1.403684616E-1,9.620666504E-3,-1.687760055E-1
1.368782589E1,6.910228729E-2,-2.912044525E-2,-1.357154846E-1
1.369582221E1,3.176760674E-2,-1.704883575E-2,-9.493574500E-2
1.370384677E1,-1.054573059E-2,-9.341239929E-3,-8.190438151E-2
1.371184279E1,-2.256846428E-2,-1.568984985E-2,-7.211476564E-2
1.371983881E1,-6.703495979E-2,2.365875244E-2,-4.863750935E-2
1.372783482E1,-1.152570248E-1,9.555816650E-4,5.254864693E-3
1.373583123E1,-1.721434593E-1,-1.678276062E-2,4.904961586E-2
1.374382663E1,-1.639256477E-1,-3.683757782E-2,9.962528944E-2
1.375182111E1,-1.413035393E-1,-5.689525604E-2,1.667687297E-1
1.375984728E1,-1.313254833E-1,-4.119586945E-2,1.885305643E-1
1.376784292E1,-1.178350449E-1,-1.143074036E-2,1.886357665E-1
1.377583901E1,-1.081254482E-1,8.426666260E-3,1.717769504E-1
1.378383318E1,-1.425375938E-1,3.760814667E-2,1.378296614E-1
1.379182982E1,-1.747388840E-1,4.519081116E-2,1.181038022E-1
1.379982515E1,-1.517555714E-1,3.603553772E-2,8.391106129E-2
1.380782063E1,-1.209893227E-1,3.657150269E-2,1.187642813E-1
1.381584680E1,-7.082200050E-2,2.036857605E-2,1.218500137E-1
1.382384305E1,-2.297902107E-2,1.373577118E-2,1.221048236E-1
1.383183822E1,-3.260374069E-2,-9.687423706E-3,1.458037496E-1
1.383983485E1,-4.696249962E-2,-1.157665253E-2,1.450754404E-1
1.384782964E1,-7.313084602E-2,8.093833923E-3,1.630967855E-1
1.385582689E1,-7.513785362E-2,3.737831116E-2,1.808937192E-1
1.386385052E1,-7.918095589E-2,5.476474762E-2,1.817904115E-1
1.387184716E1,-5.167913437E-2,7.464218140E-2,1.731236577E-1
1.387984225E1,-2.589225769E-4,6.816673279E-2,1.691606045E-1
1.388783796E1,4.147648811E-2,6.166267395E-2,1.627314687E-1
1.389583437E1,5.176830292E-2,5.747509003E-2,1.322404742E-1
1.390383039E1,4.963088036E-2,6.276035309E-2,1.089916825E-1
1.391182517E1,4.246735573E-2,8.715724945E-2,8.352291584E-2
1.391982112E1,4.715013504E-2,1.067476273E-1,9.414422512E-2
1.392784729E1,6.109046936E-2,1.118888855E-1,1.117337346E-1
1.393584330E1,9.342861176E-2,1.216411591E-1,1.220277548E-1
1.394383725E1,1.031055450E-1,1.191606522E-1,1.249257922E-1
1.395183388E1,7.121968269E-2,1.356382370E-1,1.348831058E-1
1.395982959E1,3.390979767E-2,1.376008987E-1,1.352016926E-1
1.396782500E1,1.302909851E-2,1.418752670E-1,1.640607119E-1
1.397582163E1,8.480072021E-3,1.197042465E-1,1.663730741E-1
1.398384711E1,-3.614425659E-3,1.094160080E-1,1.685726047E-1
1.399184251E1,1.970362663E-2,1.133842468E-1,1.421732306E-1
1.399983915E1,6.583452225E-3,1.100530624E-1,1.421334743E-1
1.400783393E1,1.385211945E-4,1.138048172E-1,1.184211969E-1
1.401583026E1,-3.040051460E-2,7.923412323E-2,9.031391144E-2
1.402382389E1,-2.994322777E-2,7.816982269E-2,6.966680288E-2
1.403182076E1,-4.152679443E-2,7.711410522E-2,2.558338642E-2
1.403984662E1,-3.904294968E-2,5.687808990E-2,-1.074373722E-3
1.404784241E1,-2.238535881E-2,4.141044617E-2,6.273627281E-3
1.405583897E1,-5.181741714E-2,1.384830475E-2,9.094536304E-3
1.406383406E1,-5.304551125E-2,-4.015731812E-2,2.893209457E-2
1.407182947E1,-7.395887375E-2,-9.188365936E-2,2.025830746E-2
1.407982525E1,-9.760212898E-2,-1.317167282E-1,2.125495672E-2
1.408782066E1,-1.162359715E-1,-1.355752945E-1,8.096218109E-3
1.409584744E1,-1.273486614E-1,-1.584987640E-1,-2.153730392E-2
1.410384216E1,-1.355209351E-1,-1.549425125E-1,-2.441835403E-2
1.411183817E1,-1.025600433E-1,-1.895818710E-1,-1.992166042E-2
1.411983335E1,-1.047773361E-1,-2.096805573E-1,6.263136864E-3
1.412782936E1,-9.424328804E-2,-2.367906570E-1,2.510404587E-2
1.413582538E1,-8.565616608E-2,-2.446641922E-1,6.758594513E-2
1.414382017E1,-8.602714539E-2,-2.667856216E-1,8.322829008E-2
1.415184657E1,-1.025345325E-1,-2.241535187E-1,1.006587744E-1
1.415984198E1,-9.691786766E-2,-1.694574356E-1,1.317646503E-1
1.416783800E1,-1.002016068E-1,-1.146516800E-1,1.500257254E-1
1.417583378E1,-9.554433823E-2,-1.243705750E-1,1.719932556E-1
1.418382857E1,-9.471273422E-2,-1.483068466E-1,2.285796404E-1
1.419182459E1,-1.048417091E-1,-1.721029282E-1,2.643418312E-1
1.419982022E1,-1.305227280E-1,-1.646060944E-1,2.767074108E-1
1.420784640E1,-1.717834473E-1,-1.306171417E-1,2.990776300E-1
1.421584218E1,-2.426970005E-1,-1.083679199E-1,2.766782045E-1
1.422383820E1,-2.831425667E-1,-8.580970764E-2,2.649731040E-1
1.423183384E1,-3.334809542E-1,-3.652954102E-2,2.544850707E-1
1.423982901E1,-3.742696047E-1,-1.791572571E-2,2.454676032E-1
1.424782464E1,-3.887118101E-1,8.347511292E-3,2.453045249E-1
1.425582097E1,-3.700436354E-1,2.062702179E-2,2.375648618E-1
1.426384622E1,-3.262752295E-1,3.072929382E-2,2.155961990E-1
1.427184139E1,-2.729417086E-1,5.278587341E-2,2.061678767E-1
1.427983710E1,-2.089588642E-1,6.981849670E-2,1.408072710E-1
1.428783281E1,-1.492593288E-1,5.779647827E-2,1.060311198E-1
1.429582968E1,-8.669376373E-2,6.219959259E-2,9.677112103E-2
1.430382446E1,-3.762388229E-2,1.125812531E-2,1.005517840E-1
1.431182079E1,1.034450531E-2,-2.790927887E-2,7.400864363E-2
1.431984673E1,5.723619461E-2,-5.048561096E-2,1.015257835E-2
1.432784214E1,1.152303219E-1,-2.532386780E-2,-1.945406199E-2
1.433583815E1,1.464381218E-1,-2.231597900E-4,-7.727497816E-2
1.434383233E1,1.561415195E-1,1.051330566E-2,-1.087187529E-1
1.435182865E1,1.701664925E-1,1.992225647E-3,-8.746027946E-2
1.435982490E1,1.716208458E-1,-3.541183472E-2,-2.573299408E-2
1.436782061E1,1.008536816E-1,-9.207916260E-2,-1.215934753E-4
1.437584686E1,8.000373840E-2,-1.057586670E-1,4.911500216E-2
1.438384196E1,6.815457344E-2,-9.327697754E-2,1.432178020E-1
1.439183698E1,5.051684380E-2,-6.911659241E-2,2.483890057E-1
1.439983307E1,3.405308723E-2,-6.927108765E-2,3.833528757E-1
1.440782840E1,8.744120598E-3,-6.046867371E-2,5.750572681E-1
1.441582603E1,-5.411338806E-2,-1.005477905E-1,9.292547703E-1
1.442385067E1,-7.959747314E-2,-1.300239563E-1,1.143864870E0
1.443184568E1,-3.902912140E-2,-2.539720535E-1,1.247141242E0
1.443984140E1,-4.517674446E-2,-4.052124023E-1,1.412119150E0
1.444783718E1,-9.361290932E-2,-4.665269852E-1,1.629785657E0
1.445583412E1,-1.337050200E-1,-4.427757263E-1,1.923478603E0
1.446382914E1,-1.195495129E-1,-5.302791595E-1,2.281353951E0
1.447182431E1,-1.206204891E-1,-6.907320023E-1,2.639697552E0
1.447985049E1,-1.592401266E-1,-9.837236404E-1,3.117449999E0
1.448784612E1,-2.563108206E-1,-1.308218956E0,3.380997181E0
1.449584222E1,-4.257880449E-1,-1.642423630E0,3.549298763E0
1.450383631E1,-6.121749878E-1,-1.892467499E0,3.652359962E0
1.451183356E1,-9.286389351E-1,-2.048985481E0,3.791311502E0
1.451982812E1,-1.272610068E0,-2.102427483E0,3.824042320E0
1.452782406E1,-1.569801927E0,-2.076704025E0,3.773143291E0
1.453585092E1,-1.802719831E0,-2.026680946E0,3.668406248E0
1.454384625E1,-1.954173326E0,-2.026626587E0,3.504939556E0
1.455184112E1,-2.030574799E0,-1.992583275E0,3.280918121E0
1.455983706E1,-2.065209150E0,-1.934182167E0,3.156776905E0
1.456783308E1,-2.059948444E0,-1.861137390E0,3.139025450E0
1.457582848E1,-2.044794559E0,-1.766153336E0,3.045547485E0
1.458385380E1,-2.071512222E0,-1.670773506E0,2.799321890E0
1.459185044E1,-2.119508743E0,-1.593636513E0,2.810834646E0
1.459984553E1,-2.155706882E0,-1.675863266E0,3.050211668E0
1.460784094E1,-1.949533343E0,-1.862429619E0,2.978312492E0
1.461583780E1,-1.518612504E0,-1.966762543E0,2.698849201E0
1.462383267E1,-1.164847136E0,-1.991883278E0,2.511956692E0
1.463182838E1,-9.405174255E-1,-1.935567856E0,2.409778595E0
1.463982347E1,-8.767325878E-1,-1.920020103E0,2.274963379E0
1.464784957E1,-7.664285898E-1,-1.803774834E0,2.081075907E0
1.465584659E1,-6.460049152E-1,-1.809417725E0,2.030560255E0
1.466384107E1,-5.141360760E-1,-1.827090263E0,1.952029228E0
1.467183739E1,-4.226262569E-1,-1.881079674E0,1.882825613E0
1.467983280E1,-4.330799580E-1,-1.981228828E0,1.702789068E0
1.468782820E1,-4.309165478E-1,-2.134129524E0,1.536338568E0
1.469582537E1,-4.092226028E-1,-2.225011826E0,1.398168802E0
1.470385039E1,-4.047791958E-1,-2.306900978E0,1.381947994E0
1.471184518E1,-3.915016651E-1,-2.493061066E0,1.347976208E0
1.471984089E1,-2.726719379E-1,-2.671238899E0,1.347444057E0
1.472783721E1,-9.589457512E-2,-2.789088249E0,1.307211399E0
1.473583262E1,9.633708000E-2,-2.830513954E0,1.162823200E0
1.474382771E1,2.502536774E-1,-2.742075920E0,8.853402138E-1
1.475182281E1,3.898816109E-1,-2.684192657E0,7.692956924E-1
1.475984960E1,5.375814438E-1,-2.740402222E0,7.118506432E-1
1.476784584E1,7.182374001E-1,-2.874990940E0,6.357712746E-1
1.477584071E1,8.699390888E-1,-3.057114601E0,6.029438972E-1
1.478383704E1,9.697227478E-1,-3.157883167E0,6.256618500E-1
1.479183206E1,9.872865677E-1,-3.185263157E0,6.104435921E-1
1.479982723E1,8.667037487E-1,-3.198174000E0,5.925855637E-1
1.480782325E1,8.178751469E-1,-3.160934925E0,3.807077408E-1
1.481585026E1,8.900170326E-1,-3.096782684E0,1.685142517E-2
1.482384474E1,1.029196739E0,-2.869833946E0,-4.270915985E-1
1.483184053E1,1.218774319E0,-2.688734055E0,-6.332125664E-1
1.483983647E1,1.427634001E0,-2.605782509E0,-6.551079750E-1
1.484783157E1,1.725711823E0,-2.756121635E0,-6.005740166E-1
1.485582828E1,1.971416473E0,-2.964889526E0,-5.159506798E-1
1.486382330E1,2.185081244E0,-3.108769417E0,-5.082058907E-1
1.487184886E1,2.287205458E0,-3.144970417E0,-4.538035393E-1
1.487984457E1,2.377653837E0,-3.153161049E0,-4.184947014E-1
1.488784097E1,2.338109970E0,-3.139399052E0,-4.898400307E-1
1.489583753E1,2.197549820E0,-3.060596466E0,-6.604599953E-1
1.490383108E1,1.916651726E0,-2.887755394E0,-8.265542984E-1
1.491182772E1,1.604531050E0,-2.724448204E0,-8.282575607E-1
1.491982320E1,1.432778120E0,-2.522268772E0,-7.462754250E-1
1.492784937E1,1.394395828E0,-2.404581070E0,-7.235684395E-1
1.493584600E1,1.450860739E0,-2.277212143E0,-6.111979485E-1
1.494384041E1,1.466217041E0,-2.276072502E0,-5.360116959E-1
1.495183612E1,1.433518887E0,-2.411348343E0,-4.530630112E-1
1.495983160E1,1.367135763E0,-2.646181583E0,-3.703675270E-1
1.496782731E1,1.346852779E0,-2.875556469E0,-2.947340012E-1
1.497582363E1,1.276570797E0,-3.000707150E0,-4.967288971E-1
1.498384827E1,1.229875088E0,-3.081370831E0,-7.358946800E-1
1.499184452E1,1.179017067E0,-3.054421663E0,-9.683051109E-1
1.499984031E1,1.131184816E0,-2.930683613E0,-1.119294643E0
1.500783632E1,1.094542742E0,-2.805254698E0,-1.306262493E0
1.501583319E1,1.075781107E0,-2.617687225E0,-1.338059425E0
1.502382805E1,1.060649872E0,-2.502458811E0,-1.360805511E0
1.503182315E1,1.105612755E0,-2.361789227E0,-1.336097717E0
1.503984932E1,1.127351999E0,-2.245292902E0,-1.338583946E0
1.504784442E1,1.155859470E0,-2.198034763E0,-1.320180416E0
1.505584074E1,1.154518127E0,-2.117149591E0,-1.379892349E0
1.506383576E1,1.127225637E0,-2.064289808E0,-1.437386990E0
1.507183186E1,1.025363922E0,-2.047454119E0,-1.407103539E0
1.507982726E1,8.303353786E-1,-2.043718338E0,-1.266533375E0
1.508782266E1,7.118430138E-1,-2.024816990E0,-1.184184074E0
1.509584968E1,5.697281361E-1,-1.848574638E0,-1.145156860E0
1.510384539E1,4.577867985E-1,-1.660469770E0,-1.075491905E0
1.511184049E1,2.673175335E-1,-1.344240189E0,-9.387531281E-1
1.511983620E1,1.160016060E-1,-1.105602741E0,-9.113016129E-1
1.512783222E1,-5.689549446E-2,-8.745088577E-1,-9.657468796E-1
1.513582793E1,-2.192718983E-1,-7.236056328E-1,-1.213059425E0
1.514385233E1,-3.272570372E-1,-6.240789890E-1,-1.399830341E0
1.515184897E1,-4.394037724E-1,-4.823396206E-1,-1.718851566E0
1.515984437E1,-5.228778124E-1,-4.098345041E-1,-2.004481792E0
1.516783969E1,-6.418120861E-1,-3.339400291E-1,-2.283792973E0
1.517583702E1,-7.866923809E-1,-2.788648605E-1,-2.273918152E0
1.518383235E1,-8.161799908E-1,-1.977363825E-1,-2.360263348E0
1.519182721E1,-8.327224255E-1,-1.035531759E-1,-2.459457397E0
1.519982315E1,-8.422788382E-1,-6.770813465E-2,-2.556956768E0
1.520784848E1,-9.143021107E-1,6.470978260E-3,-2.746175766E0
1.521584504E1,-9.816927910E-1,9.105634689E-2,-3.027224541E0
1.522383959E1,-1.024930716E0,1.050065756E-1,-3.330908775E0
1.523183553E1,-1.017640352E0,1.463456452E-1,-3.633485794E0
1.523983132E1,-1.039435863E0,1.497811973E-1,-3.829590797E0
1.524782696E1,-1.036936283E0,1.605304629E-1,-3.883687973E0
1.525585382E1,-1.077665091E0,2.097958624E-1,-3.872984886E0
1.526384915E1,-1.099652290E0,3.548591733E-1,-3.819669247E0
1.527184370E1,-1.039483547E0,5.237876773E-1,-3.800788403E0
1.527983995E1,-9.150367975E-1,6.568833590E-1,-4.025097847E0
1.528783512E1,-7.733108997E-1,6.941822171E-1,-4.327766895E0
1.529583199E1,-6.737281084E-1,5.888956785E-1,-4.575053215E0
1.530382647E1,-6.956051588E-1,4.766413569E-1,-4.915474892E0
1.531185326E1,-8.275270462E-1,4.270594120E-1,-5.305997849E0
1.531984812E1,-9.990831614E-1,4.763743281E-1,-5.562147617E0
1.532784414E1,-1.187837005E0,5.673112273E-1,-5.870525360E0
1.533584108E1,-1.329118252E0,6.601665020E-1,-6.078163147E0
1.534383549E1,-1.421400905E0,7.672566175E-1,-6.312488556E0
1.535183097E1,-1.434896827E0,8.320461512E-1,-6.358523369E0
1.535982668E1,-1.397833109E0,9.882694483E-1,-6.506192207E0
1.536785346E1,-1.277304888E0,1.203524113E0,-6.526311874E0
1.537584787E1,-1.173317552E0,1.370072961E0,-6.598684788E0
1.538384358E1,-1.081874847E0,1.466138363E0,-6.783053398E0
1.539183998E1,-1.083476305E0,1.425003886E0,-6.978652954E0
1.539983500E1,-1.259435415E0,1.278253436E0,-7.096527100E0
1.540783079E1,-1.545415878E0,1.158118010E0,-7.069200039E0
1.541582734E1,-1.782359600E0,1.123865962E0,-6.886762619E0
1.542385321E1,-1.975582600E0,1.264180183E0,-6.666440010E0
1.543184838E1,-2.006123543E0,1.516742110E0,-6.455924034E0
1.543984409E1,-1.929818034E0,1.663194895E0,-6.343523979E0
1.544783980E1,-1.831061959E0,1.625614882E0,-6.219033241E0
1.545583551E1,-1.838508725E0,1.463548779E0,-6.024936199E0
1.546383084E1,-1.882086635E0,1.252947330E0,-5.840117455E0
1.547182594E1,-1.937330961E0,1.175254107E0,-5.630911827E0
1.547985280E1,-1.970447302E0,1.143824935E0,-5.313321590E0
1.548784874E1,-1.942816973E0,1.221179724E0,-4.975795269E0
1.549584415E1,-1.874890924E0,1.335728645E0,-4.524951458E0
1.550383993E1,-1.745138884E0,1.351499438E0,-3.987393856E0
1.551183503E1,-1.555432796E0,1.301851273E0,-3.540623188E0
1.551983074E1,-1.246384740E0,1.196298838E0,-3.074533939E0
1.552782668E1,-9.843198061E-1,1.103311539E0,-2.665789127E0
1.553585255E1,-6.831371784E-1,9.471539259E-1,-2.268674850E0
1.554384733E1,-5.252608061E-1,7.770925760E-1,-1.988292217E0
1.555184397E1,-4.788794518E-1,6.466515064E-1,-1.675725937E0
1.555983937E1,-5.781360865E-1,4.743735194E-1,-1.409796715E0
1.556783508E1,-6.255533695E-1,4.281167686E-1,-1.130843163E0
1.557583087E1,-5.955718756E-1,4.319891930E-1,-9.278354645E-1
1.558382619E1,-5.070139170E-1,5.046846867E-1,-7.529830933E-1
1.559185237E1,-4.709378481E-1,5.381276608E-1,-6.084995270E-1
1.559984785E1,-5.363177061E-1,5.177649260E-1,-4.534740448E-1
1.560784287E1,-6.524635553E-1,4.506661892E-1,-3.090543747E-1
1.561583981E1,-8.552403450E-1,3.901314139E-1,-1.292066574E-1
1.562383436E1,-1.027883291E0,3.295797110E-1,7.957172394E-2
1.563183069E1,-1.117743015E0,2.251974344E-1,2.673864365E-1
1.563982602E1,-1.114331365E0,1.464232206E-1,2.645206451E-1
1.564785196E1,-9.970226288E-1,1.097275019E-1,3.536005020E-1
1.565584913E1,-8.392192125E-1,1.131120920E-1,3.660011292E-1
1.566384338E1,-7.303107977E-1,2.002494335E-1,4.657535553E-1
1.567183817E1,-5.515213013E-1,3.784862757E-1,5.874643326E-1
1.567983503E1,-3.356168270E-1,5.043245554E-1,6.994705200E-1
1.568783074E1,-7.173871994E-2,3.220897913E-1,8.419704437E-1
1.569582653E1,1.798149347E-1,1.981830597E-2,9.055109024E-1
1.570385116E1,3.480265141E-1,-2.639677525E-1,8.362512589E-1
1.571184780E1,4.536714554E-1,-4.611399174E-1,6.904296875E-1
1.571984405E1,4.448907375E-1,-4.611861706E-1,5.455112457E-1
1.572783822E1,3.408508301E-1,-3.334255219E-1,2.970075607E-1
1.573583516E1,2.045433521E-1,-1.696777344E-1,3.492393494E-1
1.574383033E1,1.085991859E-1,-4.014062881E-2,5.223245621E-1
1.575182597E1,1.258096695E-1,1.527228355E-1,6.339607239E-1
1.575985222E1,2.988784313E-1,2.052838802E-1,7.225351334E-1
1.576784762E1,4.851677418E-1,9.619092941E-2,6.639528275E-1
1.577584425E1,5.808918476E-1,-1.025512218E-1,5.566616058E-1
1.578383866E1,5.022089481E-1,-3.692512512E-1,3.959932327E-1
1.579183414E1,3.811135292E-1,-4.949705601E-1,3.210105896E-1
1.579983016E1,3.013477325E-1,-4.931557178E-1,2.714557648E-1
1.580782587E1,2.413806915E-1,-4.790153503E-1,3.382472992E-1
1.581585227E1,2.632362843E-1,-3.982310295E-1,4.374103546E-1
1.582384736E1,3.127310276E-1,-2.347695827E-1,6.163616180E-1
1.583184308E1,3.852427006E-1,-5.995082855E-2,7.043342590E-1
1.583983879E1,4.348168373E-1,4.109954834E-2,6.074867249E-1
1.584783427E1,3.935506344E-1,2.503776550E-2,3.162651062E-1
1.585583059E1,2.803666592E-1,-8.397173882E-2,5.339717865E-2
1.586382561E1,9.912896156E-2,-2.166583538E-1,-1.878366470E-1
1.587185155E1,-4.977631569E-2,-3.258414268E-1,-2.182140350E-1
1.587984819E1,-1.474916935E-1,-4.381873608E-1,-1.547565460E-1
1.588784328E1,-1.074411869E-1,-4.069919586E-1,-6.909847260E-2
1.589583899E1,2.284717560E-2,-3.120372295E-1,-4.076004028E-3
1.590383378E1,1.688320637E-1,-2.181756496E-1,4.103660583E-2
1.591182942E1,2.573745251E-1,-2.889895439E-1,4.955577850E-2
1.591982605E1,3.087346554E-1,-5.271482468E-1,1.409530640E-3
1.592785138E1,2.819249630E-1,-8.981189728E-1,2.121686935E-1
1.593584763E1,2.380657196E-1,-1.140682220E0,4.531984329E-1
1.594384180E1,2.623128891E-1,-1.202844620E0,7.681732178E-1
1.595183874E1,3.301470280E-1,-1.007546902E0,9.879465103E-1
1.595983383E1,5.096957684E-1,-6.679205894E-1,9.968786240E-1
1.596782962E1,6.633720398E-1,-4.143276215E-1,8.492393494E-1
1.597582587E1,7.221927643E-1,-2.697134018E-1,6.889820099E-1
1.598385212E1,6.428413391E-1,-2.763485909E-1,4.678678513E-1
1.599184722E1,5.085425377E-1,-3.840651512E-1,3.646717072E-1
1.599984285E1,3.218121529E-1,-5.660791397E-1,4.082584381E-1
1.600783856E1,1.768205166E-1,-7.093257904E-1,5.468087196E-1
1.601583466E1,9.984421730E-2,-8.990111351E-1,7.914028168E-1
