"Time (s)","Acceleration x (m/s^2)","Acceleration y (m/s^2)","Acceleration z (m/s^2)"
3.971539000E-3,2.094926596E0,-7.943961143E0,5.181052685E0
6.017925000E-3,2.025494576E0,-7.941566944E0,5.185841084E0
8.122619000E-3,1.958456993E0,-7.931990147E0,5.202600479E0
1.010654400E-2,1.920149803E0,-7.939172745E0,5.216965675E0
1.212100800E-2,1.838746905E0,-7.967903137E0,5.243301868E0
1.410447200E-2,1.783680320E0,-7.970297337E0,5.288791656E0
1.611893500E-2,1.754949808E0,-7.975085735E0,5.315127850E0
1.810232200E-2,1.733402014E0,-7.999027729E0,5.346252441E0
2.011701600E-2,1.740584612E0,-8.020575523E0,5.353435040E0
2.210040200E-2,1.738190413E0,-8.022970200E0,5.360617638E0
2.411948100E-2,1.738190413E0,-8.042123795E0,5.367800236E0
2.609732900E-2,1.745373011E0,-8.037335396E0,5.396530628E0
2.811240800E-2,1.745373011E0,-8.042123795E0,5.408501625E0
3.009556300E-2,1.769315004E0,-8.058882713E0,5.391742229E0
3.211025800E-2,1.810016513E0,-8.066065788E0,5.386953831E0
3.412441400E-2,1.826775908E0,-8.066065788E0,5.372588634E0
3.610787600E-2,1.845929503E0,-8.066065788E0,5.346252441E0
3.812172400E-2,1.853112102E0,-8.073247910E0,5.334281445E0
4.010634200E-2,1.891419291E0,-8.063671112E0,5.322310448E0
4.211957500E-2,1.893813491E0,-8.058882713E0,5.307945251E0
4.410380700E-2,1.903390408E0,-8.068459511E0,5.298368454E0
4.611765500E-2,1.910573006E0,-8.073247910E0,5.293580055E0
4.810073400E-2,1.912967205E0,-8.046912193E0,5.305551052E0
5.011496600E-2,1.922544003E0,-8.046912193E0,5.310339451E0
5.209835300E-2,1.944091797E0,-8.070854187E0,5.334281445E0
5.411281600E-2,1.951274395E0,-8.058882713E0,5.336675644E0
5.609620300E-2,1.946485996E0,-8.058882713E0,5.322310448E0
5.811035900E-2,1.936909199E0,-8.063671112E0,5.322310448E0
6.012543800E-2,1.939303398E0,-8.082824707E0,5.307945251E0
6.210844000E-2,1.927332401E0,-8.073247910E0,5.303156853E0
6.412197900E-2,1.917755604E0,-8.056488991E0,5.305551052E0
6.610698100E-2,1.881842494E0,-8.054094315E0,5.327098846E0
6.812106000E-2,1.874659896E0,-8.058882713E0,5.324704647E0
7.010352400E-2,1.843535304E0,-8.030152321E0,5.343858242E0
7.211829500E-2,1.833958507E0,-8.032546997E0,5.360617638E0
7.410206600E-2,1.805228114E0,-8.022970200E0,5.367800236E0
7.611591400E-2,1.802833915E0,-8.015787125E0,5.346252441E0
7.809899200E-2,1.790862918E0,-7.989450932E0,5.343858242E0
8.011491700E-2,1.778891921E0,-7.967903137E0,5.348646641E0
8.209738100E-2,1.764526606E0,-7.972691536E0,5.353435040E0
8.411222900E-2,1.776497602E0,-7.972691536E0,5.360617638E0
8.609615400E-2,1.783680320E0,-7.972691536E0,5.367800236E0
8.811000200E-2,1.810016513E0,-7.967903137E0,5.372588634E0
9.012415800E-2,1.810016513E0,-7.960720539E0,5.365406036E0
9.210731300E-2,1.810016513E0,-7.977479935E0,5.372588634E0
9.412146900E-2,1.800439715E0,-7.979874134E0,5.372588634E0
9.610477800E-2,1.807622313E0,-7.972691536E0,5.379771233E0
9.811901100E-2,1.831564307E0,-7.989450932E0,5.382165432E0
1.001038590E-1,1.836352706E0,-8.003816605E0,5.363011837E0
1.021170920E-1,1.857900500E0,-8.008605003E0,5.353435040E0
1.041017850E-1,1.845929503E0,-7.994239330E0,5.343858242E0
1.061140180E-1,1.841141105E0,-7.987056732E0,5.339069843E0
1.080984050E-1,1.819593310E0,-8.001421928E0,5.319916248E0
1.101125610E-1,1.836352706E0,-8.018181801E0,5.317522049E0
1.120967940E-1,1.833958507E0,-8.015787125E0,5.317522049E0
1.141109490E-1,1.821987510E0,-8.018181801E0,5.327098846E0
1.160941050E-1,1.838746905E0,-8.018181801E0,5.310339451E0
1.181082600E-1,1.848323703E0,-8.008605003E0,5.300762653E0
1.201235700E-1,1.833958507E0,-8.015787125E0,5.269638062E0
1.221061100E-1,1.826775908E0,-8.015787125E0,5.262455463E0
1.241208810E-1,1.841141105E0,-8.018181801E0,5.264849663E0
1.261033450E-1,1.853112102E0,-8.018181801E0,5.248090267E0
1.281180390E-1,1.874659896E0,-8.039729118E0,5.240907669E0
1.301021180E-1,1.884236693E0,-8.032546997E0,5.245696068E0
1.321162730E-1,1.912967205E0,-8.037335396E0,5.245696068E0
1.341005830E-1,1.927332401E0,-8.046912193E0,5.236119270E0
1.361137390E-1,1.953668594E0,-8.051700592E0,5.231330872E0
1.380972020E-1,1.977610588E0,-8.039729118E0,5.219359875E0
1.401125120E-1,1.980004787E0,-8.042123795E0,5.221754074E0
1.420950520E-1,2.011129379E0,-8.080430984E0,5.221754074E0
1.441092080E-1,2.042253971E0,-8.090007782E0,5.216965675E0
1.461239020E-1,2.051830769E0,-8.097189903E0,5.221754074E0
1.481079040E-1,2.070984364E0,-8.128314972E0,5.238513470E0
1.501208290E-1,2.094926596E0,-8.123526573E0,5.228936672E0
1.521055230E-1,2.104503393E0,-8.121131897E0,5.216965675E0
1.541186790E-1,2.109291792E0,-8.137891769E0,5.195417881E0
1.561027580E-1,2.114080191E0,-8.123526573E0,5.202600479E0
1.581169140E-1,2.109291792E0,-8.125920296E0,5.200206280E0
1.601017610E-1,2.140416384E0,-8.137891769E0,5.226542473E0
1.621156090E-1,2.138022184E0,-8.137891769E0,5.231330872E0
1.640990720E-1,2.142810583E0,-8.142680168E0,5.226542473E0
1.661126130E-1,2.140416384E0,-8.154650688E0,5.209783077E0
1.680956920E-1,2.145204782E0,-8.157045364E0,5.212177277E0
1.701106940E-1,2.149993181E0,-8.171410561E0,5.209783077E0
1.720938500E-1,2.145204782E0,-8.176198959E0,5.214571476E0
1.741082350E-1,2.140416384E0,-8.185775757E0,5.219359875E0
1.761218530E-1,2.121262789E0,-8.207323074E0,5.231330872E0
1.781064700E-1,2.128445387E0,-8.214506149E0,5.226542473E0
1.801209340E-1,2.121262789E0,-8.224082947E0,5.224148273E0
1.821039360E-1,2.121262789E0,-8.224082947E0,5.216965675E0
1.841172450E-1,2.121262789E0,-8.212111473E0,5.212177277E0
1.861021700E-1,2.114080191E0,-8.214506149E0,5.214571476E0
1.881153250E-1,2.106897593E0,-8.221688271E0,5.216965675E0
1.900990200E-1,2.090138197E0,-8.231265068E0,5.228936672E0
1.921131750E-1,2.075772762E0,-8.238448143E0,5.238513470E0
1.940969470E-1,2.056619167E0,-8.240841866E0,5.231330872E0
1.961114100E-1,2.032677174E0,-8.252813339E0,5.233725071E0
1.980951040E-1,2.025494576E0,-8.257601738E0,5.240907669E0
2.001101830E-1,2.001552582E0,-8.255207062E0,5.245696068E0
2.021236460E-1,1.989581585E0,-8.255207062E0,5.245696068E0
2.041074170E-1,1.982398987E0,-8.238448143E0,5.245696068E0
2.061211880E-1,1.958456993E0,-8.231265068E0,5.255272865E0
2.081045750E-1,1.958456993E0,-8.228871346E0,5.248090267E0
2.101188080E-1,1.941697598E0,-8.209717751E0,5.252878666E0
2.121028100E-1,1.905784607E0,-8.204929352E0,5.226542473E0
2.141169660E-1,1.896207690E0,-8.190564156E0,5.219359875E0
2.161000440E-1,1.884236693E0,-8.178592682E0,5.224148273E0
2.181138150E-1,1.857900500E0,-8.157045364E0,5.214571476E0
2.200987400E-1,1.845929503E0,-8.164227486E0,5.202600479E0
2.221117420E-1,1.824381709E0,-8.149862289E0,5.181052685E0
2.240950520E-1,1.798045516E0,-8.135497093E0,5.171475887E0
2.261105150E-1,1.805228114E0,-8.121131897E0,5.164293289E0
2.281249790E-1,1.790862918E0,-8.133103371E0,5.152322292E0
2.301070570E-1,1.783680320E0,-8.128314972E0,5.164293289E0
2.321224430E-1,1.783680320E0,-8.137891769E0,5.166687489E0
2.341058300E-1,1.805228114E0,-8.125920296E0,5.161899090E0
2.361197550E-1,1.805228114E0,-8.125920296E0,5.159504890E0
2.381034490E-1,1.821987510E0,-8.125920296E0,5.140350819E0
2.401187590E-1,1.810016513E0,-8.125920296E0,5.145139217E0
2.421015290E-1,1.819593310E0,-8.128314972E0,5.147533417E0
2.441159930E-1,1.836352706E0,-8.125920296E0,5.147533417E0
2.460993790E-1,1.836352706E0,-8.118738174E0,5.149928093E0
2.481132280E-1,1.833958507E0,-8.109161377E0,5.147533417E0
2.500966910E-1,1.855506301E0,-8.109161377E0,5.154716492E0
2.521116930E-1,1.877054095E0,-8.111555099E0,5.128379822E0
2.540944640E-1,1.869871497E0,-8.113949776E0,5.116408825E0
2.561093110E-1,1.893813491E0,-8.118738174E0,5.102043629E0
2.581228520E-1,1.915361404E0,-8.104372978E0,5.097255230E0
2.601073920E-1,1.922544003E0,-8.109161377E0,5.099649429E0
2.621216250E-1,1.941697598E0,-8.090007782E0,5.099649429E0
2.641034730E-1,1.939303398E0,-8.075642586E0,5.097255230E0
2.661178600E-1,1.948880196E0,-8.061277390E0,5.097255230E0
2.681019390E-1,1.968033791E0,-8.046912193E0,5.090072632E0
2.701167090E-1,1.980004787E0,-8.044517517E0,5.082890034E0
2.721003270E-1,1.982398987E0,-8.025363922E0,5.078101635E0
2.741147900E-1,1.987187386E0,-8.032546997E0,5.061342239E0
2.760970230E-1,1.982398987E0,-8.027758598E0,5.063736439E0
2.781117940E-1,1.975216389E0,-8.030152321E0,5.075707436E0
2.800963350E-1,1.960851192E0,-8.015787125E0,5.087678432E0
2.821098750E-1,1.953668594E0,-8.010998726E0,5.092466831E0
2.841247220E-1,1.948880196E0,-8.006210327E0,5.097255230E0
2.861074160E-1,1.934514999E0,-8.018181801E0,5.099649429E0
2.881216490E-1,1.939303398E0,-8.022970200E0,5.099649429E0
2.901055740E-1,1.922544003E0,-8.027758598E0,5.109226227E0
2.921197300E-1,1.891419291E0,-8.027758598E0,5.104437828E0
2.941035010E-1,1.891419291E0,-8.030152321E0,5.118803024E0
2.961170420E-1,1.877054095E0,-8.039729118E0,5.118803024E0
2.981013510E-1,1.862688899E0,-8.039729118E0,5.121197224E0
3.001170450E-1,1.857900500E0,-8.049305916E0,5.147533417E0
3.020988930E-1,1.829170108E0,-8.044517517E0,5.171475887E0
3.041127410E-1,1.802833915E0,-8.049305916E0,5.183446884E0
3.060976660E-1,1.786074519E0,-8.056488991E0,5.197812080E0
3.081112070E-1,1.757344007E0,-8.034940720E0,5.183446884E0
3.100939780E-1,1.742978811E0,-8.037335396E0,5.183446884E0
3.121089790E-1,1.721431017E0,-8.049305916E0,5.181052685E0
3.141229040E-1,1.704671621E0,-8.051700592E0,5.178658485E0
3.161065980E-1,1.704671621E0,-8.044517517E0,5.169081688E0
3.181210620E-1,1.687912226E0,-8.037335396E0,5.166687489E0
3.201059100E-1,1.656787634E0,-8.049305916E0,5.157110691E0
3.221189120E-1,1.647210717E0,-8.046912193E0,5.154716492E0
3.241025290E-1,1.635239720E0,-8.030152321E0,5.152322292E0
3.261163770E-1,1.630451322E0,-8.027758598E0,5.154716492E0
3.280994560E-1,1.625662923E0,-8.025363922E0,5.147533417E0
3.301139190E-1,1.601720929E0,-8.030152321E0,5.154716492E0
3.320983060E-1,1.596932530E0,-8.027758598E0,5.145139217E0
3.341124620E-1,1.572990537E0,-8.008605003E0,5.130774021E0
3.360961560E-1,1.546654344E0,-8.013393402E0,5.125985622E0
3.381099270E-1,1.544260144E0,-8.018181801E0,5.123591423E0
3.401253900E-1,1.525106430E0,-8.025363922E0,5.111620426E0
3.421075460E-1,1.496376038E0,-8.015787125E0,5.109226227E0
3.441213170E-1,1.482010841E0,-8.015787125E0,5.106832027E0
3.461050110E-1,1.460463047E0,-8.010998726E0,5.094861031E0
3.481200900E-1,1.450886250E0,-8.006210327E0,5.075707436E0
3.501034770E-1,1.458068848E0,-8.006210327E0,5.080495834E0
3.521170940E-1,1.446097851E0,-8.020575523E0,5.058948040E0
3.541010180E-1,1.462857246E0,-8.020575523E0,5.039794445E0
3.561148660E-1,1.458068848E0,-8.015787125E0,5.030217648E0
3.580989450E-1,1.460463047E0,-8.001421928E0,4.999093056E0
3.601136390E-1,1.450886250E0,-8.015787125E0,4.987122059E0
3.620961800E-1,1.450886250E0,-8.018181801E0,4.987122059E0
3.641114900E-1,1.453280449E0,-8.015787125E0,4.979939461E0
3.660945690E-1,1.467645645E0,-8.015787125E0,4.960785866E0
3.681084160E-1,1.498770237E0,-8.006210327E0,4.953603268E0
3.701225720E-1,1.477222443E0,-7.996633530E0,4.941632271E0
3.721066510E-1,1.470039845E0,-7.989450932E0,4.932055473E0
3.741208060E-1,1.465251446E0,-7.982268333E0,4.920084476E0
3.761035780E-1,1.472434044E0,-7.994239330E0,4.903325081E0
3.781186570E-1,1.479616642E0,-7.987056732E0,4.888959885E0
3.801026590E-1,1.479616642E0,-7.987056732E0,4.862623692E0
3.821161210E-1,1.465251446E0,-7.984662533E0,4.826710701E0
3.840989690E-1,1.455674648E0,-7.977479935E0,4.805162907E0
3.861149710E-1,1.455674648E0,-7.953537941E0,4.750096321E0
3.880980500E-1,1.438915253E0,-7.939172745E0,4.747702122E0
3.901109750E-1,1.441309452E0,-7.927201748E0,4.774038315E0
3.920959000E-1,1.426944256E0,-7.912836552E0,4.819528103E0
3.941097480E-1,1.431732655E0,-7.924807549E0,4.836287498E0
3.961241340E-1,1.414973259E0,-7.927201748E0,4.833893299E0
3.981072900E-1,1.419761658E0,-7.912836552E0,4.821922302E0
4.001222920E-1,1.422155857E0,-7.920019150E0,4.814739704E0
4.021054480E-1,1.410184860E0,-7.912836552E0,4.790797710E0
4.041192960E-1,1.410184860E0,-7.915230751E0,4.776432514E0
4.061032980E-1,1.400607944E0,-7.900865555E0,4.769249916E0
4.081167620E-1,1.386242747E0,-7.896077156E0,4.745307922E0
4.101008390E-1,1.376665950E0,-7.898471355E0,4.742913723E0
4.121155340E-1,1.376665950E0,-7.903259754E0,4.742913723E0
4.140993050E-1,1.371877551E0,-7.893682957E0,4.750096321E0
4.161130760E-1,1.357512355E0,-7.893682957E0,4.754884720E0
4.180965400E-1,1.352723956E0,-7.888894558E0,4.750096321E0
4.201121570E-1,1.350329757E0,-7.888894558E0,4.745307922E0
4.220943120E-1,1.321599364E0,-7.910442352E0,4.747702122E0
4.241051600E-1,1.314416766E0,-7.922413349E0,4.747702122E0
4.261217780E-1,1.312022567E0,-7.920019150E0,4.733336926E0
4.281060870E-1,1.302445769E0,-7.910442352E0,4.754884720E0
4.301201660E-1,1.261744261E0,-7.920019150E0,4.888959885E0
4.321036300E-1,1.252167463E0,-7.948749542E0,5.161899090E0
4.341183240E-1,1.264138460E0,-7.963114738E0,5.284003258E0
4.361011710E-1,1.290474772E0,-8.008605003E0,5.396530628E0
4.381158660E-1,1.321599364E0,-8.063671112E0,5.293580055E0
4.401010980E-1,1.347935557E0,-8.085219383E0,5.188235283E0
4.421140230E-1,1.424550056E0,-8.121131897E0,4.977545261E0
4.440984100E-1,1.465251446E0,-8.145073891E0,4.850652695E0
4.461115660E-1,1.496376038E0,-8.166622162E0,4.807557106E0
4.480947220E-1,1.561019540E0,-8.202534676E0,4.721365929E0
4.501091840E-1,1.620874524E0,-8.233659744E0,4.680664539E0
4.521239550E-1,1.637633920E0,-8.238448143E0,4.663905144E0
4.541070340E-1,1.683123827E0,-8.252813339E0,4.627991676E0
4.561211130E-1,1.726219416E0,-8.238448143E0,4.608838081E0
4.581048850E-1,1.742978811E0,-8.228871346E0,4.601655483E0
4.601208870E-1,1.781286120E0,-8.214506149E0,4.560954094E0
4.621029660E-1,1.802833915E0,-8.214506149E0,4.532223701E0
4.641161970E-1,1.855506301E0,-8.212111473E0,4.448426723E0
4.661008150E-1,1.898601890E0,-8.197746277E0,4.378994942E0
4.681155860E-1,1.922544003E0,-8.195352554E0,4.355052948E0
4.700978190E-1,1.944091797E0,-8.195352554E0,4.338293552E0
4.721128210E-1,1.970427990E0,-8.173804283E0,4.311957359E0
4.740962840E-1,1.960851192E0,-8.157045364E0,4.295197964E0
4.761109790E-1,1.968033791E0,-8.157045364E0,4.261679173E0
4.780943640E-1,1.977610588E0,-8.147468567E0,4.235342979E0
4.801091350E-1,1.984793186E0,-8.147468567E0,4.218583584E0
4.821221370E-1,2.027888775E0,-8.164227486E0,4.201824188E0
4.841067550E-1,2.049436569E0,-8.192957878E0,4.209006786E0
4.861196800E-1,2.063801765E0,-8.185775757E0,4.209006786E0
4.881036820E-1,2.078166962E0,-8.176198959E0,4.211400986E0
4.901178380E-1,2.059013367E0,-8.176198959E0,4.201824188E0
4.921012230E-1,2.049436569E0,-8.178592682E0,4.204218388E0
4.941166100E-1,2.027888775E0,-8.178592682E0,4.197035789E0
4.960996120E-1,2.018311977E0,-8.183381081E0,4.189853191E0
4.981140760E-1,1.989581585E0,-8.188169479E0,4.156333923E0
5.000977700E-1,1.953668594E0,-8.180987358E0,4.144362926E0
5.021119260E-1,1.946485996E0,-8.183381081E0,4.132391930E0
5.040943890E-1,1.922544003E0,-8.188169479E0,4.106055737E0
5.061086210E-1,1.896207690E0,-8.178592682E0,4.106055737E0
5.081233920E-1,1.884236693E0,-8.166622162E0,4.106055737E0
5.101070870E-1,1.865083098E0,-8.164227486E0,4.113238335E0
5.121212420E-1,1.800439715E0,-8.154650688E0,4.108449936E0
5.141049370E-1,1.781286120E0,-8.133103371E0,4.115632534E0
5.161190160E-1,1.719036818E0,-8.130708694E0,4.106055737E0
5.181027870E-1,1.663970232E0,-8.118738174E0,4.098873138E0
5.201177880E-1,1.635239720E0,-8.097189903E0,4.113238335E0
5.221006360E-1,1.565807939E0,-8.058882713E0,4.113238335E0
5.241154070E-1,1.544260144E0,-8.063671112E0,4.125209332E0
5.260975630E-1,1.496376038E0,-8.068459511E0,4.137180328E0
5.281122570E-1,1.441309452E0,-8.063671112E0,4.132391930E0
5.300956440E-1,1.412579060E0,-8.056488991E0,4.134786129E0
5.321101850E-1,1.369483352E0,-8.027758598E0,4.149151325E0
5.341246470E-1,1.335964561E0,-8.039729118E0,4.180276394E0
5.361077260E-1,1.314416766E0,-8.046912193E0,4.204218388E0
5.381214970E-1,1.290474772E0,-8.044517517E0,4.252102375E0
5.401061150E-1,1.273715258E0,-8.054094315E0,4.314351559E0
5.421197320E-1,1.280897856E0,-8.068459511E0,4.345476151E0
5.441027340E-1,1.285686255E0,-8.094796181E0,4.402936935E0
5.461185050E-1,1.290474772E0,-8.116343498E0,4.462791920E0
5.481021220E-1,1.295263171E0,-8.137891769E0,4.484339714E0
5.501148160E-1,1.340752959E0,-8.157045364E0,4.505887508E0
5.520984330E-1,1.386242747E0,-8.180987358E0,4.541800499E0
5.541135890E-1,1.419761658E0,-8.192957878E0,4.582501888E0
5.560975140E-1,1.460463047E0,-8.221688271E0,4.637568474E0
5.581110550E-1,1.472434044E0,-8.257601738E0,4.651933670E0
5.600957480E-1,1.541865945E0,-8.269572258E0,4.637568474E0
5.621089810E-1,1.613691926E0,-8.298302650E0,4.592078686E0
5.641231370E-1,1.649604917E0,-8.298302650E0,4.548983097E0
5.661074460E-1,1.726219416E0,-8.300697327E0,4.477157116E0
5.681206790E-1,1.800439715E0,-8.322244644E0,4.429273129E0
5.701043730E-1,1.829170108E0,-8.319850922E0,4.422090530E0
5.721184520E-1,1.893813491E0,-8.317456245E0,4.383783340E0
5.741025300E-1,1.960851192E0,-8.288725853E0,4.352658749E0
5.761160710E-1,1.982398987E0,-8.281543732E0,4.338293552E0
5.780999960E-1,2.032677174E0,-8.274360657E0,4.316745758E0
5.801154590E-1,2.094926596E0,-8.243236542E0,4.307168961E0
5.820982310E-1,2.128445387E0,-8.252813339E0,4.309563160E0
5.841120020E-1,2.185906172E0,-8.243236542E0,4.309563160E0
5.860948500E-1,2.217030764E0,-8.221688271E0,4.297592163E0
5.881099280E-1,2.274491549E0,-8.207323074E0,4.297592163E0
5.901236990E-1,2.324769735E0,-8.207323074E0,4.278438568E0
5.921083940E-1,2.363077164E0,-8.207323074E0,4.273650169E0
5.941221650E-1,2.406172752E0,-8.195352554E0,4.235342979E0
5.961055510E-1,2.454056740E0,-8.197746277E0,4.201824188E0
5.981197840E-1,2.470816135E0,-8.200140953E0,4.182670593E0
6.001043250E-1,2.497152328E0,-8.204929352E0,4.163516521E0
6.021170180E-1,2.523488522E0,-8.200140953E0,4.139574528E0
6.041019430E-1,2.540247917E0,-8.190564156E0,4.120420933E0
6.061157140E-1,2.557007313E0,-8.183381081E0,4.103661537E0
6.080991010E-1,2.568978310E0,-8.176198959E0,4.070142746E0
6.101135640E-1,2.576161146E0,-8.166622162E0,4.062960148E0
6.120972590E-1,2.568978310E0,-8.161833763E0,4.036623955E0
6.141111070E-1,2.559401512E0,-8.169015884E0,4.003105164E0
6.161247230E-1,2.554613113E0,-8.169015884E0,3.991134167E0
6.181089560E-1,2.523488522E0,-8.137891769E0,3.967192173E0
6.201231890E-1,2.473210335E0,-8.133103371E0,3.943250179E0
6.221065750E-1,2.456450939E0,-8.135497093E0,3.936067581E0
6.241207310E-1,2.410961151E0,-8.137891769E0,3.919308186E0
6.261044260E-1,2.370259762E0,-8.140285492E0,3.916913986E0
6.281188890E-1,2.324769735E0,-8.142680168E0,3.909731388E0
6.301015820E-1,2.267308950E0,-8.145073891E0,3.926490784E0
6.321160460E-1,2.231395960E0,-8.152256966E0,3.928884983E0
6.341003560E-1,2.173935175E0,-8.180987358E0,3.938461781E0
6.361142810E-1,2.126051188E0,-8.200140953E0,3.983951569E0
6.380982830E-1,2.106897593E0,-8.216899872E0,4.003105164E0
6.401129770E-1,2.047042370E0,-8.257601738E0,4.043806553E0
6.420955180E-1,2.006340981E0,-8.307879448E0,4.086902142E0
6.441102110E-1,1.989581585E0,-8.334216118E0,4.091690540E0
6.461244440E-1,1.939303398E0,-8.367734909E0,4.137180328E0
6.481077530E-1,1.893813491E0,-8.413225174E0,4.170699596E0
6.501219090E-1,1.874659896E0,-8.429984093E0,4.175487995E0
6.521056800E-1,1.841141105E0,-8.468291283E0,4.182670593E0
6.541200670E-1,1.833958507E0,-8.530540466E0,4.192247391E0
6.561031460E-1,1.819593310E0,-8.547300339E0,4.201824188E0
6.581176090E-1,1.793257117E0,-8.556877136E0,4.225766182E0
6.601016870E-1,1.776497602E0,-8.568847656E0,4.230554581E0
6.621157660E-1,1.738190413E0,-8.576030731E0,4.228160381E0
6.640979990E-1,1.702277422E0,-8.590395927E0,4.228160381E0
6.661130780E-1,1.695094824E0,-8.592789650E0,4.232948780E0
6.680961570E-1,1.668758631E0,-8.623914719E0,4.268861771E0
6.701108510E-1,1.673547029E0,-8.621520042E0,4.280832767E0
6.721250060E-1,1.668758631E0,-8.611943245E0,4.276044369E0
6.741083930E-1,1.649604917E0,-8.633491516E0,4.268861771E0
6.761228560E-1,1.606509328E0,-8.616731644E0,4.292803764E0
6.781069350E-1,1.604115129E0,-8.616731644E0,4.292803764E0
6.801216300E-1,1.616086125E0,-8.633491516E0,4.297592163E0
6.821047080E-1,1.596932530E0,-8.638279915E0,4.302380562E0
6.841189410E-1,1.601720929E0,-8.659827232E0,4.302380562E0
6.861019420E-1,1.620874524E0,-8.693346024E0,4.331110954E0
6.881155600E-1,1.628057122E0,-8.714894295E0,4.335899353E0
6.900997920E-1,1.642422318E0,-8.738836288E0,4.343081951E0
6.921137180E-1,1.685518026E0,-8.801085472E0,4.345476151E0
6.940983350E-1,1.707065821E0,-8.827422142E0,4.333505154E0
6.961127220E-1,1.762132406E0,-8.863334656E0,4.321534157E0
6.980951850E-1,1.798045516E0,-8.923190117E0,4.321534157E0
7.001100320E-1,1.814804912E0,-8.959102631E0,4.311957359E0
7.021238030E-1,1.867477298E0,-9.035717010E0,4.252102375E0
7.041066520E-1,1.929726601E0,-9.102754593E0,4.175487995E0
7.061228840E-1,1.951274395E0,-9.126696587E0,4.141968727E0
7.081062710E-1,2.001552582E0,-9.160215378E0,4.060565948E0
7.101191960E-1,2.061407566E0,-9.220070839E0,4.000710964E0
7.121032750E-1,2.092532396E0,-9.239224434E0,3.979163170E0
7.141177380E-1,2.145204782E0,-9.294290543E0,3.940855980E0
7.161011240E-1,2.181117773E0,-9.334992409E0,3.914519787E0
7.181152800E-1,2.195482969E0,-9.351752281E0,3.895366192E0
7.200995130E-1,2.221819162E0,-9.373299599E0,3.861847401E0
7.221128230E-1,2.243366957E0,-9.382876396E0,3.847482204E0
7.240970550E-1,2.267308950E0,-9.368511200E0,3.825934410E0
7.261109030E-1,2.291250944E0,-9.366117477E0,3.799597979E0
7.281250580E-1,2.308010340E0,-9.380482674E0,3.792415380E0
7.301081370E-1,2.336740971E0,-9.404424667E0,3.787626982E0
7.321223700E-1,2.379836559E0,-9.392453194E0,3.761290789E0
7.341063720E-1,2.403778553E0,-9.394847870E0,3.749319792E0
7.361196050E-1,2.408566952E0,-9.397241592E0,3.746925592E0
7.381047610E-1,2.420537949E0,-9.380482674E0,3.744531393E0
7.401195320E-1,2.415749550E0,-9.368511200E0,3.737348795E0
7.421020710E-1,2.396595955E0,-9.339780807E0,3.706224203E0
7.441152270E-1,2.382230759E0,-9.311050415E0,3.694253206E0
7.460989980E-1,2.377442360E0,-9.320627213E0,3.691859007E0
7.481140000E-1,2.363077164E0,-9.320627213E0,3.663128614E0
7.500976950E-1,2.351106167E0,-9.308655739E0,3.651157618E0
7.521115430E-1,2.331952572E0,-9.311050415E0,3.639186621E0
7.540958520E-1,2.319981337E0,-9.308655739E0,3.610456228E0
7.561094690E-1,2.322375536E0,-9.301473618E0,3.605667830E0
7.581233170E-1,2.293645144E0,-9.291896820E0,3.596091032E0
7.601079350E-1,2.260126352E0,-9.289502144E0,3.581725836E0
7.621211670E-1,2.240972757E0,-9.277531624E0,3.564966440E0
7.641057080E-1,2.231395960E0,-9.265560150E0,3.548206806E0
7.661199410E-1,2.188300371E0,-9.241618156E0,3.536235809E0
7.681027110E-1,2.171540976E0,-9.241618156E0,3.538630009E0
7.701164820E-1,2.152387381E0,-9.241618156E0,3.536235809E0
7.721008690E-1,2.123656988E0,-9.224859238E0,3.507505417E0
7.741150240E-1,2.099714994E0,-9.227252960E0,3.507505417E0
7.760984110E-1,2.051830769E0,-9.217676163E0,3.490746021E0
7.781122590E-1,1.994369984E0,-9.196128845E0,3.488351822E0
7.800977230E-1,1.963245392E0,-9.188945770E0,3.483563423E0
7.821101080E-1,1.905784607E0,-9.169792175E0,3.469198227E0
7.841239570E-1,1.869871497E0,-9.155426979E0,3.447650433E0
7.861088820E-1,1.810016513E0,-9.157821655E0,3.423708439E0
7.881230380E-1,1.707065821E0,-9.145850182E0,3.409343243E0
7.901058090E-1,1.663970232E0,-9.138668060E0,3.421314240E0
7.921208110E-1,1.613691926E0,-9.141061783E0,3.440467834E0
7.941042740E-1,1.568202138E0,-9.157821655E0,3.457227230E0
7.961183520E-1,1.541865945E0,-9.162610054E0,3.473986626E0
7.981015080E-1,1.484405041E0,-9.155426979E0,3.514688015E0
8.001172020E-1,1.446097851E0,-9.167398453E0,3.543418407E0
8.020990510E-1,1.431732655E0,-9.179368973E0,3.576937437E0
8.041135140E-1,1.400607944E0,-9.239224434E0,3.612850428E0
8.060977470E-1,1.383848548E0,-9.260771751E0,3.675099611E0
8.081115950E-1,1.374271750E0,-9.260771751E0,3.730166197E0
8.100947500E-1,1.381454349E0,-9.275136948E0,3.761290789E0
8.121091360E-1,1.379060149E0,-9.318233490E0,3.730166197E0
8.141236770E-1,1.388636947E0,-9.332598686E0,3.720589399E0
8.161066790E-1,1.419761658E0,-9.354146004E0,3.672705412E0
8.181206040E-1,1.434126854E0,-9.363722801E0,3.639186621E0
8.201054520E-1,1.479616642E0,-9.366117477E0,3.634398222E0
8.221193000E-1,1.517923832E0,-9.387664795E0,3.617638826E0
8.241015320E-1,1.544260144E0,-9.397241592E0,3.610456228E0
8.261162260E-1,1.584961534E0,-9.423578262E0,3.593696833E0
8.281011520E-1,1.628057122E0,-9.442731857E0,3.541024208E0
8.301144610E-1,1.654393315E0,-9.428366661E0,3.517082214E0
8.320981560E-1,1.709460020E0,-9.409213066E0,3.478775024E0
8.341131580E-1,1.728613615E0,-9.399636269E0,3.438073635E0
8.360959290E-1,1.754949808E0,-9.409213066E0,3.421314240E0
8.381103910E-1,1.771709204E0,-9.382876396E0,3.414131641E0
8.401251630E-1,1.795651317E0,-9.378087997E0,3.438073635E0
8.421086260E-1,1.805228114E0,-9.373299599E0,3.447650433E0
8.441227820E-1,1.805228114E0,-9.361329079E0,3.459621429E0
8.461058610E-1,1.821987510E0,-9.346963882E0,3.450044632E0
8.481197090E-1,1.829170108E0,-9.339780807E0,3.438073635E0
8.501030960E-1,1.821987510E0,-9.330204010E0,3.421314240E0
8.521174810E-1,1.807622313E0,-9.332598686E0,3.421314240E0
8.541014830E-1,1.781286120E0,-9.332598686E0,3.428496838E0
8.561156390E-1,1.745373011E0,-9.327810287E0,3.450044632E0
8.580999490E-1,1.733402014E0,-9.330204010E0,3.457227230E0
8.601150280E-1,1.716642618E0,-9.332598686E0,3.459621429E0
8.620981840E-1,1.699883223E0,-9.320627213E0,3.476380825E0
8.641108010E-1,1.680729628E0,-9.332598686E0,3.493140221E0
8.661261100E-1,1.656787634E0,-9.337387085E0,3.490746021E0
8.681082660E-1,1.618480325E0,-9.337387085E0,3.481169224E0
8.701224210E-1,1.592144132E0,-9.325415611E0,3.469198227E0
8.721070390E-1,1.541865945E0,-9.306262016E0,3.445256233E0
8.741209640E-1,1.515529633E0,-9.301473618E0,3.416525841E0
8.761049660E-1,1.505952835E0,-9.294290543E0,3.397372246E0
8.781190450E-1,1.465251446E0,-9.291896820E0,3.375824451E0
8.801034300E-1,1.438915253E0,-9.284713745E0,3.339911461E0
8.821162790E-1,1.422155857E0,-9.275136948E0,3.313575268E0
8.841005880E-1,1.386242747E0,-9.255983353E0,3.256114244E0
8.861144360E-1,1.374271750E0,-9.246406555E0,3.227383852E0
8.880979000E-1,1.352723956E0,-9.234436035E0,3.162740469E0
8.901120560E-1,1.319205165E0,-9.217676163E0,3.110068083E0
8.920962880E-1,1.312022567E0,-9.210494041E0,3.102885485E0
8.941102130E-1,1.312022567E0,-9.172186852E0,3.110068083E0
8.961242920E-1,1.297657371E0,-9.143456459E0,3.098097086E0
8.981073710E-1,1.300051570E0,-9.136273384E0,3.083731890E0
9.001225260E-1,1.300051570E0,-9.136273384E0,3.045424461E0
9.021058360E-1,1.302445769E0,-9.145850182E0,3.028665066E0
9.041176070E-1,1.300051570E0,-9.133879662E0,3.021482468E0
9.061031470E-1,1.314416766E0,-9.138668060E0,2.973598480E0
9.081178410E-1,1.328781962E0,-9.141061783E0,2.925714493E0
9.101016120E-1,1.340752959E0,-9.162610054E0,2.911349297E0
9.121145370E-1,1.362300754E0,-9.181763649E0,2.877830505E0
9.140993860E-1,1.381454349E0,-9.169792175E0,2.892195702E0
9.161123880E-1,1.436521053E0,-9.167398453E0,2.940079689E0
9.180966200E-1,1.474828243E0,-9.205705643E0,2.968810081E0
9.201123140E-1,1.496376038E0,-9.205705643E0,2.971204281E0
9.220950850E-1,1.505952835E0,-9.239224434E0,2.952050686E0
9.241090100E-1,1.570596337E0,-9.246406555E0,2.920926094E0
9.261231660E-1,1.596932530E0,-9.236829758E0,2.906560898E0
9.281062450E-1,1.637633920E0,-9.222464561E0,2.901772499E0
9.301206310E-1,1.692700624E0,-9.212887764E0,2.923320293E0
9.321050180E-1,1.716642618E0,-9.208099365E0,2.937685490E0
9.341188650E-1,1.769315004E0,-9.203310966E0,2.956839085E0
9.361025590E-1,1.807622313E0,-9.193734169E0,2.918531895E0
9.381161000E-1,1.836352706E0,-9.193734169E0,2.920926094E0
9.401013330E-1,1.886630893E0,-9.169792175E0,2.959233284E0
9.421138730E-1,1.963245392E0,-9.176975250E0,3.016694069E0
9.440973370E-1,1.987187386E0,-9.165003777E0,3.033453465E0
9.461124160E-1,2.035071373E0,-9.136273384E0,3.059789658E0
9.480954940E-1,2.061407566E0,-9.126696587E0,3.081337690E0
9.501092650E-1,2.126051188E0,-9.148244858E0,3.107673883E0
9.521240360E-1,2.166752577E0,-9.172186852E0,3.090914488E0
9.541078070E-1,2.173935175E0,-9.169792175E0,3.069366693E0
9.561218860E-1,2.183511972E0,-9.193734169E0,3.055001259E0
9.581056570E-1,2.229001760E0,-9.200917244E0,3.086126089E0
9.601198130E-1,2.248155355E0,-9.215282440E0,3.100491285E0
9.621031220E-1,2.288856745E0,-9.258378029E0,3.105279684E0
9.641173550E-1,2.334346771E0,-9.291896820E0,3.105279684E0
9.661010490E-1,2.339135170E0,-9.287108421E0,3.105279684E0
9.681155130E-1,2.355894566E0,-9.291896820E0,3.100491285E0
9.700988220E-1,2.382230759E0,-9.296685219E0,3.074155092E0
9.721129780E-1,2.365471363E0,-9.296685219E0,3.069366693E0
9.740967490E-1,2.348711967E0,-9.313444138E0,3.066972494E0
9.761109040E-1,2.317587137E0,-9.327810287E0,3.074155092E0
9.781252910E-1,2.284068346E0,-9.339780807E0,3.078943491E0
9.801092930E-1,2.212242365E0,-9.339780807E0,3.071760893E0
9.821226030E-1,2.185906172E0,-9.313444138E0,3.059789658E0
9.841050660E-1,2.094926596E0,-9.296685219E0,3.028665066E0
9.861198370E-1,1.994369984E0,-9.306262016E0,3.009511471E0
9.881044550E-1,1.956062794E0,-9.303867340E0,2.999934673E0
9.901182250E-1,1.903390408E0,-9.301473618E0,2.997540474E0
9.921013810E-1,1.836352706E0,-9.308655739E0,2.975992680E0
9.941163830E-1,1.795651317E0,-9.311050415E0,2.968810081E0
9.961003850E-1,1.702277422E0,-9.311050415E0,2.966415882E0
9.981139250E-1,1.637633920E0,-9.313444138E0,2.975992680E0
1.000098235E0,1.623268723E0,-9.311050415E0,2.968810081E0
1.002111237E0,1.580173135E0,-9.318233490E0,2.956839085E0
1.004125930E0,1.534683347E0,-9.308655739E0,2.964021683E0
1.006109932E0,1.508347034E0,-9.299078941E0,2.971204281E0
1.008123550E0,1.465251446E0,-9.289502144E0,2.961627483E0
1.010107552E0,1.455674648E0,-9.282320023E0,2.971204281E0
1.012121708E0,1.443703651E0,-9.282320023E0,2.985569477E0
1.014105325E0,1.431732655E0,-9.282320023E0,2.992752075E0
1.016119558E0,1.422155857E0,-9.279925346E0,2.992752075E0
1.018102866E0,1.424550056E0,-9.267954826E0,2.971204281E0
1.020117638E0,1.431732655E0,-9.267954826E0,2.942473888E0
1.022101101E0,1.424550056E0,-9.272743225E0,2.925714493E0
1.024114949E0,1.436521053E0,-9.260771751E0,2.885013103E0
1.026099259E0,1.462857246E0,-9.258378029E0,2.863465309E0
1.028112800E0,1.486799240E0,-9.255983353E0,2.849100113E0
1.030095494E0,1.534683347E0,-9.236829758E0,2.825158119E0
1.032110341E0,1.546654344E0,-9.210494041E0,2.806004286E0
1.034126035E0,1.558625340E0,-9.188945770E0,2.801215887E0
1.036109037E0,1.608903527E0,-9.165003777E0,2.782062292E0
1.038122655E0,1.642422318E0,-9.121908188E0,2.777273893E0
1.040106349E0,1.654393315E0,-9.093177795E0,2.782062292E0
1.042120736E0,1.704671621E0,-9.062053680E0,2.774879694E0
1.044104738E0,1.731007814E0,-9.054870605E0,2.765302896E0
1.046118585E0,1.776497602E0,-9.038111687E0,2.758120298E0
1.048101971E0,1.821987510E0,-9.011775017E0,2.748543501E0
1.050116204E0,1.857900500E0,-9.002198219E0,2.750937700E0
1.052099822E0,1.889025092E0,-8.973467827E0,2.734178305E0
1.054113977E0,1.941697598E0,-8.939949036E0,2.715024710E0
1.056097133E0,1.956062794E0,-8.932766914E0,2.712630510E0
1.058111288E0,1.994369984E0,-8.932766914E0,2.717418909E0
1.060126906E0,2.051830769E0,-8.930372238E0,2.729389906E0
1.062109446E0,2.075772762E0,-8.925583839E0,2.736572504E0
1.064123217E0,2.114080191E0,-8.935160637E0,2.710236311E0
1.066106681E0,2.147598982E0,-8.918401718E0,2.676717520E0
1.068121760E0,2.166752577E0,-8.918401718E0,2.662352324E0
1.070105069E0,2.214636564E0,-8.930372238E0,2.638410330E0
1.072118917E0,2.255337954E0,-8.918401718E0,2.597708941E0
1.074102611E0,2.288856745E0,-8.911218643E0,2.580949545E0
1.076117151E0,2.327163935E0,-8.935160637E0,2.561795712E0
1.078100461E0,2.334346771E0,-8.944737434E0,2.554613113E0
1.080115309E0,2.346317768E0,-8.937555313E0,2.513911724E0
1.082099234E0,2.365471363E0,-8.932766914E0,2.497152328E0
1.084113467E0,2.372653961E0,-8.939949036E0,2.482787132E0
1.086096545E0,2.389413357E0,-8.937555313E0,2.451662540E0
1.088110701E0,2.372653961E0,-8.937555313E0,2.437297344E0
1.090123934E0,2.360682964E0,-8.947132111E0,2.420537949E0
1.092108474E0,2.334346771E0,-8.947132111E0,2.389413357E0
1.094122938E0,2.355894566E0,-8.954314232E0,2.396595955E0
1.096105401E0,2.351106167E0,-8.971074104E0,2.387019157E0
1.098120480E0,2.319981337E0,-8.992621422E0,2.367865562E0
1.100105096E0,2.303221941E0,-8.995016098E0,2.353500366E0
1.102118098E0,2.284068346E0,-9.006986618E0,2.336740971E0
1.104101408E0,2.257732153E0,-9.038111687E0,2.317587137E0
1.106116487E0,2.250549555E0,-9.052476883E0,2.300827742E0
1.108100181E0,2.233790159E0,-9.066842079E0,2.298433542E0
1.110112799E0,2.195482969E0,-9.102754593E0,2.305616140E0
1.112098032E0,2.169146776E0,-9.119514465E0,2.312798738E0
1.114111033E0,2.138022184E0,-9.143456459E0,2.351106167E0
1.116125188E0,2.114080191E0,-9.179368973E0,2.348711967E0
1.118108883E0,2.099714994E0,-9.186552048E0,2.365471363E0
1.120123962E0,2.073378563E0,-9.191340446E0,2.396595955E0
1.122106964E0,2.042253971E0,-9.200917244E0,2.430114746E0
1.124121120E0,2.023100376E0,-9.215282440E0,2.434903145E0
1.126105198E0,1.996764183E0,-9.234436035E0,2.475604534E0
1.128119276E0,1.965639591E0,-9.272743225E0,2.487575531E0
1.130103048E0,1.948880196E0,-9.287108421E0,2.499546528E0
1.132116896E0,1.934514999E0,-9.294290543E0,2.528276920E0
1.134101129E0,1.924938202E0,-9.294290543E0,2.549824715E0
1.136114746E0,1.915361404E0,-9.299078941E0,2.554613113E0
1.138097748E0,1.910573006E0,-9.308655739E0,2.568978310E0
1.140113827E0,1.898601890E0,-9.308655739E0,2.583343744E0
1.142096213E0,1.896207690E0,-9.306262016E0,2.604891539E0
1.144109522E0,1.869871497E0,-9.306262016E0,2.631227732E0
1.146123986E0,1.874659896E0,-9.315838814E0,2.640804529E0
1.148109142E0,1.881842494E0,-9.303867340E0,2.667140722E0
1.150122374E0,1.879448295E0,-9.291896820E0,2.693476915E0
1.152105838E0,1.884236693E0,-9.279925346E0,2.705447912E0
1.154119686E0,1.893813491E0,-9.260771751E0,2.719813108E0
1.156103379E0,1.898601890E0,-9.244012833E0,2.700659513E0
1.158117535E0,1.908178806E0,-9.246406555E0,2.683900118E0
1.160102383E0,1.908178806E0,-9.255983353E0,2.659958124E0
1.162115616E0,1.932120800E0,-9.258378029E0,2.626439333E0
1.164099310E0,1.936909199E0,-9.253589630E0,2.612074137E0
1.166113851E0,1.963245392E0,-9.251194954E0,2.602497339E0
1.168096930E0,1.991975784E0,-9.234436035E0,2.602497339E0
1.170111392E0,1.999158382E0,-9.227252960E0,2.592920542E0
1.172125164E0,1.991975784E0,-9.224859238E0,2.559401512E0
1.174109781E0,1.987187386E0,-9.220070839E0,2.540247917E0
1.176123629E0,2.013523579E0,-9.232041359E0,2.525882721E0
1.178107093E0,2.020706177E0,-9.224859238E0,2.521094322E0
1.180122095E0,2.018311977E0,-9.222464561E0,2.513911724E0
1.182104558E0,2.023100376E0,-9.239224434E0,2.494758129E0
1.184118790E0,2.006340981E0,-9.241618156E0,2.468421936E0
1.186102792E0,2.001552582E0,-9.244012833E0,2.461239338E0
1.188117256E0,2.003946781E0,-9.263166428E0,2.446874142E0
1.190099411E0,1.984793186E0,-9.279925346E0,2.430114746E0
1.192114183E0,1.980004787E0,-9.291896820E0,2.422932148E0
1.194097800E0,1.982398987E0,-9.299078941E0,2.427720547E0
1.196112571E0,1.984793186E0,-9.306262016E0,2.432508945E0
1.198096034E0,1.975216389E0,-9.313444138E0,2.442085743E0
1.200111420E0,1.968033791E0,-9.330204010E0,2.466027737E0
1.202124346E0,1.975216389E0,-9.349357605E0,2.477998734E0
1.204108578E0,1.980004787E0,-9.361329079E0,2.487575531E0
1.206121888E0,1.996764183E0,-9.385271072E0,2.489969730E0
1.208105582E0,2.006340981E0,-9.399636269E0,2.499546528E0
1.210119661E0,2.003946781E0,-9.411606789E0,2.513911724E0
1.212103662E0,2.020706177E0,-9.445125580E0,2.530671120E0
1.214117818E0,2.030282974E0,-9.452308655E0,2.530671120E0
1.216101205E0,2.032677174E0,-9.457097054E0,2.533065319E0
1.218115976E0,2.042253971E0,-9.471462250E0,2.547430515E0
1.220100363E0,2.027888775E0,-9.478644371E0,2.545036316E0
1.222113903E0,2.030282974E0,-9.495404243E0,2.542642117E0
1.224096904E0,2.047042370E0,-9.490615845E0,2.545036316E0
1.226110752E0,2.056619167E0,-9.473855972E0,2.566584110E0
1.228124985E0,2.070984364E0,-9.452308655E0,2.592920542E0
1.230108679E0,2.070984364E0,-9.428366661E0,2.633621931E0
1.232123374E0,2.085349798E0,-9.411606789E0,2.671929121E0
1.234107068E0,2.087743998E0,-9.378087997E0,2.722207308E0
1.236120685E0,2.078166962E0,-9.342175484E0,2.755726099E0
1.238104379E0,2.080561161E0,-9.320627213E0,2.760514498E0
1.240119458E0,2.080561161E0,-9.289502144E0,2.760514498E0
1.242102537E0,2.087743998E0,-9.270348549E0,2.767697096E0
1.244117000E0,2.099714994E0,-9.258378029E0,2.786850691E0
1.246100310E0,2.130839586E0,-9.251194954E0,2.796427488E0
1.248113850E0,2.149993181E0,-9.234436035E0,2.808398485E0
1.250097621E0,2.157175779E0,-9.210494041E0,2.829946518E0
1.252111469E0,2.171540976E0,-9.208099365E0,2.863465309E0
1.254096394E0,2.181117773E0,-9.215282440E0,2.875436306E0
1.256110165E0,2.183511972E0,-9.222464561E0,2.904166698E0
1.258124398E0,2.193088770E0,-9.236829758E0,2.935291290E0
1.260109323E0,2.190694571E0,-9.244012833E0,2.944868088E0
1.262122479E0,2.190694571E0,-9.248801231E0,2.942473888E0
1.264104942E0,2.195482969E0,-9.260771751E0,2.966415882E0
1.266120020E0,2.183511972E0,-9.282320023E0,2.968810081E0
1.268103791E0,2.181117773E0,-9.318233490E0,2.983175278E0
1.270116640E0,2.164358377E0,-9.315838814E0,3.002328873E0
1.272101257E0,2.159569979E0,-9.320627213E0,3.011905670E0
1.274115797E0,2.145204782E0,-9.332598686E0,3.026270866E0
1.276099107E0,2.128445387E0,-9.334992409E0,3.047818661E0
1.278113263E0,2.094926596E0,-9.351752281E0,3.059789658E0
1.280097879E0,2.068590164E0,-9.361329079E0,3.064578056E0
1.282110574E0,2.056619167E0,-9.356540680E0,3.071760893E0
1.284125653E0,2.015917778E0,-9.351752281E0,3.071760893E0
1.286107808E0,1.977610588E0,-9.351752281E0,3.086126089E0
1.288123503E0,1.960851192E0,-9.351752281E0,3.095702887E0
1.290106197E0,1.936909199E0,-9.334992409E0,3.119644880E0
1.292120122E0,1.896207690E0,-9.325415611E0,3.126827478E0
1.294104662E0,1.877054095E0,-9.337387085E0,3.141192675E0
1.296118279E0,1.817199111E0,-9.327810287E0,3.165134668E0
1.298102204E0,1.778891921E0,-9.344569206E0,3.179499865E0
1.300116745E0,1.757344007E0,-9.346963882E0,3.181894064E0
1.302099747E0,1.723825216E0,-9.339780807E0,3.208230257E0
1.304112441E0,1.661576033E0,-9.330204010E0,3.215412855E0
1.306097366E0,1.649604917E0,-9.344569206E0,3.222595453E0
1.308112136E0,1.625662923E0,-9.378087997E0,3.229778051E0
1.310095523E0,1.599326730E0,-9.392453194E0,3.227383852E0
1.312109602E0,1.556231141E0,-9.392453194E0,3.213018656E0
1.314124065E0,1.541865945E0,-9.409213066E0,3.172317266E0
1.316107144E0,1.527500629E0,-9.430760384E0,3.165134668E0
1.318120992E0,1.489193439E0,-9.423578262E0,3.145981073E0
1.320106302E0,1.458068848E0,-9.435548782E0,3.107673883E0
1.322119149E0,1.434126854E0,-9.435548782E0,3.093308687E0
1.324103459E0,1.410184860E0,-9.442731857E0,3.055001259E0
1.326117307E0,1.381454349E0,-9.445125580E0,3.021482468E0
1.328100694E0,1.379060149E0,-9.442731857E0,3.004723072E0
1.330115234E0,1.345541358E0,-9.435548782E0,2.997540474E0
1.332099544E0,1.328781962E0,-9.435548782E0,2.973598480E0
1.334113007E0,1.316810966E0,-9.428366661E0,2.956839085E0
1.336096085E0,1.300051570E0,-9.409213066E0,2.918531895E0
1.338110241E0,1.304839969E0,-9.399636269E0,2.863465309E0
1.340125320E0,1.290474772E0,-9.402029991E0,2.839523315E0
1.342108476E0,1.290474772E0,-9.399636269E0,2.779668093E0
1.344122555E0,1.297657371E0,-9.399636269E0,2.755726099E0
1.346106941E0,1.300051570E0,-9.382876396E0,2.734178305E0
1.348121097E0,1.295263171E0,-9.394847870E0,2.719813108E0
1.350104175E0,1.297657371E0,-9.397241592E0,2.717418909E0
1.352117946E0,1.314416766E0,-9.385271072E0,2.715024710E0
1.354101333E0,1.319205165E0,-9.392453194E0,2.695871115E0
1.356116489E0,1.319205165E0,-9.402029991E0,2.683900118E0
1.358099876E0,1.312022567E0,-9.392453194E0,2.650381327E0
1.360114262E0,1.321599364E0,-9.394847870E0,2.619256735E0
1.362097418E0,1.333570361E0,-9.390059471E0,2.600103140E0
1.364112111E0,1.359906554E0,-9.385271072E0,2.566584110E0
1.366095498E0,1.376665950E0,-9.397241592E0,2.557007313E0
1.368109654E0,1.395819545E0,-9.402029991E0,2.552218914E0
1.370123810E0,1.422155857E0,-9.406818390E0,2.557007313E0
1.372107273E0,1.429338455E0,-9.399636269E0,2.564189911E0
1.374121044E0,1.453280449E0,-9.397241592E0,2.583343744E0
1.376104815E0,1.467645645E0,-9.394847870E0,2.592920542E0
1.378119201E0,1.474828243E0,-9.402029991E0,2.604891539E0
1.380103896E0,1.508347034E0,-9.411606789E0,2.609679937E0
1.382117051E0,1.520318031E0,-9.409213066E0,2.588132143E0
1.384101053E0,1.534683347E0,-9.406818390E0,2.580949545E0
1.386113363E0,1.570596337E0,-9.402029991E0,2.561795712E0
1.388097673E0,1.601720929E0,-9.406818390E0,2.554613113E0
1.390112828E0,1.608903527E0,-9.409213066E0,2.549824715E0
1.392095599E0,1.647210717E0,-9.423578262E0,2.554613113E0
1.394110601E0,1.683123827E0,-9.435548782E0,2.580949545E0
1.396124834E0,1.697489023E0,-9.428366661E0,2.585737944E0
1.398107836E0,1.740584612E0,-9.430760384E0,2.573766708E0
1.400123915E0,1.786074519E0,-9.449913979E0,2.564189911E0
1.402106301E0,1.810016513E0,-9.452308655E0,2.547430515E0
1.404121687E0,1.845929503E0,-9.447520256E0,2.528276920E0
1.406103304E0,1.867477298E0,-9.454702377E0,2.509123325E0
1.408117999E0,1.900996208E0,-9.447520256E0,2.489969730E0
1.410101693E0,1.936909199E0,-9.461885452E0,2.477998734E0
1.412115849E0,1.958456993E0,-9.461885452E0,2.477998734E0
1.414099620E0,1.970427990E0,-9.473855972E0,2.451662540E0
1.416113776E0,1.963245392E0,-9.485827446E0,2.439691544E0
1.418097161E0,1.970427990E0,-9.490615845E0,2.439691544E0
1.420112163E0,1.968033791E0,-9.521739960E0,2.420537949E0
1.422095012E0,1.958456993E0,-9.519346237E0,2.401384354E0
1.424108860E0,1.958456993E0,-9.502586365E0,2.396595955E0
1.426124169E0,1.939303398E0,-9.497797966E0,2.377442360E0
1.428108248E0,1.932120800E0,-9.497797966E0,2.360682964E0
1.430120789E0,1.915361404E0,-9.502586365E0,2.346317768E0
1.432105098E0,1.879448295E0,-9.497797966E0,2.346317768E0
1.434118946E0,1.853112102E0,-9.483432770E0,2.322375536E0
1.436102640E0,1.848323703E0,-9.476250648E0,2.308010340E0
1.438116873E0,1.817199111E0,-9.437943459E0,2.298433542E0
1.440100875E0,1.802833915E0,-9.428366661E0,2.293645144E0
1.442115031E0,1.769315004E0,-9.414001465E0,2.284068346E0
1.444098648E0,1.754949808E0,-9.399636269E0,2.293645144E0
1.446113111E0,1.728613615E0,-9.392453194E0,2.300827742E0
1.448095882E0,1.707065821E0,-9.368511200E0,2.308010340E0
1.450110038E0,1.709460020E0,-9.358934402E0,2.319981337E0
1.452124194E0,1.702277422E0,-9.354146004E0,2.327163935E0
1.454108272E0,1.707065821E0,-9.334992409E0,2.336740971E0
1.456122044E0,1.711854219E0,-9.323021889E0,2.367865562E0
1.458106430E0,1.716642618E0,-9.325415611E0,2.379836559E0
1.460121739E0,1.728613615E0,-9.315838814E0,2.410961151E0
1.462103664E0,1.733402014E0,-9.287108421E0,2.449268341E0
1.464117435E0,1.731007814E0,-9.287108421E0,2.473210335E0
1.466100822E0,1.745373011E0,-9.289502144E0,2.516305923E0
1.468115978E0,1.752555609E0,-9.294290543E0,2.545036316E0
1.470099364E0,1.790862918E0,-9.287108421E0,2.554613113E0
1.472113443E0,1.812410712E0,-9.289502144E0,2.576161146E0
1.474096829E0,1.817199111E0,-9.287108421E0,2.573766708E0
1.476111062E0,1.831564307E0,-9.289502144E0,2.597708941E0
1.478125525E0,1.829170108E0,-9.299078941E0,2.619256735E0
1.480110373E0,1.829170108E0,-9.287108421E0,2.619256735E0
1.482123375E0,1.824381709E0,-9.289502144E0,2.638410330E0
1.484107993E0,1.831564307E0,-9.301473618E0,2.624045134E0
1.486120303E0,1.836352706E0,-9.282320023E0,2.619256735E0
1.488104611E0,1.805228114E0,-9.272743225E0,2.616862535E0
1.490119075E0,1.807622313E0,-9.277531624E0,2.609679937E0
1.492102692E0,1.814804912E0,-9.275136948E0,2.609679937E0
1.494116310E0,1.810016513E0,-9.260771751E0,2.616862535E0
1.496099696E0,1.802833915E0,-9.263166428E0,2.609679937E0
1.498114083E0,1.802833915E0,-9.260771751E0,2.597708941E0
1.500099700E0,1.783680320E0,-9.244012833E0,2.588132143E0
1.502111701E0,1.786074519E0,-9.236829758E0,2.583343744E0
1.504126472E0,1.759738207E0,-9.236829758E0,2.578555346E0
1.506111013E0,1.769315004E0,-9.222464561E0,2.557007313E0
1.508125169E0,1.766920805E0,-9.208099365E0,2.537853718E0
1.510107632E0,1.762132406E0,-9.208099365E0,2.537853718E0
1.512122096E0,1.762132406E0,-9.186552048E0,2.528276920E0
1.514105867E0,1.766920805E0,-9.191340446E0,2.518700123E0
1.516119407E0,1.747767210E0,-9.200917244E0,2.516305923E0
1.518103639E0,1.745373011E0,-9.179368973E0,2.501940727E0
1.520117795E0,1.742978811E0,-9.174580574E0,2.487575531E0
1.522101182E0,1.731007814E0,-9.162610054E0,2.463633537E0
1.524117184E0,1.733402014E0,-9.160215378E0,2.451662540E0
1.526098724E0,1.740584612E0,-9.160215378E0,2.458845139E0
1.528113496E0,1.728613615E0,-9.167398453E0,2.451662540E0
1.530096650E0,1.721431017E0,-9.148244858E0,2.444479942E0
1.532111114E0,1.726219416E0,-9.145850182E0,2.437297344E0
1.534125808E0,1.735796213E0,-9.136273384E0,2.420537949E0
1.536108579E0,1.738190413E0,-9.129091263E0,2.408566952E0
1.538122812E0,1.726219416E0,-9.129091263E0,2.389413357E0
1.540107968E0,1.695094824E0,-9.126696587E0,2.394201756E0
1.542120970E0,1.690306425E0,-9.129091263E0,2.389413357E0
1.544103356E0,1.668758631E0,-9.107542992E0,2.358288765E0
1.546117819E0,1.668758631E0,-9.076418877E0,2.353500366E0
1.548102437E0,1.675941229E0,-9.057265282E0,2.355894566E0
1.550116592E0,1.663970232E0,-9.033323288E0,2.343923569E0
1.552100287E0,1.649604917E0,-9.033323288E0,2.331952572E0
1.554114135E0,1.649604917E0,-9.028534889E0,2.336740971E0
1.556097213E0,1.659181833E0,-9.006986618E0,2.365471363E0
1.558112061E0,1.673547029E0,-8.995016098E0,2.384624958E0
1.560096063E0,1.675941229E0,-8.983044624E0,2.384624958E0
1.562110757E0,1.666364431E0,-8.963891029E0,2.389413357E0
1.564124606E0,1.671152830E0,-8.963891029E0,2.379836559E0
1.566107146E0,1.675941229E0,-8.968679428E0,2.382230759E0
1.568121610E0,1.675941229E0,-8.966285706E0,2.389413357E0
1.570105534E0,1.680729628E0,-8.963891029E0,2.396595955E0
1.572119997E0,1.699883223E0,-8.978256226E0,2.387019157E0
1.574102538E0,1.714248419E0,-8.978256226E0,2.387019157E0
1.576117309E0,1.709460020E0,-8.973467827E0,2.379836559E0
1.578100311E0,1.719036818E0,-8.992621422E0,2.394201756E0
1.580117005E0,1.747767210E0,-9.004592896E0,2.425326347E0
1.582099161E0,1.750161409E0,-9.011775017E0,2.444479942E0
1.584113239E0,1.759738207E0,-9.030928612E0,2.497152328E0
1.586097010E0,1.769315004E0,-9.064447403E0,2.535459518E0
1.588111089E0,1.776497602E0,-9.069235802E0,2.549824715E0
1.590124322E0,1.759738207E0,-9.088389397E0,2.547430515E0
1.592109016E0,1.750161409E0,-9.097966194E0,2.540247917E0
1.594122557E0,1.754949808E0,-9.100360870E0,2.533065319E0
1.596106482E0,1.740584612E0,-9.133879662E0,2.549824715E0
1.598120329E0,1.747767210E0,-9.148244858E0,2.595314741E0
1.600105639E0,1.747767210E0,-9.150638580E0,2.619256735E0
1.602118256E0,1.735796213E0,-9.165003777E0,2.621650934E0
1.604102796E0,1.716642618E0,-9.172186852E0,2.616862535E0
1.606116337E0,1.690306425E0,-9.176975250E0,2.621650934E0
1.608100108E0,1.680729628E0,-9.184157372E0,2.612074137E0
1.610114572E0,1.683123827E0,-9.176975250E0,2.590526342E0
1.612097650E0,1.671152830E0,-9.174580574E0,2.557007313E0
1.614111805E0,1.651999116E0,-9.188945770E0,2.516305923E0
1.616095731E0,1.649604917E0,-9.193734169E0,2.509123325E0
1.618110194E0,1.623268723E0,-9.181763649E0,2.485181332E0
1.620124658E0,1.594538331E0,-9.169792175E0,2.470816135E0
1.622107737E0,1.582567334E0,-9.176975250E0,2.466027737E0
1.624120662E0,1.570596337E0,-9.176975250E0,2.458845139E0
1.626105047E0,1.544260144E0,-9.162610054E0,2.437297344E0
1.628120049E0,1.525106430E0,-9.160215378E0,2.422932148E0
1.630103205E0,1.482010841E0,-9.188945770E0,2.415749550E0
1.632116746E0,1.465251446E0,-9.179368973E0,2.427720547E0
1.634101055E0,1.448492050E0,-9.188945770E0,2.432508945E0
1.636115519E0,1.414973259E0,-9.191340446E0,2.420537949E0
1.638098521E0,1.395819545E0,-9.193734169E0,2.415749550E0
1.640113599E0,1.381454349E0,-9.208099365E0,2.410961151E0
1.642097370E0,1.347935557E0,-9.212887764E0,2.406172752E0
1.644111141E0,1.338358760E0,-9.217676163E0,2.396595955E0
1.646124374E0,1.331176162E0,-9.227252960E0,2.401384354E0
1.648108684E0,1.297657371E0,-9.248801231E0,2.410961151E0
1.650122609E0,1.283292055E0,-9.253589630E0,2.410961151E0
1.652105995E0,1.271321058E0,-9.272743225E0,2.410961151E0
1.654120996E0,1.254561663E0,-9.277531624E0,2.410961151E0
1.656104691E0,1.244984865E0,-9.287108421E0,2.410961151E0
1.658118847E0,1.237802267E0,-9.282320023E0,2.434903145E0
1.660102310E0,1.221042871E0,-9.284713745E0,2.456450939E0
1.662116081E0,1.221042871E0,-9.287108421E0,2.463633537E0
1.664098930E0,1.218648672E0,-9.306262016E0,2.487575531E0
1.666114316E0,1.221042871E0,-9.315838814E0,2.506729126E0
1.668098009E0,1.242590666E0,-9.318233490E0,2.535459518E0
1.670110935E0,1.240196466E0,-9.320627213E0,2.571372509E0
1.672126244E0,1.247379065E0,-9.342175484E0,2.590526342E0
1.674109631E0,1.271321058E0,-9.346963882E0,2.621650934E0
1.676123864E0,1.285686255E0,-9.346963882E0,2.640804529E0
1.678106866E0,1.292868972E0,-9.358934402E0,2.638410330E0
1.680121714E0,1.335964561E0,-9.387664795E0,2.643198729E0
1.682105638E0,1.376665950E0,-9.409213066E0,2.650381327E0
1.684119794E0,1.388636947E0,-9.399636269E0,2.652775526E0
1.686102873E0,1.412579060E0,-9.409213066E0,2.659958124E0
1.688116798E0,1.446097851E0,-9.423578262E0,2.669534922E0
1.690100415E0,1.479616642E0,-9.430760384E0,2.657563925E0
1.692114879E0,1.515529633E0,-9.449913979E0,2.638410330E0
1.694098880E0,1.529894829E0,-9.442731857E0,2.616862535E0
1.696112805E0,1.572990537E0,-9.437943459E0,2.612074137E0
1.698096499E0,1.601720929E0,-9.423578262E0,2.607285738E0
1.700111270E0,1.630451322E0,-9.423578262E0,2.595314741E0
1.702125118E0,1.661576033E0,-9.421183586E0,2.564189911E0
1.704107505E0,1.683123827E0,-9.421183586E0,2.561795712E0
1.706121430E0,1.690306425E0,-9.409213066E0,2.559401512E0
1.708105970E0,1.702277422E0,-9.402029991E0,2.554613113E0
1.710120741E0,1.714248419E0,-9.397241592E0,2.542642117E0
1.712103281E0,1.723825216E0,-9.375694275E0,2.540247917E0
1.714118360E0,1.738190413E0,-9.354146004E0,2.540247917E0
1.716101362E0,1.742978811E0,-9.351752281E0,2.525882721E0
1.718115826E0,1.759738207E0,-9.349357605E0,2.523488522E0
1.720100751E0,1.774103403E0,-9.366117477E0,2.518700123E0
1.722113367E0,1.786074519E0,-9.346963882E0,2.525882721E0
1.724097677E0,1.781286120E0,-9.346963882E0,2.533065319E0
1.726111602E0,1.778891921E0,-9.356540680E0,2.540247917E0
1.728126066E0,1.771709204E0,-9.356540680E0,2.530671120E0
1.730109452E0,1.790862918E0,-9.356540680E0,2.521094322E0
1.732123839E0,1.786074519E0,-9.344569206E0,2.516305923E0
1.734107610E0,1.790862918E0,-9.334992409E0,2.511517525E0
1.736121150E0,1.783680320E0,-9.339780807E0,2.499546528E0
1.738104767E0,1.764526606E0,-9.325415611E0,2.489969730E0
1.740119923E0,1.759738207E0,-9.332598686E0,2.489969730E0
1.742102694E0,1.745373011E0,-9.330204010E0,2.489969730E0
1.744116773E0,1.726219416E0,-9.320627213E0,2.489969730E0
1.746100544E0,1.714248419E0,-9.311050415E0,2.482787132E0
1.748114931E0,1.704671621E0,-9.303867340E0,2.487575531E0
1.750097393E0,1.692700624E0,-9.296685219E0,2.511517525E0
1.752113088E0,1.678335428E0,-9.296685219E0,2.516305923E0
1.754095936E0,1.647210717E0,-9.277531624E0,2.511517525E0
1.756110092E0,1.611297727E0,-9.263166428E0,2.497152328E0
1.758123632E0,1.611297727E0,-9.258378029E0,2.489969730E0
1.760109173E0,1.572990537E0,-9.244012833E0,2.497152328E0
1.762122405E0,1.556231141E0,-9.244012833E0,2.509123325E0
1.764106714E0,1.544260144E0,-9.236829758E0,2.509123325E0
1.766120255E0,1.537077546E0,-9.241618156E0,2.523488522E0
1.768103026E0,1.520318031E0,-9.239224434E0,2.535459518E0
1.770118028E0,1.498770237E0,-9.248801231E0,2.559401512E0
1.772101184E0,1.484405041E0,-9.260771751E0,2.561795712E0
1.774116186E0,1.477222443E0,-9.272743225E0,2.561795712E0
1.776099265E0,1.474828243E0,-9.270348549E0,2.552218914E0
1.778113496E0,1.472434044E0,-9.275136948E0,2.549824715E0
1.780097806E0,1.482010841E0,-9.275136948E0,2.549824715E0
1.782110962E0,1.472434044E0,-9.291896820E0,2.554613113E0
1.784122041E0,1.474828243E0,-9.282320023E0,2.530671120E0
1.786108504E0,1.467645645E0,-9.284713745E0,2.530671120E0
1.788123583E0,1.462857246E0,-9.308655739E0,2.525882721E0
1.790106355E0,1.479616642E0,-9.315838814E0,2.535459518E0
1.792120586E0,1.479616642E0,-9.318233490E0,2.540247917E0
1.794104588E0,1.482010841E0,-9.325415611E0,2.559401512E0
1.796118436E0,1.491587639E0,-9.337387085E0,2.568978310E0
1.798102669E0,1.491587639E0,-9.334992409E0,2.578555346E0
1.800117825E0,1.501164436E0,-9.334992409E0,2.595314741E0
1.802100519E0,1.510741234E0,-9.332598686E0,2.592920542E0
1.804115368E0,1.522712231E0,-9.334992409E0,2.602497339E0
1.806097830E0,1.532289028E0,-9.327810287E0,2.609679937E0
1.808112524E0,1.537077546E0,-9.325415611E0,2.616862535E0
1.810095988E0,1.546654344E0,-9.327810287E0,2.607285738E0
1.812110451E0,1.553836942E0,-9.337387085E0,2.616862535E0
1.814124530E0,1.558625340E0,-9.337387085E0,2.619256735E0
1.816107686E0,1.582567334E0,-9.332598686E0,2.619256735E0
1.818121227E0,1.611297727E0,-9.320627213E0,2.626439333E0
1.820106382E0,1.611297727E0,-9.311050415E0,2.626439333E0
1.822119999E0,1.613691926E0,-9.327810287E0,2.636016130E0
1.824102770E0,1.618480325E0,-9.311050415E0,2.638410330E0
1.826117541E0,1.623268723E0,-9.303867340E0,2.647987127E0
1.828101774E0,1.618480325E0,-9.296685219E0,2.636016130E0
1.830114776E0,1.606509328E0,-9.289502144E0,2.626439333E0
1.832099086E0,1.594538331E0,-9.301473618E0,2.633621931E0
1.834113472E0,1.599326730E0,-9.303867340E0,2.638410330E0
1.836097781E0,1.599326730E0,-9.301473618E0,2.636016130E0
1.838111322E0,1.594538331E0,-9.289502144E0,2.638410330E0
1.840126708E0,1.572990537E0,-9.277531624E0,2.636016130E0
1.842109480E0,1.570596337E0,-9.272743225E0,2.633621931E0
1.844123712E0,1.577778935E0,-9.251194954E0,2.609679937E0
1.846107022E0,1.546654344E0,-9.239224434E0,2.600103140E0
1.848120331E0,1.537077546E0,-9.234436035E0,2.590526342E0
1.850104256E0,1.517923832E0,-9.251194954E0,2.568978310E0
1.852119027E0,1.496376038E0,-9.246406555E0,2.552218914E0
1.854103029E0,1.489193439E0,-9.246406555E0,2.561795712E0
1.856116646E0,1.482010841E0,-9.253589630E0,2.566584110E0
1.858099725E0,1.477222443E0,-9.255983353E0,2.573766708E0
1.860115112E0,1.482010841E0,-9.265560150E0,2.566584110E0
1.862098190E0,1.460463047E0,-9.277531624E0,2.547430515E0
1.864111730E0,1.450886250E0,-9.289502144E0,2.552218914E0
1.866125194E0,1.441309452E0,-9.287108421E0,2.549824715E0
1.868109888E0,1.431732655E0,-9.277531624E0,2.535459518E0
1.870124583E0,1.429338455E0,-9.287108421E0,2.533065319E0
1.872107354E0,1.419761658E0,-9.289502144E0,2.537853718E0
1.874121817E0,1.417367458E0,-9.289502144E0,2.540247917E0
1.876105511E0,1.407790542E0,-9.294290543E0,2.540247917E0
1.878120282E0,1.381454349E0,-9.299078941E0,2.552218914E0
1.880103438E0,1.395819545E0,-9.318233490E0,2.542642117E0
1.882117901E0,1.405396342E0,-9.327810287E0,2.540247917E0
1.884101288E0,1.400607944E0,-9.334992409E0,2.557007313E0
1.886115367E0,1.379060149E0,-9.349357605E0,2.590526342E0
1.888098522E0,1.371877551E0,-9.361329079E0,2.609679937E0
1.890112908E0,1.386242747E0,-9.370905876E0,2.631227732E0
1.892096295E0,1.383848548E0,-9.363722801E0,2.640804529E0
1.894110528E0,1.407790542E0,-9.366117477E0,2.657563925E0
1.896124991E0,1.446097851E0,-9.387664795E0,2.645592928E0
1.898108916E0,1.448492050E0,-9.392453194E0,2.638410330E0
1.900124688E0,1.460463047E0,-9.409213066E0,2.638410330E0
1.902106458E0,1.498770237E0,-9.423578262E0,2.626439333E0
1.904120075E0,1.517923832E0,-9.421183586E0,2.619256735E0
1.906104923E0,1.525106430E0,-9.423578262E0,2.619256735E0
1.908118848E0,1.541865945E0,-9.418789864E0,2.638410330E0
1.910101927E0,1.553836942E0,-9.409213066E0,2.640804529E0
1.912116622E0,1.570596337E0,-9.404424667E0,2.650381327E0
1.914100316E0,1.582567334E0,-9.411606789E0,2.645592928E0
1.916113932E0,1.594538331E0,-9.414001465E0,2.628833532E0
1.918097550E0,1.608903527E0,-9.414001465E0,2.600103140E0
1.920112706E0,1.625662923E0,-9.392453194E0,2.597708941E0
1.922095785E0,1.637633920E0,-9.380482674E0,2.600103140E0
1.924109940E0,1.654393315E0,-9.378087997E0,2.585737944E0
1.926123173E0,1.654393315E0,-9.344569206E0,2.585737944E0
1.928107714E0,1.637633920E0,-9.337387085E0,2.566584110E0
1.930121253E0,1.640028119E0,-9.330204010E0,2.564189911E0
1.932105255E0,1.628057122E0,-9.315838814E0,2.554613113E0
1.934119411E0,1.613691926E0,-9.296685219E0,2.552218914E0
1.936103413E0,1.616086125E0,-9.289502144E0,2.545036316E0
1.938117338E0,1.611297727E0,-9.279925346E0,2.537853718E0
1.940102571E0,1.596932530E0,-9.277531624E0,2.528276920E0
1.942116111E0,1.575384736E0,-9.251194954E0,2.523488522E0
1.944097958E0,1.570596337E0,-9.239224434E0,2.518700123E0
1.946112960E0,1.561019540E0,-9.227252960E0,2.525882721E0
1.948096962E0,1.558625340E0,-9.212887764E0,2.528276920E0
1.950110503E0,1.551442742E0,-9.215282440E0,2.523488522E0
1.952124736E0,1.544260144E0,-9.203310966E0,2.523488522E0
1.954108738E0,1.537077546E0,-9.203310966E0,2.513911724E0
1.956122817E0,1.525106430E0,-9.198522568E0,2.506729126E0
1.958106279E0,1.520318031E0,-9.191340446E0,2.506729126E0
1.960120973E0,1.525106430E0,-9.196128845E0,2.501940727E0
1.962104360E0,1.513135433E0,-9.167398453E0,2.497152328E0
1.964118824E0,1.496376038E0,-9.160215378E0,2.494758129E0
1.966102595E0,1.479616642E0,-9.160215378E0,2.501940727E0
1.968116443E0,1.486799240E0,-9.176975250E0,2.501940727E0
1.970100137E0,1.477222443E0,-9.172186852E0,2.518700123E0
1.972113677E0,1.465251446E0,-9.162610054E0,2.533065319E0
1.974097910E0,1.450886250E0,-9.165003777E0,2.557007313E0
1.976111835E0,1.438915253E0,-9.176975250E0,2.571372509E0
1.978125914E0,1.448492050E0,-9.181763649E0,2.576161146E0
1.980110839E0,1.460463047E0,-9.188945770E0,2.566584110E0
1.982123764E0,1.450886250E0,-9.212887764E0,2.552218914E0
1.984106227E0,1.455674648E0,-9.224859238E0,2.537853718E0
1.986121998E0,1.443703651E0,-9.227252960E0,2.525882721E0
1.988105384E0,1.448492050E0,-9.248801231E0,2.547430515E0
1.990117925E0,1.465251446E0,-9.248801231E0,2.552218914E0
1.992103234E0,1.467645645E0,-9.265560150E0,2.578555346E0
1.994117313E0,1.467645645E0,-9.275136948E0,2.595314741E0
1.996101315E0,1.443703651E0,-9.306262016E0,2.626439333E0
1.998114856E0,1.472434044E0,-9.306262016E0,2.628833532E0
2.000099472E0,1.477222443E0,-9.306262016E0,2.631227732E0
2.002113397E0,1.501164436E0,-9.351752281E0,2.636016130E0
2.004096707E0,1.520318031E0,-9.375694275E0,2.633621931E0
2.006110863E0,1.532289028E0,-9.378087997E0,2.626439333E0
2.008124403E0,1.534683347E0,-9.409213066E0,2.621650934E0
2.010108098E0,1.568202138E0,-9.421183586E0,2.612074137E0
2.012122023E0,1.589749932E0,-9.430760384E0,2.609679937E0
2.014106562E0,1.587355733E0,-9.452308655E0,2.621650934E0
2.016120487E0,1.604115129E0,-9.461885452E0,2.650381327E0
2.018104412E0,1.613691926E0,-9.478644371E0,2.681505919E0
2.020118876E0,1.616086125E0,-9.469067574E0,2.693476915E0
2.022101647E0,1.628057122E0,-9.464279175E0,2.671929121E0
2.024113341E0,1.637633920E0,-9.466673851E0,2.636016130E0
2.026098573E0,1.642422318E0,-9.457097054E0,2.628833532E0
2.028113729E0,1.649604917E0,-9.454702377E0,2.626439333E0
2.030096731E0,1.630451322E0,-9.442731857E0,2.619256735E0
2.032111271E0,1.642422318E0,-9.409213066E0,2.619256735E0
2.034126273E0,1.649604917E0,-9.402029991E0,2.640804529E0
2.036109429E0,1.659181833E0,-9.402029991E0,2.676717520E0
2.038123508E0,1.663970232E0,-9.399636269E0,2.667140722E0
2.040108201E0,1.656787634E0,-9.409213066E0,2.655169725E0
2.042121127E0,1.659181833E0,-9.402029991E0,2.597708941E0
2.044105667E0,1.651999116E0,-9.378087997E0,2.559401512E0
2.046119284E0,1.642422318E0,-9.370905876E0,2.549824715E0
2.048102979E0,1.625662923E0,-9.373299599E0,2.535459518E0
2.050117058E0,1.618480325E0,-9.351752281E0,2.549824715E0
2.052100521E0,1.611297727E0,-9.342175484E0,2.552218914E0
2.054115291E0,1.601720929E0,-9.320627213E0,2.578555346E0
2.056098678E0,1.587355733E0,-9.320627213E0,2.592920542E0
2.058112219E0,1.568202138E0,-9.311050415E0,2.588132143E0
2.060127528E0,1.553836942E0,-9.287108421E0,2.590526342E0
2.062110376E0,1.553836942E0,-9.272743225E0,2.588132143E0
2.064123840E0,1.534683347E0,-9.284713745E0,2.597708941E0
2.066108227E0,1.515529633E0,-9.294290543E0,2.592920542E0
2.068122304E0,1.503558636E0,-9.277531624E0,2.583343744E0
2.070105999E0,1.474828243E0,-9.246406555E0,2.602497339E0
2.072119616E0,1.465251446E0,-9.244012833E0,2.619256735E0
2.074104464E0,1.455674648E0,-9.241618156E0,2.628833532E0
2.076118697E0,1.431732655E0,-9.222464561E0,2.619256735E0
2.078101699E0,1.386242747E0,-9.217676163E0,2.619256735E0
2.080116547E0,1.379060149E0,-9.227252960E0,2.614468336E0
2.082098933E0,1.364694953E0,-9.193734169E0,2.607285738E0
2.084114320E0,1.319205165E0,-9.169792175E0,2.616862535E0
2.086096475E0,1.300051570E0,-9.160215378E0,2.624045134E0
2.088111016E0,1.285686255E0,-9.155426979E0,2.636016130E0
2.090125787E0,1.288080573E0,-9.153033257E0,2.640804529E0
2.092109097E0,1.271321058E0,-9.136273384E0,2.674323320E0
2.094123637E0,1.225831270E0,-9.138668060E0,2.664746523E0
2.096107023E0,1.206677675E0,-9.133879662E0,2.652775526E0
2.098120794E0,1.192312479E0,-9.124302864E0,2.652775526E0
2.100106027E0,1.194706678E0,-9.131484985E0,2.681505919E0
2.102119260E0,1.187524080E0,-9.136273384E0,2.705447912E0
2.104102646E0,1.161187768E0,-9.126696587E0,2.760514498E0
2.106116494E0,1.185129881E0,-9.148244858E0,2.796427488E0
2.108101112E0,1.194706678E0,-9.160215378E0,2.796427488E0
2.110114344E0,1.216254473E0,-9.184157372E0,2.765302896E0
2.112098423E0,1.249773264E0,-9.198522568E0,2.705447912E0
2.114113117E0,1.256955862E0,-9.203310966E0,2.679111719E0
2.116096273E0,1.288080573E0,-9.222464561E0,2.667140722E0
2.118110121E0,1.307234168E0,-9.244012833E0,2.681505919E0
2.120124584E0,1.362300754E0,-9.255983353E0,2.693476915E0
2.122108509E0,1.393425345E0,-9.246406555E0,2.734178305E0
2.124122434E0,1.403002143E0,-9.260771751E0,2.758120298E0
2.126106436E0,1.422155857E0,-9.267954826E0,2.803610086E0
2.128119361E0,1.453280449E0,-9.258378029E0,2.827552319E0
2.130103286E0,1.477222443E0,-9.255983353E0,2.832340717E0
2.132117826E0,1.496376038E0,-9.251194954E0,2.808398485E0
2.134102059E0,1.525106430E0,-9.260771751E0,2.789244890E0
2.136115907E0,1.558625340E0,-9.265560150E0,2.774879694E0
2.138099293E0,1.580173135E0,-9.270348549E0,2.750937700E0
2.140114756E0,1.604115129E0,-9.265560150E0,2.760514498E0
2.142096528E0,1.625662923E0,-9.263166428E0,2.772485495E0
2.144110145E0,1.649604917E0,-9.263166428E0,2.772485495E0
2.146125839E0,1.668758631E0,-9.258378029E0,2.715024710E0
2.148109534E0,1.678335428E0,-9.253589630E0,2.691082716E0
2.150122382E0,1.687912226E0,-9.253589630E0,2.645592928E0
2.152107383E0,1.687912226E0,-9.263166428E0,2.628833532E0
2.154120923E0,1.695094824E0,-9.263166428E0,2.636016130E0
2.156104848E0,1.699883223E0,-9.260771751E0,2.667140722E0
2.158118466E0,1.714248419E0,-9.275136948E0,2.671929121E0
2.160103314E0,1.723825216E0,-9.291896820E0,2.669534922E0
2.162116316E0,1.704671621E0,-9.287108421E0,2.655169725E0
2.164100241E0,1.697489023E0,-9.294290543E0,2.645592928E0
2.166114473E0,1.678335428E0,-9.311050415E0,2.636016130E0
2.168098167E0,1.661576033E0,-9.311050415E0,2.626439333E0
2.170111938E0,1.651999116E0,-9.323021889E0,2.624045134E0
2.172126094E0,1.642422318E0,-9.330204010E0,2.614468336E0
2.174109250E0,1.613691926E0,-9.339780807E0,2.616862535E0
2.176124021E0,1.587355733E0,-9.337387085E0,2.619256735E0
2.178108562E0,1.556231141E0,-9.315838814E0,2.616862535E0
2.180122486E0,1.517923832E0,-9.313444138E0,2.619256735E0
2.182106180E0,1.498770237E0,-9.318233490E0,2.621650934E0
2.184119028E0,1.474828243E0,-9.313444138E0,2.609679937E0
2.186103646E0,1.443703651E0,-9.311050415E0,2.612074137E0
2.188117878E0,1.395819545E0,-9.313444138E0,2.621650934E0
2.190100880E0,1.369483352E0,-9.301473618E0,2.616862535E0
2.192115652E0,1.343147159E0,-9.294290543E0,2.616862535E0
2.194100037E0,1.304839969E0,-9.299078941E0,2.626439333E0
2.196113501E0,1.266532660E0,-9.299078941E0,2.643198729E0
2.198096657E0,1.254561663E0,-9.291896820E0,2.652775526E0
2.200111659E0,1.249773264E0,-9.301473618E0,2.674323320E0
2.202124968E0,1.216254473E0,-9.291896820E0,2.691082716E0
2.204108893E0,1.206677675E0,-9.291896820E0,2.693476915E0
2.206122741E0,1.173158884E0,-9.306262016E0,2.705447912E0
2.208106743E0,1.180341482E0,-9.308655739E0,2.724601507E0
2.210120668E0,1.182735682E0,-9.318233490E0,2.724601507E0
2.212104593E0,1.173158884E0,-9.337387085E0,2.738966703E0
2.214119133E0,1.158793569E0,-9.358934402E0,2.760514498E0
2.216102751E0,1.163581967E0,-9.375694275E0,2.770091295E0
2.218116599E0,1.185129881E0,-9.397241592E0,2.789244890E0
2.220101215E0,1.192312479E0,-9.402029991E0,2.798821688E0
2.222114448E0,1.216254473E0,-9.423578262E0,2.829946518E0
2.224096911E0,1.235408068E0,-9.433155060E0,2.858676910E0
2.226111990E0,1.256955862E0,-9.452308655E0,2.861071110E0
2.228126454E0,1.278503656E0,-9.493009567E0,2.834734917E0
2.230108610E0,1.300051570E0,-9.502586365E0,2.822763920E0
2.232124073E0,1.314416766E0,-9.502586365E0,2.820369720E0
2.234107382E0,1.367089152E0,-9.504981041E0,2.798821688E0
2.236121230E0,1.386242747E0,-9.509769440E0,2.772485495E0
2.238105848E0,1.383848548E0,-9.502586365E0,2.760514498E0
2.240120003E0,1.395819545E0,-9.502586365E0,2.734178305E0
2.242103159E0,1.429338455E0,-9.493009567E0,2.707842112E0
2.244117315E0,1.431732655E0,-9.488221169E0,2.691082716E0
2.246100702E0,1.424550056E0,-9.495404243E0,2.669534922E0
2.248115395E0,1.431732655E0,-9.478644371E0,2.652775526E0
2.250098551E0,1.465251446E0,-9.466673851E0,2.662352324E0
2.252113322E0,1.474828243E0,-9.473855972E0,2.669534922E0
2.254096324E0,1.489193439E0,-9.469067574E0,2.667140722E0
2.256111172E0,1.477222443E0,-9.442731857E0,2.652775526E0
2.258125020E0,1.484405041E0,-9.430760384E0,2.624045134E0
2.260109253E0,1.489193439E0,-9.425971985E0,2.614468336E0
2.262121639E0,1.496376038E0,-9.433155060E0,2.604891539E0
2.264105641E0,1.527500629E0,-9.418789864E0,2.592920542E0
2.266120104E0,1.534683347E0,-9.411606789E0,2.590526342E0
2.268103799E0,1.534683347E0,-9.404424667E0,2.564189911E0
2.270118878E0,1.546654344E0,-9.399636269E0,2.547430515E0
2.272101957E0,1.551442742E0,-9.394847870E0,2.542642117E0
2.274116343E0,1.558625340E0,-9.394847870E0,2.528276920E0
2.276099421E0,1.575384736E0,-9.380482674E0,2.540247917E0
2.278114500E0,1.568202138E0,-9.382876396E0,2.552218914E0
2.280097887E0,1.553836942E0,-9.380482674E0,2.566584110E0
2.282112042E0,1.553836942E0,-9.380482674E0,2.585737944E0
2.284126583E0,1.549048543E0,-9.380482674E0,2.583343744E0
2.286109277E0,1.529894829E0,-9.361329079E0,2.549824715E0
2.288123741E0,1.532289028E0,-9.344569206E0,2.530671120E0
2.290107203E0,1.520318031E0,-9.344569206E0,2.504334927E0
2.292121590E0,1.501164436E0,-9.334992409E0,2.501940727E0
2.294105361E0,1.489193439E0,-9.308655739E0,2.499546528E0
2.296119132E0,1.484405041E0,-9.306262016E0,2.528276920E0
2.298103211E0,1.448492050E0,-9.299078941E0,2.542642117E0
2.300117598E0,1.426944256E0,-9.294290543E0,2.552218914E0
2.302101062E0,1.412579060E0,-9.284713745E0,2.547430515E0
2.304114524E0,1.398213744E0,-9.299078941E0,2.568978310E0
2.306099757E0,1.381454349E0,-9.303867340E0,2.578555346E0
2.308113682E0,1.343147159E0,-9.284713745E0,2.578555346E0
2.310095838E0,1.335964561E0,-9.277531624E0,2.580949545E0
2.312109917E0,1.328781962E0,-9.287108421E0,2.578555346E0
2.314124380E0,1.304839969E0,-9.272743225E0,2.590526342E0
2.316108382E0,1.292868972E0,-9.287108421E0,2.607285738E0
2.318122306E0,1.271321058E0,-9.294290543E0,2.631227732E0
2.320106924E0,1.235408068E0,-9.279925346E0,2.640804529E0
2.322120156E0,1.228225470E0,-9.272743225E0,2.643198729E0
2.324104774E0,1.206677675E0,-9.287108421E0,2.647987127E0
2.326117699E0,1.192312479E0,-9.287108421E0,2.655169725E0
2.328101932E0,1.182735682E0,-9.301473618E0,2.662352324E0
2.330115164E0,1.168370485E0,-9.294290543E0,2.671929121E0
2.332099473E0,1.161187768E0,-9.294290543E0,2.683900118E0
2.334114321E0,1.156399369E0,-9.303867340E0,2.686294317E0
2.336097631E0,1.154005170E0,-9.282320023E0,2.688688517E0
2.338111479E0,1.146822572E0,-9.279925346E0,2.700659513E0
2.340126558E0,1.134851575E0,-9.284713745E0,2.700659513E0
2.342109099E0,1.127668977E0,-9.294290543E0,2.693476915E0
2.344120716E0,1.132457376E0,-9.289502144E0,2.693476915E0
2.346106640E0,1.137245774E0,-9.291896820E0,2.693476915E0
2.348121950E0,1.142034173E0,-9.294290543E0,2.703053713E0
2.350104490E0,1.146822572E0,-9.287108421E0,2.705447912E0
2.352118646E0,1.163581967E0,-9.267954826E0,2.703053713E0
2.354103494E0,1.180341482E0,-9.260771751E0,2.698265314E0
2.356117112E0,1.182735682E0,-9.246406555E0,2.703053713E0
2.358101113E0,1.192312479E0,-9.229647636E0,2.712630510E0
2.360115576E0,1.209071875E0,-9.241618156E0,2.719813108E0
2.362099194E0,1.225831270E0,-9.246406555E0,2.734178305E0
2.364112811E0,1.247379065E0,-9.229647636E0,2.784456491E0
2.366126582E0,1.271321058E0,-9.222464561E0,2.772485495E0
2.368110277E0,1.278503656E0,-9.229647636E0,2.765302896E0
2.370123894E0,1.304839969E0,-9.236829758E0,2.767697096E0
2.372107895E0,1.328781962E0,-9.255983353E0,2.753331900E0
2.374122282E0,1.333570361E0,-9.251194954E0,2.760514498E0
2.376106360E0,1.352723956E0,-9.244012833E0,2.767697096E0
2.378120209E0,1.364694953E0,-9.251194954E0,2.770091295E0
2.380105364E0,1.376665950E0,-9.248801231E0,2.762908697E0
2.382118290E0,1.405396342E0,-9.258378029E0,2.777273893E0
2.384101061E0,1.410184860E0,-9.265560150E0,2.767697096E0
2.386116523E0,1.436521053E0,-9.260771751E0,2.762908697E0
2.388100525E0,1.441309452E0,-9.263166428E0,2.738966703E0
2.390113066E0,1.453280449E0,-9.265560150E0,2.746149302E0
2.392097375E0,1.474828243E0,-9.255983353E0,2.760514498E0
2.394110685E0,1.474828243E0,-9.255983353E0,2.758120298E0
2.396125456E0,1.462857246E0,-9.267954826E0,2.762908697E0
2.398109151E0,1.465251446E0,-9.277531624E0,2.750937700E0
2.400123306E0,1.470039845E0,-9.265560150E0,2.760514498E0
2.402107000E0,1.470039845E0,-9.282320023E0,2.755726099E0
2.404122617E0,1.455674648E0,-9.306262016E0,2.758120298E0
2.406104235E0,1.460463047E0,-9.291896820E0,2.758120298E0
2.408118621E0,1.450886250E0,-9.301473618E0,2.753331900E0
2.410102085E0,1.431732655E0,-9.325415611E0,2.762908697E0
2.412116779E0,1.436521053E0,-9.325415611E0,2.758120298E0
2.414100549E0,1.453280449E0,-9.337387085E0,2.770091295E0
2.416113782E0,1.438915253E0,-9.344569206E0,2.786850691E0
2.418098707E0,1.419761658E0,-9.334992409E0,2.782062292E0
2.420113478E0,1.388636947E0,-9.351752281E0,2.798821688E0
2.422096788E0,1.400607944E0,-9.354146004E0,2.808398485E0
2.424106329E0,1.400607944E0,-9.361329079E0,2.815581083E0
2.426123946E0,1.398213744E0,-9.370905876E0,2.837129116E0
2.428108486E0,1.388636947E0,-9.370905876E0,2.861071110E0
2.430122334E0,1.383848548E0,-9.378087997E0,2.858676910E0
2.432106105E0,1.388636947E0,-9.390059471E0,2.873042107E0
2.434120184E0,1.383848548E0,-9.390059471E0,2.873042107E0
2.436103955E0,1.381454349E0,-9.392453194E0,2.873042107E0
2.438118111E0,1.381454349E0,-9.378087997E0,2.868253708E0
2.440101805E0,1.374271750E0,-9.373299599E0,2.875436306E0
2.442115345E0,1.374271750E0,-9.375694275E0,2.875436306E0
2.444099885E0,1.381454349E0,-9.382876396E0,2.853888512E0
2.446113733E0,1.388636947E0,-9.375694275E0,2.863465309E0
2.448096812E0,1.383848548E0,-9.387664795E0,2.858676910E0
2.450110968E0,1.400607944E0,-9.387664795E0,2.856282711E0
2.452125432E0,1.403002143E0,-9.380482674E0,2.861071110E0
2.454108895E0,1.414973259E0,-9.373299599E0,2.856282711E0
2.456123358E0,1.434126854E0,-9.382876396E0,2.837129116E0
2.458106744E0,1.438915253E0,-9.385271072E0,2.837129116E0
2.460122054E0,1.414973259E0,-9.387664795E0,2.841917515E0
2.462104287E0,1.419761658E0,-9.370905876E0,2.820369720E0
2.464118058E0,1.431732655E0,-9.363722801E0,2.817975283E0
2.466103060E0,1.426944256E0,-9.363722801E0,2.813186884E0
2.468117139E0,1.422155857E0,-9.330204010E0,2.810792685E0
2.470099371E0,1.417367458E0,-9.327810287E0,2.808398485E0
2.472114757E0,1.431732655E0,-9.320627213E0,2.786850691E0
2.474097836E0,1.417367458E0,-9.308655739E0,2.789244890E0
2.476112915E0,1.400607944E0,-9.303867340E0,2.789244890E0
2.478095610E0,1.412579060E0,-9.284713745E0,2.779668093E0
2.480110688E0,1.403002143E0,-9.270348549E0,2.779668093E0
2.482124306E0,1.386242747E0,-9.265560150E0,2.762908697E0
2.484108230E0,1.388636947E0,-9.260771751E0,2.765302896E0
2.486121847E0,1.393425345E0,-9.260771751E0,2.765302896E0
2.488105542E0,1.405396342E0,-9.275136948E0,2.762908697E0
2.490119928E0,1.414973259E0,-9.267954826E0,2.748543501E0
2.492103700E0,1.410184860E0,-9.282320023E0,2.753331900E0
2.494118086E0,1.386242747E0,-9.275136948E0,2.753331900E0
2.496101550E0,1.383848548E0,-9.265560150E0,2.750937700E0
2.498115705E0,1.391031146E0,-9.258378029E0,2.741360903E0
2.500100245E0,1.398213744E0,-9.263166428E0,2.724601507E0
2.502112939E0,1.383848548E0,-9.270348549E0,2.736572504E0
2.504095941E0,1.381454349E0,-9.272743225E0,2.736572504E0
2.506110405E0,1.391031146E0,-9.282320023E0,2.736572504E0
2.508125484E0,1.391031146E0,-9.272743225E0,2.724601507E0
2.510108332E0,1.393425345E0,-9.272743225E0,2.734178305E0
2.512122794E0,1.381454349E0,-9.272743225E0,2.729389906E0
2.514106720E0,1.374271750E0,-9.272743225E0,2.734178305E0
2.516121260E0,1.383848548E0,-9.270348549E0,2.734178305E0
2.518104647E0,1.381454349E0,-9.282320023E0,2.736572504E0
2.520119341E0,1.374271750E0,-9.277531624E0,2.736572504E0
2.522102189E0,1.379060149E0,-9.279925346E0,2.743755102E0
2.524117498E0,1.381454349E0,-9.279925346E0,2.753331900E0
2.526100269E0,1.381454349E0,-9.279925346E0,2.760514498E0
2.528114117E0,1.386242747E0,-9.296685219E0,2.789244890E0
2.530098504E0,1.398213744E0,-9.287108421E0,2.806004286E0
2.532112352E0,1.403002143E0,-9.279925346E0,2.803610086E0
2.534125892E0,1.393425345E0,-9.277531624E0,2.806004286E0
2.536109818E0,1.398213744E0,-9.272743225E0,2.813186884E0
2.538124588E0,1.414973259E0,-9.279925346E0,2.832340717E0
2.540108051E0,1.431732655E0,-9.294290543E0,2.844311714E0
2.542123053E0,1.438915253E0,-9.291896820E0,2.844311714E0
2.544104901E0,1.458068848E0,-9.306262016E0,2.837129116E0
2.546120288E0,1.458068848E0,-9.323021889E0,2.817975283E0
2.548103367E0,1.450886250E0,-9.313444138E0,2.810792685E0
2.550116292E0,1.458068848E0,-9.289502144E0,2.817975283E0
2.552100678E0,1.467645645E0,-9.284713745E0,2.810792685E0
2.554115987E0,1.470039845E0,-9.289502144E0,2.808398485E0
2.556098528E0,1.470039845E0,-9.291896820E0,2.810792685E0
2.558113299E0,1.484405041E0,-9.282320023E0,2.817975283E0
2.560097532E0,1.484405041E0,-9.277531624E0,2.815581083E0
2.562110534E0,1.493981838E0,-9.270348549E0,2.810792685E0
2.564124997E0,1.496376038E0,-9.277531624E0,2.798821688E0
2.566108922E0,1.498770237E0,-9.277531624E0,2.796427488E0
2.568122770E0,1.498770237E0,-9.265560150E0,2.794033289E0
2.570106541E0,1.493981838E0,-9.258378029E0,2.784456491E0
2.572120312E0,1.489193439E0,-9.260771751E0,2.786850691E0
2.574103776E0,1.484405041E0,-9.287108421E0,2.806004286E0
2.576118470E0,1.477222443E0,-9.267954826E0,2.794033289E0
2.578101857E0,1.467645645E0,-9.255983353E0,2.806004286E0
2.580117319E0,1.465251446E0,-9.253589630E0,2.815581083E0
2.582099475E0,1.465251446E0,-9.260771751E0,2.808398485E0
2.584110785E0,1.465251446E0,-9.260771751E0,2.791639090E0
2.586128017E0,1.465251446E0,-9.267954826E0,2.782062292E0
2.588111173E0,1.453280449E0,-9.279925346E0,2.777273893E0
2.590126252E0,1.436521053E0,-9.282320023E0,2.784456491E0
2.592109947E0,1.431732655E0,-9.277531624E0,2.767697096E0
2.594123486E0,1.436521053E0,-9.279925346E0,2.765302896E0
2.596107719E0,1.422155857E0,-9.258378029E0,2.741360903E0
2.598121644E0,1.419761658E0,-9.251194954E0,2.753331900E0
2.600105954E0,1.414973259E0,-9.248801231E0,2.762908697E0
2.602119725E0,1.400607944E0,-9.267954826E0,2.774879694E0
2.604103496E0,1.379060149E0,-9.270348549E0,2.765302896E0
2.606117267E0,1.369483352E0,-9.272743225E0,2.758120298E0
2.608100345E0,1.369483352E0,-9.248801231E0,2.762908697E0
2.610114578E0,1.355118155E0,-9.253589630E0,2.753331900E0
2.612098580E0,1.335964561E0,-9.241618156E0,2.753331900E0
2.614112428E0,1.323993564E0,-9.229647636E0,2.770091295E0
2.616127815E0,1.312022567E0,-9.229647636E0,2.777273893E0
2.618111124E0,1.321599364E0,-9.236829758E0,2.782062292E0
2.620126203E0,1.319205165E0,-9.224859238E0,2.777273893E0
2.622108435E0,1.321599364E0,-9.220070839E0,2.777273893E0
2.624123206E0,1.323993564E0,-9.241618156E0,2.791639090E0
2.626107132E0,1.328781962E0,-9.258378029E0,2.786850691E0
2.628120672E0,1.331176162E0,-9.255983353E0,2.777273893E0
2.630103443E0,1.340752959E0,-9.241618156E0,2.772485495E0
2.632119138E0,1.362300754E0,-9.251194954E0,2.786850691E0
2.634102293E0,1.369483352E0,-9.246406555E0,2.786850691E0
2.636116064E0,1.362300754E0,-9.265560150E0,2.798821688E0
2.638099758E0,1.364694953E0,-9.263166428E0,2.786850691E0
2.640115529E0,1.400607944E0,-9.253589630E0,2.777273893E0
2.642097377E0,1.414973259E0,-9.258378029E0,2.782062292E0
2.644112764E0,1.414973259E0,-9.265560150E0,2.777273893E0
2.646125381E0,1.434126854E0,-9.265560150E0,2.767697096E0
2.648109614E0,1.436521053E0,-9.260771751E0,2.760514498E0
2.650123538E0,1.436521053E0,-9.251194954E0,2.755726099E0
2.652107463E0,1.450886250E0,-9.236829758E0,2.760514498E0
2.654122004E0,1.462857246E0,-9.222464561E0,2.760514498E0
2.656105083E0,1.467645645E0,-9.220070839E0,2.777273893E0
2.658119777E0,1.472434044E0,-9.212887764E0,2.808398485E0
2.660103779E0,1.484405041E0,-9.200917244E0,2.827552319E0
2.662117627E0,1.496376038E0,-9.208099365E0,2.827552319E0
2.664100397E0,1.513135433E0,-9.203310966E0,2.815581083E0
2.666114015E0,1.537077546E0,-9.208099365E0,2.794033289E0
2.668098248E0,1.544260144E0,-9.208099365E0,2.779668093E0
2.670112788E0,1.561019540E0,-9.196128845E0,2.777273893E0
2.672127175E0,1.575384736E0,-9.220070839E0,2.779668093E0
2.674110023E0,1.596932530E0,-9.224859238E0,2.774879694E0
2.676124717E0,1.616086125E0,-9.224859238E0,2.779668093E0
2.678108103E0,1.630451322E0,-9.229647636E0,2.784456491E0
2.680123182E0,1.632845521E0,-9.241618156E0,2.796427488E0
2.682105722E0,1.642422318E0,-9.246406555E0,2.798821688E0
2.684121109E0,1.632845521E0,-9.260771751E0,2.786850691E0
2.686104188E0,1.651999116E0,-9.265560150E0,2.770091295E0
2.688118651E0,1.647210717E0,-9.258378029E0,2.762908697E0
2.690101421E0,1.640028119E0,-9.253589630E0,2.758120298E0
2.692115577E0,1.632845521E0,-9.263166428E0,2.774879694E0
2.694099579E0,1.637633920E0,-9.253589630E0,2.774879694E0
2.696113427E0,1.635239720E0,-9.239224434E0,2.772485495E0
2.698096737E0,1.637633920E0,-9.224859238E0,2.779668093E0
2.700112201E0,1.623268723E0,-9.239224434E0,2.784456491E0
2.702125433E0,1.613691926E0,-9.239224434E0,2.779668093E0
2.704108127E0,1.606509328E0,-9.236829758E0,2.765302896E0
2.706124206E0,1.606509328E0,-9.232041359E0,2.770091295E0
2.708107208E0,1.625662923E0,-9.220070839E0,2.786850691E0
2.710120440E0,1.618480325E0,-9.198522568E0,2.813186884E0
2.712104827E0,1.613691926E0,-9.205705643E0,2.810792685E0
2.714119291E0,1.606509328E0,-9.205705643E0,2.803610086E0
2.716102600E0,1.599326730E0,-9.208099365E0,2.801215887E0
2.718116832E0,1.589749932E0,-9.212887764E0,2.810792685E0
2.720101142E0,1.577778935E0,-9.200917244E0,2.810792685E0
2.722114913E0,1.568202138E0,-9.208099365E0,2.789244890E0
2.724099607E0,1.556231141E0,-9.215282440E0,2.801215887E0
2.726112148E0,1.534683347E0,-9.203310966E0,2.822763920E0
2.728126611E0,1.527500629E0,-9.188945770E0,2.839523315E0
2.730110075E0,1.529894829E0,-9.181763649E0,2.829946518E0
2.732124230E0,1.503558636E0,-9.169792175E0,2.834734917E0
2.734108155E0,1.491587639E0,-9.157821655E0,2.820369720E0
2.736122618E0,1.496376038E0,-9.145850182E0,2.803610086E0
2.738106390E0,1.484405041E0,-9.148244858E0,2.777273893E0
2.740120161E0,1.477222443E0,-9.148244858E0,2.784456491E0
2.742103855E0,1.448492050E0,-9.136273384E0,2.798821688E0
2.744116165E0,1.438915253E0,-9.121908188E0,2.815581083E0
2.746100781E0,1.429338455E0,-9.121908188E0,2.827552319E0
2.748116168E0,1.417367458E0,-9.131484985E0,2.829946518E0
2.750099016E0,1.410184860E0,-9.100360870E0,2.837129116E0
2.752113172E0,1.405396342E0,-9.090784073E0,2.832340717E0
2.754097174E0,1.398213744E0,-9.097966194E0,2.810792685E0
2.756111561E0,1.388636947E0,-9.112331390E0,2.803610086E0
2.758125486E0,1.388636947E0,-9.102754593E0,2.803610086E0
2.760109179E0,1.393425345E0,-9.105149269E0,2.808398485E0
2.762123335E0,1.381454349E0,-9.085995674E0,2.810792685E0
2.764107260E0,1.381454349E0,-9.090784073E0,2.810792685E0
2.766120877E0,1.393425345E0,-9.093177795E0,2.817975283E0
2.768104802E0,1.403002143E0,-9.083600998E0,2.813186884E0
2.770118650E0,1.398213744E0,-9.083600998E0,2.813186884E0
2.772102422E0,1.403002143E0,-9.071630478E0,2.825158119E0
2.774117192E0,1.403002143E0,-9.074024200E0,2.834734917E0
2.776100502E0,1.410184860E0,-9.088389397E0,2.849100113E0
2.778114119E0,1.407790542E0,-9.093177795E0,2.863465309E0
2.780098967E0,1.410184860E0,-9.100360870E0,2.858676910E0
2.782112277E0,1.414973259E0,-9.088389397E0,2.839523315E0
2.784125817E0,1.436521053E0,-9.112331390E0,2.849100113E0
2.786110742E0,1.438915253E0,-9.112331390E0,2.853888512E0
2.788124590E0,1.438915253E0,-9.114726067E0,2.844311714E0
2.790107361E0,1.460463047E0,-9.109937668E0,2.853888512E0
2.792122055E0,1.472434044E0,-9.109937668E0,2.851494312E0
2.794105826E0,1.479616642E0,-9.117119789E0,2.839523315E0
2.796119905E0,1.491587639E0,-9.121908188E0,2.827552319E0
2.798103061E0,1.501164436E0,-9.109937668E0,2.829946518E0
2.800118371E0,1.482010841E0,-9.107542992E0,2.851494312E0
2.802101756E0,1.491587639E0,-9.107542992E0,2.880224705E0
2.804116297E0,1.513135433E0,-9.105149269E0,2.892195702E0
2.806098068E0,1.534683347E0,-9.100360870E0,2.904166698E0
2.808113532E0,1.539471745E0,-9.095572472E0,2.901772499E0
2.810096841E0,1.541865945E0,-9.085995674E0,2.906560898E0
2.812110997E0,1.563413739E0,-9.093177795E0,2.928108692E0
2.814125538E0,1.570596337E0,-9.093177795E0,2.940079689E0
2.816108846E0,1.606509328E0,-9.088389397E0,2.925714493E0
2.818122772E0,1.637633920E0,-9.105149269E0,2.885013103E0
2.820107312E0,1.651999116E0,-9.117119789E0,2.853888512E0
2.822120314E0,1.678335428E0,-9.109937668E0,2.801215887E0
2.824103624E0,1.723825216E0,-9.097966194E0,2.779668093E0
2.826117549E0,1.750161409E0,-9.095572472E0,2.786850691E0
2.828102397E0,1.762132406E0,-9.097966194E0,2.801215887E0
2.830115936E0,1.776497602E0,-9.100360870E0,2.786850691E0
2.832099708E0,1.788468719E0,-9.095572472E0,2.784456491E0
2.834114094E0,1.814804912E0,-9.078812599E0,2.767697096E0
2.836098712E0,1.819593310E0,-9.097966194E0,2.772485495E0
2.838111637E0,1.841141105E0,-9.100360870E0,2.762908697E0
2.840126485E0,1.843535304E0,-9.093177795E0,2.772485495E0
2.842110178E0,1.843535304E0,-9.083600998E0,2.762908697E0
2.844124565E0,1.831564307E0,-9.090784073E0,2.753331900E0
2.846107951E0,1.805228114E0,-9.093177795E0,2.753331900E0
2.848121569E0,1.793257117E0,-9.081207275E0,2.746149302E0
2.850105571E0,1.786074519E0,-9.071630478E0,2.750937700E0
2.852119727E0,1.766920805E0,-9.066842079E0,2.753331900E0
2.854103344E0,1.750161409E0,-9.071630478E0,2.762908697E0
2.856117807E0,1.726219416E0,-9.069235802E0,2.758120298E0
2.858100962E0,1.711854219E0,-9.069235802E0,2.753331900E0
2.860116888E0,1.685518026E0,-9.085995674E0,2.760514498E0
2.862099351E0,1.659181833E0,-9.095572472E0,2.786850691E0
2.864112045E0,1.651999116E0,-9.107542992E0,2.796427488E0
2.866127970E0,1.649604917E0,-9.117119789E0,2.796427488E0
2.868112049E0,1.637633920E0,-9.121908188E0,2.798821688E0
2.870124358E0,1.625662923E0,-9.121908188E0,2.801215887E0
2.872109206E0,1.601720929E0,-9.124302864E0,2.798821688E0
2.874122747E0,1.582567334E0,-9.133879662E0,2.796427488E0
2.876106826E0,1.565807939E0,-9.136273384E0,2.791639090E0
2.878121212E0,1.546654344E0,-9.131484985E0,2.786850691E0
2.880105291E0,1.532289028E0,-9.148244858E0,2.798821688E0
2.882118832E0,1.527500629E0,-9.150638580E0,2.789244890E0
2.884103448E0,1.496376038E0,-9.150638580E0,2.817975283E0
2.886115758E0,1.462857246E0,-9.133879662E0,2.834734917E0
2.888099991E0,1.455674648E0,-9.126696587E0,2.829946518E0
2.890113839E0,1.424550056E0,-9.131484985E0,2.827552319E0
2.892097533E0,1.393425345E0,-9.138668060E0,2.832340717E0
2.894112381E0,1.374271750E0,-9.133879662E0,2.839523315E0
2.896126229E0,1.345541358E0,-9.145850182E0,2.846705914E0
2.898110461E0,1.340752959E0,-9.143456459E0,2.853888512E0
2.900124078E0,1.333570361E0,-9.143456459E0,2.851494312E0
2.902107465E0,1.319205165E0,-9.160215378E0,2.865859509E0
2.904120698E0,1.323993564E0,-9.179368973E0,2.865859509E0
2.906105315E0,1.335964561E0,-9.176975250E0,2.892195702E0
2.908119394E0,1.333570361E0,-9.193734169E0,2.901772499E0
2.910102550E0,1.328781962E0,-9.198522568E0,2.899378300E0
2.912116397E0,1.340752959E0,-9.193734169E0,2.908955097E0
2.914100707E0,1.347935557E0,-9.198522568E0,2.916137695E0
2.916114863E0,1.355118155E0,-9.198522568E0,2.918531895E0
2.918099096E0,1.376665950E0,-9.193734169E0,2.920926094E0
2.920113328E0,1.391031146E0,-9.215282440E0,2.908955097E0
2.922096407E0,1.403002143E0,-9.212887764E0,2.908955097E0
2.924111178E0,1.422155857E0,-9.212887764E0,2.904166698E0
2.926125026E0,1.429338455E0,-9.241618156E0,2.901772499E0
2.928108105E0,1.431732655E0,-9.239224434E0,2.899378300E0
2.930122183E0,1.458068848E0,-9.229647636E0,2.904166698E0
2.932105955E0,1.467645645E0,-9.232041359E0,2.908955097E0
2.934120649E0,1.462857246E0,-9.232041359E0,2.916137695E0
2.936103805E0,1.486799240E0,-9.222464561E0,2.930502892E0
2.938118576E0,1.501164436E0,-9.222464561E0,2.928108692E0
2.940103500E0,1.529894829E0,-9.229647636E0,2.913743496E0
2.942115194E0,1.551442742E0,-9.222464561E0,2.908955097E0
2.944099427E0,1.563413739E0,-9.222464561E0,2.901772499E0
2.946114583E0,1.565807939E0,-9.208099365E0,2.877830505E0
2.948097662E0,1.584961534E0,-9.210494041E0,2.877830505E0
2.950110895E0,1.601720929E0,-9.200917244E0,2.882618904E0
2.952126281E0,1.616086125E0,-9.198522568E0,2.882618904E0
2.954109898E0,1.599326730E0,-9.193734169E0,2.873042107E0
2.956123823E0,1.613691926E0,-9.191340446E0,2.870647907E0
2.958106902E0,1.625662923E0,-9.188945770E0,2.870647907E0
2.960122519E0,1.606509328E0,-9.184157372E0,2.877830505E0
2.962105290E0,1.613691926E0,-9.167398453E0,2.875436306E0
2.964119139E0,1.632845521E0,-9.165003777E0,2.873042107E0
2.966102833E0,1.620874524E0,-9.157821655E0,2.873042107E0
2.968116757E0,1.584961534E0,-9.165003777E0,2.870647907E0
2.970100759E0,1.587355733E0,-9.160215378E0,2.882618904E0
2.972114838E0,1.575384736E0,-9.169792175E0,2.882618904E0
2.974099148E0,1.558625340E0,-9.184157372E0,2.906560898E0
2.976113611E0,1.558625340E0,-9.172186852E0,2.918531895E0
2.978096152E0,1.558625340E0,-9.174580574E0,2.932897091E0
2.980111538E0,1.537077546E0,-9.181763649E0,2.956839085E0
2.982124462E0,1.544260144E0,-9.200917244E0,2.966415882E0
2.984108157E0,1.534683347E0,-9.210494041E0,2.966415882E0
2.986121697E0,1.505952835E0,-9.198522568E0,2.973598480E0
2.988105699E0,1.510741234E0,-9.208099365E0,2.987963676E0
2.990120701E0,1.510741234E0,-9.215282440E0,2.995146275E0
2.992104395E0,1.489193439E0,-9.220070839E0,3.014299870E0
2.994118244E0,1.462857246E0,-9.215282440E0,3.026270866E0
2.996101014E0,1.470039845E0,-9.232041359E0,3.038241863E0
2.998116400E0,1.477222443E0,-9.248801231E0,3.062183857E0
3.000100710E0,1.470039845E0,-9.248801231E0,3.069366693E0
3.002112789E0,1.460463047E0,-9.229647636E0,3.083731890E0
3.004128483E0,1.443703651E0,-9.232041359E0,3.107673883E0
3.006110870E0,1.426944256E0,-9.236829758E0,3.122039080E0
3.008125949E0,1.414973259E0,-9.263166428E0,3.138798475E0
3.010109335E0,1.419761658E0,-9.267954826E0,3.148375273E0
3.012123183E0,1.431732655E0,-9.265560150E0,3.145981073E0
3.014107492E0,1.434126854E0,-9.251194954E0,3.165134668E0
3.016121956E0,1.424550056E0,-9.253589630E0,3.193865061E0
3.018105343E0,1.419761658E0,-9.246406555E0,3.205836058E0
3.020120114E0,1.422155857E0,-9.275136948E0,3.229778051E0
3.022103499E0,1.431732655E0,-9.294290543E0,3.253720045E0
3.024116117E0,1.434126854E0,-9.291896820E0,3.258508444E0
3.026100503E0,1.453280449E0,-9.303867340E0,3.258508444E0
3.028114890E0,1.448492050E0,-9.325415611E0,3.258508444E0
3.030097661E0,1.462857246E0,-9.318233490E0,3.251325846E0
3.032112509E0,1.484405041E0,-9.344569206E0,3.258508444E0
3.034126665E0,1.489193439E0,-9.349357605E0,3.263296843E0
3.036110282E0,1.491587639E0,-9.349357605E0,3.270479441E0
3.038124207E0,1.513135433E0,-9.380482674E0,3.284844637E0
3.040109055E0,1.522712231E0,-9.387664795E0,3.311181068E0
3.042122288E0,1.561019540E0,-9.392453194E0,3.380612850E0
3.044106367E0,1.589749932E0,-9.433155060E0,3.390189648E0
3.046120138E0,1.604115129E0,-9.452308655E0,3.397372246E0
3.048103601E0,1.628057122E0,-9.457097054E0,3.418920040E0
3.050117679E0,1.651999116E0,-9.454702377E0,3.450044632E0
3.052101681E0,1.663970232E0,-9.466673851E0,3.452438831E0
3.054116145E0,1.695094824E0,-9.493009567E0,3.442862034E0
3.056099301E0,1.723825216E0,-9.507374763E0,3.426102638E0
3.058112841E0,1.740584612E0,-9.509769440E0,3.430891037E0
3.060128459E0,1.754949808E0,-9.509769440E0,3.464409828E0
3.062112153E0,1.762132406E0,-9.507374763E0,3.493140221E0
3.064120462E0,1.805228114E0,-9.519346237E0,3.502717018E0
3.066108156E0,1.819593310E0,-9.538499832E0,3.538630009E0
3.068123543E0,1.831564307E0,-9.536105156E0,3.552995205E0
3.070106929E0,1.865083098E0,-9.536105156E0,3.596091032E0
3.072120547E0,1.893813491E0,-9.545681953E0,3.600879431E0
3.074104549E0,1.898601890E0,-9.550470352E0,3.608062029E0
3.076118704E0,1.903390408E0,-9.557653427E0,3.634398222E0
3.078102090E0,1.922544003E0,-9.572018623E0,3.675099611E0
3.080117092E0,1.934514999E0,-9.576807022E0,3.689464808E0
3.082100863E0,1.958456993E0,-9.560047150E0,3.715801001E0
3.084114711E0,1.953668594E0,-9.583989143E0,3.730166197E0
3.086098329E0,1.960851192E0,-9.591172218E0,3.749319792E0
3.088112792E0,2.003946781E0,-9.617507935E0,3.785232782E0
3.090126948E0,2.011129379E0,-9.639056206E0,3.835511208E0
3.092110103E0,2.027888775E0,-9.653421402E0,3.852270603E0
3.094123336E0,2.047042370E0,-9.658209801E0,3.864241600E0
3.096107876E0,2.044648170E0,-9.679757118E0,3.881000996E0
3.098122417E0,2.075772762E0,-9.698910713E0,3.921702385E0
3.100106957E0,2.099714994E0,-9.708487511E0,3.971980572E0
3.102119959E0,2.106897593E0,-9.725247383E0,3.995922565E0
3.104103346E0,2.118868589E0,-9.739612579E0,4.031835556E0
3.106118039E0,2.140416384E0,-9.775525093E0,4.074931145E0
3.108101734E0,2.147598982E0,-9.775525093E0,4.098873138E0
3.110115351E0,2.188300371E0,-9.799467087E0,4.139574528E0
3.112099276E0,2.209848166E0,-9.828198433E0,4.192247391E0
3.114113201E0,2.221819162E0,-9.844957352E0,4.230554581E0
3.116127049E0,2.269703150E0,-9.871294022E0,4.307168961E0
3.118110744E0,2.284068346E0,-9.885659218E0,4.398148537E0
3.120126360E0,2.310404539E0,-9.907206535E0,4.455609322E0
3.122108516E0,2.334346771E0,-9.955090523E0,4.575319290E0
3.124123287E0,2.351106167E0,-1.000058079E1,4.704606533E0
3.126106674E0,2.355894566E0,-1.001255131E1,4.757278919E0
3.128121137E0,2.360682964E0,-1.005325317E1,4.862623692E0
3.130103908E0,2.365471363E0,-1.008437729E1,4.917690277E0
3.132118680E0,2.365471363E0,-1.013465595E1,5.056553841E0
3.134102758E0,2.408566952E0,-1.018972206E1,5.190629482E0
3.136115990E0,2.437297344E0,-1.022324085E1,5.257667065E0
3.138100531E0,2.475604534E0,-1.030224991E1,5.346252441E0
3.140116225E0,2.521094322E0,-1.036210537E1,5.413290024E0
3.142098073E0,2.542642117E0,-1.039801788E1,5.442020416E0
3.144108845E0,2.602497339E0,-1.046745014E1,5.506663799E0
3.146126077E0,2.674323320E0,-1.052969933E1,5.580883980E0
3.148108924E0,2.715024710E0,-1.057518864E1,5.635950565E0
3.150123388E0,2.810792685E0,-1.062067890E1,5.748478413E0
3.152107928E0,2.913743496E0,-1.068771648E1,5.793968201E0
3.154121546E0,2.966415882E0,-1.072123528E1,5.813121796E0
3.156105240E0,3.074155092E0,-1.079545593E1,5.825092793E0
3.158119088E0,3.220201254E0,-1.084333992E1,5.839457989E0
3.160104243E0,3.294421434E0,-1.086728191E1,5.837063789E0
3.162117168E0,3.435679436E0,-1.092713642E1,5.820304394E0
3.164101555E0,3.485957623E0,-1.093431950E1,5.815515995E0
3.166115634E0,3.605667830E0,-1.095826149E1,5.805939198E0
3.168099097E0,3.737348795E0,-1.096783829E1,5.774814606E0
3.170112946E0,3.794809580E0,-1.097980881E1,5.760449409E0
3.172127409E0,3.924096584E0,-1.099417400E1,5.719748020E0
3.174111025E0,4.029441357E0,-1.100375080E1,5.650316238E0
3.176124643E0,4.070142746E0,-1.099417400E1,5.614402771E0
3.178108568E0,4.151545525E0,-1.096783829E1,5.528211594E0
3.180123955E0,4.228160381E0,-1.094150162E1,5.437232018E0
3.182106726E0,4.266467571E0,-1.092953110E1,5.384559631E0
3.184119959E0,4.321534157E0,-1.090558910E1,5.291185856E0
3.186104884E0,4.369418144E0,-1.084812832E1,5.207388878E0
3.188118808E0,4.400542736E0,-1.082418633E1,5.171475887E0
3.190101194E0,4.448426723E0,-1.074757099E1,5.109226227E0
3.192116273E0,4.501099110E0,-1.067335129E1,5.044582844E0
3.194099737E0,4.529829502E0,-1.063983250E1,5.018246651E0
3.196114431E0,4.570530891E0,-1.060152531E1,4.970362663E0
3.198097895E0,4.589684486E0,-1.058237171E1,4.951209068E0
3.200112666E0,4.620809078E0,-1.052491093E1,4.912901878E0
3.202127052E0,4.644751072E0,-1.048899746E1,4.896142483E0
3.204110438E0,4.666299343E0,-1.046984386E1,4.874594688E0
3.206124056E0,4.704606533E0,-1.044829655E1,4.853046894E0
3.208107134E0,4.745307922E0,-1.042435455E1,4.831499100E0
3.210121829E0,4.754884720E0,-1.040520096E1,4.829104900E0
3.212105600E0,4.790797710E0,-1.038365269E1,4.829104900E0
3.214120294E0,4.826710701E0,-1.036449909E1,4.848258495E0
3.216103141E0,4.845864296E0,-1.036689377E1,4.867412090E0
3.218116913E0,4.879383087E0,-1.035731697E1,4.934449673E0
3.220101915E0,4.934449673E0,-1.034055710E1,5.049371243E0
3.222115994E0,4.967968464E0,-1.033098030E1,5.140350819E0
3.224097842E0,5.032611847E0,-1.031900978E1,5.336675644E0
3.226112305E0,5.061342239E0,-1.034295177E1,5.513846397E0
3.228126846E0,5.121197224E0,-1.034295177E1,5.578489780E0
3.230109924E0,5.219359875E0,-1.035731697E1,5.655104637E0
3.232124695E0,5.262455463E0,-1.035252857E1,5.674258232E0
3.234109235E0,5.351040840E0,-1.036210537E1,5.691017628E0
3.236122468E0,5.442020416E0,-1.037168217E1,5.714959621E0
3.238106163E0,5.489904404E0,-1.037407589E1,5.748478413E0
3.240121318E0,5.609614372E0,-1.036689377E1,5.815515995E0
3.242104628E0,5.724536419E0,-1.035971069E1,5.925649166E0
3.244118552E0,5.789179802E0,-1.034534550E1,6.007051945E0
3.246101631E0,5.918466568E0,-1.034055710E1,6.131550789E0
3.248116325E0,6.078877926E0,-1.036689377E1,6.172252178E0
3.250099404E0,6.167463779E0,-1.036689377E1,6.169857979E0
3.252113868E0,6.344634533E0,-1.035492229E1,6.172252178E0
3.254098562E0,6.500257492E0,-1.034055710E1,6.169857979E0
3.256112026E0,6.581660271E0,-1.033098030E1,6.165069580E0
3.258126565E0,6.773196697E0,-1.031422138E1,6.150704384E0
3.260110567E0,6.864176273E0,-1.029746151E1,6.138733387E0
3.262124031E0,7.024587631E0,-1.027591324E1,6.114790916E0
3.264106879E0,7.168240070E0,-1.023521233E1,6.110002518E0
3.266121342E0,7.249642849E0,-1.022802925E1,6.083666325E0
3.268105268E0,7.417236805E0,-1.019211674E1,6.021417141E0
3.270117962E0,7.565677166E0,-1.015620327E1,5.959167957E0
3.272102886E0,7.632715225E0,-1.015141487E1,5.923254967E0
3.274117888E0,7.778761387E0,-1.012986755E1,5.872976780E0
3.276100736E0,7.941566944E0,-1.006043530E1,5.834669590E0
3.278115507E0,8.027758598E0,-1.002931118E1,5.820304394E0
3.280098894E0,8.178592682E0,-9.986215591E0,5.774814606E0
3.282113665E0,8.334216118E0,-9.947908401E0,5.738901615E0
3.284096975E0,8.410830498E0,-9.945513725E0,5.722142220E0
3.286110514E0,8.552088737E0,-9.921571732E0,5.688623428E0
3.288125055E0,8.655038834E0,-9.883264542E0,5.662287235E0
3.290108364E0,8.707711220E0,-9.861717224E0,5.645527840E0
3.292122597E0,8.822632790E0,-9.799467087E0,5.592854977E0
3.294105676E0,8.875306129E0,-9.782708168E0,5.576095581E0
3.296120755E0,8.980650902E0,-9.749189377E0,5.544970989E0
3.298104142E0,9.083600998E0,-9.703699112E0,5.501875401E0
3.300119450E0,9.138668060E0,-9.677363396E0,5.468356609E0
3.302102606E0,9.205705643E0,-9.617507935E0,5.413290024E0
3.304115147E0,9.241618156E0,-9.564835548E0,5.367800236E0
3.306098533E0,9.253589630E0,-9.540893555E0,5.334281445E0
3.308113997E0,9.241618156E0,-9.469067574E0,5.279214859E0
3.310097307E0,9.222464561E0,-9.385271072E0,5.231330872E0
3.312112155E0,9.208099365E0,-9.349357605E0,5.202600479E0
3.314125694E0,9.169792175E0,-9.263166428E0,5.152322292E0
3.316110004E0,9.105149269E0,-9.162610054E0,5.106832027E0
3.318122852E0,9.078812599E0,-9.126696587E0,5.092466831E0
3.320108162E0,9.026140213E0,-9.042900085E0,5.061342239E0
3.322120779E0,8.951920509E0,-8.954314232E0,5.006275654E0
3.324105935E0,8.925583839E0,-8.920795441E0,4.991910458E0
3.326119245E0,8.863334656E0,-8.839392662E0,4.946420670E0
3.328102630E0,8.827422142E0,-8.822632790E0,4.939238071E0
3.330116709E0,8.777143478E0,-8.765172005E0,4.936843872E0
3.332101404E0,8.731653214E0,-8.724471092E0,4.939238071E0
3.334114867E0,8.714894295E0,-8.695740700E0,4.953603268E0
3.336098946E0,8.690952301E0,-8.655038834E0,5.013458252E0
3.338112410E0,8.688557625E0,-8.604761124E0,5.066130638E0
3.340127796E0,8.698134422E0,-8.590395927E0,5.087678432E0
3.342110336E0,8.712499619E0,-8.552088737E0,5.104437828E0
3.344124184E0,8.738836288E0,-8.523358345E0,5.099649429E0
3.346108801E0,8.757989883E0,-8.506598473E0,5.085284233E0
3.348122572E0,8.805873871E0,-8.482656479E0,5.073313236E0
3.350105344E0,8.870517731E0,-8.458714485E0,5.078101635E0
3.352120730E0,8.906430244E0,-8.439560890E0,5.073313236E0
3.354104193E0,8.968679428E0,-8.406042099E0,5.023035049E0
3.356118349E0,9.021351814E0,-8.367734909E0,4.932055473E0
3.358101428E0,9.100360870E0,-8.343792915E0,4.874594688E0
3.360116430E0,9.155426979E0,-8.300697327E0,4.793191910E0
3.362098893E0,9.179368973E0,-8.279149055E0,4.762067318E0
3.364113664E0,9.258378029E0,-8.192957878E0,4.683058739E0
3.366127820E0,9.291896820E0,-8.106766701E0,4.620809078E0
3.368110898E0,9.318233490E0,-8.056488991E0,4.601655483E0
3.370125439E0,9.349357605E0,-7.984662533E0,4.601655483E0
3.372109441E0,9.368511200E0,-7.910442352E0,4.592078686E0
3.374123289E0,9.373299599E0,-7.879317760E0,4.589684486E0
3.376106906E0,9.394847870E0,-7.795520782E0,4.627991676E0
3.378122062E0,9.414001465E0,-7.738059998E0,4.659116745E0
3.380105372E0,9.421183586E0,-7.709329605E0,4.663905144E0
3.382118988E0,9.409213066E0,-7.637503624E0,4.639962673E0
3.384102375E0,9.373299599E0,-7.553706169E0,4.594472885E0
3.386115915E0,9.370905876E0,-7.513004780E0,4.565742493E0
3.388100148E0,9.351752281E0,-7.422025204E0,4.532223701E0
3.390114688E0,9.342175484E0,-7.343016624E0,4.527435303E0
3.392097152E0,9.311050415E0,-7.299921036E0,4.541800499E0
3.394112231E0,9.263166428E0,-7.216124058E0,4.568136692E0
3.396126309E0,9.229647636E0,-7.165845871E0,4.582501888E0
3.398110311E0,9.155426979E0,-7.082048416E0,4.589684486E0
3.400125082E0,9.093177795E0,-6.971915245E0,4.627991676E0
3.402107853E0,9.064447403E0,-6.931213856E0,4.644751072E0
3.404123240E0,8.999804497E0,-6.840234280E0,4.659116745E0
3.406105780E0,8.973467827E0,-6.770802498E0,4.668693542E0
3.408119552E0,8.987833023E0,-6.742072105E0,4.663905144E0
3.410103630E0,9.040505409E0,-6.708553314E0,4.630385876E0
3.412117401E0,9.131484985E0,-6.672640324E0,4.560954094E0
3.414101480E0,9.179368973E0,-6.658275127E0,4.510675907E0
3.416115251E0,9.275136948E0,-6.617573261E0,4.424484730E0
3.418099638E0,9.375694275E0,-6.567295074E0,4.362235546E0
3.420114640E0,9.430760384E0,-6.548141479E0,4.347870350E0
3.422097180E0,9.557653427E0,-6.497863293E0,4.338293552E0
3.424110643E0,9.607931137E0,-6.454767704E0,4.347870350E0
3.426126029E0,9.677363396E0,-6.349422932E0,4.355052948E0
3.428109416E0,9.756371498E0,-6.258443356E0,4.340687752E0
3.430122418E0,9.828198433E0,-6.198588371E0,4.355052948E0
3.432106958E0,9.928754807E0,-6.078877926E0,4.340687752E0
3.434120883E0,1.000776291E1,-5.942408562E0,4.290409565E0
3.436104885E0,1.003409958E1,-5.872976780E0,4.266467571E0
3.438119040E0,1.013226128E1,-5.746084213E0,4.225766182E0
3.440102965E0,1.023042393E1,-5.619191170E0,4.201824188E0
3.442115967E0,1.026873112E1,-5.552153587E0,4.168305397E0
3.444101123E0,1.037886429E1,-5.446808815E0,4.134786129E0
3.446113818E0,1.046026707E1,-5.317522049E0,4.103661537E0
3.448097820E0,1.049139214E1,-5.245696068E0,4.091690540E0
3.450111898E0,1.057040024E1,-5.109226227E0,4.108449936E0
3.452125823E0,1.064462090E1,-5.008669853E0,4.070142746E0
3.454110363E0,1.067335129E1,-4.958391666E0,4.019864559E0
3.456124211E0,1.075954247E1,-4.874594688E0,3.928884983E0
3.458108290E0,1.079306126E1,-4.814739704E0,3.864241600E0
3.460123677E0,1.085291672E1,-4.690241337E0,3.768473387E0
3.462106063E0,1.091516590E1,-4.589684486E0,3.689464808E0
3.464118988E0,1.092953110E1,-4.544194698E0,3.663128614E0
3.466103605E0,1.098220348E1,-4.450820923E0,3.612850428E0
3.468118068E0,1.098699188E1,-4.357447147E0,3.557783842E0
3.470100301E0,1.097980881E1,-4.302380562E0,3.526659012E0
3.472114765E0,1.095826149E1,-4.204218388E0,3.478775024E0
3.474098767E0,1.091277122E1,-4.084507942E0,3.433285236E0
3.476112615E0,1.089361763E1,-4.031835556E0,3.402160645E0
3.478127386E0,1.087925243E1,-3.933673382E0,3.332728863E0
3.480112002E0,1.084812832E1,-3.845088005E0,3.263296843E0
3.482125235E0,1.081939793E1,-3.797203779E0,3.229778051E0
3.484109468E0,1.076672459E1,-3.691859007E0,3.193865061E0
3.486122778E0,1.073081207E1,-3.608062029E0,3.193865061E0
3.488107010E0,1.067574501E1,-3.569754839E0,3.174711466E0
3.490120551E0,1.060631371E1,-3.464409828E0,3.160346270E0
3.492104244E0,1.055364132E1,-3.418920040E0,3.143586874E0
3.494118400E0,1.043393135E1,-3.325546265E0,3.100491285E0
3.496102171E0,1.029506683E1,-3.227383852E0,3.052607059E0
3.498116250E0,1.022802925E1,-3.181894064E0,3.038241863E0
3.500100945E0,1.010353088E1,-3.088520288E0,3.021482468E0
3.502114408E0,9.993397713E0,-2.997540474E0,3.009511471E0
3.504097179E0,9.933543205E0,-2.952050686E0,2.995146275E0
3.506112257E0,9.835380554E0,-2.899378300E0,2.964021683E0
3.508126798E0,9.765948296E0,-2.829946518E0,2.920926094E0
3.510109184E0,9.732429504E0,-2.789244890E0,2.899378300E0
3.512123725E0,9.653421402E0,-2.755726099E0,2.875436306E0
3.514108342E0,9.603142738E0,-2.717418909E0,2.889801502E0
3.516121498E0,9.569623947E0,-2.681505919E0,2.899378300E0
3.518105500E0,9.495404243E0,-2.604891539E0,2.949656487E0
3.520120347E0,9.457097054E0,-2.516305923E0,2.992752075E0
3.522103426E0,9.397241592E0,-2.470816135E0,2.983175278E0
3.524118197E0,9.303867340E0,-2.375048161E0,2.913743496E0
3.526101584E0,9.253589630E0,-2.317587137E0,2.861071110E0
3.528115663E0,9.153033257E0,-2.202665567E0,2.774879694E0
3.530098434E0,9.038111687E0,-2.063801765E0,2.731784105E0
3.532112667E0,8.999804497E0,-1.987187386E0,2.717418909E0
3.534127437E0,8.927978516E0,-1.860294700E0,2.686294317E0
3.536110747E0,8.868123055E0,-1.719036818E0,2.592920542E0
3.538125287E0,8.848969460E0,-1.656787634E0,2.533065319E0
3.540108982E0,8.851364136E0,-1.541865945E0,2.449268341E0
3.542121830E0,8.865729332E0,-1.417367458E0,2.379836559E0
3.544105293E0,8.887276649E0,-1.345541358E0,2.358288765E0
3.546119449E0,8.901641846E0,-1.230619669E0,2.343923569E0
3.548104373E0,8.899248123E0,-1.120486379E0,2.365471363E0
3.550118145E0,8.894459724E0,-1.074996591E0,2.377442360E0
3.552101839E0,8.865729332E0,-9.672574997E-1,2.415749550E0
3.554115995E0,8.827422142E0,-8.643068075E-1,2.451662540E0
3.556099689E0,8.750806808E0,-8.188169599E-1,2.513911724E0
3.558113537E0,8.628703117E0,-7.254431248E-1,2.583343744E0
3.560129616E0,8.566453934E0,-6.919242740E-1,2.609679937E0
3.562112079E0,8.453926086E0,-5.913678408E-1,2.647987127E0
3.564126850E0,8.317456245E0,-5.003881454E-1,2.705447912E0
3.566110160E0,8.240841866E0,-4.644751251E-1,2.736572504E0
3.568123700E0,8.066065788E0,-3.878606856E-1,2.791639090E0
3.570107394E0,7.900865555E0,-3.160346150E-1,2.813186884E0
3.572121319E0,7.812280178E0,-2.777273953E-1,2.808398485E0
3.574105245E0,7.632715225E0,-1.604115069E-1,2.803610086E0
3.576119476E0,7.445967197E0,-7.422025502E-2,2.779668093E0
3.578103094E0,7.352593422E0,-3.591302410E-2,2.779668093E0
3.580117557E0,7.129932880E0,8.379705995E-2,2.803610086E0
3.582100713E0,7.024587631E0,1.987187415E-1,2.798821688E0
3.584113638E0,6.813898087E0,2.489969730E-1,2.815581083E0
3.586130256E0,6.579266071E0,3.543418646E-1,2.837129116E0
3.588113565E0,6.473921299E0,4.261679053E-1,2.832340717E0
3.590126182E0,6.272808552E0,5.506663918E-1,2.796427488E0
3.592110876E0,6.074089527E0,6.799532771E-1,2.736572504E0
3.594124955E0,5.968744755E0,7.589619160E-1,2.710236311E0
3.596108111E0,5.772420406E0,9.026140571E-1,2.667140722E0
3.598121882E0,5.566518784E0,1.034295082E0,2.621650934E0
3.600107115E0,5.477933407E0,1.127668977E0,2.607285738E0
3.602120348E0,5.317522049E0,1.266532660E0,2.595314741E0
3.604104964E0,5.193023682E0,1.419761658E0,2.578555346E0
3.606117966E0,5.137956619E0,1.486799240E0,2.557007313E0
3.608101660E0,5.068524837E0,1.630451322E0,2.530671120E0
3.610116124E0,5.020640850E0,1.766920805E0,2.511517525E0
3.612099510E0,4.982333660E0,1.814804912E0,2.485181332E0
3.614113974E0,5.006275654E0,1.956062794E0,2.408566952E0
3.616097361E0,5.001487255E0,2.106897593E0,2.535459518E0
3.618111823E0,4.996698856E0,2.149993181E0,2.559401512E0
3.620126825E0,5.042188644E0,2.252943754E0,2.509123325E0
3.622110519E0,5.073313236E0,2.310404539E0,2.444479942E0
3.624122906E0,5.125985622E0,2.413355350E0,2.353500366E0
3.626107447E0,5.149928093E0,2.497152328E0,2.298433542E0
3.628121679E0,5.149928093E0,2.545036316E0,2.279279947E0
3.630105297E0,5.135562420E0,2.638410330E0,2.257732153E0
3.632118605E0,5.078101635E0,2.719813108E0,2.255337954E0
3.634102607E0,5.046977043E0,2.755726099E0,2.260126352E0
3.636116763E0,4.934449673E0,2.849100113E0,2.276885748E0
3.638100688E0,4.790797710E0,2.944868088E0,2.276885748E0
3.640115536E0,4.721365929E0,2.973598480E0,2.269703150E0
3.642098308E0,4.589684486E0,3.069366693E0,2.252943754E0
3.644113387E0,4.472368717E0,3.162740469E0,2.212242365E0
3.646126003E0,4.395754337E0,3.193865061E0,2.188300371E0
3.648110620E0,4.264073372E0,3.277662039E0,2.140416384E0
3.650124776E0,4.194641590E0,3.356670856E0,2.121262789E0
3.652107778E0,4.060565948E0,3.402160645E0,2.126051188E0
3.654122626E0,3.938461781E0,3.469198227E0,2.147598982E0
3.656105705E0,3.866635799E0,3.514688015E0,2.161964178E0
3.658120092E0,3.715801001E0,3.574543238E0,2.176329374E0
3.660105324E0,3.552995205E0,3.663128614E0,2.173935175E0
3.662117941E0,3.473986626E0,3.715801001E0,2.195482969E0
3.664102020E0,3.323152065E0,3.804386616E0,2.219424963E0
3.666117022E0,3.181894064E0,3.883395195E0,2.255337954E0
3.668099870E0,3.105279684E0,3.933673382E0,2.279279947E0
3.670112488E0,2.961627483E0,4.007893562E0,2.327163935E0
3.672127489E0,2.801215887E0,4.094084740E0,2.353500366E0
3.674111875E0,2.734178305E0,4.139574528E0,2.370259762E0
3.676125954E0,2.619256735E0,4.218583584E0,2.403778553E0
3.678109110E0,2.504334927E0,4.309563160E0,2.422932148E0
3.680124189E0,2.442085743E0,4.362235546E0,2.427720547E0
3.682107576E0,2.367865562E0,4.429273129E0,2.444479942E0
3.684121424E0,2.339135170E0,4.501099110E0,2.446874142E0
3.686104732E0,2.274491549E0,4.541800499E0,2.408566952E0
3.688119504E0,2.217030764E0,4.639962673E0,2.363077164E0
3.690102275E0,2.200271368E0,4.673481941E0,2.346317768E0
3.692117431E0,2.190694571E0,4.745307922E0,2.319981337E0
3.694100740E0,2.207453966E0,4.819528103E0,2.296039343E0
3.696114589E0,2.226607561E0,4.874594688E0,2.284068346E0
3.698098283E0,2.260126352E0,4.951209068E0,2.250549555E0
3.700113745E0,2.315192938E0,5.008669853E0,2.226607561E0
3.702126594E0,2.341529369E0,5.046977043E0,2.219424963E0
3.704109442E0,2.403778553E0,5.106832027E0,2.209848166E0
3.706123521E0,2.437297344E0,5.178658485E0,2.202665567E0
3.708107830E0,2.458845139E0,5.209783077E0,2.200271368E0
3.710122063E0,2.494758129E0,5.257667065E0,2.183511972E0
3.712105450E0,2.494758129E0,5.307945251E0,2.147598982E0
3.714120220E0,2.477998734E0,5.339069843E0,2.128445387E0
3.716103837E0,2.444479942E0,5.386953831E0,2.104503393E0
3.718117686E0,2.432508945E0,5.413290024E0,2.080561161E0
3.720102380E0,2.370259762E0,5.470750809E0,2.078166962E0
3.722115305E0,2.281674147E0,5.523423195E0,2.061407566E0
3.724099845E0,2.233790159E0,5.547365189E0,2.056619167E0
3.726113155E0,2.147598982E0,5.597643375E0,2.035071373E0
3.728127541E0,2.066195965E0,5.619191170E0,1.999158382E0
3.730111235E0,2.027888775E0,5.650316238E0,1.975216389E0
3.732125468E0,1.958456993E0,5.702988625E0,1.934514999E0
3.734109162E0,1.881842494E0,5.753266811E0,1.924938202E0
3.736123010E0,1.850717902E0,5.760449409E0,1.932120800E0
3.738106705E0,1.798045516E0,5.789179802E0,1.968033791E0
3.740121784E0,1.769315004E0,5.832275391E0,2.015917778E0
3.742104861E0,1.740584612E0,5.849034786E0,2.047042370E0
3.744118325E0,1.714248419E0,5.920860767E0,2.106897593E0
3.746102019E0,1.704671621E0,5.937620163E0,2.193088770E0
3.748116791E0,1.666364431E0,5.954379559E0,2.219424963E0
3.750099562E0,1.637633920E0,5.968744755E0,2.298433542E0
3.752115025E0,1.628057122E0,5.975927353E0,2.336740971E0
3.754098104E0,1.611297727E0,5.978321552E0,2.422932148E0
3.756112182E0,1.623268723E0,6.007051945E0,2.521094322E0
3.758126107E0,1.616086125E0,5.999869347E0,2.559401512E0
3.760110109E0,1.625662923E0,6.004657745E0,2.638410330E0
3.762123573E0,1.663970232E0,5.992686749E0,2.695871115E0
3.764108190E0,1.680729628E0,5.973533154E0,2.710236311E0
3.766122115E0,1.731007814E0,5.956773758E0,2.750937700E0
3.768105425E0,1.762132406E0,5.949591160E0,2.825158119E0
3.770119657E0,1.781286120E0,5.937620163E0,2.851494312E0
3.772102659E0,1.824381709E0,5.916072369E0,2.920926094E0
3.774117815E0,1.843535304E0,5.875370979E0,3.007117271E0
3.776101740E0,1.855506301E0,5.858611584E0,3.038241863E0
3.778115049E0,1.841141105E0,5.846640587E0,3.081337690E0
3.780099667E0,1.838746905E0,5.801150799E0,3.093308687E0
3.782114130E0,1.795651317E0,5.793968201E0,3.131615877E0
3.784096285E0,1.721431017E0,5.767632008E0,3.167528868E0
3.786110441E0,1.685518026E0,5.738901615E0,3.174711466E0
3.788125520E0,1.589749932E0,5.712565422E0,3.174711466E0
3.790108830E0,1.486799240E0,5.693411827E0,3.162740469E0
3.792122447E0,1.429338455E0,5.686229229E0,3.150769472E0
3.794106757E0,1.309628367E0,5.671864033E0,3.141192675E0
3.796120913E0,1.206677675E0,5.679046631E0,3.102885485E0
3.798104529E0,1.173158884E0,5.691017628E0,3.088520288E0
3.800119069E0,1.096544385E0,5.726930618E0,3.059789658E0
3.802102995E0,1.034295082E0,5.743690014E0,3.040636063E0
3.804116612E0,1.017535686E0,5.784391403E0,3.033453465E0
3.806100306E0,9.744400978E-1,5.834669590E0,3.009511471E0
3.808114154E0,9.696516991E-1,5.916072369E0,3.002328873E0
3.810098155E0,9.672574997E-1,5.956773758E0,3.002328873E0
3.812111619E0,9.744400978E-1,6.040570736E0,2.999934673E0
3.814126698E0,9.816226959E-1,6.160281181E0,2.997540474E0
3.816110161E0,1.015141487E0,6.208165169E0,2.990357876E0
3.818123625E0,1.034295082E0,6.296750546E0,2.997540474E0
3.820108550E0,1.053448796E0,6.356605530E0,3.004723072E0
3.822121783E0,1.074996591E0,6.507440090E0,3.026270866E0
3.824104245E0,1.096544385E0,6.627150536E0,3.040636063E0
3.826120017E0,1.113303781E0,6.689399719E0,3.040636063E0
3.828104326E0,1.170764685E0,6.792350292E0,3.035847664E0
3.830116328E0,1.221042871E0,6.873753071E0,3.062183857E0
3.832101176E0,1.249773264E0,6.900089264E0,3.090914488E0
3.834115102E0,1.288080573E0,6.945579052E0,3.155557871E0
3.836098796E0,1.350329757E0,6.976703644E0,3.260902643E0
3.838112643E0,1.403002143E0,6.988674641E0,3.315969467E0
3.840127722E0,1.515529633E0,7.007828236E0,3.354276657E0
3.842110493E0,1.647210717E0,7.019799232E0,3.325546265E0
3.844125187E0,1.704671621E0,7.003039837E0,3.294421434E0
3.846108266E0,1.802833915E0,6.995857239E0,3.248931646E0
3.848122192E0,1.843535304E0,6.998251438E0,3.260902643E0
3.850106501E0,1.920149803E0,7.010222435E0,3.409343243E0
3.852120348E0,1.975216389E0,6.981492043E0,3.694253206E0
3.854104350E0,1.991975784E0,6.959944248E0,3.825934410E0
3.856118429E0,1.991975784E0,6.926425457E0,4.005499363E0
3.858102431E0,1.910573006E0,6.897695065E0,4.058171749E0
3.860116895E0,1.836352706E0,6.871358871E0,4.091690540E0
3.862100358E0,1.644816518E0,6.823474884E0,4.197035789E0
3.864111668E0,1.386242747E0,6.773196697E0,4.333505154E0
3.866127131E0,1.237802267E0,6.756437302E0,4.410119534E0
3.868111133E0,9.074024558E-1,6.742072105E0,4.529829502E0
3.870125827E0,5.578489900E-1,6.746860504E0,4.613626480E0
3.872109521E0,3.830722570E-1,6.751648903E0,4.647145271E0
3.874124292E0,5.985504389E-2,6.754043102E0,4.735731125E0
3.876107987E0,-1.077390760E-1,6.763619900E0,4.872200489E0
3.878121835E0,-4.261679053E-1,6.782773495E0,4.946420670E0
3.880106144E0,-7.493851185E-1,6.780379295E0,5.056553841E0
3.882119453E0,-8.667010069E-1,6.787561893E0,5.085284233E0
3.884103148E0,-1.079784989E0,6.813898087E0,5.070919037E0
3.886116996E0,-1.225831270E0,6.845022678E0,5.020640850E0
3.888100998E0,-1.271321058E0,6.861782074E0,4.975151062E0
3.890114769E0,-1.323993564E0,6.912060261E0,4.908113480E0
3.892098233E0,-1.314416766E0,6.981492043E0,4.833893299E0
3.894112618E0,-1.290474772E0,7.015010834E0,4.802768707E0
3.896127389E0,-1.192312479E0,7.096413612E0,4.742913723E0
3.898110776E0,-1.067813993E0,7.201758862E0,4.683058739E0
3.900125624E0,-9.935936928E-1,7.244854450E0,4.647145271E0
3.902109319E0,-7.948749661E-1,7.347805023E0,4.575319290E0
3.904121859E0,-5.746083856E-1,7.445967197E0,4.484339714E0
3.906107169E0,-4.405331016E-1,7.491456985E0,4.419696331E0
3.908121247E0,-1.699883193E-1,7.608773232E0,4.297592163E0
3.910103095E0,-4.788403213E-2,7.723694801E0,4.237737179E0
3.912118174E0,2.082955539E-1,7.769184589E0,4.094084740E0
3.914102560E0,4.477157295E-1,7.888894558E0,3.974374771E0
3.916115793E0,5.722141862E-1,7.946355343E0,3.933673382E0
3.918099487E0,7.829039693E-1,8.025363922E0,3.849876404E0
3.920114259E0,9.816226959E-1,8.125920296E0,3.778050184E0
3.922097875E0,1.072602391E0,8.169015884E0,3.744531393E0
3.924112339E0,1.235408068E0,8.228871346E0,3.672705412E0
3.926126187E0,1.393425345E0,8.295908928E0,3.598485231E0
3.928109035E0,1.477222443E0,8.319850922E0,3.560178041E0
3.930123806E0,1.599326730E0,8.355764389E0,3.483563423E0
3.932106885E0,1.699883223E0,8.372523308E0,3.452438831E0
3.934121272E0,1.728613615E0,8.384494781E0,3.445256233E0
3.936104965E0,1.793257117E0,8.396465302E0,3.387795448E0
3.938118582E0,1.829170108E0,8.432378769E0,3.292027235E0
3.940103507E0,1.826775908E0,8.453926086E0,3.224989653E0
3.942116740E0,1.819593310E0,8.446743965E0,3.102885485E0
3.944100050E0,1.838746905E0,8.456320763E0,3.090914488E0
3.946113975E0,1.908178806E0,8.453926086E0,3.227383852E0
3.948129285E0,2.025494576E0,8.432378769E0,3.409343243E0
3.950112055E0,2.092532396E0,8.415618896E0,3.440467834E0
3.952126826E0,2.207453966E0,8.391676903E0,3.421314240E0
3.954110828E0,2.312798738E0,8.367734909E0,3.387795448E0
3.956124753E0,2.360682964E0,8.355764389E0,3.378218651E0
3.958108140E0,2.442085743E0,8.336610794E0,3.359065056E0
3.960123450E0,2.518700123E0,8.355764389E0,3.347094059E0
3.962105990E0,2.549824715E0,8.370129585E0,3.342305660E0
3.964120453E0,2.583343744E0,8.389283180E0,3.339911461E0
3.966103762E0,2.614468336E0,8.391676903E0,3.315969467E0
3.968117995E0,2.633621931E0,8.384494781E0,3.313575268E0
3.970101920E0,2.679111719E0,8.382100105E0,3.306392431E0
3.972116076E0,2.712630510E0,8.396465302E0,3.301604033E0
3.974099770E0,2.743755102E0,8.410830498E0,3.287238836E0
3.976113388E0,2.794033289E0,8.434772491E0,3.265691042E0
3.978127543E0,2.834734917E0,8.477868080E0,3.256114244E0
3.980112391E0,2.925714493E0,8.487444878E0,3.251325846E0
3.982125624E0,3.011905670E0,8.508993149E0,3.258508444E0
3.984108702E0,3.064578056E0,8.530540466E0,3.258508444E0
3.986123858E0,3.145981073E0,8.547300339E0,3.280056238E0
3.988107245E0,3.239354849E0,8.590395927E0,3.294421434E0
3.990120707E0,3.280056238E0,8.614337921E0,3.303998232E0
3.992104094E0,3.359065056E0,8.650250435E0,3.306392431E0
3.994119173E0,3.430891037E0,8.688557625E0,3.325546265E0
3.996102560E0,3.454833031E0,8.695740700E0,3.332728863E0
3.998116177E0,3.507505417E0,8.712499619E0,3.351882458E0
4.000100717E0,3.552995205E0,8.736441612E0,3.366247654E0
4.002114027E0,3.564966440E0,8.748413086E0,3.378218651E0
4.004129644E0,3.572149038E0,8.777143478E0,3.392583847E0
4.006112799E0,3.586514235E0,8.791508675E0,3.414131641E0
4.008126878E0,3.593696833E0,8.793902397E0,3.426102638E0
4.010109957E0,3.596091032E0,8.810662270E0,3.423708439E0
4.012124421E0,3.591302633E0,8.805873871E0,3.430891037E0
4.014108423E0,3.572149038E0,8.815450668E0,3.442862034E0
4.016122271E0,3.545812607E0,8.805873871E0,3.452438831E0
4.018105734E0,3.526659012E0,8.813055992E0,3.464409828E0
4.020121351E0,3.509899616E0,8.820239067E0,3.485957623E0
4.022103891E0,3.485957623E0,8.803479195E0,3.517082214E0
4.024118047E0,3.471592426E0,8.793902397E0,3.526659012E0
4.026101049E0,3.438073635E0,8.767566681E0,3.557783842E0
4.028115820E0,3.397372246E0,8.757989883E0,3.584120035E0
4.030098976E0,3.385401249E0,8.738836288E0,3.605667830E0
4.032113131E0,3.325546265E0,8.722076416E0,3.632004023E0
4.034127825E0,3.246537447E0,8.714894295E0,3.667917013E0
4.036111520E0,3.213018656E0,8.695740700E0,3.679888010E0
4.038125060E0,3.134010077E0,8.676587105E0,3.708618402E0
4.040109985E0,3.088520288E0,8.655038834E0,3.725377798E0
4.042123218E0,3.007117271E0,8.640673637E0,3.742137194E0
4.044107220E0,2.901772499E0,8.626308441E0,3.787626982E0
4.046121760E0,2.851494312E0,8.621520042E0,3.804386616E0
4.048104454E0,2.736572504E0,8.590395927E0,3.849876404E0
4.050119225E0,2.626439333E0,8.580819130E0,3.871424198E0
4.052102612E0,2.578555346E0,8.571242332E0,3.888183594E0
4.054117075E0,2.499546528E0,8.576030731E0,3.931279182E0
4.056100462E0,2.391807556E0,8.580819130E0,3.950432777E0
4.058114002E0,2.341529369E0,8.588001251E0,3.960009575E0
4.060129465E0,2.260126352E0,8.576030731E0,3.967192173E0
4.062112159E0,2.205059767E0,8.573636055E0,3.983951569E0
4.064125777E0,2.169146776E0,8.573636055E0,3.981557369E0
4.066111009E0,2.111685991E0,8.576030731E0,3.974374771E0
4.068124550E0,2.085349798E0,8.599972725E0,3.969586372E0
4.070107244E0,2.078166962E0,8.604761124E0,3.986345768E0
4.072121708E0,2.080561161E0,8.614337921E0,3.995922565E0
4.074105401E0,2.090138197E0,8.647856712E0,3.998316765E0
4.076120172E0,2.082955360E0,8.659827232E0,4.000710964E0
4.078103020E0,2.102109194E0,8.702922821E0,4.007893562E0
4.080118715E0,2.121262789E0,8.705317497E0,4.000710964E0
4.082101717E0,2.128445387E0,8.714894295E0,3.991134167E0
4.084115873E0,2.149993181E0,8.726864815E0,3.991134167E0
4.086098721E0,2.166752577E0,8.748413086E0,3.991134167E0
4.088113799E0,2.195482969E0,8.779537201E0,3.993528366E0
4.090127339E0,2.209848166E0,8.810662270E0,4.003105164E0
4.092111649E0,2.221819162E0,8.820239067E0,4.003105164E0
4.094125189E0,2.238578558E0,8.813055992E0,3.993528366E0
4.096109730E0,2.240972757E0,8.810662270E0,3.986345768E0
4.098123655E0,2.240972757E0,8.813055992E0,3.986345768E0
4.100107041E0,2.236184359E0,8.836998940E0,3.979163170E0
4.102121119E0,2.240972757E0,8.829815865E0,3.960009575E0
4.104103583E0,2.250549555E0,8.820239067E0,3.960009575E0
4.106117739E0,2.248155355E0,8.825027466E0,3.957615376E0
4.108102741E0,2.243366957E0,8.825027466E0,3.964797974E0
4.110115974E0,2.224213362E0,8.813055992E0,3.940855980E0
4.112099591E0,2.236184359E0,8.803479195E0,3.936067581E0
4.114114978E0,2.231395960E0,8.793902397E0,3.938461781E0
4.116097748E0,2.226607561E0,8.781931877E0,3.936067581E0
4.118111981E0,2.231395960E0,8.769960403E0,3.909731388E0
4.120127675E0,2.240972757E0,8.760383606E0,3.904942989E0
4.122109754E0,2.248155355E0,8.729259491E0,3.902548790E0
4.124124294E0,2.236184359E0,8.722076416E0,3.914519787E0
4.126107989E0,2.240972757E0,8.710105896E0,3.921702385E0
4.128121760E0,2.252943754E0,8.678980827E0,3.916913986E0
4.130104299E0,2.248155355E0,8.662221909E0,3.909731388E0
4.132119917E0,2.248155355E0,8.650250435E0,3.912125587E0
4.134103996E0,2.238578558E0,8.623914719E0,3.936067581E0
4.136117151E0,2.236184359E0,8.609549522E0,3.931279182E0
4.138100615E0,2.229001760E0,8.597578049E0,3.931279182E0
4.140116232E0,2.214636564E0,8.580819130E0,3.928884983E0
4.142099080E0,2.212242365E0,8.566453934E0,3.928884983E0
4.144112620E0,2.212242365E0,8.568847656E0,3.950432777E0
4.146128314E0,2.209848166E0,8.568847656E0,3.948038578E0
4.148112316E0,2.205059767E0,8.571242332E0,3.943250179E0
4.150124626E0,2.183511972E0,8.604761124E0,3.928884983E0
4.152108859E0,2.161964178E0,8.640673637E0,3.943250179E0
4.154123092E0,2.147598982E0,8.652645111E0,3.938461781E0
4.156105862E0,2.116474390E0,8.676587105E0,3.914519787E0
4.158120325E0,2.094926596E0,8.729259491E0,3.914519787E0
4.160104558E0,2.085349798E0,8.750806808E0,3.914519787E0
4.162118791E0,2.082955360E0,8.793902397E0,3.904942989E0
4.164102716E0,2.039859772E0,8.829815865E0,3.895366192E0
4.166116564E0,2.027888775E0,8.853757858E0,3.890577793E0
4.168099643E0,1.999158382E0,8.901641846E0,3.878606796E0
4.170114106E0,1.991975784E0,8.944737434E0,3.878606796E0
4.172128262E0,1.994369984E0,8.966285706E0,3.866635799E0
4.174112340E0,1.991975784E0,8.980650902E0,3.857059002E0
4.176126112E0,1.982398987E0,8.992621422E0,3.845088005E0
4.178109575E0,1.968033791E0,9.002198219E0,3.823540211E0
4.180124962E0,1.972822189E0,9.016563416E0,3.792415380E0
4.182107425E0,1.970427990E0,9.018958092E0,3.775655985E0
4.184121811E0,1.982398987E0,8.995016098E0,3.763684988E0
4.186104044E0,2.008735180E0,8.987833023E0,3.749319792E0
4.188118815E0,2.025494576E0,8.975862503E0,3.739742994E0
4.190103048E0,2.044648170E0,8.942343712E0,3.734954596E0
4.192116973E0,2.044648170E0,8.899248123E0,3.722983599E0
4.194101206E0,2.047042370E0,8.892065048E0,3.708618402E0
4.196115054E0,2.042253971E0,8.860940933E0,3.701435804E0
4.198099055E0,2.030282974E0,8.825027466E0,3.706224203E0
4.200113595E0,2.030282974E0,8.815450668E0,3.708618402E0
