"Time (s)","Gyroscope x (rad/s)","Gyroscope y (rad/s)","Gyroscope z (rad/s)"
3.971539000E-3,-1.282817032E-2,-2.498438805E-1,6.658431143E-2
6.017925000E-3,-1.282817032E-2,-2.498438805E-1,6.658431143E-2
8.122619000E-3,-1.282817032E-2,-2.498438805E-1,6.658431143E-2
1.010654400E-2,-1.282817032E-2,-2.498438805E-1,6.658431143E-2
1.212100800E-2,-1.282817032E-2,-2.498438805E-1,6.658431143E-2
1.410447200E-2,-1.282817032E-2,-2.498438805E-1,6.658431143E-2
1.611893500E-2,-1.282817032E-2,-2.498438805E-1,6.658431143E-2
1.810232200E-2,-1.282817032E-2,-2.498438805E-1,6.658431143E-2
2.011701600E-2,-1.282817032E-2,-2.498438805E-1,6.658431143E-2
2.210040200E-2,-1.282817032E-2,-2.498438805E-1,6.658431143E-2
2.411948100E-2,-1.282817032E-2,-2.498438805E-1,6.658431143E-2
2.609732900E-2,-1.282817032E-2,-2.498438805E-1,6.658431143E-2
2.811240800E-2,-1.282817032E-2,-2.498438805E-1,6.658431143E-2
3.009556300E-2,-1.282817032E-2,-2.498438805E-1,6.658431143E-2
3.211025800E-2,-1.282817032E-2,-2.498438805E-1,6.658431143E-2
3.412441400E-2,-1.282817032E-2,-2.498438805E-1,6.658431143E-2
3.610787600E-2,-1.282817032E-2,-2.498438805E-1,6.658431143E-2
3.812172400E-2,-1.282817032E-2,-2.498438805E-1,6.658431143E-2
4.010634200E-2,-1.282817032E-2,-2.498438805E-1,6.658431143E-2
4.211957500E-2,-1.282817032E-2,-2.498438805E-1,6.658431143E-2
4.410380700E-2,-1.282817032E-2,-2.498438805E-1,6.658431143E-2
4.611765500E-2,-1.282817032E-2,-2.498438805E-1,6.658431143E-2
4.810073400E-2,-1.282817032E-2,-2.498438805E-1,6.658431143E-2
5.011496600E-2,-1.282817032E-2,-2.498438805E-1,6.658431143E-2
5.209835300E-2,-1.282817032E-2,-2.498438805E-1,6.658431143E-2
5.411281600E-2,-1.282817032E-2,-2.498438805E-1,6.658431143E-2
5.609620300E-2,-1.282817032E-2,-2.498438805E-1,6.658431143E-2
5.811035900E-2,-1.282817032E-2,-2.498438805E-1,6.658431143E-2
6.012543800E-2,-1.282817032E-2,-2.498438805E-1,6.658431143E-2
6.210844000E-2,-1.282817032E-2,-2.498438805E-1,6.658431143E-2
6.412197900E-2,-1.282817032E-2,-2.498438805E-1,6.658431143E-2
6.610698100E-2,-1.282817032E-2,-2.498438805E-1,6.658431143E-2
6.812106000E-2,-6.108652451E-4,5.314527452E-2,2.321287990E-2
7.010352400E-2,0.000000000E0,5.131268129E-2,2.321287990E-2
7.211829500E-2,1.221730490E-3,5.009094998E-2,2.321287990E-2
7.410206600E-2,1.832595794E-3,4.642575979E-2,2.321287990E-2
7.611591400E-2,1.221730490E-3,4.214970022E-2,2.504547499E-2
7.809899200E-2,-6.108652451E-4,4.276056588E-2,2.504547499E-2
8.011491700E-2,-2.443460980E-3,3.909537569E-2,2.809980139E-2
8.209738100E-2,-2.443460980E-3,3.420845419E-2,2.565634064E-2
8.411222900E-2,-1.832595794E-3,2.871066704E-2,2.565634064E-2
8.609615400E-2,-1.832595794E-3,2.382374369E-2,2.809980139E-2
8.811000200E-2,-4.276056774E-3,1.710422710E-2,2.443460934E-2
9.012415800E-2,-4.886921961E-3,1.221730467E-2,2.504547499E-2
9.210731300E-2,-4.276056774E-3,1.832595794E-3,2.443460934E-2
9.412146900E-2,-4.276056774E-3,-4.886921961E-3,2.015855350E-2
9.610477800E-2,-5.497787148E-3,-9.773843922E-3,2.260201424E-2
9.811901100E-2,-4.276056774E-3,-1.893682219E-2,1.832595654E-2
1.001038590E-1,-3.054326167E-3,-2.748893574E-2,1.404990070E-2
1.021170920E-1,-4.276056774E-3,-2.932153270E-2,1.343903504E-2
1.041017850E-1,-4.276056774E-3,-3.665191308E-2,1.038470957E-2
1.061140180E-1,-1.832595794E-3,-3.848451003E-2,1.160643995E-2
1.080984050E-1,-3.054326167E-3,-4.520402849E-2,4.886921961E-3
1.101125610E-1,-1.832595794E-3,-5.253441259E-2,5.497787148E-3
1.120967940E-1,-2.443460980E-3,-5.742133409E-2,4.886921961E-3
1.141109490E-1,-1.832595794E-3,-6.169738993E-2,4.886921961E-3
1.160941050E-1,-1.832595794E-3,-6.902777404E-2,3.665191587E-3
1.181082600E-1,0.000000000E0,-7.208210230E-2,5.497787148E-3
1.201235700E-1,-6.108652451E-4,-7.574728876E-2,5.497787148E-3
1.221061100E-1,2.443460980E-3,-7.880161703E-2,7.330383174E-3
1.241208810E-1,1.221730490E-3,-8.002334833E-2,7.941247895E-3
1.261033450E-1,1.221730490E-3,-8.002334833E-2,9.162978269E-3
1.281180390E-1,1.832595794E-3,-8.307767659E-2,9.162978269E-3
1.301021180E-1,3.665191587E-3,-8.307767659E-2,1.160643995E-2
1.321162730E-1,3.665191587E-3,-8.368854225E-2,1.221730467E-2
1.341005830E-1,3.665191587E-3,-8.307767659E-2,1.404990070E-2
1.361137390E-1,7.330383174E-3,-7.880161703E-2,1.343903504E-2
1.380972020E-1,7.941247895E-3,-7.452555746E-2,1.404990070E-2
1.401125120E-1,9.162978269E-3,-7.330382615E-2,1.527163107E-2
1.420950520E-1,1.099557430E-2,-6.963863969E-2,1.588249579E-2
1.441092080E-1,9.162978269E-3,-6.414084882E-2,1.588249579E-2
1.461239020E-1,9.162978269E-3,-6.291911751E-2,1.221730467E-2
1.481079040E-1,1.099557430E-2,-5.436700583E-2,1.160643995E-2
1.501208290E-1,1.343903504E-2,-4.459316283E-2,1.038470957E-2
1.521055230E-1,1.160643995E-2,-4.153883830E-2,7.941247895E-3
1.541186790E-1,1.282817032E-2,-3.420845419E-2,6.719517522E-3
1.561027580E-1,1.527163107E-2,-2.199114859E-2,6.108652335E-3
1.581169140E-1,1.527163107E-2,-1.832595654E-2,4.886921961E-3
1.601017610E-1,1.710422710E-2,-6.719517522E-3,2.443460980E-3
1.621156090E-1,1.588249579E-2,1.832595794E-3,3.054326167E-3
1.640990720E-1,1.588249579E-2,8.552113548E-3,0.000000000E0
1.661126130E-1,1.710422710E-2,1.954768784E-2,-1.221730490E-3
1.680956920E-1,1.771509275E-2,2.382374369E-2,-4.276056774E-3
1.701106940E-1,1.832595654E-2,3.665191308E-2,-6.719517522E-3
1.720938500E-1,2.015855350E-2,4.581489414E-2,-6.719517522E-3
1.741082350E-1,1.954768784E-2,5.253441259E-2,-7.941247895E-3
1.761218530E-1,1.893682219E-2,6.352998316E-2,-7.941247895E-3
1.781064700E-1,2.015855350E-2,7.269296050E-2,-1.099557430E-2
1.801209340E-1,2.382374369E-2,7.635815442E-2,-1.160643995E-2
1.821039360E-1,2.382374369E-2,8.735372871E-2,-1.221730467E-2
1.841172450E-1,2.199114859E-2,9.468411654E-2,-1.527163107E-2
1.861021700E-1,2.138028294E-2,9.834930301E-2,-1.588249579E-2
1.881153250E-1,2.260201424E-2,1.038470939E-1,-1.649336144E-2
1.900990200E-1,2.260201424E-2,1.123992056E-1,-2.015855350E-2
1.921131750E-1,2.321287990E-2,1.136209369E-1,-2.199114859E-2
1.940969470E-1,2.321287990E-2,1.142318025E-1,-2.321287990E-2
1.961114100E-1,2.321287990E-2,1.203404516E-1,-2.626720630E-2
1.980951040E-1,2.687807009E-2,1.185078546E-1,-2.565634064E-2
2.001101830E-1,2.321287990E-2,1.203404516E-1,-2.748893574E-2
2.021236460E-1,2.382374369E-2,1.221730486E-1,-3.054326214E-2
2.041074170E-1,2.382374369E-2,1.191187203E-1,-2.993239649E-2
2.061211880E-1,2.443460934E-2,1.136209369E-1,-3.298672289E-2
2.081045750E-1,2.321287990E-2,1.123992056E-1,-3.176499158E-2
2.101188080E-1,2.321287990E-2,1.069014147E-1,-3.543018550E-2
2.121028100E-1,2.382374369E-2,1.020144969E-1,-3.543018550E-2
2.141169660E-1,2.260201424E-2,9.407325089E-2,-3.848451003E-2
2.161000440E-1,2.321287990E-2,8.674286306E-2,-4.092797264E-2
2.181138150E-1,2.199114859E-2,7.635815442E-2,-4.031710699E-2
2.200987400E-1,2.138028294E-2,7.269296050E-2,-4.276056588E-2
2.221117420E-1,2.138028294E-2,6.230825558E-2,-4.398229718E-2
2.240950520E-1,2.321287990E-2,5.497787148E-2,-4.581489414E-2
2.261105150E-1,2.138028294E-2,5.009094998E-2,-4.825835302E-2
2.281249790E-1,2.138028294E-2,4.276056588E-2,-4.948008433E-2
2.301070570E-1,2.260201424E-2,3.726277873E-2,-4.948008433E-2
2.321224430E-1,2.382374369E-2,3.359758854E-2,-5.192354694E-2
2.341058300E-1,2.260201424E-2,2.687807009E-2,-5.619960278E-2
2.361197550E-1,2.443460934E-2,2.260201424E-2,-5.497787148E-2
2.381034490E-1,2.504547499E-2,1.527163107E-2,-5.925392732E-2
2.401187590E-1,2.687807009E-2,1.343903504E-2,-6.230825558E-2
2.421015290E-1,2.748893574E-2,8.552113548E-3,-6.352998316E-2
2.441159930E-1,2.809980139E-2,4.276056774E-3,-6.536258012E-2
2.460993790E-1,2.932153270E-2,3.054326167E-3,-6.902777404E-2
2.481132280E-1,3.115412779E-2,1.221730490E-3,-6.902777404E-2
2.500966910E-1,3.359758854E-2,-6.108652451E-4,-7.208210230E-2
2.521116930E-1,3.359758854E-2,0.000000000E0,-7.391469181E-2
2.540944640E-1,3.604105115E-2,1.832595794E-3,-7.635815442E-2
2.561093110E-1,3.420845419E-2,1.832595794E-3,-7.574728876E-2
2.581228520E-1,3.298672289E-2,6.719517522E-3,-7.941248268E-2
2.601073920E-1,3.543018550E-2,7.330383174E-3,-7.696902007E-2
2.621216250E-1,3.359758854E-2,1.099557430E-2,-7.574728876E-2
2.641034730E-1,3.176499158E-2,1.649336144E-2,-7.757988572E-2
2.661178600E-1,2.932153270E-2,2.199114859E-2,-7.696902007E-2
2.681019390E-1,3.176499158E-2,2.748893574E-2,-7.452555746E-2
2.701167090E-1,2.871066704E-2,3.298672289E-2,-7.880161703E-2
2.721003270E-1,2.871066704E-2,4.092797264E-2,-7.574728876E-2
2.741147900E-1,2.626720630E-2,4.764748737E-2,-7.574728876E-2
2.760970230E-1,2.382374369E-2,5.375614017E-2,-7.330382615E-2
2.781117940E-1,2.321287990E-2,6.169738993E-2,-7.269296050E-2
2.800963350E-1,2.260201424E-2,7.269296050E-2,-7.147123665E-2
2.821098750E-1,2.076941915E-2,7.574728876E-2,-6.841690838E-2
2.841247220E-1,1.954768784E-2,8.368854225E-2,-6.658431143E-2
2.861074160E-1,1.649336144E-2,9.285151958E-2,-6.475171447E-2
2.881216490E-1,1.771509275E-2,9.651670605E-2,-6.291911751E-2
2.901055740E-1,1.466076635E-2,1.020144969E-1,-5.986479297E-2
2.921197300E-1,1.466076635E-2,1.093448773E-1,-5.681046844E-2
2.941035010E-1,1.343903504E-2,1.117883399E-1,-5.558873713E-2
2.961170420E-1,1.038470957E-2,1.148426682E-1,-5.436700583E-2
2.981013510E-1,1.282817032E-2,1.148426682E-1,-5.070181563E-2
3.001170450E-1,8.552113548E-3,1.191187203E-1,-5.497787148E-2
3.020988930E-1,7.941247895E-3,1.178969890E-1,-5.314527452E-2
3.041127410E-1,8.552113548E-3,1.142318025E-1,-5.375614017E-2
3.060976660E-1,8.552113548E-3,1.117883399E-1,-5.070181563E-2
3.081112070E-1,7.330383174E-3,1.056796908E-1,-4.886921868E-2
3.100939780E-1,5.497787148E-3,1.032362282E-1,-4.825835302E-2
3.121089790E-1,7.330383174E-3,9.468411654E-2,-5.070181563E-2
3.141229040E-1,6.719517522E-3,8.613199741E-2,-5.009094998E-2
3.161065980E-1,6.108652335E-3,8.307767659E-2,-5.009094998E-2
3.181210620E-1,4.276056774E-3,7.330382615E-2,-5.131268129E-2
3.201059100E-1,5.497787148E-3,6.108652428E-2,-5.131268129E-2
3.221189120E-1,4.886921961E-3,5.375614017E-2,-5.192354694E-2
3.241025290E-1,2.443460980E-3,4.153883830E-2,-5.253441259E-2
3.261163770E-1,2.443460980E-3,2.504547499E-2,-5.192354694E-2
3.280994560E-1,3.054326167E-3,1.832595654E-2,-5.131268129E-2
3.301139190E-1,1.221730490E-3,6.108652335E-3,-5.497787148E-2
3.320983060E-1,1.832595794E-3,-5.497787148E-3,-5.558873713E-2
3.341124620E-1,-6.108652451E-4,-1.893682219E-2,-5.497787148E-2
3.360961560E-1,-1.832595794E-3,-3.787364438E-2,-5.619960278E-2
3.381099270E-1,0.000000000E0,-4.703662544E-2,-5.681046844E-2
3.401253900E-1,-1.221730490E-3,-6.169738993E-2,-5.436700583E-2
3.421075460E-1,-6.108652451E-4,-8.185594529E-2,-5.436700583E-2
3.441213170E-1,-1.221730490E-3,-8.857546002E-2,-5.314527452E-2
3.461050110E-1,-6.108652451E-4,-1.044579595E-1,-5.314527452E-2
3.481200900E-1,0.000000000E0,-1.215621829E-1,-5.192354694E-2
3.501034770E-1,-1.832595794E-3,-1.270599663E-1,-5.375614017E-2
3.521170940E-1,-1.221730490E-3,-1.447750628E-1,-5.009094998E-2
3.541010180E-1,-3.665191587E-3,-1.618792862E-1,-4.581489414E-2
3.561148660E-1,-3.665191587E-3,-1.673770845E-1,-4.459316283E-2
3.580989450E-1,-3.054326167E-3,-1.844813079E-1,-4.581489414E-2
3.601136390E-1,-6.108652335E-3,-1.997529417E-1,-4.276056588E-2
3.620961800E-1,-6.108652335E-3,-2.052507252E-1,-3.909537569E-2
3.641114900E-1,-7.941247895E-3,-2.174680233E-1,-3.909537569E-2
3.660945690E-1,-9.773843922E-3,-2.278527319E-1,-3.665191308E-2
3.681084160E-1,-1.099557430E-2,-2.400700450E-1,-3.481931984E-2
3.701225720E-1,-1.343903504E-2,-2.547308207E-1,-3.420845419E-2
3.721066510E-1,-1.221730467E-2,-2.602286041E-1,-3.115412779E-2
3.741208060E-1,-1.588249579E-2,-2.736676335E-1,-2.993239649E-2
3.761035780E-1,-1.893682219E-2,-2.858849466E-1,-2.809980139E-2
3.781186570E-1,-2.076941915E-2,-2.956587672E-1,-2.932153270E-2
3.801026590E-1,-2.260201424E-2,-3.090978265E-1,-2.443460934E-2
3.821161210E-1,-2.932153270E-2,-3.243694305E-1,-2.138028294E-2
3.840989690E-1,-3.176499158E-2,-3.310889602E-1,-1.832595654E-2
3.861149710E-1,-3.848451003E-2,-3.463605940E-1,-1.466076635E-2
3.880980500E-1,-4.825835302E-2,-3.604104817E-1,-1.221730467E-2
3.901109750E-1,-5.192354694E-2,-3.707951903E-1,-1.038470957E-2
3.920959000E-1,-5.436700583E-2,-3.872885704E-1,-7.941247895E-3
3.941097480E-1,-5.986479297E-2,-3.958406746E-1,-4.886921961E-3
3.961241340E-1,-6.597344577E-2,-4.166100919E-1,-6.108652451E-4
3.981072900E-1,-6.963863969E-2,-4.367686510E-1,4.276056774E-3
4.001222920E-1,-7.391469181E-2,-4.459316432E-1,4.886921961E-3
4.021054480E-1,-8.185594529E-2,-4.673119187E-1,4.886921961E-3
4.041192960E-1,-9.162978828E-2,-4.874704778E-1,7.941247895E-3
4.061032980E-1,-9.468411654E-2,-5.009095073E-1,1.160643995E-2
4.081167620E-1,-1.014036313E-1,-5.235115290E-1,1.466076635E-2
4.101008390E-1,-1.123992056E-1,-5.491678715E-1,1.282817032E-2
4.121155340E-1,-1.166752651E-1,-5.632177591E-1,1.588249579E-2
4.140993050E-1,-1.252273768E-1,-5.913175344E-1,1.649336144E-2
4.161130760E-1,-1.337794960E-1,-6.206390858E-1,1.771509275E-2
4.180965400E-1,-1.374446750E-1,-6.352998614E-1,1.710422710E-2
4.201121570E-1,-1.459967941E-1,-6.695083380E-1,1.893682219E-2
4.220943120E-1,-1.563815027E-1,-7.037167549E-1,1.893682219E-2
4.241051600E-1,-1.582140923E-1,-7.214318514E-1,2.015855350E-2
4.261217780E-1,-1.667662114E-1,-7.574729323E-1,1.954768784E-2
4.281060870E-1,-1.704314053E-1,-7.776314616E-1,1.893682219E-2
4.301201660E-1,-1.734857261E-1,-8.124507666E-1,2.076941915E-2
4.321036300E-1,-1.643227488E-1,-8.484918475E-1,1.832595654E-2
4.341183240E-1,-1.563815027E-1,-8.662069440E-1,1.588249579E-2
4.361011710E-1,-1.380555481E-1,-8.979719281E-1,1.588249579E-2
4.381158660E-1,-1.197295859E-1,-9.242390990E-1,1.282817032E-2
4.401010980E-1,-1.136209369E-1,-9.346238375E-1,7.941247895E-3
4.421140230E-1,-1.032362282E-1,-9.492846131E-1,3.054326167E-3
4.440984100E-1,-9.590584040E-2,-9.633345008E-1,-2.443460980E-3
4.461115660E-1,-9.040805697E-2,-9.694431424E-1,-4.276056774E-3
4.480947220E-1,-8.796459436E-2,-9.724974632E-1,-1.221730467E-2
4.501091840E-1,-8.429940045E-2,-9.731083512E-1,-1.404990070E-2
4.521239550E-1,-8.307767659E-2,-9.731083512E-1,-1.588249579E-2
4.541070340E-1,-7.819075137E-2,-9.651671052E-1,-2.076941915E-2
4.561211130E-1,-7.330382615E-2,-9.572258592E-1,-1.954768784E-2
4.581048850E-1,-7.208210230E-2,-9.511171579E-1,-1.771509275E-2
4.601208870E-1,-7.269296050E-2,-9.370672703E-1,-1.588249579E-2
4.621029660E-1,-7.024950534E-2,-9.291260242E-1,-1.404990070E-2
4.641161970E-1,-6.902777404E-2,-9.065240026E-1,-9.773843922E-3
4.661008150E-1,-7.269296050E-2,-8.814785480E-1,-3.665191587E-3
4.681155860E-1,-7.330382615E-2,-8.674286604E-1,-6.108652451E-4
4.700978190E-1,-7.696902007E-2,-8.338310719E-1,4.276056774E-3
4.721128210E-1,-8.002334833E-2,-8.045095205E-1,1.282817032E-2
4.740962840E-1,-8.307767659E-2,-7.892379165E-1,1.710422710E-2
4.761109790E-1,-8.613199741E-2,-7.562511563E-1,2.748893574E-2
4.780943640E-1,-9.224065393E-2,-7.153232098E-1,3.787364438E-2
4.801091350E-1,-9.590584040E-2,-6.994407177E-1,4.214970022E-2
4.821221370E-1,-1.020144969E-1,-6.615670323E-1,5.314527452E-2
4.841067550E-1,-1.081231460E-1,-6.261368990E-1,6.108652428E-2
4.861196800E-1,-1.111774743E-1,-6.120869517E-1,6.841690838E-2
4.881036820E-1,-1.203404516E-1,-5.778785348E-1,7.696902007E-2
4.901178380E-1,-1.258382350E-1,-5.455026627E-1,8.613199741E-2
4.921012230E-1,-1.301143020E-1,-5.296201706E-1,9.040805697E-2
4.941166100E-1,-1.398881376E-1,-5.021312237E-1,1.020144969E-1
4.960996120E-1,-1.441642046E-1,-4.862487316E-1,1.044579595E-1
4.981140760E-1,-1.551597714E-1,-4.581489265E-1,1.117883399E-1
5.000977700E-1,-1.637118906E-1,-4.337143302E-1,1.215621829E-1
5.021119260E-1,-1.716531366E-1,-4.239404798E-1,1.252273768E-1
5.040943890E-1,-1.838704348E-1,-4.043927789E-1,1.337794960E-1
5.061086210E-1,-1.948660165E-1,-3.848451078E-1,1.392772794E-1
5.081233920E-1,-2.034181207E-1,-3.781255782E-1,1.441642046E-1
5.101070870E-1,-2.162462920E-1,-3.707951903E-1,1.459967941E-1
5.121212420E-1,-2.327396572E-1,-3.646865487E-1,1.490511149E-1
5.141049370E-1,-2.388483137E-1,-3.652974069E-1,1.514945775E-1
5.161190160E-1,-2.535090744E-1,-3.646865487E-1,1.557706445E-1
5.181027870E-1,-2.706133127E-1,-3.701843321E-1,1.594358236E-1
5.201177880E-1,-2.797762752E-1,-3.744603992E-1,1.624901593E-1
5.221006360E-1,-2.981022298E-1,-3.860668242E-1,1.649336219E-1
5.241154070E-1,-3.158173263E-1,-4.031710625E-1,1.704314053E-1
5.260975630E-1,-3.231477141E-1,-4.117231667E-1,1.728748679E-1
5.281122570E-1,-3.439171314E-1,-4.386012554E-1,1.783726513E-1
5.300956440E-1,-3.530801237E-1,-4.532620013E-1,1.808161139E-1
5.321101850E-1,-3.701843321E-1,-4.813618064E-1,1.850921661E-1
5.341246470E-1,-3.891211748E-1,-5.143485069E-1,1.905899495E-1
5.361077260E-1,-3.964515328E-1,-5.283984542E-1,1.954768747E-1
5.381214970E-1,-4.147774875E-1,-5.681046844E-1,2.003637999E-1
5.401061150E-1,-4.269948006E-1,-6.059783101E-1,2.076941878E-1
5.421197320E-1,-4.349360466E-1,-6.236934066E-1,2.083050460E-1
5.441027340E-1,-4.447098970E-1,-6.633996367E-1,2.156354338E-1
5.461185050E-1,-4.550946057E-1,-7.037167549E-1,2.199114859E-1
5.481021220E-1,-4.624249935E-1,-7.208209634E-1,2.211332172E-1
5.501148160E-1,-4.667010605E-1,-7.593054771E-1,2.247984111E-1
5.520984330E-1,-4.715879560E-1,-7.947356701E-1,2.290744632E-1
5.541135890E-1,-4.728097022E-1,-8.087855577E-1,2.302961946E-1
5.560975140E-1,-4.746423066E-1,-8.405506015E-1,2.333505303E-1
5.581110550E-1,-4.728097022E-1,-8.527678847E-1,2.327396572E-1
5.600957480E-1,-4.728097022E-1,-8.753699064E-1,2.345722616E-1
5.621089810E-1,-4.703662395E-1,-8.930850029E-1,2.370157093E-1
5.641231370E-1,-4.709770977E-1,-9.010262489E-1,2.376265824E-1
5.661074460E-1,-4.758640230E-1,-9.095783234E-1,2.419026345E-1
5.681206790E-1,-4.776966274E-1,-9.150761366E-1,2.437352389E-1
5.701043730E-1,-4.801400900E-1,-9.144652486E-1,2.461786866E-1
5.721184520E-1,-4.844161272E-1,-9.089674950E-1,2.492330223E-1
5.741025300E-1,-4.874704778E-1,-8.985827565E-1,2.541199327E-1
5.761160710E-1,-4.886921942E-1,-8.936958313E-1,2.590068579E-1
5.780999960E-1,-4.960225821E-1,-8.741481900E-1,2.663372457E-1
5.801154590E-1,-4.990769029E-1,-8.521569967E-1,2.736676335E-1
5.820982310E-1,-4.996877611E-1,-8.405506015E-1,2.809980214E-1
5.841120020E-1,-5.057964325E-1,-8.100073338E-1,2.907718420E-1
5.860948500E-1,-5.100724697E-1,-7.757988572E-1,3.011565804E-1
5.881099280E-1,-5.106833577E-1,-7.556403279E-1,3.066543639E-1
5.901236990E-1,-5.161811113E-1,-7.183775306E-1,3.200933933E-1
5.921083940E-1,-5.149593949E-1,-6.982190013E-1,3.255911767E-1
5.941221650E-1,-5.235115290E-1,-6.481280327E-1,3.396410644E-1
5.961055510E-1,-5.271766782E-1,-5.992587805E-1,3.524692357E-1
5.981197840E-1,-5.314527750E-1,-5.760459304E-1,3.622430861E-1
6.001043250E-1,-5.375614166E-1,-5.229006410E-1,3.744603992E-1
6.021170180E-1,-5.436700583E-1,-4.691445231E-1,3.909537494E-1
6.041019430E-1,-5.467243791E-1,-4.428772926E-1,3.970624208E-1
6.061157140E-1,-5.552765131E-1,-3.860668242E-1,4.184426963E-1
6.080991010E-1,-5.644394755E-1,-3.316998184E-1,4.337143302E-1
6.101135640E-1,-5.681046844E-1,-2.999348342E-1,4.404338300E-1
6.120972590E-1,-5.748242140E-1,-2.437352389E-1,4.587597847E-1
6.141111070E-1,-5.845980644E-1,-1.850921661E-1,4.752531648E-1
6.161247230E-1,-5.882632136E-1,-1.551597714E-1,4.844161272E-1
6.181089560E-1,-5.980370641E-1,-9.712757170E-2,5.015203953E-1
6.201231890E-1,-6.090326309E-1,-4.276056588E-2,5.167919993E-1
6.221065750E-1,-6.139195561E-1,-1.221730467E-2,5.283984542E-1
6.241207310E-1,-6.249151230E-1,4.092797264E-2,5.430592299E-1
6.261044260E-1,-6.291912198E-1,6.902777404E-2,5.534439087E-1
6.281188890E-1,-6.426302195E-1,1.166752651E-1,5.699372888E-1
6.301015820E-1,-6.524040699E-1,1.655444801E-1,5.870414972E-1
6.321160460E-1,-6.560692787E-1,1.869247705E-1,5.962044597E-1
6.341003560E-1,-6.664539576E-1,2.247984111E-1,6.114761233E-1
6.361142810E-1,-6.768386960E-1,2.547308207E-1,6.267477274E-1
6.380982830E-1,-6.811147332E-1,2.718350291E-1,6.334672570E-1
6.401129770E-1,-6.884451509E-1,2.938261926E-1,6.481280327E-1
6.420955180E-1,-6.951646209E-1,3.084869385E-1,6.621779203E-1
6.441102110E-1,-7.006624341E-1,3.139847219E-1,6.664539576E-1
6.461244440E-1,-7.049384713E-1,3.213151097E-1,6.780604124E-1
6.481077530E-1,-7.104362845E-1,3.200933933E-1,6.902777553E-1
6.501219090E-1,-7.128797174E-1,3.194825351E-1,6.951646209E-1
6.521056800E-1,-7.195992470E-1,3.121521473E-1,7.049384713E-1
6.541200670E-1,-7.257078886E-1,2.968805134E-1,7.104362845E-1
6.561031460E-1,-7.287622094E-1,2.877175212E-1,7.153232098E-1
6.581176090E-1,-7.330383062E-1,2.693915665E-1,7.189884186E-1
6.601016870E-1,-7.360926270E-1,2.553416789E-1,7.202101350E-1
6.621157660E-1,-7.403686643E-1,2.247984111E-1,7.250970602E-1
6.640979990E-1,-7.470881939E-1,1.948660165E-1,7.263187766E-1
6.661130780E-1,-7.470881939E-1,1.747074574E-1,7.275404930E-1
6.680961570E-1,-7.507534027E-1,1.380555481E-1,7.275404930E-1
6.701108510E-1,-7.513642311E-1,9.834930301E-2,7.281513810E-1
6.721250060E-1,-7.538077235E-1,7.513642311E-2,7.275404930E-1
6.741083930E-1,-7.556403279E-1,3.176499158E-2,7.238753438E-1
6.761228560E-1,-7.568620443E-1,-1.466076635E-2,7.202101350E-1
6.781069350E-1,-7.556403279E-1,-3.970624134E-2,7.189884186E-1
6.801216300E-1,-7.550294399E-1,-8.552113175E-2,7.141014934E-1
6.821047080E-1,-7.550294399E-1,-1.337794960E-1,7.086036801E-1
6.841189410E-1,-7.550294399E-1,-1.551597714E-1,7.067710757E-1
6.861019420E-1,-7.513642311E-1,-2.058615834E-1,6.988298297E-1
6.881155600E-1,-7.489207983E-1,-2.272418737E-1,6.951646209E-1
6.900997920E-1,-7.409795523E-1,-2.675589919E-1,6.866125464E-1
6.921137180E-1,-7.354817390E-1,-3.090978265E-1,6.774495840E-1
6.940983350E-1,-7.281513810E-1,-3.286454976E-1,6.762278080E-1
6.961127220E-1,-7.189884186E-1,-3.616322279E-1,6.621779203E-1
6.980951850E-1,-7.043276429E-1,-3.952298164E-1,6.499606371E-1
7.001100320E-1,-6.982190013E-1,-4.092797041E-1,6.426302195E-1
7.021238030E-1,-6.853908300E-1,-4.331034720E-1,6.340781450E-1
7.041066520E-1,-6.719517708E-1,-4.520402849E-1,6.194173694E-1
7.061228840E-1,-6.658431292E-1,-4.581489265E-1,6.151412725E-1
7.081062710E-1,-6.536257863E-1,-4.667010605E-1,5.986479521E-1
7.101191960E-1,-6.426302195E-1,-4.691445231E-1,5.864306092E-1
7.121032750E-1,-6.371324658E-1,-4.667010605E-1,5.772676468E-1
7.141177380E-1,-6.267477274E-1,-4.630358517E-1,5.668829679E-1
7.161011240E-1,-6.151412725E-1,-4.544837475E-1,5.564982295E-1
7.181152800E-1,-6.108652353E-1,-4.495968223E-1,5.497786999E-1
7.200995130E-1,-5.949827433E-1,-4.355469346E-1,5.418374538E-1
7.221128230E-1,-5.900958180E-1,-4.257730842E-1,5.387831330E-1
7.240970550E-1,-5.766568184E-1,-4.062253833E-1,5.308418870E-1
7.261109030E-1,-5.662720799E-1,-3.842342496E-1,5.216789246E-1
7.281250580E-1,-5.595525503E-1,-3.732386529E-1,5.155702829E-1
7.301081370E-1,-5.473352671E-1,-3.488040566E-1,5.119050741E-1
7.321223700E-1,-5.320636034E-1,-3.231477141E-1,5.045747161E-1
7.341063720E-1,-5.265658498E-1,-3.121521473E-1,5.015203953E-1
7.361196050E-1,-5.131267905E-1,-2.864958048E-1,4.935791194E-1
7.381047610E-1,-5.021312237E-1,-2.626720667E-1,4.862487316E-1
7.401195320E-1,-4.960225821E-1,-2.522873580E-1,4.831944108E-1
7.421020710E-1,-4.868595898E-1,-2.266310006E-1,4.752531648E-1
7.441152270E-1,-4.758640230E-1,-2.076941878E-1,4.709770977E-1
7.460989980E-1,-4.691445231E-1,-1.966986060E-1,4.679227769E-1
7.481140000E-1,-4.605923891E-1,-1.765400618E-1,4.599815309E-1
7.500976950E-1,-4.514294267E-1,-1.594358236E-1,4.557054639E-1
7.521115430E-1,-4.471533597E-1,-1.502728462E-1,4.520402849E-1
7.540958520E-1,-4.392121136E-1,-1.374446750E-1,4.447098970E-1
7.561094690E-1,-4.337143302E-1,-1.331686229E-1,4.392121136E-1
7.581233170E-1,-4.269948006E-1,-1.233947799E-1,4.312708676E-1
7.601079350E-1,-4.190535545E-1,-1.172861308E-1,4.221078753E-1
7.621211670E-1,-4.159992337E-1,-1.123992056E-1,4.172209501E-1
7.641057080E-1,-4.105014503E-1,-1.111774743E-1,4.062253833E-1
7.661199410E-1,-4.037819207E-1,-1.172861308E-1,3.940080702E-1
7.681027110E-1,-4.031710625E-1,-1.197295859E-1,3.897320330E-1
7.701164820E-1,-3.958406746E-1,-1.270599663E-1,3.769038618E-1
7.721008690E-1,-3.940080702E-1,-1.417207420E-1,3.659082949E-1
7.741150240E-1,-3.946189582E-1,-1.472185254E-1,3.591887653E-1
7.760984110E-1,-3.897320330E-1,-1.655444801E-1,3.457497358E-1
7.781122590E-1,-3.866777122E-1,-1.832595766E-1,3.341432810E-1
7.800977230E-1,-3.872885704E-1,-1.936442852E-1,3.304781020E-1
7.821101080E-1,-3.842342496E-1,-2.199114859E-1,3.152064681E-1
7.841239570E-1,-3.824016452E-1,-2.406809032E-1,3.060434759E-1
7.861088820E-1,-3.811798990E-1,-2.510656118E-1,3.011565804E-1
7.881230380E-1,-3.793473244E-1,-2.773328125E-1,2.926044464E-1
7.901058090E-1,-3.787364662E-1,-2.895501256E-1,2.871066630E-1
7.921208110E-1,-3.762930036E-1,-3.176499307E-1,2.816088796E-1
7.941042740E-1,-3.744603992E-1,-3.457497358E-1,2.724458873E-1
7.961183520E-1,-3.732386529E-1,-3.610213697E-1,2.669481039E-1
7.981015080E-1,-3.701843321E-1,-3.933972120E-1,2.596177161E-1
8.001172020E-1,-3.646865487E-1,-4.300491214E-1,2.541199327E-1
8.020990510E-1,-3.604104817E-1,-4.471533597E-1,2.510656118E-1
8.041135140E-1,-3.567453027E-1,-4.868595898E-1,2.431243658E-1
8.060977470E-1,-3.451388776E-1,-5.271766782E-1,2.400700450E-1
8.081115950E-1,-3.408628106E-1,-5.442809463E-1,2.376265824E-1
8.100947500E-1,-3.255911767E-1,-5.784893632E-1,2.284636050E-1
8.121091360E-1,-3.152064681E-1,-6.102544069E-1,2.193006277E-1
8.141236770E-1,-3.109304011E-1,-6.273586154E-1,2.131919712E-1
8.161066790E-1,-3.023782969E-1,-6.524040699E-1,2.052507252E-1
8.181206040E-1,-2.907718420E-1,-6.762278080E-1,1.948660165E-1
8.201054520E-1,-2.864958048E-1,-6.866125464E-1,1.863138974E-1
8.221193000E-1,-2.736676335E-1,-7.043276429E-1,1.765400618E-1
8.241015320E-1,-2.700024247E-1,-7.122688890E-1,1.704314053E-1
8.261162260E-1,-2.583959997E-1,-7.293730974E-1,1.569923609E-1
8.281011520E-1,-2.498438805E-1,-7.385360599E-1,1.435533315E-1
8.301144610E-1,-2.449569702E-1,-7.470881939E-1,1.368338168E-1
8.320981560E-1,-2.357939780E-1,-7.568620443E-1,1.252273768E-1
8.341131580E-1,-2.254092693E-1,-7.629706860E-1,1.142318025E-1
8.360959290E-1,-2.223549485E-1,-7.648032904E-1,1.117883399E-1
8.381103910E-1,-2.125810981E-1,-7.715228200E-1,1.020144969E-1
8.401251630E-1,-2.034181207E-1,-7.764097452E-1,9.529497474E-2
8.421086260E-1,-1.966986060E-1,-7.782423496E-1,8.796459436E-2
8.441227820E-1,-1.881465018E-1,-7.806857824E-1,8.368854225E-2
8.461058610E-1,-1.802052408E-1,-7.825183868E-1,8.124507964E-2
8.481197090E-1,-1.728748679E-1,-7.800748944E-1,7.696902007E-2
8.501030960E-1,-1.673770845E-1,-7.745771408E-1,7.452555746E-2
8.521174810E-1,-1.606575549E-1,-7.715228200E-1,7.391469181E-2
8.541014830E-1,-1.527163088E-1,-7.654141784E-1,7.391469181E-2
8.561156390E-1,-1.453859210E-1,-7.574729323E-1,7.208210230E-2
8.580999490E-1,-1.423316002E-1,-7.525860071E-1,7.147123665E-2
8.601150280E-1,-1.325577646E-1,-7.476990819E-1,7.024950534E-2
8.620981840E-1,-1.233947799E-1,-7.440338731E-1,7.452555746E-2
8.641108010E-1,-1.178969890E-1,-7.428121567E-1,7.574728876E-2
8.661261100E-1,-1.093448773E-1,-7.415903807E-1,7.941248268E-2
8.681082660E-1,-1.026253626E-1,-7.440338731E-1,7.880161703E-2
8.701224210E-1,-9.834930301E-2,-7.428121567E-1,8.002334833E-2
8.721070390E-1,-8.857546002E-2,-7.507534027E-1,8.307767659E-2
8.741209640E-1,-8.185594529E-2,-7.544185519E-1,8.307767659E-2
8.761049660E-1,-8.002334833E-2,-7.593054771E-1,8.613199741E-2
8.781190450E-1,-7.024950534E-2,-7.721336484E-1,8.735372871E-2
8.801034300E-1,-6.597344577E-2,-7.886270285E-1,8.918632567E-2
8.821162790E-1,-6.291911751E-2,-7.971791625E-1,8.857546002E-2
8.841005880E-1,-5.742133409E-2,-8.130616546E-1,9.101892263E-2
8.861144360E-1,-5.742133409E-2,-8.222246170E-1,9.101892263E-2
8.880979000E-1,-5.314527452E-2,-8.448266387E-1,9.101892263E-2
8.901120560E-1,-5.070181563E-2,-8.643743396E-1,9.162978828E-2
8.920962880E-1,-4.764748737E-2,-8.778133392E-1,9.162978828E-2
8.941102130E-1,-4.398229718E-2,-9.004153609E-1,9.285151958E-2
8.961242920E-1,-4.276056588E-2,-9.236282706E-1,9.040805697E-2
8.981073710E-1,-4.031710699E-2,-9.376781583E-1,9.224065393E-2
9.001225260E-1,-3.848451003E-2,-9.645562172E-1,9.285151958E-2
9.021058360E-1,-3.909537569E-2,-9.896016717E-1,9.101892263E-2
9.041176070E-1,-3.543018550E-2,-1.002429843E0,8.918632567E-2
9.061031470E-1,-3.237585723E-2,-1.026864529E0,8.796459436E-2
9.081178410E-1,-3.543018550E-2,-1.041525245E0,8.674286306E-2
9.101016120E-1,-3.115412779E-2,-1.048244715E0,8.735372871E-2
9.121145370E-1,-2.871066704E-2,-1.061683774E0,8.857546002E-2
9.140993860E-1,-2.687807009E-2,-1.072679400E0,8.796459436E-2
9.161123880E-1,-2.321287990E-2,-1.076955438E0,8.918632567E-2
9.180966200E-1,-1.771509275E-2,-1.081231475E0,8.674286306E-2
9.201123140E-1,-1.404990070E-2,-1.087340117E0,8.674286306E-2
9.220950850E-1,-9.162978269E-3,-1.089783549E0,8.491026610E-2
9.241090100E-1,-7.330383174E-3,-1.086729288E0,8.979719132E-2
9.261231660E-1,-2.443460980E-3,-1.085507512E0,8.613199741E-2
9.281062450E-1,-1.221730490E-3,-1.078177214E0,8.796459436E-2
9.301206310E-1,1.832595794E-3,-1.070846796E0,8.796459436E-2
9.321050180E-1,1.221730490E-3,-1.064127207E0,8.735372871E-2
9.341188650E-1,3.665191587E-3,-1.052520871E0,8.979719132E-2
9.361025590E-1,5.497787148E-3,-1.032362223E0,9.346238524E-2
9.381161000E-1,8.552113548E-3,-1.021366715E0,9.224065393E-2
9.401013330E-1,7.941247895E-3,-9.975429177E-1,9.529497474E-2
9.421138730E-1,1.160643995E-2,-9.743300676E-1,9.651670605E-2
9.440973370E-1,1.404990070E-2,-9.639453292E-1,9.896016866E-2
9.461124160E-1,1.710422710E-2,-9.370672703E-1,1.007927656E-1
9.480954940E-1,1.893682219E-2,-9.254608750E-1,1.001819000E-1
9.501092650E-1,2.260201424E-2,-9.034696817E-1,1.038470939E-1
9.521240360E-1,2.748893574E-2,-8.741481900E-1,1.044579595E-1
9.541078070E-1,2.626720630E-2,-8.582656980E-1,1.062905490E-1
9.561218860E-1,3.176499158E-2,-8.197811842E-1,1.075122803E-1
9.581056570E-1,3.359758854E-2,-7.819074988E-1,1.117883399E-1
9.601198130E-1,3.726277873E-2,-7.654141784E-1,1.117883399E-1
9.621031220E-1,3.726277873E-2,-7.287622094E-1,1.117883399E-1
9.641173550E-1,4.214970022E-2,-6.939429045E-1,1.136209369E-1
9.661010490E-1,4.337143153E-2,-6.786713004E-1,1.111774743E-1
9.681155130E-1,4.520402849E-2,-6.499606371E-1,1.105666086E-1
9.700988220E-1,4.642575979E-2,-6.255260110E-1,1.105666086E-1
9.721129780E-1,4.764748737E-2,-6.139195561E-1,1.087340117E-1
9.740967490E-1,4.948008433E-2,-5.962044597E-1,1.062905490E-1
9.761109040E-1,4.825835302E-2,-5.815436840E-1,1.038470939E-1
9.781252910E-1,4.948008433E-2,-5.742133260E-1,1.020144969E-1
9.801092930E-1,5.070181563E-2,-5.656611919E-1,1.026253626E-1
9.821226030E-1,4.948008433E-2,-5.558874011E-1,1.014036313E-1
9.841050660E-1,5.009094998E-2,-5.516113043E-1,1.001819000E-1
9.861198370E-1,5.070181563E-2,-5.455026627E-1,9.957103431E-2
9.881044550E-1,4.825835302E-2,-5.412266254E-1,9.957103431E-2
9.901182250E-1,4.825835302E-2,-5.381723046E-1,1.020144969E-1
9.921013810E-1,4.886921868E-2,-5.381723046E-1,1.056796908E-1
9.941163830E-1,4.764748737E-2,-5.406157374E-1,1.020144969E-1
9.961003850E-1,4.948008433E-2,-5.473352671E-1,1.062905490E-1
9.981139250E-1,4.948008433E-2,-5.546656251E-1,1.075122803E-1
1.000098235E0,4.764748737E-2,-5.619960427E-1,1.099557430E-1
1.002111237E0,4.825835302E-2,-5.797111392E-1,1.123992056E-1
1.004125930E0,5.009094998E-2,-6.010913849E-1,1.154535338E-1
1.006109932E0,4.764748737E-2,-6.120869517E-1,1.160643995E-1
1.008123550E0,4.520402849E-2,-6.359107494E-1,1.172861308E-1
1.010107552E0,4.948008433E-2,-6.646214128E-1,1.203404516E-1
1.012121708E0,4.825835302E-2,-6.780604124E-1,1.221730486E-1
1.014105325E0,5.131268129E-2,-7.104362845E-1,1.227839142E-1
1.016119558E0,5.375614017E-2,-7.263187766E-1,1.240056455E-1
1.018102866E0,5.497787148E-2,-7.568620443E-1,1.264491081E-1
1.020117638E0,5.497787148E-2,-7.855727077E-1,1.240056455E-1
1.022101101E0,5.864306539E-2,-8.014551997E-1,1.233947799E-1
1.024114949E0,6.414084882E-2,-8.326093554E-1,1.233947799E-1
1.026099259E0,6.475171447E-2,-8.600982428E-1,1.240056455E-1
1.028112800E0,6.291911751E-2,-8.741481900E-1,1.227839142E-1
1.030095494E0,6.230825558E-2,-8.991936445E-1,1.215621829E-1
1.032110341E0,6.352998316E-2,-9.266825914E-1,1.240056455E-1
1.034126035E0,6.536258012E-2,-9.382890463E-1,1.215621829E-1
1.036109037E0,6.414084882E-2,-9.608910084E-1,1.209513173E-1
1.038122655E0,6.475171447E-2,-9.792169929E-1,1.191187203E-1
1.040106349E0,6.414084882E-2,-9.889908433E-1,1.197295859E-1
1.042120736E0,6.536258012E-2,-1.001819015E0,1.191187203E-1
1.044104738E0,6.719517708E-2,-1.011592865E0,1.197295859E-1
1.046118585E0,6.597344577E-2,-1.013425469E0,1.203404516E-1
1.048101971E0,6.780604273E-2,-1.020755768E0,1.191187203E-1
1.050116204E0,6.841690838E-2,-1.023810148E0,1.215621829E-1
1.052099822E0,6.597344577E-2,-1.025642753E0,1.221730486E-1
1.054113977E0,6.841690838E-2,-1.029307961E0,1.215621829E-1
1.056097133E0,6.841690838E-2,-1.026253581E0,1.233947799E-1
1.058111288E0,6.963863969E-2,-1.020144939E0,1.240056455E-1
1.060126906E0,7.086037099E-2,-1.010982037E0,1.246165112E-1
1.062109446E0,7.391469181E-2,-1.007316828E0,1.264491081E-1
1.064123217E0,7.147123665E-2,-9.926560521E-1,1.270599663E-1
1.066106681E0,7.574728876E-2,-9.755517840E-1,1.319468915E-1
1.068121760E0,7.696902007E-2,-9.633345008E-1,1.319468915E-1
1.070105069E0,7.696902007E-2,-9.443976879E-1,1.337794960E-1
1.072118917E0,7.574728876E-2,-9.217956662E-1,1.343903542E-1
1.074102611E0,7.574728876E-2,-9.114109278E-1,1.356120855E-1
1.076117151E0,7.574728876E-2,-8.888089061E-1,1.380555481E-1
1.078100461E0,7.330382615E-2,-8.747590184E-1,1.374446750E-1
1.080115309E0,7.086037099E-2,-8.521569967E-1,1.404990107E-1
1.082099234E0,6.963863969E-2,-8.289441466E-1,1.411098689E-1
1.084113467E0,6.719517708E-2,-8.161159754E-1,1.453859210E-1
1.086096545E0,6.414084882E-2,-7.898487449E-1,1.478293836E-1
1.088110701E0,6.352998316E-2,-7.648032904E-1,1.496619880E-1
1.090123934E0,6.108652428E-2,-7.519751191E-1,1.490511149E-1
1.092108474E0,5.742133409E-2,-7.226535678E-1,1.563815027E-1
1.094122938E0,5.497787148E-2,-6.976081133E-1,1.600466967E-1
1.096105401E0,4.948008433E-2,-6.841690540E-1,1.618792862E-1
1.098120480E0,4.459316283E-2,-6.591235995E-1,1.649336219E-1
1.100105096E0,4.337143153E-2,-6.346889734E-1,1.698205322E-1
1.102118098E0,4.092797264E-2,-6.230825782E-1,1.716531366E-1
1.104101408E0,3.420845419E-2,-5.986479521E-1,1.759291887E-1
1.106116487E0,2.626720630E-2,-5.766568184E-1,1.795943826E-1
1.108100181E0,2.382374369E-2,-5.650503635E-1,1.814269722E-1
1.110112799E0,1.771509275E-2,-5.461135507E-1,1.863138974E-1
1.112098032E0,1.588249579E-2,-5.357288122E-1,1.893682331E-1
1.114111033E0,1.038470957E-2,-5.186246037E-1,1.930334121E-1
1.116125188E0,2.443460980E-3,-5.002986193E-1,1.985312104E-1
1.118108883E0,1.221730490E-3,-4.948008358E-1,1.991420686E-1
1.120123962E0,-4.886921961E-3,-4.807509482E-1,2.040289938E-1
1.122106964E0,-7.330383174E-3,-4.721988440E-1,2.089159191E-1
1.124121120E0,-7.941247895E-3,-4.697553813E-1,2.131919712E-1
1.126105198E0,-1.038470957E-2,-4.679227769E-1,2.193006277E-1
1.128119276E0,-1.160643995E-2,-4.630358517E-1,2.247984111E-1
1.130103048E0,-1.343903504E-2,-4.630358517E-1,2.284636050E-1
1.132116896E0,-1.771509275E-2,-4.618141353E-1,2.315179259E-1
1.134101129E0,-2.260201424E-2,-4.660901725E-1,2.364048511E-1
1.136114746E0,-2.260201424E-2,-4.715879560E-1,2.388483137E-1
1.138097748E0,-2.382374369E-2,-4.795292318E-1,2.419026345E-1
1.140113827E0,-2.504547499E-2,-4.874704778E-1,2.437352389E-1
1.142096213E0,-2.626720630E-2,-4.941899776E-1,2.443460971E-1
1.144109522E0,-2.809980139E-2,-5.045747161E-1,2.492330223E-1
1.146123986E0,-2.809980139E-2,-5.149593949E-1,2.504547536E-1
1.148109142E0,-2.932153270E-2,-5.283984542E-1,2.504547536E-1
1.150122374E0,-2.932153270E-2,-5.461135507E-1,2.516764700E-1
1.152105838E0,-2.748893574E-2,-5.564982295E-1,2.516764700E-1
1.154119686E0,-2.687807009E-2,-5.729916096E-1,2.516764700E-1
1.156103379E0,-2.748893574E-2,-5.925393105E-1,2.504547536E-1
1.158117535E0,-2.687807009E-2,-6.004805565E-1,2.486221492E-1
1.160102383E0,-2.809980139E-2,-6.175847650E-1,2.480112910E-1
1.162115616E0,-2.687807009E-2,-6.316346526E-1,2.455678284E-1
1.164099310E0,-2.687807009E-2,-6.414085031E-1,2.443460971E-1
1.166113851E0,-2.809980139E-2,-6.542366743E-1,2.406809032E-1
1.168096930E0,-3.054326214E-2,-6.652322412E-1,2.388483137E-1
1.170111392E0,-3.237585723E-2,-6.707300544E-1,2.357939780E-1
1.172125164E0,-3.298672289E-2,-6.835582256E-1,2.315179259E-1
1.174109781E0,-3.420845419E-2,-6.890559793E-1,2.290744632E-1
1.176123629E0,-3.787364438E-2,-6.927211881E-1,2.284636050E-1
1.178107093E0,-3.909537569E-2,-6.982190013E-1,2.229658216E-1
1.180122095E0,-4.153883830E-2,-6.982190013E-1,2.241875380E-1
1.182104558E0,-4.337143153E-2,-7.006624341E-1,2.205223590E-1
1.184118790E0,-4.581489414E-2,-7.000515461E-1,2.199114859E-1
1.186102792E0,-4.703662544E-2,-7.000515461E-1,2.211332172E-1
1.188117256E0,-5.192354694E-2,-6.963863969E-1,2.223549485E-1
1.190099411E0,-5.436700583E-2,-6.921103001E-1,2.217440903E-1
1.192114183E0,-5.619960278E-2,-6.902777553E-1,2.211332172E-1
1.194097800E0,-5.864306539E-2,-6.829473376E-1,2.217440903E-1
1.196112571E0,-5.986479297E-2,-6.756169796E-1,2.296853364E-1
1.198096034E0,-6.169738993E-2,-6.713408828E-1,2.260201424E-1
1.200111420E0,-6.352998316E-2,-6.597344875E-1,2.309070677E-1
1.202124346E0,-6.658431143E-2,-6.493497491E-1,2.345722616E-1
1.204108578E0,-6.658431143E-2,-6.432411075E-1,2.351831198E-1
1.206121888E0,-6.597344577E-2,-6.328563690E-1,2.382374406E-1
1.208105582E0,-6.780604273E-2,-6.255260110E-1,2.394591719E-1
1.210119661E0,-6.597344577E-2,-6.126978397E-1,2.419026345E-1
1.212103662E0,-6.414084882E-2,-6.004805565E-1,2.425135076E-1
1.214117818E0,-6.475171447E-2,-5.962044597E-1,2.425135076E-1
1.216101205E0,-6.352998316E-2,-5.815436840E-1,2.443460971E-1
1.218115976E0,-6.414084882E-2,-5.668829679E-1,2.474004179E-1
1.220100363E0,-6.536258012E-2,-5.619960427E-1,2.467895597E-1
1.222113903E0,-6.658431143E-2,-5.467243791E-1,2.486221492E-1
1.224096904E0,-6.902777404E-2,-5.314527750E-1,2.510656118E-1
1.226110752E0,-7.024950534E-2,-5.235115290E-1,2.504547536E-1
1.228124985E0,-6.902777404E-2,-5.094616413E-1,2.559525371E-1
1.230108679E0,-7.574728876E-2,-4.886921942E-1,2.535090744E-1
1.232123374E0,-7.574728876E-2,-4.789183438E-1,2.535090744E-1
1.234107068E0,-7.574728876E-2,-4.605923891E-1,2.565633953E-1
1.236120685E0,-7.696902007E-2,-4.398229718E-1,2.565633953E-1
1.238104379E0,-7.880161703E-2,-4.276056588E-1,2.565633953E-1
1.240119458E0,-7.941248268E-2,-4.037819207E-1,2.590068579E-1
1.242102537E0,-7.941248268E-2,-3.909537494E-1,2.590068579E-1
1.244117000E0,-8.246681094E-2,-3.683517575E-1,2.608394623E-1
1.246100310E0,-8.307767659E-2,-3.439171314E-1,2.626720667E-1
1.248113850E0,-8.613199741E-2,-3.274237812E-1,2.620611787E-1
1.250097621E0,-8.735372871E-2,-2.999348342E-1,2.626720667E-1
1.252111469E0,-8.918632567E-2,-2.718350291E-1,2.638937831E-1
1.254096394E0,-9.101892263E-2,-2.590068579E-1,2.657263875E-1
1.256110165E0,-9.224065393E-2,-2.315179259E-1,2.663372457E-1
1.258124398E0,-9.529497474E-2,-2.034181207E-1,2.663372457E-1
1.260109323E0,-9.834930301E-2,-1.875356287E-1,2.663372457E-1
1.262122479E0,-9.773843735E-2,-1.588249654E-1,2.651155293E-1
1.264104942E0,-9.957103431E-2,-1.331686229E-1,2.663372457E-1
1.266120020E0,-9.896016866E-2,-1.191187203E-1,2.663372457E-1
1.268103791E0,-1.020144969E-1,-8.979719132E-2,2.675589919E-1
1.270116640E0,-9.896016866E-2,-6.230825558E-2,2.657263875E-1
1.272101257E0,-9.957103431E-2,-5.009094998E-2,2.663372457E-1
1.274115797E0,-9.712757170E-2,-2.443460934E-2,2.669481039E-1
1.276099107E0,-9.773843735E-2,-8.552113548E-3,2.681698501E-1
1.278113263E0,-9.773843735E-2,1.282817032E-2,2.669481039E-1
1.280097879E0,-9.773843735E-2,3.543018550E-2,2.675589919E-1
1.282110574E0,-9.712757170E-2,4.948008433E-2,2.687807083E-1
1.284125653E0,-9.224065393E-2,7.147123665E-2,2.693915665E-1
1.286107808E0,-9.224065393E-2,8.735372871E-2,2.700024247E-1
1.288123503E0,-9.224065393E-2,9.896016866E-2,2.700024247E-1
1.290106197E0,-8.918632567E-2,1.136209369E-1,2.700024247E-1
1.292120122E0,-8.857546002E-2,1.258382350E-1,2.706133127E-1
1.294104662E0,-8.491026610E-2,1.301143020E-1,2.718350291E-1
1.296118279E0,-8.185594529E-2,1.386664063E-1,2.718350291E-1
1.298102204E0,-7.635815442E-2,1.484402567E-1,2.724458873E-1
1.300116745E0,-7.391469181E-2,1.502728462E-1,2.730567753E-1
1.302099747E0,-6.902777404E-2,1.527163088E-1,2.730567753E-1
1.304112441E0,-6.475171447E-2,1.539380401E-1,2.730567753E-1
1.306097366E0,-6.230825558E-2,1.508837193E-1,2.742784917E-1
1.308112136E0,-5.619960278E-2,1.472185254E-1,2.730567753E-1
1.310095523E0,-5.131268129E-2,1.417207420E-1,2.730567753E-1
1.312109602E0,-4.459316283E-2,1.343903542E-1,2.712241709E-1
1.314124065E0,-3.909537569E-2,1.209513173E-1,2.693915665E-1
1.316107144E0,-3.787364438E-2,1.172861308E-1,2.693915665E-1
1.318120992E0,-3.176499158E-2,1.014036313E-1,2.687807083E-1
1.320106302E0,-2.687807009E-2,8.491026610E-2,2.663372457E-1
1.322119149E0,-2.443460934E-2,7.513642311E-2,2.645046413E-1
1.324103459E0,-2.076941915E-2,5.192354694E-2,2.638937831E-1
1.326117307E0,-1.832595654E-2,2.993239649E-2,2.620611787E-1
1.328100694E0,-1.649336144E-2,1.588249579E-2,2.608394623E-1
1.330115234E0,-1.404990070E-2,-9.773843922E-3,2.577851415E-1
1.332099544E0,-1.099557430E-2,-3.726277873E-2,2.559525371E-1
1.334113007E0,-8.552113548E-3,-5.131268129E-2,2.547308207E-1
1.336096085E0,-6.719517522E-3,-8.002334833E-2,2.492330223E-1
1.338110241E0,-1.221730490E-3,-1.123992056E-1,2.498438805E-1
1.340125320E0,0.000000000E0,-1.270599663E-1,2.486221492E-1
1.342108476E0,-6.108652451E-4,-1.539380401E-1,2.412917763E-1
1.344122555E0,6.108652451E-4,-1.685988009E-1,2.431243658E-1
1.346106941E0,-2.443460980E-3,-1.979203373E-1,2.388483137E-1
1.348121097E0,-6.108652451E-4,-2.278527319E-1,2.333505303E-1
1.350104175E0,2.443460980E-3,-2.431243658E-1,2.351831198E-1
1.352117946E0,2.443460980E-3,-2.706133127E-1,2.284636050E-1
1.354101333E0,3.665191587E-3,-2.981022298E-1,2.235766798E-1
1.356116489E0,4.276056774E-3,-3.097086847E-1,2.217440903E-1
1.358099876E0,5.497787148E-3,-3.316998184E-1,2.180788964E-1
1.360114262E0,4.276056774E-3,-3.530801237E-1,2.125810981E-1
1.362097418E0,6.108652335E-3,-3.640756905E-1,2.083050460E-1
1.364112111E0,6.719517522E-3,-3.799581826E-1,2.046398520E-1
1.366095498E0,7.330383174E-3,-3.958406746E-1,2.028072625E-1
1.368109654E0,7.941247895E-3,-4.031710625E-1,1.985312104E-1
1.370123810E0,6.108652335E-3,-4.147774875E-1,1.936442852E-1
1.372107273E0,6.719517522E-3,-4.202753007E-1,1.924225539E-1
1.374121044E0,9.162978269E-3,-4.282165468E-1,1.869247705E-1
1.376104815E0,1.099557430E-2,-4.367686510E-1,1.808161139E-1
1.378119201E0,1.343903504E-2,-4.386012554E-1,1.783726513E-1
1.380103896E0,1.404990070E-2,-4.361577928E-1,1.740965992E-1
1.382117051E0,2.015855350E-2,-4.367686510E-1,1.698205322E-1
1.384101053E0,2.015855350E-2,-4.318817258E-1,1.655444801E-1
1.386113363E0,2.199114859E-2,-4.251621962E-1,1.612684280E-1
1.388097673E0,2.626720630E-2,-4.159992337E-1,1.551597714E-1
1.390112828E0,2.809980139E-2,-4.092797041E-1,1.533271819E-1
1.392095599E0,3.115412779E-2,-3.964515328E-1,1.484402567E-1
1.394110601E0,3.359758854E-2,-3.799581826E-1,1.386664063E-1
1.396124834E0,3.420845419E-2,-3.720169365E-1,1.374446750E-1
1.398107836E0,4.092797264E-2,-3.567453027E-1,1.319468915E-1
1.400123915E0,4.642575979E-2,-3.353650272E-1,1.227839142E-1
1.402106301E0,4.703662544E-2,-3.249803185E-1,1.215621829E-1
1.404121687E0,4.948008433E-2,-3.023782969E-1,1.136209369E-1
1.406103304E0,5.131268129E-2,-2.901609838E-1,1.087340117E-1
1.408117999E0,5.375614017E-2,-2.681698501E-1,9.834930301E-2
1.410101693E0,5.375614017E-2,-2.449569702E-1,9.162978828E-2
1.412115849E0,5.253441259E-2,-2.339613885E-1,8.674286306E-2
1.414099620E0,5.436700583E-2,-2.076941878E-1,8.246681094E-2
1.416113776E0,5.131268129E-2,-1.844813079E-1,7.635815442E-2
1.418097161E0,5.192354694E-2,-1.728748679E-1,7.147123665E-2
1.420112163E0,4.948008433E-2,-1.490511149E-1,7.024950534E-2
1.422095012E0,5.009094998E-2,-1.227839142E-1,6.963863969E-2
1.424108860E0,4.825835302E-2,-1.111774743E-1,6.780604273E-2
1.426124169E0,4.886921868E-2,-8.491026610E-2,6.780604273E-2
1.428108248E0,4.642575979E-2,-5.864306539E-2,6.841690838E-2
1.430120789E0,4.398229718E-2,-4.642575979E-2,7.208210230E-2
1.432105098E0,4.520402849E-2,-2.321287990E-2,7.696902007E-2
1.434118946E0,4.214970022E-2,1.832595794E-3,8.063421398E-2
1.436102640E0,4.337143153E-2,1.282817032E-2,8.613199741E-2
1.438116873E0,4.092797264E-2,3.481931984E-2,8.918632567E-2
1.440100875E0,4.153883830E-2,4.459316283E-2,9.285151958E-2
1.442115031E0,3.970624134E-2,6.841690838E-2,1.001819000E-1
1.444098648E0,3.970624134E-2,8.918632567E-2,1.075122803E-1
1.446113111E0,3.726277873E-2,9.957103431E-2,1.099557430E-1
1.448095882E0,3.604105115E-2,1.191187203E-1,1.185078546E-1
1.450110038E0,3.481931984E-2,1.368338168E-1,1.246165112E-1
1.452124194E0,3.665191308E-2,1.453859210E-1,1.288925707E-1
1.454108272E0,3.481931984E-2,1.673770845E-1,1.331686229E-1
1.456122044E0,3.665191308E-2,1.795943826E-1,1.362229437E-1
1.458106430E0,3.481931984E-2,1.881465018E-1,1.392772794E-1
1.460121739E0,3.726277873E-2,2.009746730E-1,1.398881376E-1
1.462103664E0,3.604105115E-2,2.125810981E-1,1.404990107E-1
1.464117435E0,3.665191308E-2,2.186897546E-1,1.404990107E-1
1.466100822E0,3.909537569E-2,2.260201424E-1,1.368338168E-1
1.468115978E0,4.337143153E-2,2.339613885E-1,1.356120855E-1
1.470099364E0,4.459316283E-2,2.376265824E-1,1.301143020E-1
1.472113443E0,4.764748737E-2,2.394591719E-1,1.233947799E-1
1.474096829E0,4.825835302E-2,2.419026345E-1,1.209513173E-1
1.476111062E0,5.009094998E-2,2.443460971E-1,1.142318025E-1
1.478125525E0,5.436700583E-2,2.437352389E-1,1.032362282E-1
1.480110373E0,5.742133409E-2,2.455678284E-1,1.026253626E-1
1.482123375E0,5.803219974E-2,2.449569702E-1,9.040805697E-2
1.484107993E0,6.475171447E-2,2.412917763E-1,8.246681094E-2
1.486120303E0,6.414084882E-2,2.425135076E-1,7.696902007E-2
1.488104611E0,6.536258012E-2,2.412917763E-1,6.780604273E-2
1.490119075E0,6.536258012E-2,2.382374406E-1,6.169738993E-2
1.492102692E0,6.658431143E-2,2.370157093E-1,5.558873713E-2
1.494116310E0,6.719517708E-2,2.357939780E-1,4.703662544E-2
1.496099696E0,6.902777404E-2,2.309070677E-1,4.153883830E-2
1.498114083E0,6.780604273E-2,2.309070677E-1,3.787364438E-2
1.500099700E0,6.902777404E-2,2.315179259E-1,3.176499158E-2
1.502111701E0,6.841690838E-2,2.302961946E-1,2.871066704E-2
1.504126472E0,7.024950534E-2,2.296853364E-1,2.382374369E-2
1.506111013E0,7.024950534E-2,2.302961946E-1,1.954768784E-2
1.508125169E0,6.841690838E-2,2.302961946E-1,1.832595654E-2
1.510107632E0,6.902777404E-2,2.302961946E-1,1.343903504E-2
1.512122096E0,6.597344577E-2,2.357939780E-1,8.552113548E-3
1.514105867E0,6.780604273E-2,2.327396572E-1,7.330383174E-3
1.516119407E0,6.841690838E-2,2.351831198E-1,5.497787148E-3
1.518103639E0,6.475171447E-2,2.388483137E-1,0.000000000E0
1.520117795E0,6.658431143E-2,2.376265824E-1,6.108652451E-4
1.522101182E0,6.475171447E-2,2.412917763E-1,-2.443460980E-3
1.524117184E0,6.291911751E-2,2.449569702E-1,-5.497787148E-3
1.526098724E0,5.864306539E-2,2.461786866E-1,-3.665191587E-3
1.528113496E0,6.047565863E-2,2.467895597E-1,-7.330383174E-3
1.530096650E0,5.864306539E-2,2.492330223E-1,-1.221730467E-2
1.532111114E0,5.681046844E-2,2.510656118E-1,-1.099557430E-2
1.534125808E0,5.497787148E-2,2.510656118E-1,-1.282817032E-2
1.536108579E0,5.497787148E-2,2.498438805E-1,-1.282817032E-2
1.538122812E0,5.192354694E-2,2.510656118E-1,-1.343903504E-2
1.540107968E0,4.703662544E-2,2.535090744E-1,-1.649336144E-2
1.542120970E0,4.520402849E-2,2.522873580E-1,-1.893682219E-2
1.544103356E0,4.520402849E-2,2.516764700E-1,-2.199114859E-2
1.546117819E0,4.031710699E-2,2.510656118E-1,-2.199114859E-2
1.548102437E0,4.092797264E-2,2.486221492E-1,-2.138028294E-2
1.550116592E0,3.604105115E-2,2.498438805E-1,-2.199114859E-2
1.552100287E0,3.420845419E-2,2.486221492E-1,-2.504547499E-2
1.554114135E0,3.176499158E-2,2.510656118E-1,-2.626720630E-2
1.556097213E0,3.054326214E-2,2.492330223E-1,-2.626720630E-2
1.558112061E0,2.932153270E-2,2.510656118E-1,-2.565634064E-2
1.560096063E0,2.871066704E-2,2.498438805E-1,-2.504547499E-2
1.562110757E0,3.054326214E-2,2.516764700E-1,-2.687807009E-2
1.564124606E0,2.932153270E-2,2.547308207E-1,-2.748893574E-2
1.566107146E0,2.748893574E-2,2.590068579E-1,-2.504547499E-2
1.568121610E0,2.871066704E-2,2.626720667E-1,-2.993239649E-2
1.570105534E0,2.871066704E-2,2.638937831E-1,-2.809980139E-2
1.572119997E0,3.115412779E-2,2.724458873E-1,-2.871066704E-2
1.574102538E0,2.932153270E-2,2.822197378E-1,-2.993239649E-2
1.576117309E0,3.115412779E-2,2.846632004E-1,-2.993239649E-2
1.578100311E0,2.993239649E-2,2.926044464E-1,-2.993239649E-2
1.580117005E0,3.054326214E-2,3.023782969E-1,-3.237585723E-2
1.582099161E0,3.176499158E-2,3.072652221E-1,-2.932153270E-2
1.584113239E0,3.665191308E-2,3.152064681E-1,-3.237585723E-2
1.586097010E0,4.153883830E-2,3.255911767E-1,-3.176499158E-2
1.588111089E0,4.337143153E-2,3.280346394E-1,-3.115412779E-2
1.590124322E0,4.642575979E-2,3.396410644E-1,-2.748893574E-2
1.592109016E0,5.070181563E-2,3.469714522E-1,-2.993239649E-2
1.594122557E0,5.436700583E-2,3.518583775E-1,-2.504547499E-2
1.596106482E0,5.864306539E-2,3.610213697E-1,-2.626720630E-2
1.598120329E0,6.169738993E-2,3.707951903E-1,-2.382374369E-2
1.600105639E0,6.475171447E-2,3.744603992E-1,-2.321287990E-2
1.602118256E0,7.269296050E-2,3.799581826E-1,-2.504547499E-2
1.604102796E0,7.513642311E-2,3.836233616E-1,-2.076941915E-2
1.606116337E0,8.063421398E-2,3.891211748E-1,-2.015855350E-2
1.608100108E0,8.735372871E-2,3.903428912E-1,-1.710422710E-2
1.610114572E0,8.674286306E-2,3.940080702E-1,-1.527163107E-2
1.612097650E0,9.224065393E-2,3.988949955E-1,-1.160643995E-2
1.614111805E0,9.285151958E-2,3.964515328E-1,-7.941247895E-3
1.616095731E0,9.224065393E-2,3.982841372E-1,-6.719517522E-3
1.618110194E0,9.101892263E-2,3.988949955E-1,-3.665191587E-3
1.620124658E0,9.101892263E-2,3.952298164E-1,-1.221730490E-3
1.622107737E0,9.040805697E-2,3.927863538E-1,3.054326167E-3
1.624120662E0,8.796459436E-2,3.860668242E-1,5.497787148E-3
1.626105047E0,8.491026610E-2,3.787364662E-1,9.773843922E-3
1.628120049E0,8.307767659E-2,3.738495409E-1,1.038470957E-2
1.630103205E0,8.063421398E-2,3.646865487E-1,1.649336144E-2
1.632116746E0,7.696902007E-2,3.579670191E-1,1.954768784E-2
1.634101055E0,7.208210230E-2,3.457497358E-1,2.199114859E-2
1.636115519E0,6.902777404E-2,3.329215646E-1,2.748893574E-2
1.638098521E0,6.658431143E-2,3.249803185E-1,3.054326214E-2
1.640113599E0,6.169738993E-2,3.109304011E-1,3.481931984E-2
1.642097370E0,5.619960278E-2,2.962696552E-1,3.848451003E-2
1.644111141E0,5.619960278E-2,2.871066630E-1,4.031710699E-2
1.646124374E0,5.009094998E-2,2.693915665E-1,4.764748737E-2
1.648108684E0,4.337143153E-2,2.516764700E-1,5.070181563E-2
1.650122609E0,3.970624134E-2,2.419026345E-1,4.948008433E-2
1.652105995E0,3.787364438E-2,2.211332172E-1,5.375614017E-2
1.654120996E0,3.054326214E-2,2.003637999E-1,5.864306539E-2
1.656104691E0,2.748893574E-2,1.887573600E-1,5.986479297E-2
1.658118847E0,2.260201424E-2,1.685988009E-1,6.352998316E-2
1.660102310E0,1.771509275E-2,1.459967941E-1,6.780604273E-2
1.662116081E0,1.588249579E-2,1.337794960E-1,6.719517708E-2
1.664098930E0,8.552113548E-3,1.111774743E-1,7.086037099E-2
1.666114316E0,6.108652335E-3,9.834930301E-2,7.086037099E-2
1.668098009E0,3.665191587E-3,7.452555746E-2,7.269296050E-2
1.670110935E0,1.221730490E-3,4.764748737E-2,7.452555746E-2
1.672126244E0,1.221730490E-3,3.665191308E-2,7.391469181E-2
1.674109631E0,0.000000000E0,1.160643995E-2,7.513642311E-2
1.676123864E0,6.108652451E-4,-1.343903504E-2,7.391469181E-2
1.678106866E0,-6.108652451E-4,-2.626720630E-2,7.269296050E-2
1.680121714E0,-1.221730490E-3,-4.825835302E-2,7.086037099E-2
1.682105638E0,1.832595794E-3,-7.024950534E-2,6.963863969E-2
1.684119794E0,3.054326167E-3,-8.002334833E-2,6.719517708E-2
1.686102873E0,4.886921961E-3,-9.651670605E-2,6.291911751E-2
1.688116798E0,6.108652335E-3,-1.130100712E-1,6.108652428E-2
1.690100415E0,4.886921961E-3,-1.197295859E-1,5.558873713E-2
1.692114879E0,8.552113548E-3,-1.343903542E-1,5.253441259E-2
1.694098880E0,7.941247895E-3,-1.459967941E-1,4.886921868E-2
1.696112805E0,8.552113548E-3,-1.478293836E-1,4.520402849E-2
1.698096499E0,1.038470957E-2,-1.582140923E-1,3.848451003E-2
1.700111270E0,1.038470957E-2,-1.606575549E-1,3.787364438E-2
1.702125118E0,7.941247895E-3,-1.649336219E-1,3.115412779E-2
1.704107505E0,8.552113548E-3,-1.667662114E-1,2.932153270E-2
1.706121430E0,6.108652335E-3,-1.661553532E-1,2.809980139E-2
1.708105970E0,6.719517522E-3,-1.649336219E-1,2.443460934E-2
1.710120741E0,6.108652335E-3,-1.606575549E-1,2.015855350E-2
1.712103281E0,6.108652335E-3,-1.588249654E-1,2.076941915E-2
1.714118360E0,3.665191587E-3,-1.508837193E-1,1.893682219E-2
1.716101362E0,5.497787148E-3,-1.423316002E-1,1.404990070E-2
1.718115826E0,3.665191587E-3,-1.368338168E-1,1.466076635E-2
1.720100751E0,2.443460980E-3,-1.240056455E-1,1.282817032E-2
1.722113367E0,1.832595794E-3,-1.130100712E-1,1.038470957E-2
1.724097677E0,0.000000000E0,-1.069014147E-1,9.773843922E-3
1.726111602E0,0.000000000E0,-9.407325089E-2,7.941247895E-3
1.728126066E0,-6.108652451E-4,-7.880161703E-2,4.276056774E-3
1.730109452E0,6.108652451E-4,-7.269296050E-2,6.108652335E-3
1.732123839E0,-3.665191587E-3,-5.742133409E-2,3.054326167E-3
1.734107610E0,-3.665191587E-3,-5.009094998E-2,1.221730490E-3
1.736121150E0,-3.054326167E-3,-3.604105115E-2,6.108652451E-4
1.738104767E0,-4.276056774E-3,-2.260201424E-2,-2.443460980E-3
1.740119923E0,-5.497787148E-3,-1.343903504E-2,-4.886921961E-3
1.742102694E0,-9.162978269E-3,6.108652451E-4,-4.886921961E-3
1.744116773E0,-1.038470957E-2,1.404990070E-2,-8.552113548E-3
1.746100544E0,-1.038470957E-2,1.954768784E-2,-7.941247895E-3
1.748114931E0,-1.221730467E-2,2.932153270E-2,-1.038470957E-2
1.750097393E0,-1.404990070E-2,4.092797264E-2,-1.404990070E-2
1.752113088E0,-1.527163107E-2,4.214970022E-2,-1.588249579E-2
1.754095936E0,-1.649336144E-2,5.314527452E-2,-1.527163107E-2
1.756110092E0,-1.771509275E-2,6.108652428E-2,-1.588249579E-2
1.758123632E0,-1.893682219E-2,6.414084882E-2,-1.771509275E-2
1.760109173E0,-2.199114859E-2,6.902777404E-2,-2.015855350E-2
1.762122405E0,-2.382374369E-2,7.330382615E-2,-2.076941915E-2
1.764106714E0,-2.260201424E-2,7.513642311E-2,-2.076941915E-2
1.766120255E0,-2.504547499E-2,7.819075137E-2,-2.443460934E-2
1.768103026E0,-2.260201424E-2,7.941248268E-2,-2.321287990E-2
1.770118028E0,-2.504547499E-2,7.819075137E-2,-2.565634064E-2
1.772101184E0,-2.321287990E-2,8.002334833E-2,-2.382374369E-2
1.774116186E0,-2.382374369E-2,8.063421398E-2,-2.260201424E-2
1.776099265E0,-2.382374369E-2,8.002334833E-2,-2.565634064E-2
1.778113496E0,-2.260201424E-2,7.819075137E-2,-2.565634064E-2
1.780097806E0,-2.199114859E-2,7.696902007E-2,-2.565634064E-2
1.782110962E0,-2.321287990E-2,7.696902007E-2,-2.443460934E-2
1.784122041E0,-2.321287990E-2,7.513642311E-2,-2.748893574E-2
1.786108504E0,-2.321287990E-2,7.208210230E-2,-2.809980139E-2
1.788123583E0,-2.565634064E-2,7.269296050E-2,-2.871066704E-2
1.790106355E0,-2.321287990E-2,6.963863969E-2,-2.748893574E-2
1.792120586E0,-2.809980139E-2,6.536258012E-2,-2.871066704E-2
1.794104588E0,-2.626720630E-2,6.169738993E-2,-3.054326214E-2
1.796118436E0,-2.565634064E-2,5.986479297E-2,-2.871066704E-2
1.798102669E0,-2.687807009E-2,5.742133409E-2,-2.993239649E-2
1.800117825E0,-2.443460934E-2,5.497787148E-2,-2.748893574E-2
1.802100519E0,-2.138028294E-2,5.131268129E-2,-2.687807009E-2
1.804115368E0,-2.504547499E-2,5.009094998E-2,-2.932153270E-2
1.806097830E0,-2.199114859E-2,4.948008433E-2,-2.626720630E-2
1.808112524E0,-2.015855350E-2,4.886921868E-2,-2.504547499E-2
1.810095988E0,-1.954768784E-2,4.764748737E-2,-2.504547499E-2
1.812110451E0,-1.710422710E-2,4.825835302E-2,-2.565634064E-2
1.814124530E0,-1.771509275E-2,5.009094998E-2,-2.443460934E-2
1.816107686E0,-1.771509275E-2,5.131268129E-2,-2.260201424E-2
1.818121227E0,-1.771509275E-2,5.192354694E-2,-2.382374369E-2
1.820106382E0,-1.649336144E-2,5.131268129E-2,-2.260201424E-2
1.822119999E0,-1.710422710E-2,5.314527452E-2,-2.076941915E-2
1.824102770E0,-1.771509275E-2,5.253441259E-2,-2.138028294E-2
1.826117541E0,-1.527163107E-2,5.497787148E-2,-2.076941915E-2
1.828101774E0,-1.404990070E-2,5.253441259E-2,-1.832595654E-2
1.830114776E0,-1.466076635E-2,5.803219974E-2,-2.076941915E-2
1.832099086E0,-1.527163107E-2,5.925392732E-2,-1.893682219E-2
1.834113472E0,-1.527163107E-2,5.742133409E-2,-1.771509275E-2
1.836097781E0,-1.588249579E-2,5.864306539E-2,-1.710422710E-2
1.838111322E0,-1.649336144E-2,6.047565863E-2,-1.954768784E-2
1.840126708E0,-1.466076635E-2,5.864306539E-2,-1.710422710E-2
1.842109480E0,-1.527163107E-2,5.986479297E-2,-1.832595654E-2
1.844123712E0,-1.710422710E-2,6.047565863E-2,-1.466076635E-2
1.846107022E0,-1.710422710E-2,5.925392732E-2,-1.710422710E-2
1.848120331E0,-1.771509275E-2,5.986479297E-2,-1.832595654E-2
1.850104256E0,-1.832595654E-2,5.986479297E-2,-1.893682219E-2
1.852119027E0,-2.076941915E-2,5.925392732E-2,-1.404990070E-2
1.854103029E0,-2.199114859E-2,5.864306539E-2,-1.710422710E-2
1.856116646E0,-2.199114859E-2,5.558873713E-2,-1.649336144E-2
1.858099725E0,-2.138028294E-2,5.131268129E-2,-1.710422710E-2
1.860115112E0,-2.321287990E-2,5.009094998E-2,-1.710422710E-2
1.862098190E0,-2.565634064E-2,4.581489414E-2,-1.710422710E-2
1.864111730E0,-2.443460934E-2,4.092797264E-2,-1.710422710E-2
1.866125194E0,-2.809980139E-2,3.420845419E-2,-1.893682219E-2
1.868109888E0,-2.871066704E-2,2.871066704E-2,-2.076941915E-2
1.870124583E0,-2.932153270E-2,2.443460934E-2,-2.015855350E-2
1.872107354E0,-2.993239649E-2,1.649336144E-2,-2.015855350E-2
1.874121817E0,-3.054326214E-2,1.099557430E-2,-2.138028294E-2
1.876105511E0,-2.993239649E-2,3.665191587E-3,-2.260201424E-2
1.878120282E0,-3.237585723E-2,-3.054326167E-3,-2.260201424E-2
1.880103438E0,-3.176499158E-2,-1.282817032E-2,-2.382374369E-2
1.882117901E0,-3.298672289E-2,-1.893682219E-2,-2.504547499E-2
1.884101288E0,-3.298672289E-2,-2.809980139E-2,-2.260201424E-2
1.886115367E0,-3.420845419E-2,-3.970624134E-2,-2.565634064E-2
1.888098522E0,-3.176499158E-2,-4.398229718E-2,-2.504547499E-2
1.890112908E0,-2.932153270E-2,-5.314527452E-2,-2.687807009E-2
1.892096295E0,-2.687807009E-2,-5.803219974E-2,-2.748893574E-2
1.894110528E0,-2.443460934E-2,-6.536258012E-2,-2.626720630E-2
1.896124991E0,-2.260201424E-2,-7.513642311E-2,-2.504547499E-2
1.898108916E0,-2.138028294E-2,-7.880161703E-2,-2.748893574E-2
1.900124688E0,-1.893682219E-2,-8.429940045E-2,-2.748893574E-2
1.902106458E0,-1.710422710E-2,-9.162978828E-2,-2.871066704E-2
1.904120075E0,-1.404990070E-2,-9.346238524E-2,-3.176499158E-2
1.906104923E0,-1.343903504E-2,-1.007927656E-1,-2.993239649E-2
1.908118848E0,-1.221730467E-2,-1.044579595E-1,-3.237585723E-2
1.910101927E0,-1.038470957E-2,-1.056796908E-1,-3.176499158E-2
1.912116622E0,-6.108652335E-3,-1.069014147E-1,-3.237585723E-2
1.914100316E0,-4.276056774E-3,-1.093448773E-1,-3.481931984E-2
1.916113932E0,-3.665191587E-3,-1.093448773E-1,-3.787364438E-2
1.918097550E0,-3.054326167E-3,-1.062905490E-1,-3.604105115E-2
1.920112706E0,0.000000000E0,-1.038470939E-1,-3.665191308E-2
1.922095785E0,6.108652451E-4,-1.014036313E-1,-3.787364438E-2
1.924109940E0,1.221730490E-3,-9.896016866E-2,-3.909537569E-2
1.926123173E0,3.665191587E-3,-9.712757170E-2,-4.153883830E-2
1.928107714E0,2.443460980E-3,-8.979719132E-2,-3.726277873E-2
1.930121253E0,4.276056774E-3,-8.429940045E-2,-3.909537569E-2
1.932105255E0,5.497787148E-3,-8.124507964E-2,-3.970624134E-2
1.934119411E0,4.276056774E-3,-7.574728876E-2,-3.909537569E-2
1.936103413E0,4.276056774E-3,-7.024950534E-2,-3.970624134E-2
1.938117338E0,4.886921961E-3,-6.597344577E-2,-3.909537569E-2
1.940102571E0,5.497787148E-3,-6.108652428E-2,-3.970624134E-2
1.942116111E0,2.443460980E-3,-5.436700583E-2,-3.970624134E-2
1.944097958E0,4.886921961E-3,-5.253441259E-2,-4.092797264E-2
1.946112960E0,3.665191587E-3,-4.520402849E-2,-4.153883830E-2
1.948096962E0,2.443460980E-3,-4.153883830E-2,-4.153883830E-2
1.950110503E0,1.221730490E-3,-3.909537569E-2,-4.337143153E-2
1.952124736E0,3.054326167E-3,-3.420845419E-2,-4.459316283E-2
1.954108738E0,1.221730490E-3,-2.871066704E-2,-4.581489414E-2
1.956122817E0,-6.108652451E-4,-2.871066704E-2,-4.581489414E-2
1.958106279E0,-1.832595794E-3,-2.504547499E-2,-4.825835302E-2
1.960120973E0,-1.832595794E-3,-2.504547499E-2,-4.948008433E-2
1.962104360E0,-4.276056774E-3,-2.260201424E-2,-5.192354694E-2
1.964118824E0,-5.497787148E-3,-2.138028294E-2,-5.497787148E-2
1.966102595E0,-9.162978269E-3,-1.954768784E-2,-5.742133409E-2
1.968116443E0,-9.773843922E-3,-1.954768784E-2,-5.742133409E-2
1.970100137E0,-1.282817032E-2,-2.015855350E-2,-5.986479297E-2
1.972113677E0,-1.221730467E-2,-2.015855350E-2,-6.414084882E-2
1.974097910E0,-1.404990070E-2,-2.199114859E-2,-6.291911751E-2
1.976111835E0,-1.588249579E-2,-2.199114859E-2,-6.536258012E-2
1.978125914E0,-1.282817032E-2,-2.321287990E-2,-6.780604273E-2
1.980110839E0,-1.466076635E-2,-2.443460934E-2,-6.963863969E-2
1.982123764E0,-1.588249579E-2,-2.443460934E-2,-7.269296050E-2
1.984106227E0,-1.466076635E-2,-2.565634064E-2,-7.269296050E-2
1.986121998E0,-1.771509275E-2,-2.626720630E-2,-7.147123665E-2
1.988105384E0,-1.771509275E-2,-2.565634064E-2,-7.574728876E-2
1.990117925E0,-1.710422710E-2,-2.626720630E-2,-7.513642311E-2
1.992103234E0,-1.649336144E-2,-2.809980139E-2,-7.696902007E-2
1.994117313E0,-1.710422710E-2,-2.748893574E-2,-7.757988572E-2
1.996101315E0,-1.404990070E-2,-2.626720630E-2,-7.696902007E-2
1.998114856E0,-1.038470957E-2,-2.871066704E-2,-8.063421398E-2
2.000099472E0,-1.221730467E-2,-2.748893574E-2,-7.941248268E-2
2.002113397E0,-6.719517522E-3,-2.565634064E-2,-7.880161703E-2
2.004096707E0,-8.552113548E-3,-2.443460934E-2,-8.185594529E-2
2.006110863E0,-7.330383174E-3,-2.321287990E-2,-7.819075137E-2
2.008124403E0,-4.276056774E-3,-1.954768784E-2,-7.880161703E-2
2.010108098E0,-3.665191587E-3,-1.527163107E-2,-7.880161703E-2
2.012122023E0,-3.665191587E-3,-1.221730467E-2,-7.757988572E-2
2.014106562E0,-5.497787148E-3,-9.162978269E-3,-7.880161703E-2
2.016120487E0,-3.054326167E-3,-3.665191587E-3,-7.757988572E-2
2.018104412E0,-1.221730490E-3,0.000000000E0,-7.635815442E-2
2.020118876E0,5.497787148E-3,4.886921961E-3,-7.452555746E-2
2.022101647E0,8.552113548E-3,1.404990070E-2,-7.330382615E-2
2.024113341E0,8.552113548E-3,1.649336144E-2,-7.086037099E-2
2.026098573E0,1.038470957E-2,2.932153270E-2,-7.147123665E-2
2.028113729E0,1.160643995E-2,3.115412779E-2,-7.086037099E-2
2.030096731E0,1.282817032E-2,4.581489414E-2,-6.780604273E-2
2.032111271E0,1.404990070E-2,5.681046844E-2,-6.719517708E-2
2.034126273E0,1.710422710E-2,6.108652428E-2,-6.597344577E-2
2.036109429E0,1.832595654E-2,7.330382615E-2,-6.475171447E-2
2.038123508E0,2.076941915E-2,8.429940045E-2,-6.169738993E-2
2.040108201E0,2.199114859E-2,8.979719132E-2,-5.986479297E-2
2.042121127E0,2.076941915E-2,1.038470939E-1,-6.108652428E-2
2.044105667E0,2.138028294E-2,1.185078546E-1,-5.497787148E-2
2.046119284E0,1.954768784E-2,1.233947799E-1,-5.558873713E-2
2.048102979E0,1.588249579E-2,1.374446750E-1,-5.436700583E-2
2.050117058E0,1.527163107E-2,1.533271819E-1,-5.375614017E-2
2.052100521E0,1.404990070E-2,1.576032341E-1,-5.375614017E-2
2.054115291E0,1.282817032E-2,1.679879427E-1,-4.825835302E-2
2.056098678E0,1.343903504E-2,1.722639948E-1,-4.948008433E-2
2.058112219E0,1.038470957E-2,1.795943826E-1,-4.825835302E-2
2.060127528E0,7.941247895E-3,1.905899495E-1,-4.642575979E-2
2.062110376E0,5.497787148E-3,1.936442852E-1,-4.642575979E-2
2.064123840E0,4.276056774E-3,1.991420686E-1,-4.214970022E-2
2.066108227E0,1.221730490E-3,2.021963894E-1,-4.337143153E-2
2.068122304E0,1.832595794E-3,2.046398520E-1,-4.337143153E-2
2.070105999E0,-6.108652335E-3,2.070833147E-1,-4.398229718E-2
2.072119616E0,-6.108652335E-3,2.046398520E-1,-4.398229718E-2
2.074104464E0,-7.941247895E-3,2.040289938E-1,-4.214970022E-2
2.076118697E0,-1.160643995E-2,2.009746730E-1,-4.214970022E-2
2.078101699E0,-1.710422710E-2,1.954768747E-1,-3.909537569E-2
2.080116547E0,-1.893682219E-2,1.930334121E-1,-3.970624134E-2
2.082098933E0,-2.382374369E-2,1.869247705E-1,-3.909537569E-2
2.084114320E0,-2.932153270E-2,1.753183305E-1,-3.848451003E-2
2.086096475E0,-3.237585723E-2,1.698205322E-1,-3.970624134E-2
2.088111016E0,-3.726277873E-2,1.600466967E-1,-3.848451003E-2
2.090125787E0,-3.848451003E-2,1.521054506E-1,-4.031710699E-2
2.092109097E0,-4.214970022E-2,1.411098689E-1,-3.665191308E-2
2.094123637E0,-4.703662544E-2,1.276708394E-1,-3.787364438E-2
2.096107023E0,-4.886921868E-2,1.191187203E-1,-3.604105115E-2
2.098120794E0,-5.009094998E-2,1.062905490E-1,-3.787364438E-2
2.100106027E0,-5.192354694E-2,8.979719132E-2,-3.726277873E-2
2.102119260E0,-5.375614017E-2,8.613199741E-2,-3.665191308E-2
2.104102646E0,-5.070181563E-2,7.513642311E-2,-3.543018550E-2
2.106116494E0,-4.703662544E-2,6.108652428E-2,-3.665191308E-2
2.108101112E0,-4.520402849E-2,5.558873713E-2,-3.848451003E-2
2.110114344E0,-4.153883830E-2,4.642575979E-2,-3.726277873E-2
2.112098423E0,-3.787364438E-2,3.543018550E-2,-4.092797264E-2
2.114113117E0,-3.909537569E-2,3.298672289E-2,-4.214970022E-2
2.116096273E0,-3.665191308E-2,2.565634064E-2,-4.092797264E-2
2.118110121E0,-3.359758854E-2,1.893682219E-2,-4.398229718E-2
2.120124584E0,-3.481931984E-2,1.649336144E-2,-4.276056588E-2
2.122108509E0,-3.543018550E-2,1.343903504E-2,-4.520402849E-2
2.124122434E0,-3.054326214E-2,1.221730467E-2,-4.398229718E-2
2.126106436E0,-2.626720630E-2,7.941247895E-3,-4.337143153E-2
2.128119361E0,-2.321287990E-2,9.773843922E-3,-4.703662544E-2
2.130103286E0,-2.199114859E-2,1.038470957E-2,-4.642575979E-2
2.132117826E0,-1.404990070E-2,1.404990070E-2,-4.642575979E-2
2.134102059E0,-1.038470957E-2,2.138028294E-2,-4.520402849E-2
2.136115907E0,-8.552113548E-3,2.443460934E-2,-4.398229718E-2
2.138099293E0,-5.497787148E-3,3.543018550E-2,-4.398229718E-2
2.140114756E0,-3.054326167E-3,4.886921868E-2,-4.031710699E-2
2.142096528E0,-3.054326167E-3,5.497787148E-2,-4.031710699E-2
2.144110145E0,1.221730490E-3,6.963863969E-2,-3.787364438E-2
2.146125839E0,3.665191587E-3,8.368854225E-2,-3.420845419E-2
2.148109534E0,5.497787148E-3,9.224065393E-2,-3.176499158E-2
2.150122382E0,3.054326167E-3,1.111774743E-1,-3.115412779E-2
2.152107383E0,4.886921961E-3,1.185078546E-1,-2.993239649E-2
2.154120923E0,2.443460980E-3,1.386664063E-1,-2.443460934E-2
2.156104848E0,6.719517522E-3,1.539380401E-1,-2.076941915E-2
2.158118466E0,6.719517522E-3,1.618792862E-1,-1.893682219E-2
2.160103314E0,5.497787148E-3,1.795943826E-1,-1.588249579E-2
2.162116316E0,6.108652335E-3,1.960877478E-1,-1.160643995E-2
2.164100241E0,6.108652335E-3,2.028072625E-1,-9.773843922E-3
2.166114473E0,6.108652335E-3,2.144137025E-1,-6.719517522E-3
2.168098167E0,4.276056774E-3,2.321287990E-1,-2.443460980E-3
2.170111938E0,3.665191587E-3,2.370157093E-1,-6.108652451E-4
2.172126094E0,1.221730490E-3,2.486221492E-1,3.054326167E-3
2.174109250E0,0.000000000E0,2.559525371E-1,4.276056774E-3
2.176124021E0,-6.108652451E-4,2.620611787E-1,4.886921961E-3
2.178108562E0,-3.054326167E-3,2.700024247E-1,7.330383174E-3
2.180122486E0,-5.497787148E-3,2.755002379E-1,9.162978269E-3
2.182106180E0,-8.552113548E-3,2.809980214E-1,1.038470957E-2
2.184119028E0,-1.038470957E-2,2.834414840E-1,1.282817032E-2
2.186103646E0,-1.160643995E-2,2.840523422E-1,1.343903504E-2
2.188117878E0,-1.221730467E-2,2.822197378E-1,1.588249579E-2
2.190100880E0,-1.771509275E-2,2.809980214E-1,1.588249579E-2
2.192115652E0,-1.710422710E-2,2.767219543E-1,1.588249579E-2
2.194100037E0,-2.015855350E-2,2.681698501E-1,1.710422710E-2
2.196113501E0,-2.504547499E-2,2.590068579E-1,1.527163107E-2
2.198096657E0,-2.443460934E-2,2.522873580E-1,1.710422710E-2
2.200111659E0,-2.809980139E-2,2.394591719E-1,1.710422710E-2
2.202124968E0,-3.054326214E-2,2.247984111E-1,1.710422710E-2
2.204108893E0,-3.237585723E-2,2.156354338E-1,1.832595654E-2
2.206122741E0,-3.237585723E-2,1.985312104E-1,1.466076635E-2
2.208106743E0,-3.481931984E-2,1.771509200E-1,1.282817032E-2
2.210120668E0,-3.543018550E-2,1.685988009E-1,9.162978269E-3
2.212104593E0,-3.543018550E-2,1.466076523E-1,7.330383174E-3
2.214119133E0,-3.481931984E-2,1.264491081E-1,2.443460980E-3
2.216102751E0,-3.237585723E-2,1.160643995E-1,2.443460980E-3
2.218116599E0,-3.176499158E-2,9.285151958E-2,-3.054326167E-3
2.220101215E0,-2.871066704E-2,8.246681094E-2,-6.719517522E-3
2.222114448E0,-2.076941915E-2,5.864306539E-2,-1.221730467E-2
2.224096911E0,-1.588249579E-2,3.848451003E-2,-1.954768784E-2
2.226111990E0,-1.099557430E-2,2.871066704E-2,-2.138028294E-2
2.228126454E0,-5.497787148E-3,7.941247895E-3,-2.993239649E-2
2.230108610E0,6.108652451E-4,-8.552113548E-3,-3.604105115E-2
2.232124073E0,6.108652451E-4,-1.649336144E-2,-4.092797264E-2
2.234107382E0,4.886921961E-3,-3.420845419E-2,-4.581489414E-2
2.236121230E0,1.160643995E-2,-4.642575979E-2,-5.314527452E-2
2.238105848E0,1.404990070E-2,-5.497787148E-2,-5.497787148E-2
2.240120003E0,1.771509275E-2,-6.841690838E-2,-6.414084882E-2
2.242103159E0,2.138028294E-2,-7.391469181E-2,-6.658431143E-2
2.244117315E0,2.199114859E-2,-8.307767659E-2,-6.963863969E-2
2.246100702E0,2.748893574E-2,-8.613199741E-2,-7.391469181E-2
2.248115395E0,2.748893574E-2,-8.857546002E-2,-7.757988572E-2
2.250098551E0,2.626720630E-2,-8.918632567E-2,-7.635815442E-2
2.252113322E0,3.359758854E-2,-8.918632567E-2,-7.757988572E-2
2.254096324E0,3.481931984E-2,-8.796459436E-2,-7.819075137E-2
2.256111172E0,3.665191308E-2,-8.246681094E-2,-7.513642311E-2
2.258125020E0,3.970624134E-2,-7.574728876E-2,-7.574728876E-2
2.260109253E0,4.153883830E-2,-7.208210230E-2,-7.635815442E-2
2.262121639E0,4.214970022E-2,-6.536258012E-2,-7.513642311E-2
2.264105641E0,4.703662544E-2,-5.314527452E-2,-7.208210230E-2
2.266120104E0,4.581489414E-2,-4.581489414E-2,-7.086037099E-2
2.268103799E0,4.642575979E-2,-3.115412779E-2,-6.780604273E-2
2.270118878E0,4.642575979E-2,-1.588249579E-2,-6.658431143E-2
2.272101957E0,4.886921868E-2,-7.941247895E-3,-6.414084882E-2
2.274116343E0,4.703662544E-2,9.162978269E-3,-6.475171447E-2
2.276099421E0,4.642575979E-2,2.932153270E-2,-6.230825558E-2
2.278114500E0,4.703662544E-2,3.787364438E-2,-5.925392732E-2
2.280097887E0,4.703662544E-2,5.803219974E-2,-5.925392732E-2
2.282112042E0,4.948008433E-2,7.696902007E-2,-5.436700583E-2
2.284126583E0,5.070181563E-2,8.857546002E-2,-5.253441259E-2
2.286109277E0,5.131268129E-2,1.081231460E-1,-4.825835302E-2
2.288123741E0,4.948008433E-2,1.197295859E-1,-4.825835302E-2
2.290107203E0,4.825835302E-2,1.404990107E-1,-4.459316283E-2
2.292121590E0,4.398229718E-2,1.576032341E-1,-4.398229718E-2
2.294105361E0,4.337143153E-2,1.673770845E-1,-4.276056588E-2
2.296119132E0,4.153883830E-2,1.808161139E-1,-3.909537569E-2
2.298103211E0,3.848451003E-2,1.991420686E-1,-3.726277873E-2
2.300117598E0,3.543018550E-2,2.046398520E-1,-3.604105115E-2
2.302101062E0,3.420845419E-2,2.162462920E-1,-3.420845419E-2
2.304114524E0,3.115412779E-2,2.235766798E-1,-2.993239649E-2
2.306099757E0,2.871066704E-2,2.278527319E-1,-2.871066704E-2
2.308113682E0,2.504547499E-2,2.315179259E-1,-2.871066704E-2
2.310095838E0,2.382374369E-2,2.321287990E-1,-2.443460934E-2
2.312109917E0,2.260201424E-2,2.290744632E-1,-2.199114859E-2
2.314124380E0,1.771509275E-2,2.284636050E-1,-2.199114859E-2
2.316108382E0,1.893682219E-2,2.254092693E-1,-2.260201424E-2
2.318122306E0,1.282817032E-2,2.186897546E-1,-1.710422710E-2
2.320106924E0,9.773843922E-3,2.095267773E-1,-1.832595654E-2
2.322120156E0,1.038470957E-2,2.034181207E-1,-1.771509275E-2
2.324104774E0,7.330383174E-3,1.912008226E-1,-1.527163107E-2
2.326117699E0,4.276056774E-3,1.808161139E-1,-1.527163107E-2
2.328101932E0,0.000000000E0,1.740965992E-1,-1.527163107E-2
2.330115164E0,-1.221730490E-3,1.569923609E-1,-1.343903504E-2
2.332099473E0,-4.276056774E-3,1.435533315E-1,-1.282817032E-2
2.334114321E0,-4.886921961E-3,1.356120855E-1,-1.404990070E-2
2.336097631E0,-6.719517522E-3,1.172861308E-1,-1.404990070E-2
2.338111479E0,-7.330383174E-3,1.007927656E-1,-1.160643995E-2
2.340126558E0,-8.552113548E-3,9.346238524E-2,-1.160643995E-2
2.342109099E0,-1.160643995E-2,7.941248268E-2,-1.160643995E-2
2.344120716E0,-1.282817032E-2,6.414084882E-2,-9.773843922E-3
2.346106640E0,-1.588249579E-2,5.742133409E-2,-9.162978269E-3
2.348121950E0,-1.466076635E-2,4.092797264E-2,-6.108652335E-3
2.350104490E0,-1.588249579E-2,3.359758854E-2,-7.330383174E-3
2.352118646E0,-1.710422710E-2,1.954768784E-2,-7.941247895E-3
2.354103494E0,-1.893682219E-2,6.719517522E-3,-4.276056774E-3
2.356117112E0,-2.015855350E-2,6.108652451E-4,-6.108652335E-3
2.358101113E0,-2.138028294E-2,-7.330383174E-3,-3.054326167E-3
2.360115576E0,-2.076941915E-2,-1.771509275E-2,1.221730490E-3
2.362099194E0,-2.321287990E-2,-2.076941915E-2,6.108652451E-4
2.364112811E0,-1.954768784E-2,-2.993239649E-2,2.443460980E-3
2.366126582E0,-2.015855350E-2,-3.420845419E-2,6.108652335E-3
2.368110277E0,-1.649336144E-2,-3.787364438E-2,7.330383174E-3
2.370123894E0,-1.771509275E-2,-3.909537569E-2,1.038470957E-2
2.372107895E0,-1.710422710E-2,-3.970624134E-2,1.649336144E-2
2.374122282E0,-1.832595654E-2,-3.787364438E-2,1.466076635E-2
2.376106360E0,-1.710422710E-2,-3.726277873E-2,1.893682219E-2
2.378120209E0,-1.832595654E-2,-3.359758854E-2,1.893682219E-2
2.380105364E0,-1.832595654E-2,-3.298672289E-2,2.443460934E-2
2.382118290E0,-1.649336144E-2,-2.809980139E-2,2.565634064E-2
2.384101061E0,-1.588249579E-2,-2.626720630E-2,3.054326214E-2
2.386116523E0,-1.649336144E-2,-2.199114859E-2,3.420845419E-2
2.388100525E0,-1.527163107E-2,-1.466076635E-2,3.787364438E-2
2.390113066E0,-1.527163107E-2,-9.773843922E-3,3.726277873E-2
2.392097375E0,-1.343903504E-2,-2.443460980E-3,3.970624134E-2
2.394110685E0,-1.404990070E-2,6.719517522E-3,4.459316283E-2
2.396125456E0,-1.710422710E-2,1.160643995E-2,4.459316283E-2
2.398109151E0,-1.466076635E-2,1.588249579E-2,5.070181563E-2
2.400123306E0,-1.343903504E-2,2.626720630E-2,5.070181563E-2
2.402107000E0,-1.343903504E-2,3.054326214E-2,5.192354694E-2
2.404122617E0,-1.282817032E-2,4.092797264E-2,5.497787148E-2
2.406104235E0,-1.282817032E-2,5.009094998E-2,5.558873713E-2
2.408118621E0,-1.343903504E-2,5.314527452E-2,5.681046844E-2
2.410102085E0,-1.221730467E-2,6.047565863E-2,5.986479297E-2
2.412116779E0,-1.343903504E-2,6.963863969E-2,6.291911751E-2
2.414100549E0,-1.038470957E-2,7.330382615E-2,6.169738993E-2
2.416113782E0,-1.221730467E-2,7.819075137E-2,6.230825558E-2
2.418098707E0,-1.038470957E-2,8.063421398E-2,6.230825558E-2
2.420113478E0,-8.552113548E-3,8.613199741E-2,6.475171447E-2
2.422096788E0,-6.108652335E-3,8.857546002E-2,6.536258012E-2
2.424106329E0,-5.497787148E-3,9.040805697E-2,6.475171447E-2
2.426123946E0,-3.054326167E-3,9.407325089E-2,6.536258012E-2
2.428108486E0,0.000000000E0,9.285151958E-2,6.536258012E-2
2.430122334E0,2.443460980E-3,9.468411654E-2,6.414084882E-2
2.432106105E0,6.108652335E-3,9.468411654E-2,6.352998316E-2
2.434120184E0,9.773843922E-3,9.346238524E-2,6.352998316E-2
2.436103955E0,1.099557430E-2,9.590584040E-2,6.291911751E-2
2.438118111E0,1.343903504E-2,9.101892263E-2,6.108652428E-2
2.440101805E0,1.710422710E-2,8.979719132E-2,6.047565863E-2
2.442115345E0,1.771509275E-2,8.979719132E-2,5.986479297E-2
2.444099885E0,2.199114859E-2,8.307767659E-2,5.681046844E-2
2.446113733E0,2.260201424E-2,8.246681094E-2,5.558873713E-2
2.448096812E0,2.382374369E-2,7.757988572E-2,5.375614017E-2
2.450110968E0,2.626720630E-2,7.024950534E-2,5.070181563E-2
2.452125432E0,2.871066704E-2,6.780604273E-2,5.009094998E-2
2.454108895E0,3.054326214E-2,6.352998316E-2,4.764748737E-2
2.456123358E0,3.359758854E-2,5.497787148E-2,4.703662544E-2
2.458106744E0,3.543018550E-2,5.192354694E-2,4.337143153E-2
2.460122054E0,3.604105115E-2,4.825835302E-2,4.276056588E-2
2.462104287E0,3.665191308E-2,4.337143153E-2,4.092797264E-2
2.464118058E0,3.970624134E-2,3.848451003E-2,4.092797264E-2
2.466103060E0,3.909537569E-2,3.115412779E-2,3.726277873E-2
2.468117139E0,4.276056588E-2,2.626720630E-2,3.420845419E-2
2.470099371E0,4.214970022E-2,2.443460934E-2,3.359758854E-2
2.472114757E0,4.459316283E-2,2.015855350E-2,3.115412779E-2
2.474097836E0,4.642575979E-2,1.160643995E-2,2.932153270E-2
2.476112915E0,4.398229718E-2,1.221730467E-2,2.871066704E-2
2.478095610E0,4.581489414E-2,7.941247895E-3,2.748893574E-2
2.480110688E0,4.703662544E-2,6.108652335E-3,2.626720630E-2
2.482124306E0,4.948008433E-2,3.054326167E-3,2.260201424E-2
2.484108230E0,4.825835302E-2,6.108652451E-4,1.893682219E-2
2.486121847E0,4.642575979E-2,0.000000000E0,2.015855350E-2
2.488105542E0,4.825835302E-2,-3.665191587E-3,1.710422710E-2
2.490119928E0,4.825835302E-2,-6.719517522E-3,1.343903504E-2
2.492103700E0,4.825835302E-2,-7.941247895E-3,1.282817032E-2
2.494118086E0,4.886921868E-2,-1.160643995E-2,9.773843922E-3
2.496101550E0,5.009094998E-2,-1.466076635E-2,7.330383174E-3
2.498115705E0,5.070181563E-2,-1.710422710E-2,5.497787148E-3
2.500100245E0,5.131268129E-2,-1.771509275E-2,3.665191587E-3
2.502112939E0,4.886921868E-2,-2.199114859E-2,1.221730490E-3
2.504095941E0,5.070181563E-2,-2.321287990E-2,0.000000000E0
2.506110405E0,4.764748737E-2,-2.321287990E-2,-3.054326167E-3
2.508125484E0,5.070181563E-2,-2.748893574E-2,-5.497787148E-3
2.510108332E0,5.131268129E-2,-2.687807009E-2,-7.330383174E-3
2.512122794E0,5.009094998E-2,-3.054326214E-2,-8.552113548E-3
2.514106720E0,4.886921868E-2,-2.871066704E-2,-8.552113548E-3
2.516121260E0,5.070181563E-2,-3.054326214E-2,-1.099557430E-2
2.518104647E0,4.886921868E-2,-3.298672289E-2,-1.221730467E-2
2.520119341E0,4.948008433E-2,-3.115412779E-2,-1.527163107E-2
2.522102189E0,5.131268129E-2,-3.420845419E-2,-1.404990070E-2
2.524117498E0,5.009094998E-2,-3.543018550E-2,-1.710422710E-2
2.526100269E0,5.314527452E-2,-3.665191308E-2,-1.649336144E-2
2.528114117E0,5.314527452E-2,-3.604105115E-2,-1.466076635E-2
2.530098504E0,5.558873713E-2,-3.787364438E-2,-1.649336144E-2
2.532112352E0,5.681046844E-2,-3.787364438E-2,-1.466076635E-2
2.534125892E0,5.742133409E-2,-3.726277873E-2,-1.893682219E-2
2.536109818E0,6.047565863E-2,-3.848451003E-2,-1.771509275E-2
2.538124588E0,6.108652428E-2,-3.787364438E-2,-1.710422710E-2
2.540108051E0,6.352998316E-2,-3.481931984E-2,-1.771509275E-2
2.542123053E0,6.597344577E-2,-3.298672289E-2,-1.832595654E-2
2.544104901E0,6.719517708E-2,-3.054326214E-2,-1.832595654E-2
2.546120288E0,6.902777404E-2,-2.687807009E-2,-1.893682219E-2
2.548103367E0,6.902777404E-2,-2.504547499E-2,-2.015855350E-2
2.550116292E0,7.208210230E-2,-2.015855350E-2,-1.832595654E-2
2.552100678E0,7.330382615E-2,-1.588249579E-2,-1.771509275E-2
2.554115987E0,7.452555746E-2,-1.343903504E-2,-2.138028294E-2
2.556098528E0,7.819075137E-2,-9.773843922E-3,-1.893682219E-2
2.558113299E0,7.941248268E-2,-3.665191587E-3,-1.893682219E-2
2.560097532E0,7.941248268E-2,-6.108652451E-4,-1.832595654E-2
2.562110534E0,8.063421398E-2,2.443460980E-3,-1.771509275E-2
2.564124997E0,8.307767659E-2,1.221730467E-2,-1.588249579E-2
2.566108922E0,8.124507964E-2,1.527163107E-2,-1.649336144E-2
2.568122770E0,8.124507964E-2,1.954768784E-2,-1.771509275E-2
2.570106541E0,8.307767659E-2,2.321287990E-2,-1.527163107E-2
2.572120312E0,8.735372871E-2,2.504547499E-2,-1.343903504E-2
2.574103776E0,8.368854225E-2,3.115412779E-2,-1.099557430E-2
2.576118470E0,8.429940045E-2,3.237585723E-2,-1.099557430E-2
2.578101857E0,8.857546002E-2,3.665191308E-2,-1.160643995E-2
2.580117319E0,8.796459436E-2,4.214970022E-2,-1.160643995E-2
2.582099475E0,8.918632567E-2,3.909537569E-2,-1.038470957E-2
2.584110785E0,8.979719132E-2,4.276056588E-2,-9.773843922E-3
2.586128017E0,9.040805697E-2,4.764748737E-2,-8.552113548E-3
2.588111173E0,8.979719132E-2,4.948008433E-2,-1.038470957E-2
2.590126252E0,8.979719132E-2,4.886921868E-2,-1.160643995E-2
2.592109947E0,8.796459436E-2,5.192354694E-2,-1.038470957E-2
2.594123486E0,8.857546002E-2,5.070181563E-2,-8.552113548E-3
2.596107719E0,8.491026610E-2,5.070181563E-2,-1.038470957E-2
2.598121644E0,8.552113175E-2,4.825835302E-2,-1.221730467E-2
2.600105954E0,8.552113175E-2,4.764748737E-2,-1.221730467E-2
2.602119725E0,8.613199741E-2,4.459316283E-2,-1.221730467E-2
2.604103496E0,8.368854225E-2,4.031710699E-2,-1.466076635E-2
2.606117267E0,8.368854225E-2,3.848451003E-2,-1.343903504E-2
2.608100345E0,8.368854225E-2,3.237585723E-2,-1.466076635E-2
2.610114578E0,8.002334833E-2,3.298672289E-2,-1.588249579E-2
2.612098580E0,7.941248268E-2,2.260201424E-2,-1.404990070E-2
2.614112428E0,8.002334833E-2,1.649336144E-2,-1.771509275E-2
2.616127815E0,8.063421398E-2,1.160643995E-2,-1.588249579E-2
2.618111124E0,8.063421398E-2,3.665191587E-3,-1.710422710E-2
2.620126203E0,7.757988572E-2,-4.886921961E-3,-1.893682219E-2
2.622108435E0,7.819075137E-2,-1.038470957E-2,-1.771509275E-2
2.624123206E0,7.757988572E-2,-2.015855350E-2,-1.954768784E-2
2.626107132E0,7.819075137E-2,-2.871066704E-2,-2.015855350E-2
2.628120672E0,7.513642311E-2,-3.481931984E-2,-2.076941915E-2
2.630103443E0,7.635815442E-2,-4.459316283E-2,-2.504547499E-2
2.632119138E0,7.819075137E-2,-5.436700583E-2,-2.504547499E-2
2.634102293E0,7.635815442E-2,-5.681046844E-2,-2.687807009E-2
2.636116064E0,7.757988572E-2,-6.780604273E-2,-3.054326214E-2
2.638099758E0,7.819075137E-2,-7.696902007E-2,-2.993239649E-2
2.640115529E0,7.574728876E-2,-8.063421398E-2,-3.237585723E-2
2.642097377E0,7.696902007E-2,-8.857546002E-2,-3.665191308E-2
2.644112764E0,7.452555746E-2,-9.101892263E-2,-3.787364438E-2
2.646125381E0,7.330382615E-2,-9.834930301E-2,-4.214970022E-2
2.648109614E0,7.635815442E-2,-1.020144969E-1,-4.276056588E-2
2.650123538E0,7.452555746E-2,-1.038470939E-1,-4.642575979E-2
2.652107463E0,7.269296050E-2,-1.062905490E-1,-4.520402849E-2
2.654122004E0,7.513642311E-2,-1.056796908E-1,-4.581489414E-2
2.656105083E0,7.330382615E-2,-1.075122803E-1,-4.948008433E-2
2.658119777E0,7.330382615E-2,-1.081231460E-1,-4.948008433E-2
2.660103779E0,7.574728876E-2,-1.062905490E-1,-5.070181563E-2
2.662117627E0,7.635815442E-2,-1.062905490E-1,-5.192354694E-2
2.664100397E0,7.757988572E-2,-1.044579595E-1,-5.253441259E-2
2.666114015E0,7.819075137E-2,-9.896016866E-2,-5.436700583E-2
2.668098248E0,7.757988572E-2,-9.896016866E-2,-5.436700583E-2
2.670112788E0,7.819075137E-2,-9.224065393E-2,-5.925392732E-2
2.672127175E0,7.696902007E-2,-8.368854225E-2,-5.864306539E-2
2.674110023E0,7.757988572E-2,-8.246681094E-2,-5.742133409E-2
2.676124717E0,7.941248268E-2,-7.391469181E-2,-6.169738993E-2
2.678108103E0,7.941248268E-2,-7.024950534E-2,-5.864306539E-2
2.680123182E0,7.880161703E-2,-5.986479297E-2,-6.291911751E-2
2.682105722E0,7.941248268E-2,-5.131268129E-2,-6.658431143E-2
2.684121109E0,7.941248268E-2,-4.764748737E-2,-6.780604273E-2
2.686104188E0,8.246681094E-2,-3.665191308E-2,-6.536258012E-2
2.688118651E0,8.246681094E-2,-2.321287990E-2,-6.597344577E-2
2.690101421E0,8.063421398E-2,-1.649336144E-2,-6.597344577E-2
2.692115577E0,7.880161703E-2,-4.276056774E-3,-6.536258012E-2
2.694099579E0,7.941248268E-2,7.941247895E-3,-6.352998316E-2
2.696113427E0,8.063421398E-2,1.527163107E-2,-6.475171447E-2
2.698096737E0,8.063421398E-2,2.687807009E-2,-6.352998316E-2
2.700112201E0,8.063421398E-2,3.909537569E-2,-6.597344577E-2
2.702125433E0,8.185594529E-2,4.581489414E-2,-6.291911751E-2
2.704108127E0,8.246681094E-2,5.619960278E-2,-6.169738993E-2
2.706124206E0,8.246681094E-2,6.780604273E-2,-5.986479297E-2
2.708107208E0,8.002334833E-2,7.208210230E-2,-5.986479297E-2
2.710120440E0,8.185594529E-2,8.124507964E-2,-5.803219974E-2
2.712104827E0,8.246681094E-2,8.368854225E-2,-5.742133409E-2
2.714119291E0,7.941248268E-2,9.285151958E-2,-5.742133409E-2
2.716102600E0,7.880161703E-2,9.896016866E-2,-5.742133409E-2
2.718116832E0,7.941248268E-2,1.020144969E-1,-5.742133409E-2
2.720101142E0,8.002334833E-2,1.062905490E-1,-5.497787148E-2
2.722114913E0,7.880161703E-2,1.081231460E-1,-5.681046844E-2
2.724099607E0,7.819075137E-2,1.111774743E-1,-5.558873713E-2
2.726112148E0,7.880161703E-2,1.130100712E-1,-5.497787148E-2
2.728126611E0,7.941248268E-2,1.148426682E-1,-5.497787148E-2
2.730110075E0,7.819075137E-2,1.148426682E-1,-5.497787148E-2
2.732124230E0,7.819075137E-2,1.130100712E-1,-5.497787148E-2
2.734108155E0,7.757988572E-2,1.117883399E-1,-5.314527452E-2
2.736122618E0,7.635815442E-2,1.099557430E-1,-5.681046844E-2
2.738106390E0,7.391469181E-2,1.081231460E-1,-5.436700583E-2
2.740120161E0,7.208210230E-2,1.062905490E-1,-5.192354694E-2
2.742103855E0,6.902777404E-2,1.007927656E-1,-5.253441259E-2
2.744116165E0,6.841690838E-2,9.651670605E-2,-5.375614017E-2
2.746100781E0,6.597344577E-2,9.468411654E-2,-5.192354694E-2
2.748116168E0,6.291911751E-2,8.674286306E-2,-5.192354694E-2
2.750099016E0,6.536258012E-2,7.941248268E-2,-5.070181563E-2
2.752113172E0,6.475171447E-2,7.574728876E-2,-5.070181563E-2
2.754097174E0,5.864306539E-2,6.658431143E-2,-5.070181563E-2
2.756111561E0,5.619960278E-2,5.864306539E-2,-5.070181563E-2
2.758125486E0,5.681046844E-2,5.192354694E-2,-4.886921868E-2
2.760109179E0,5.314527452E-2,4.337143153E-2,-5.009094998E-2
2.762123335E0,4.886921868E-2,3.481931984E-2,-5.070181563E-2
2.764107260E0,4.703662544E-2,2.687807009E-2,-5.009094998E-2
2.766120877E0,4.337143153E-2,1.832595654E-2,-5.192354694E-2
2.768104802E0,4.092797264E-2,4.886921961E-3,-4.948008433E-2
2.770118650E0,3.848451003E-2,0.000000000E0,-5.070181563E-2
2.772102422E0,3.665191308E-2,-1.038470957E-2,-5.009094998E-2
2.774117192E0,3.420845419E-2,-1.649336144E-2,-4.825835302E-2
2.776100502E0,3.115412779E-2,-2.504547499E-2,-4.948008433E-2
2.778114119E0,3.115412779E-2,-3.665191308E-2,-4.886921868E-2
2.780098967E0,2.871066704E-2,-4.337143153E-2,-4.886921868E-2
2.782112277E0,2.626720630E-2,-5.192354694E-2,-4.703662544E-2
2.784125817E0,2.138028294E-2,-6.047565863E-2,-4.703662544E-2
2.786110742E0,2.321287990E-2,-6.597344577E-2,-4.764748737E-2
2.788124590E0,2.138028294E-2,-7.574728876E-2,-4.520402849E-2
2.790107361E0,1.954768784E-2,-8.307767659E-2,-4.581489414E-2
2.792122055E0,1.588249579E-2,-8.796459436E-2,-4.520402849E-2
2.794105826E0,1.221730467E-2,-9.285151958E-2,-4.459316283E-2
2.796119905E0,1.282817032E-2,-1.007927656E-1,-4.214970022E-2
2.798103061E0,9.773843922E-3,-1.038470939E-1,-4.398229718E-2
2.800118371E0,7.330383174E-3,-1.105666086E-1,-4.031710699E-2
2.802101756E0,6.108652335E-3,-1.142318025E-1,-3.787364438E-2
2.804116297E0,7.941247895E-3,-1.191187203E-1,-3.848451003E-2
2.806098068E0,8.552113548E-3,-1.233947799E-1,-3.665191308E-2
2.808113532E0,7.941247895E-3,-1.227839142E-1,-3.726277873E-2
2.810096841E0,1.099557430E-2,-1.246165112E-1,-3.665191308E-2
2.812110997E0,1.343903504E-2,-1.240056455E-1,-3.726277873E-2
2.814125538E0,1.771509275E-2,-1.227839142E-1,-3.543018550E-2
2.816108846E0,1.832595654E-2,-1.172861308E-1,-3.359758854E-2
2.818122772E0,2.138028294E-2,-1.111774743E-1,-3.359758854E-2
2.820107312E0,2.138028294E-2,-1.069014147E-1,-3.420845419E-2
2.822120314E0,1.954768784E-2,-9.346238524E-2,-3.359758854E-2
2.824103624E0,2.260201424E-2,-8.307767659E-2,-3.481931984E-2
2.826117549E0,2.260201424E-2,-7.635815442E-2,-3.604105115E-2
2.828102397E0,2.260201424E-2,-6.230825558E-2,-3.481931984E-2
2.830115936E0,2.260201424E-2,-4.764748737E-2,-3.665191308E-2
2.832099708E0,2.260201424E-2,-4.092797264E-2,-3.604105115E-2
2.834114094E0,2.015855350E-2,-2.138028294E-2,-3.604105115E-2
2.836098712E0,2.138028294E-2,-1.710422710E-2,-3.420845419E-2
2.838111637E0,2.076941915E-2,1.832595794E-3,-3.481931984E-2
2.840126485E0,2.015855350E-2,1.954768784E-2,-3.420845419E-2
2.842110178E0,1.893682219E-2,2.626720630E-2,-3.481931984E-2
2.844124565E0,1.710422710E-2,4.703662544E-2,-3.298672289E-2
2.846107951E0,1.832595654E-2,6.536258012E-2,-3.054326214E-2
2.848121569E0,1.649336144E-2,7.452555746E-2,-2.809980139E-2
2.850105571E0,1.343903504E-2,9.101892263E-2,-2.626720630E-2
2.852119727E0,1.343903504E-2,1.117883399E-1,-2.443460934E-2
2.854103344E0,1.160643995E-2,1.191187203E-1,-2.260201424E-2
2.856117807E0,1.038470957E-2,1.343903542E-1,-2.138028294E-2
2.858100962E0,1.221730467E-2,1.484402567E-1,-1.954768784E-2
2.860116888E0,8.552113548E-3,1.576032341E-1,-1.954768784E-2
2.862099351E0,5.497787148E-3,1.698205322E-1,-1.527163107E-2
2.864112045E0,7.330383174E-3,1.789835095E-1,-1.343903504E-2
2.866127970E0,6.719517522E-3,1.838704348E-1,-1.282817032E-2
2.868112049E0,6.108652335E-3,1.942551434E-1,-9.162978269E-3
2.870124358E0,3.665191587E-3,1.948660165E-1,-1.099557430E-2
2.872109206E0,3.054326167E-3,1.954768747E-1,-1.160643995E-2
2.874122747E0,-6.108652451E-4,1.991420686E-1,-1.282817032E-2
2.876106826E0,-3.054326167E-3,1.985312104E-1,-1.099557430E-2
2.878121212E0,-4.886921961E-3,1.973094791E-1,-1.343903504E-2
2.880105291E0,-7.330383174E-3,1.918116808E-1,-1.649336144E-2
2.882118832E0,-8.552113548E-3,1.875356287E-1,-1.588249579E-2
2.884103448E0,-9.162978269E-3,1.832595766E-1,-1.771509275E-2
2.886115758E0,-1.404990070E-2,1.728748679E-1,-2.076941915E-2
2.888099991E0,-1.527163107E-2,1.679879427E-1,-2.260201424E-2
2.890113839E0,-1.527163107E-2,1.569923609E-1,-2.260201424E-2
2.892097533E0,-1.832595654E-2,1.423316002E-1,-2.565634064E-2
2.894112381E0,-1.771509275E-2,1.368338168E-1,-2.809980139E-2
2.896126229E0,-2.015855350E-2,1.221730486E-1,-2.993239649E-2
2.898110461E0,-2.199114859E-2,1.014036313E-1,-3.298672289E-2
2.900124078E0,-2.504547499E-2,9.285151958E-2,-3.237585723E-2
2.902107465E0,-2.443460934E-2,7.635815442E-2,-3.604105115E-2
2.904120698E0,-2.565634064E-2,6.597344577E-2,-3.848451003E-2
2.906105315E0,-2.626720630E-2,4.581489414E-2,-4.276056588E-2
2.908119394E0,-2.687807009E-2,2.687807009E-2,-4.398229718E-2
2.910102550E0,-2.748893574E-2,1.771509275E-2,-4.459316283E-2
2.912116397E0,-2.687807009E-2,-6.108652451E-4,-5.009094998E-2
2.914100707E0,-2.748893574E-2,-1.893682219E-2,-5.009094998E-2
2.916114863E0,-2.565634064E-2,-2.748893574E-2,-5.497787148E-2
2.918099096E0,-2.504547499E-2,-4.398229718E-2,-5.558873713E-2
2.920113328E0,-2.565634064E-2,-5.742133409E-2,-5.558873713E-2
2.922096407E0,-2.321287990E-2,-6.475171447E-2,-5.864306539E-2
2.924111178E0,-2.260201424E-2,-7.452555746E-2,-6.108652428E-2
2.926125026E0,-2.504547499E-2,-8.429940045E-2,-6.291911751E-2
2.928108105E0,-2.443460934E-2,-8.674286306E-2,-6.352998316E-2
2.930122183E0,-2.199114859E-2,-9.285151958E-2,-6.352998316E-2
2.932105955E0,-2.321287990E-2,-9.712757170E-2,-6.780604273E-2
2.934120649E0,-2.138028294E-2,-9.773843735E-2,-6.536258012E-2
2.936103805E0,-2.138028294E-2,-9.712757170E-2,-6.536258012E-2
2.938118576E0,-2.076941915E-2,-9.590584040E-2,-6.475171447E-2
2.940103500E0,-1.893682219E-2,-9.162978828E-2,-6.597344577E-2
2.942115194E0,-1.771509275E-2,-8.674286306E-2,-6.230825558E-2
2.944099427E0,-2.015855350E-2,-8.246681094E-2,-6.169738993E-2
2.946114583E0,-1.893682219E-2,-7.513642311E-2,-5.925392732E-2
2.948097662E0,-1.893682219E-2,-6.719517708E-2,-5.864306539E-2
2.950110895E0,-1.893682219E-2,-6.230825558E-2,-5.681046844E-2
2.952126281E0,-1.832595654E-2,-5.070181563E-2,-5.314527452E-2
2.954109898E0,-1.771509275E-2,-3.970624134E-2,-5.009094998E-2
2.956123823E0,-2.260201424E-2,-3.176499158E-2,-5.131268129E-2
2.958106902E0,-2.138028294E-2,-2.015855350E-2,-4.703662544E-2
2.960122519E0,-2.138028294E-2,-6.108652335E-3,-4.520402849E-2
2.962105290E0,-2.138028294E-2,-1.221730490E-3,-4.581489414E-2
2.964119139E0,-2.382374369E-2,1.282817032E-2,-4.031710699E-2
2.966102833E0,-2.504547499E-2,2.076941915E-2,-4.153883830E-2
2.968116757E0,-2.321287990E-2,3.298672289E-2,-3.848451003E-2
2.970100759E0,-2.443460934E-2,4.520402849E-2,-3.543018550E-2
2.972114838E0,-2.565634064E-2,5.375614017E-2,-3.604105115E-2
2.974099148E0,-2.687807009E-2,6.597344577E-2,-3.237585723E-2
2.976113611E0,-2.565634064E-2,7.757988572E-2,-3.543018550E-2
2.978096152E0,-2.687807009E-2,8.307767659E-2,-3.176499158E-2
2.980111538E0,-2.321287990E-2,9.407325089E-2,-3.054326214E-2
2.982124462E0,-2.626720630E-2,1.026253626E-1,-3.298672289E-2
2.984108157E0,-2.382374369E-2,1.093448773E-1,-3.054326214E-2
2.986121697E0,-2.199114859E-2,1.142318025E-1,-3.237585723E-2
2.988105699E0,-2.443460934E-2,1.203404516E-1,-3.237585723E-2
2.990120701E0,-2.443460934E-2,1.240056455E-1,-3.298672289E-2
2.992104395E0,-2.260201424E-2,1.264491081E-1,-3.237585723E-2
2.994118244E0,-2.260201424E-2,1.282816976E-1,-3.481931984E-2
2.996101014E0,-2.076941915E-2,1.264491081E-1,-3.359758854E-2
2.998116400E0,-2.015855350E-2,1.301143020E-1,-3.726277873E-2
3.000100710E0,-2.260201424E-2,1.301143020E-1,-3.604105115E-2
3.002112789E0,-1.954768784E-2,1.282816976E-1,-3.604105115E-2
3.004128483E0,-1.771509275E-2,1.276708394E-1,-4.031710699E-2
3.006110870E0,-1.954768784E-2,1.246165112E-1,-4.092797264E-2
3.008125949E0,-1.588249579E-2,1.197295859E-1,-4.276056588E-2
3.010109335E0,-1.221730467E-2,1.154535338E-1,-4.520402849E-2
3.012123183E0,-1.527163107E-2,1.117883399E-1,-4.703662544E-2
3.014107492E0,-1.282817032E-2,1.038470939E-1,-4.948008433E-2
3.016121956E0,-1.099557430E-2,9.773843735E-2,-5.375614017E-2
3.018105343E0,-9.162978269E-3,9.468411654E-2,-5.253441259E-2
3.020120114E0,-6.108652335E-3,8.613199741E-2,-5.558873713E-2
3.022103499E0,-3.665191587E-3,7.635815442E-2,-5.681046844E-2
3.024116117E0,-1.221730490E-3,7.208210230E-2,-6.047565863E-2
3.026100503E0,3.665191587E-3,6.536258012E-2,-6.108652428E-2
3.028114890E0,6.108652335E-3,5.558873713E-2,-6.475171447E-2
3.030097661E0,1.038470957E-2,5.253441259E-2,-6.597344577E-2
3.032112509E0,1.099557430E-2,4.459316283E-2,-6.719517708E-2
3.034126665E0,1.343903504E-2,4.337143153E-2,-6.841690838E-2
3.036110282E0,1.771509275E-2,3.604105115E-2,-7.330382615E-2
3.038124207E0,2.138028294E-2,2.993239649E-2,-7.574728876E-2
3.040109055E0,2.321287990E-2,2.993239649E-2,-7.757988572E-2
3.042122288E0,2.993239649E-2,2.443460934E-2,-8.246681094E-2
3.044106367E0,3.665191308E-2,2.076941915E-2,-8.735372871E-2
3.046120138E0,3.970624134E-2,1.710422710E-2,-9.162978828E-2
3.048103601E0,4.581489414E-2,1.588249579E-2,-9.468411654E-2
3.050117679E0,5.192354694E-2,1.404990070E-2,-1.001819000E-1
3.052101681E0,5.619960278E-2,1.160643995E-2,-1.044579595E-1
3.054116145E0,6.414084882E-2,1.038470957E-2,-1.069014147E-1
3.056099301E0,6.841690838E-2,1.282817032E-2,-1.172861308E-1
3.058112841E0,7.147123665E-2,1.343903504E-2,-1.178969890E-1
3.060128459E0,7.757988572E-2,1.527163107E-2,-1.282816976E-1
3.062112153E0,8.185594529E-2,1.710422710E-2,-1.337794960E-1
3.064120462E0,8.613199741E-2,1.588249579E-2,-1.392772794E-1
3.066108156E0,9.346238524E-2,1.649336144E-2,-1.466076523E-1
3.068123543E0,9.773843735E-2,1.710422710E-2,-1.496619880E-1
3.070106929E0,1.056796908E-1,1.649336144E-2,-1.582140923E-1
3.072120547E0,1.123992056E-1,1.404990070E-2,-1.661553532E-1
3.074104549E0,1.166752651E-1,1.404990070E-2,-1.710422635E-1
3.076118704E0,1.233947799E-1,1.160643995E-2,-1.789835095E-1
3.078102090E0,1.325577646E-1,9.162978269E-3,-1.893682331E-1
3.080117092E0,1.331686229E-1,6.108652335E-3,-1.960877478E-1
3.082100863E0,1.441642046E-1,1.832595794E-3,-2.046398520E-1
3.084114711E0,1.508837193E-1,-6.719517522E-3,-2.162462920E-1
3.086098329E0,1.563815027E-1,-9.773843922E-3,-2.223549485E-1
3.088112792E0,1.637118906E-1,-1.771509275E-2,-2.339613885E-1
3.090126948E0,1.734857261E-1,-2.809980139E-2,-2.455678284E-1
3.092110103E0,1.789835095E-1,-3.298672289E-2,-2.547308207E-1
3.094123336E0,1.905899495E-1,-4.642575979E-2,-2.681698501E-1
3.096107876E0,1.942551434E-1,-5.131268129E-2,-2.718350291E-1
3.098122417E0,2.058615834E-1,-6.475171447E-2,-2.883284092E-1
3.100106957E0,2.180788964E-1,-8.307767659E-2,-3.011565804E-1
3.102119959E0,2.247984111E-1,-9.285151958E-2,-3.097086847E-1
3.104103346E0,2.382374406E-1,-1.075122803E-1,-3.262020350E-1
3.106118039E0,2.498438805E-1,-1.264491081E-1,-3.414736688E-1
3.108101734E0,2.590068579E-1,-1.374446750E-1,-3.500257730E-1
3.110115351E0,2.706133127E-1,-1.551597714E-1,-3.671300113E-1
3.112099276E0,2.858849466E-1,-1.771509200E-1,-3.817907870E-1
3.114113201E0,2.926044464E-1,-1.863138974E-1,-3.921754956E-1
3.116127049E0,3.078760803E-1,-2.076941878E-1,-4.092797041E-1
3.118110744E0,3.255911767E-1,-2.296853364E-1,-4.294382632E-1
3.120126360E0,3.353650272E-1,-2.382374406E-1,-4.355469346E-1
3.122108516E0,3.567453027E-1,-2.620611787E-1,-4.544837475E-1
3.124123287E0,3.793473244E-1,-2.828305960E-1,-4.740314186E-1
3.126106674E0,3.921754956E-1,-2.950479090E-1,-4.825835526E-1
3.128121137E0,4.196644127E-1,-3.170390725E-1,-5.009095073E-1
3.130103908E0,4.337143302E-1,-3.304781020E-1,-5.088507533E-1
3.132118680E0,4.642575979E-1,-3.530801237E-1,-5.259549618E-1
3.134102758E0,4.990769029E-1,-3.805690408E-1,-5.430592299E-1
3.136115990E0,5.155702829E-1,-3.940080702E-1,-5.558874011E-1
3.138100531E0,5.534439087E-1,-4.239404798E-1,-5.729916096E-1
3.140116225E0,5.870414972E-1,-4.514294267E-1,-5.900958180E-1
3.142098073E0,6.053674817E-1,-4.679227769E-1,-5.992587805E-1
3.144108845E0,6.407976151E-1,-5.002986193E-1,-6.218608022E-1
3.146126077E0,6.762278080E-1,-5.351179838E-1,-6.401867867E-1
3.148108924E0,6.927211881E-1,-5.564982295E-1,-6.517932415E-1
3.150123388E0,7.318165898E-1,-5.962044597E-1,-6.756169796E-1
3.152107928E0,7.715228200E-1,-6.389650702E-1,-6.994407177E-1
3.154121546E0,7.916813493E-1,-6.640105247E-1,-7.110471725E-1
3.156105240E0,8.313875794E-1,-7.086036801E-1,-7.397578359E-1
3.158119088E0,8.662069440E-1,-7.568620443E-1,-7.690793276E-1
3.160104243E0,8.875871897E-1,-7.812966704E-1,-7.855727077E-1
3.162117168E0,9.248499870E-1,-8.295549750E-1,-8.173376918E-1
3.164101555E0,9.443976879E-1,-8.539896011E-1,-8.344419003E-1
3.166115634E0,9.792169929E-1,-9.010262489E-1,-8.680394888E-1
3.168099097E0,1.014647126E0,-9.474520087E-1,-9.034696817E-1
3.170112946E0,1.028697014E0,-9.706648588E-1,-9.199630618E-1
3.172127409E0,1.058629513E0,-1.014647126E0,-9.572258592E-1
3.174111025E0,1.086729288E0,-1.061072946E0,-9.963212013E-1
3.176124643E0,1.100779176E0,-1.080620646E0,-1.014036298E0
3.178108568E0,1.123992085E0,-1.123381138E0,-1.051909924E0
3.180123955E0,1.144150615E0,-1.165530920E0,-1.091005325E0
3.182106726E0,1.155146122E0,-1.185689449E0,-1.108720422E0
3.184119959E0,1.170417786E0,-1.222341299E0,-1.146594048E0
3.186104884E0,1.183856845E0,-1.259604096E0,-1.184467673E0
3.188118808E0,1.189965487E0,-1.278540969E0,-1.203404546E0
3.190101194E0,1.200961113E0,-1.312138557E0,-1.238834739E0
3.192116273E0,1.208291411E0,-1.346346974E0,-1.274264932E0
3.194099737E0,1.211956620E0,-1.361618638E0,-1.294423461E0
3.196114431E0,1.216843605E0,-1.395216227E0,-1.330464482E0
3.198097895E0,1.221119642E0,-1.410487890E0,-1.348179579E0
3.200112666E0,1.222952247E0,-1.439809442E0,-1.386664152E0
3.202127052E0,1.224784851E0,-1.470963478E0,-1.423316002E0
3.204110438E0,1.225395679E0,-1.480737329E0,-1.444696307E0
3.206124056E0,1.223563075E0,-1.511280656E0,-1.480126500E0
3.208107134E0,1.224173903E0,-1.539991260E0,-1.519832730E0
3.210121829E0,1.222341299E0,-1.558317184E0,-1.540602207E0
3.212105600E0,1.218065262E0,-1.588249683E0,-1.580308437E0
3.214120294E0,1.216232657E0,-1.619403720E0,-1.618182063E0
3.216103141E0,1.216843605E0,-1.640784025E0,-1.637118816E0
3.218116913E0,1.210734963E0,-1.673770785E0,-1.680490255E0
3.220101915E0,1.210124016E0,-1.715309620E0,-1.722029090E0
3.222115994E0,1.211956620E0,-1.739744186E0,-1.742798567E0
3.224097842E0,1.218676209E0,-1.783726573E0,-1.784948230E0
3.226112305E0,1.229060888E0,-1.830763102E0,-1.828930497E0
3.228126846E0,1.235169530E0,-1.853976011E0,-1.849699974E0
3.230109924E0,1.248608589E0,-1.898569226E0,-1.894293070E0
3.232124695E0,1.253495455E0,-1.919338584E0,-1.918727756E0
3.234109235E0,1.263269305E0,-1.963320851E0,-1.962710023E0
3.236122468E0,1.272432327E0,-2.003027201E0,-2.009135723E0
3.238106163E0,1.279762745E0,-2.021964073E0,-2.032959461E0
3.240121318E0,1.293201685E0,-2.057394028E0,-2.079996109E0
3.242104628E0,1.307251573E0,-2.088548183E0,-2.124589205E0
3.244118552E0,1.317636371E0,-2.104430676E0,-2.146580458E0
3.246101631E0,1.344514370E0,-2.127643585E0,-2.193006277E0
3.248116325E0,1.365283847E0,-2.147191286E0,-2.240653753E0
3.250099404E0,1.381777167E0,-2.156965256E0,-2.260812283E0
3.252113868E0,1.403768301E0,-2.166738987E0,-2.310292244E0
3.254098562E0,1.430035591E0,-2.172236919E0,-2.354885578E0
3.256112026E0,1.441641927E0,-2.174069405E0,-2.375654936E0
3.258126565E0,1.467298269E0,-2.172236919E0,-2.420248032E0
3.260110567E0,1.477683067E0,-2.169793367E0,-2.442850113E0
3.262124031E0,1.507615447E0,-2.161852121E0,-2.483167171E0
3.264106879E0,1.528995752E0,-2.151467323E0,-2.521651745E0
3.266121342E0,1.541823864E0,-2.138639212E0,-2.539977789E0
3.268105268E0,1.566258430E0,-2.124589205E0,-2.576629639E0
3.270117962E0,1.585806131E0,-2.099543810E0,-2.609616280E0
3.272102886E0,1.597412586E0,-2.085494041E0,-2.627331495E0
3.274117888E0,1.616349459E0,-2.058005095E0,-2.655431271E0
3.276100736E0,1.634675384E0,-2.030516148E0,-2.684752703E0
3.278115507E0,1.639562368E0,-2.010968447E0,-2.701857090E0
3.280098894E0,1.660331726E0,-1.977981687E0,-2.726902485E0
3.282113665E0,1.673770785E0,-1.941329718E0,-2.753780603E0
3.284096975E0,1.682322860E0,-1.921171188E0,-2.765997887E0
3.286110514E0,1.701870561E0,-1.881464958E0,-2.792876005E0
3.288125055E0,1.717142224E0,-1.846034765E0,-2.819753885E0
3.290108364E0,1.725694299E0,-1.826487064E0,-2.831971169E0
3.292122597E0,1.739133358E0,-1.786780834E0,-2.857627630E0
3.294105676E0,1.746463776E0,-1.766011477E0,-2.870455742E0
3.296120755E0,1.758070230E0,-1.728137732E0,-2.896112204E0
3.298104142E0,1.767233133E0,-1.695761919E0,-2.923601151E0
3.300119450E0,1.772730947E0,-1.678046823E0,-2.933985710E0
3.302102606E0,1.784948230E0,-1.646281838E0,-2.962085485E0
3.304115147E0,1.790446043E0,-1.615127683E0,-2.987741947E0
3.306098533E0,1.794111252E0,-1.600466967E0,-3.001791716E0
3.308113997E0,1.801441550E0,-1.574810624E0,-3.025615454E0
3.310097307E0,1.803274155E0,-1.545489073E0,-3.054937124E0
3.312112155E0,1.806939363E0,-1.532050014E0,-3.067154408E0
3.314125694E0,1.808771968E0,-1.505172014E0,-3.092199802E0
3.316110004E0,1.814269781E0,-1.478293896E0,-3.116634369E0
3.318122852E0,1.812437177E0,-1.467298269E0,-3.128240824E0
3.320108162E0,1.813048005E0,-1.442252874E0,-3.152064562E0
3.322120779E0,1.809382915E0,-1.415374756E0,-3.177721024E0
3.324105935E0,1.810604572E0,-1.401935697E0,-3.188105822E0
3.326119245E0,1.810604572E0,-1.374446750E0,-3.212540388E0
3.328102630E0,1.811826348E0,-1.361618638E0,-3.225368500E0
3.330116709E0,1.807550311E0,-1.334740520E0,-3.251635790E0
3.332101404E0,1.808161139E0,-1.310916781E0,-3.279124737E0
3.334114867E0,1.806939363E0,-1.295034289E0,-3.291342020E0
3.336098946E0,1.810604572E0,-1.276708364E0,-3.316387415E0
3.338112410E0,1.814269781E0,-1.254106402E0,-3.345708847E0
3.340127796E0,1.816102386E0,-1.242499948E0,-3.360980511E0
3.342110336E0,1.821600199E0,-1.219287038E0,-3.392134666E0
3.344124184E0,1.829541445E0,-1.199739337E0,-3.423288822E0
3.346108801E0,1.831374049E0,-1.186911225E0,-3.440392971E0
3.348122572E0,1.838704348E0,-1.164309144E0,-3.473990679E0
3.350105344E0,1.847867370E0,-1.143539786E0,-3.508199215E0
3.352120730E0,1.847867370E0,-1.133154988E0,-3.525914192E0
3.354104193E0,1.852143407E0,-1.109942198E0,-3.561955214E0
3.356118349E0,1.857030392E0,-1.087950945E0,-3.596163750E0
3.358101428E0,1.858252048E0,-1.075733662E0,-3.615711451E0
3.360116430E0,1.856419444E0,-1.055575132E0,-3.653584957E0
3.362098893E0,1.858862996E0,-1.045801282E0,-3.669467449E0
3.364113664E0,1.855197787E0,-1.021977544E0,-3.702454329E0
3.366127820E0,1.850921750E0,-1.003651619E0,-3.736051798E0
3.368110898E0,1.847256541E0,-9.944885969E-1,-3.751934290E0
3.370125439E0,1.839926124E0,-9.700540304E-1,-3.784310102E0
3.372109441E0,1.836871743E0,-9.541715384E-1,-3.816075087E0
3.374123289E0,1.833206654E0,-9.450085163E-1,-3.828292608E0
3.376106906E0,1.828930497E0,-9.279043078E-1,-3.857614040E0
3.378122062E0,1.823432803E0,-9.150761366E-1,-3.886935472E0
3.380105372E0,1.820378423E0,-9.108000994E-1,-3.902817965E0
3.382118988E0,1.808771968E0,-8.973610401E-1,-3.930306911E0
3.384102375E0,1.794111252E0,-8.894197941E-1,-3.953519821E0
3.386115915E0,1.784337401E0,-8.875871897E-1,-3.967569828E0
3.388100148E0,1.769065738E0,-8.857545853E-1,-3.990171671E0
3.390114688E0,1.759291887E0,-8.863654733E-1,-4.000556469E0
3.392097152E0,1.740965962E0,-8.869763613E-1,-4.023769379E0
3.394112231E0,1.725083470E0,-8.943067193E-1,-4.043316841E0
3.396126309E0,1.717753053E0,-8.998045325E-1,-4.053091049E0
3.398110311E0,1.699427128E0,-9.138544202E-1,-4.073860168E0
3.400125082E0,1.686598897E0,-9.315695167E-1,-4.092186451E0
3.402107853E0,1.677435994E0,-9.413433671E-1,-4.101960182E0
3.404123240E0,1.664607763E0,-9.639453292E-1,-4.119675159E0
3.406105780E0,1.651168704E0,-9.889908433E-1,-4.136168480E0
3.408119552E0,1.645671010E0,-1.001819015E0,-4.147164345E0
3.410103630E0,1.632231951E0,-1.030529618E0,-4.165490150E0
3.412117401E0,1.619403720E0,-1.059240341E0,-4.189924717E0
3.414101480E0,1.611462474E0,-1.074512005E0,-4.200309277E0
3.416115251E0,1.594358325E0,-1.103833556E0,-4.230241776E0
3.418099638E0,1.577254057E0,-1.138041973E0,-4.259563446E0
3.420114640E0,1.568701982E0,-1.155146122E0,-4.275445938E0
3.422097180E0,1.550986886E0,-1.191798091E0,-4.310875893E0
3.424110643E0,1.543045640E0,-1.213178396E0,-4.329202175E0
3.426126029E0,1.527163148E0,-1.247997642E0,-4.364632130E0
3.428109416E0,1.512502313E0,-1.285260439E0,-4.402505875E0
3.430122418E0,1.505172014E0,-1.299921274E0,-4.423886299E0
3.432106958E0,1.493565559E0,-1.334129691E0,-4.462981701E0
3.434120883E0,1.478904724E0,-1.367727280E0,-4.501465797E0
3.436104885E0,1.472185254E0,-1.386053205E0,-4.521624565E0
3.438119040E0,1.458746195E0,-1.415985584E0,-4.556443691E0
3.440102965E0,1.444696307E0,-1.440420270E0,-4.594928265E0
3.442115967E0,1.437365890E0,-1.453248382E0,-4.612643242E0
3.444101123E0,1.420872569E0,-1.473407030E0,-4.649295330E0
3.446113818E0,1.410487890E0,-1.489289522E0,-4.681060314E0
3.448097820E0,1.399492264E0,-1.497841597E0,-4.696331978E0
3.450111898E0,1.389107585E0,-1.503339410E0,-4.727486134E0
3.452125823E0,1.376890302E0,-1.498452425E0,-4.758640289E0
3.454110363E0,1.368338108E0,-1.493565559E0,-4.769635677E0
3.456124211E0,1.352455616E0,-1.472796082E0,-4.795903206E0
3.458108290E0,1.345736146E0,-1.461189628E0,-4.808731079E0
3.460123677E0,1.328021049E0,-1.433700681E0,-4.831333160E0
3.462106063E0,1.307862520E0,-1.400103092E0,-4.848437309E0
3.464118988E0,1.298699498E0,-1.382998943E0,-4.860654831E0
3.466103605E0,1.277319193E0,-1.348179579E0,-4.877758980E0
3.468118068E0,1.257160664E0,-1.304197311E0,-4.890587330E0
3.470100301E0,1.249219418E0,-1.281595230E0,-4.896084785E0
3.472114765E0,1.226006508E0,-1.228450060E0,-4.902804375E0
3.474098767E0,1.203404546E0,-1.179580808E0,-4.907691479E0
3.476112615E0,1.190576315E0,-1.149648428E0,-4.910745621E0
3.478127386E0,1.167974353E0,-1.091616154E0,-4.915021896E0
3.480112002E0,1.145372391E0,-1.032973170E0,-4.914411068E0
3.482125235E0,1.128878951E0,-1.003651619E0,-4.916243553E0
3.484109468E0,1.104444385E0,-9.492846131E-1,-4.914411068E0
3.486122778E0,1.080009699E0,-8.930850029E-1,-4.912578106E0
3.488107010E0,1.071457624E0,-8.680394888E-1,-4.910745621E0
3.490120551E0,1.047023058E0,-8.136724830E-1,-4.910745621E0
3.492104244E0,1.036638379E0,-7.874053121E-1,-4.910134792E0
3.494118400E0,1.012203693E0,-7.342600226E-1,-4.907080650E0
3.496102171E0,9.877691269E-1,-6.853908300E-1,-4.902804375E0
3.498116250E0,9.767735004E-1,-6.597344875E-1,-4.900361061E0
3.500100945E0,9.529497623E-1,-6.114761233E-1,-4.892419815E0
3.502114408E0,9.309586287E-1,-5.656611919E-1,-4.885089397E0
3.504097179E0,9.199630618E-1,-5.442809463E-1,-4.883256912E0
3.506112257E0,9.010262489E-1,-4.966334403E-1,-4.878980637E0
3.508126798E0,8.802568316E-1,-4.569272101E-1,-4.873482704E0
3.510109184E0,8.704829812E-1,-4.361577928E-1,-4.875315666E0
3.512123725E0,8.515461683E-1,-3.995058835E-1,-4.872261047E0
3.514108342E0,8.326093554E-1,-3.665191531E-1,-4.871039391E0
3.516121498E0,8.265006542E-1,-3.518583775E-1,-4.874704838E0
3.518105500E0,8.136724830E-1,-3.225368559E-1,-4.874704838E0
3.520120347E0,8.038986921E-1,-2.974913716E-1,-4.877758980E0
3.522103426E0,8.002334833E-1,-2.858849466E-1,-4.881423950E0
3.524118197E0,7.898487449E-1,-2.565633953E-1,-4.886311054E0
3.526101584E0,7.855727077E-1,-2.406809032E-1,-4.887532711E0
3.528115663E0,7.788531780E-1,-2.089159191E-1,-4.891808987E0
3.530098434E0,7.690793276E-1,-1.704314053E-1,-4.894863129E0
3.532112667E0,7.660250068E-1,-1.514945775E-1,-4.896084785E0
3.534127437E0,7.635815740E-1,-1.062905490E-1,-4.896695614E0
3.536110747E0,7.544185519E-1,-6.169738993E-2,-4.898528576E0
3.538125287E0,7.501425147E-1,-3.726277873E-2,-4.899139404E0
3.540108982E0,7.379252315E-1,1.099557430E-2,-4.897917747E0
3.542121830E0,7.244861722E-1,6.047565863E-2,-4.896695614E0
3.544105293E0,7.177666426E-1,8.735372871E-2,-4.896084785E0
3.546119449E0,7.055493593E-1,1.331686229E-1,-4.894863129E0
3.548104373E0,6.884451509E-1,1.771509200E-1,-4.896695614E0
3.550118145E0,6.798930168E-1,1.985312104E-1,-4.896695614E0
3.552101839E0,6.621779203E-1,2.412917763E-1,-4.894863129E0
3.554115995E0,6.554583907E-1,2.590068579E-1,-4.891808987E0
3.556099689E0,6.420193911E-1,2.981022298E-1,-4.891808987E0
3.558113537E0,6.285803318E-1,3.329215646E-1,-4.886921883E0
3.560129616E0,6.224716902E-1,3.488040566E-1,-4.883867741E0
3.562112079E0,6.090326309E-1,3.817907870E-1,-4.877758980E0
3.564126850E0,5.962044597E-1,4.062253833E-1,-4.872871876E0
3.566110160E0,5.913175344E-1,4.190535545E-1,-4.871039391E0
3.568123700E0,5.791002512E-1,4.447098970E-1,-4.861876488E0
3.570107394E0,5.674937963E-1,4.648684561E-1,-4.853935242E0
3.572121319E0,5.607742667E-1,4.752531648E-1,-4.849658966E0
3.574105245E0,5.516113043E-1,4.893030524E-1,-4.841717720E0
3.576119476E0,5.375614166E-1,5.002986193E-1,-4.828889847E0
3.578103094E0,5.308418870E-1,5.033529401E-1,-4.822170258E0
3.580117557E0,5.186246037E-1,5.064072609E-1,-4.807509422E0
3.582100713E0,5.112941861E-1,5.027421117E-1,-4.794070244E0
3.584113638E0,5.051855445E-1,4.984660447E-1,-4.784907341E0
3.586130256E0,4.954117239E-1,4.893030524E-1,-4.770246506E0
3.588113565E0,4.911356568E-1,4.838052690E-1,-4.760472775E0
3.590126182E0,4.838052690E-1,4.709770977E-1,-4.742146969E0
3.592110876E0,4.715879560E-1,4.550946057E-1,-4.721377373E0
3.594124955E0,4.673119187E-1,4.447098970E-1,-4.709160328E0
3.596108111E0,4.581489265E-1,4.312708676E-1,-4.687169075E0
3.598121882E0,4.477642179E-1,4.111123085E-1,-4.668232441E0
3.600107115E0,4.404338300E-1,4.031710625E-1,-4.655404091E0
3.602120348E0,4.300491214E-1,3.805690408E-1,-4.632802010E0
3.604104964E0,4.184426963E-1,3.616322279E-1,-4.610199928E0
3.606117966E0,4.135557711E-1,3.512475193E-1,-4.597372055E0
3.608101660E0,4.031710625E-1,3.310889602E-1,-4.577824116E0
3.610116124E0,3.891211748E-1,3.097086847E-1,-4.558276653E0
3.612099510E0,3.842342496E-1,2.999348342E-1,-4.547891617E0
3.614113974E0,3.695734739E-1,2.669481039E-1,-4.525900364E0
3.616097361E0,3.646865487E-1,2.455678284E-1,-4.517348289E0
3.618111823E0,3.536909819E-1,2.376265824E-1,-4.500854969E0
3.620126825E0,3.390302062E-1,2.156354338E-1,-4.489248753E0
3.622110519E0,3.329215646E-1,2.058615834E-1,-4.483139992E0
3.624122906E0,3.139847219E-1,1.857030392E-1,-4.471533775E0
3.626107447E0,2.962696552E-1,1.673770845E-1,-4.463592529E0
3.628121679E0,2.858849466E-1,1.557706445E-1,-4.459316254E0
3.630105297E0,2.681698501E-1,1.343903542E-1,-4.447099209E0
3.632118605E0,2.474004179E-1,1.160643995E-1,-4.438546658E0
3.634102607E0,2.370157093E-1,1.081231460E-1,-4.431827545E0
3.636116763E0,2.211332172E-1,8.613199741E-2,-4.418999195E0
3.638100688E0,2.040289938E-1,6.780604273E-2,-4.398840427E0
3.640115536E0,1.954768747E-1,5.986479297E-2,-4.390899181E0
3.642098308E0,1.789835095E-1,4.337143153E-2,-4.367075443E0
3.644113387E0,1.600466967E-1,2.932153270E-2,-4.345695496E0
3.646126003E0,1.484402567E-1,2.443460934E-2,-4.334088802E0
3.648110620E0,1.301143020E-1,9.773843922E-3,-4.305989265E0
3.650124776E0,1.099557430E-1,-4.276056774E-3,-4.277889252E0
3.652107778E0,9.957103431E-2,-1.221730467E-2,-4.264450073E0
3.654122626E0,7.941248268E-2,-2.748893574E-2,-4.233907223E0
3.656105705E0,6.719517708E-2,-3.604105115E-2,-4.219246387E0
3.658120092E0,5.070181563E-2,-5.681046844E-2,-4.185648441E0
3.660105324E0,2.687807009E-2,-7.880161703E-2,-4.150218487E0
3.662117941E0,1.466076635E-2,-9.224065393E-2,-4.134946823E0
3.664102020E0,-4.886921961E-3,-1.209513173E-1,-4.098294735E0
3.666117022E0,-2.565634064E-2,-1.521054506E-1,-4.061643124E0
3.668099870E0,-3.298672289E-2,-1.692096740E-1,-4.040873528E0
3.670112488E0,-5.497787148E-2,-2.058615834E-1,-4.005443573E0
3.672127489E0,-7.086037099E-2,-2.437352389E-1,-3.964515448E0
3.674111875E0,-7.941248268E-2,-2.638937831E-1,-3.944967747E0
3.676125954E0,-9.651670605E-2,-3.023782969E-1,-3.904039860E0
3.678109110E0,-1.111774743E-1,-3.426954150E-1,-3.866776943E0
3.680124189E0,-1.166752651E-1,-3.640756905E-1,-3.846007586E0
3.682107576E0,-1.295034289E-1,-4.068362415E-1,-3.806301355E0
3.684121424E0,-1.362229437E-1,-4.288274050E-1,-3.791029692E0
3.686104732E0,-1.533271819E-1,-4.667010605E-1,-3.753767014E0
3.688119504E0,-1.667662114E-1,-5.064072609E-1,-3.719558477E0
3.690102275E0,-1.753183305E-1,-5.235115290E-1,-3.701232433E0
3.692117431E0,-1.930334121E-1,-5.638286471E-1,-3.670689344E0
3.694100740E0,-2.095267773E-1,-6.017022729E-1,-3.638313293E0
3.696114589E0,-2.168571651E-1,-6.200281978E-1,-3.624874353E0
3.698098283E0,-2.382374406E-1,-6.615670323E-1,-3.597385406E0
3.700113745E0,-2.547308207E-1,-7.024950385E-1,-3.570507288E0
3.702126594E0,-2.632829249E-1,-7.232644558E-1,-3.558900833E0
3.704109442E0,-2.822197378E-1,-7.641924024E-1,-3.536298990E0
3.706123521E0,-2.987131178E-1,-8.124507666E-1,-3.512475252E0
3.708107830E0,-3.103195429E-1,-8.344419003E-1,-3.501479626E0
3.710122063E0,-3.268128932E-1,-8.814785480E-1,-3.479488373E0
3.712105450E0,-3.463605940E-1,-9.291260242E-1,-3.454442978E0
3.714120220E0,-3.573561609E-1,-9.511171579E-1,-3.444058180E0
3.716103837E0,-3.756821156E-1,-9.950994849E-1,-3.417791128E0
3.718117686E0,-3.848451078E-1,-1.016479731E0,-3.403741121E0
3.720102380E0,-4.056145251E-1,-1.057407737E0,-3.373808861E0
3.722115305E0,-4.245513380E-1,-1.092837930E0,-3.344487190E0
3.724099845E0,-4.324925840E-1,-1.109942198E0,-3.324939489E0
3.726113155E0,-4.514294267E-1,-1.142928839E0,-3.289509296E0
3.728127541E0,-4.703662395E-1,-1.165530920E0,-3.252857447E0
3.730111235E0,-4.807509482E-1,-1.172861218E0,-3.233309746E0
3.732125468E0,-4.960225821E-1,-1.189965487E0,-3.198490381E0
3.734109162E0,-5.119050741E-1,-1.197295904E0,-3.160616875E0
3.736123010E0,-5.186246037E-1,-1.198517561E0,-3.142901659E0
3.738106705E0,-5.351179838E-1,-1.200350165E0,-3.099530220E0
3.740121784E0,-5.485569835E-1,-1.199739337E0,-3.062878370E0
3.742104861E0,-5.546656251E-1,-1.196684957E0,-3.042109013E0
3.744118325E0,-5.687155724E-1,-1.188743711E0,-3.003624439E0
3.746102019E0,-5.772676468E-1,-1.182635069E0,-2.962085485E0
3.748116791E0,-5.858197808E-1,-1.174082994E0,-2.941926956E0
3.750099562E0,-5.943718553E-1,-1.162476540E0,-2.900388241E0
3.752115025E0,-6.010913849E-1,-1.156367898E0,-2.879007816E0
3.754098104E0,-6.114761233E-1,-1.140485406E0,-2.840523481E0
3.756112182E0,-6.181956530E-1,-1.125824690E0,-2.798984528E0
3.758126107E0,-6.243042946E-1,-1.116661668E0,-2.778215170E0
3.760110109E0,-6.352998614E-1,-1.104444385E0,-2.737898111E0
3.762123573E0,-6.450737119E-1,-1.092227101E0,-2.702467918E0
3.764108190E0,-6.493497491E-1,-1.088561893E0,-2.683531046E0
3.766122115E0,-6.615670323E-1,-1.083674908E0,-2.649933338E0
3.768105425E0,-6.737843752E-1,-1.075122833E0,-2.615114212E0
3.770119657E0,-6.792821288E-1,-1.075122833E0,-2.596788168E0
3.772102659E0,-6.896668673E-1,-1.078177214E0,-2.566855669E0
3.774117815E0,-6.994407177E-1,-1.083674908E0,-2.535090685E0
3.776101740E0,-7.018841505E-1,-1.086729288E0,-2.519819021E0
3.778115049E0,-7.086036801E-1,-1.099557400E0,-2.490497589E0
3.780099667E0,-7.086036801E-1,-1.107498646E0,-2.474615097E0
3.782114130E0,-7.098253965E-1,-1.117883444E0,-2.442850113E0
3.784096285E0,-7.110471725E-1,-1.135598540E0,-2.412306786E0
3.786110441E0,-7.079927921E-1,-1.143539786E0,-2.395202637E0
3.788125520E0,-7.049384713E-1,-1.158811331E0,-2.364048481E0
3.790108830E0,-7.012733221E-1,-1.174082994E0,-2.328007460E0
3.792122447E0,-6.994407177E-1,-1.179580808E0,-2.309070587E0
3.794106757E0,-6.921103001E-1,-1.189354658E0,-2.274251223E0
3.796120913E0,-6.872233748E-1,-1.194852471E0,-2.231490850E0
3.798104529E0,-6.817256212E-1,-1.197295904E0,-2.214997292E0
3.800119069E0,-6.786713004E-1,-1.198517561E0,-2.172847748E0
3.802102995E0,-6.743952036E-1,-1.198517561E0,-2.133141518E0
3.804116612E0,-6.719517708E-1,-1.203404546E0,-2.111761093E0
3.806100306E0,-6.695083380E-1,-1.204015374E0,-2.068389654E0
3.808114154E0,-6.658431292E-1,-1.206458807E0,-2.027461767E0
3.810098155E0,-6.664539576E-1,-1.209513187E0,-2.007303238E0
3.812111619E0,-6.615670323E-1,-1.210124016E0,-1.966375232E0
3.814126698E0,-6.579018831E-1,-1.215621829E0,-1.944384098E0
3.816110161E0,-6.530149579E-1,-1.216843605E0,-1.904066920E0
3.818123625E0,-6.511823535E-1,-1.215011001E0,-1.861917257E0
3.820108550E0,-6.462954283E-1,-1.217454433E0,-1.843591332E0
3.822121783E0,-6.426302195E-1,-1.213178396E0,-1.803885102E0
3.824104245E0,-6.383541822E-1,-1.208291411E0,-1.767843962E0
3.826120017E0,-6.359107494E-1,-1.204015374E0,-1.745242000E0
3.828104326E0,-6.316346526E-1,-1.192408919E0,-1.709200978E0
3.830116328E0,-6.291912198E-1,-1.178969979E0,-1.673770785E0
3.832101176E0,-6.273586154E-1,-1.168585181E0,-1.654833913E0
3.834115102E0,-6.218608022E-1,-1.149037480E0,-1.622458100E0
3.836098796E0,-6.145304441E-1,-1.121548533E0,-1.591914773E0
3.838112643E0,-6.102544069E-1,-1.108109593E0,-1.578475833E0
3.840127722E0,-6.023131609E-1,-1.080009699E0,-1.546710849E0
3.842110493E0,-5.968153477E-1,-1.043357849E0,-1.520443559E0
3.844125187E0,-5.949827433E-1,-1.023199320E0,-1.508226275E0
3.846108266E0,-5.955936313E-1,-9.822713137E-1,-1.485624313E0
3.848122192E0,-5.931501389E-1,-9.621127844E-1,-1.471574426E0
3.850106501E0,-5.858197808E-1,-9.217956662E-1,-1.452026725E0
3.852120348E0,-5.736024380E-1,-8.851437569E-1,-1.429424644E0
3.854104350E0,-5.662720799E-1,-8.668177724E-1,-1.419650793E0
3.856118429E0,-5.546656251E-1,-8.356636763E-1,-1.399492264E0
3.858102431E0,-5.424483418E-1,-8.038986921E-1,-1.374446750E0
3.860116895E0,-5.369505286E-1,-7.855727077E-1,-1.359786034E0
3.862100358E0,-5.247332454E-1,-7.464773059E-1,-1.330464482E0
3.864111668E0,-5.106833577E-1,-7.086036801E-1,-1.294423461E0
3.866127131E0,-5.033529401E-1,-6.884451509E-1,-1.276097536E0
3.868111133E0,-4.886921942E-1,-6.505714655E-1,-1.233336926E0
3.870125827E0,-4.734205604E-1,-6.102544069E-1,-1.184467673E0
3.872109521E0,-4.660901725E-1,-5.864306092E-1,-1.156367898E0
3.874124292E0,-4.459316432E-1,-5.461135507E-1,-1.100779176E0
3.876107987E0,-4.245513380E-1,-5.033529401E-1,-1.039692640E0
3.878121835E0,-4.111123085E-1,-4.825835526E-1,-1.005484223E0
3.880106144E0,-3.848451078E-1,-4.404338300E-1,-9.395107627E-1
3.882119453E0,-3.683517575E-1,-4.214970171E-1,-9.083566070E-1
3.884103148E0,-3.371976018E-1,-3.805690408E-1,-8.405506015E-1
3.886116996E0,-3.097086847E-1,-3.408628106E-1,-7.757988572E-1
3.888100998E0,-2.950479090E-1,-3.237585723E-1,-7.428121567E-1
3.890114769E0,-2.663372457E-1,-2.919935882E-1,-6.750060916E-1
3.892098233E0,-2.406809032E-1,-2.626720667E-1,-6.157521605E-1
3.894112618E0,-2.247984111E-1,-2.559525371E-1,-5.888741016E-1
3.896127389E0,-1.991420686E-1,-2.431243658E-1,-5.332853794E-1
3.898110776E0,-1.759291887E-1,-2.400700450E-1,-4.825835526E-1
3.900125624E0,-1.643227488E-1,-2.437352389E-1,-4.593706727E-1
3.902109319E0,-1.423316002E-1,-2.590068579E-1,-4.202753007E-1
3.904121859E0,-1.282816976E-1,-2.822197378E-1,-3.848451078E-1
3.906107169E0,-1.166752651E-1,-2.987131178E-1,-3.689626157E-1
3.908121247E0,-1.032362282E-1,-3.365867436E-1,-3.402519524E-1
3.910103095E0,-1.001819000E-1,-3.585779071E-1,-3.292563558E-1
3.912118174E0,-9.346238524E-2,-4.062253833E-1,-3.090978265E-1
3.914102560E0,-8.979719132E-2,-4.575380683E-1,-2.926044464E-1
3.916115793E0,-8.857546002E-2,-4.862487316E-1,-2.858849466E-1
3.918099487E0,-8.613199741E-2,-5.424483418E-1,-2.730567753E-1
3.920114259E0,-8.613199741E-2,-5.974262357E-1,-2.614503205E-1
3.922097875E0,-8.674286306E-2,-6.243042946E-1,-2.590068579E-1
3.924112339E0,-8.674286306E-2,-6.750060916E-1,-2.492330223E-1
3.926126187E0,-8.674286306E-2,-7.202101350E-1,-2.406809032E-1
3.928109035E0,-8.674286306E-2,-7.428121567E-1,-2.364048511E-1
3.930123806E0,-9.224065393E-2,-7.776314616E-1,-2.309070677E-1
3.932106885E0,-9.712757170E-2,-8.057312369E-1,-2.193006277E-1
3.934121272E0,-9.773843735E-2,-8.179485798E-1,-2.162462920E-1
3.936104965E0,-1.062905490E-1,-8.387179971E-1,-2.058615834E-1
3.938118582E0,-1.130100712E-1,-8.484918475E-1,-1.966986060E-1
3.940103507E0,-1.172861308E-1,-8.521569967E-1,-1.912008226E-1
3.942116740E0,-1.288925707E-1,-8.533787727E-1,-1.734857261E-1
3.944100050E0,-1.337794960E-1,-8.582656980E-1,-1.679879427E-1
3.946113975E0,-1.392772794E-1,-8.607091308E-1,-1.521054506E-1
3.948129285E0,-1.417207420E-1,-8.704829812E-1,-1.398881376E-1
3.950112055E0,-1.429424733E-1,-8.753699064E-1,-1.343903542E-1
3.952126826E0,-1.423316002E-1,-8.814785480E-1,-1.227839142E-1
3.954110828E0,-1.435533315E-1,-8.839219809E-1,-1.160643995E-1
3.956124753E0,-1.453859210E-1,-8.814785480E-1,-1.148426682E-1
3.958108140E0,-1.423316002E-1,-8.765916228E-1,-1.105666086E-1
3.960123450E0,-1.441642046E-1,-8.625417352E-1,-1.099557430E-1
3.962105990E0,-1.435533315E-1,-8.509352803E-1,-1.075122803E-1
