"Time (s)","Linear Acceleration x (m/s^2)","Linear Acceleration y (m/s^2)","Linear Acceleration z (m/s^2)"
1.212100800E-2,-1.754879951E-2,7.604312897E-2,-5.004215240E-2
2.011701600E-2,-1.014003754E-1,2.133941650E-2,5.201196671E-2
2.811240800E-2,-8.226537704E-2,-4.614830017E-3,9.544467926E-2
3.610787600E-2,1.193654537E-2,-2.703094482E-2,3.769636154E-2
4.410380700E-2,6.307780743E-2,-2.790164948E-2,-5.692958832E-3
5.209835300E-2,9.355974197E-2,-3.602218628E-2,2.510118484E-2
6.012543800E-2,8.244800568E-2,-4.646205902E-2,3.292083740E-3
6.812106000E-2,1.149010658E-2,-2.098464966E-2,2.459287643E-2
7.611591400E-2,-5.253100395E-2,1.838111877E-2,3.775262833E-2
8.411222900E-2,-6.787693501E-2,5.596065521E-2,3.995800018E-2
9.210731300E-2,-3.182196617E-2,5.169200897E-2,5.183362961E-2
1.001038590E-1,-3.805875778E-3,1.760196686E-2,2.999496460E-2
1.080984050E-1,-2.117812634E-2,2.031993866E-2,-1.240110397E-2
1.160941050E-1,-4.013657570E-3,3.731727600E-3,-2.103233337E-2
1.241208810E-1,-4.416704178E-3,3.812789917E-3,-6.543207169E-2
1.321162730E-1,6.299090385E-2,-7.207870483E-3,-7.079172134E-2
1.401125120E-1,1.126362085E-1,-8.514404297E-3,-8.338117599E-2
1.481079040E-1,1.785496473E-1,-9.087753296E-2,-5.192136765E-2
1.561027580E-1,1.945132017E-1,-8.197402954E-2,-7.177972794E-2
1.640990720E-1,1.970038414E-1,-9.880161285E-2,-3.465986252E-2
1.720938500E-1,1.764373779E-1,-1.282567978E-1,-3.185415268E-2
1.801209340E-1,1.373866796E-1,-1.708650589E-1,-8.472442627E-3
1.881153250E-1,1.104313135E-1,-1.628675461E-1,-2.222061157E-3
1.961114100E-1,3.618538380E-2,-1.874332428E-1,2.469015121E-2
2.041074170E-1,-8.163213730E-3,-1.678676605E-1,4.244613647E-2
2.121028100E-1,-7.088828087E-2,-1.279745102E-1,2.789115906E-2
2.200987400E-1,-1.123392582E-1,-8.097076416E-2,6.781101227E-3
2.281249790E-1,-1.468389034E-1,-4.210472107E-2,-3.915405273E-2
2.361197550E-1,-1.167112589E-1,-2.930259705E-2,-2.907037735E-2
2.441159930E-1,-7.343673706E-2,-2.340412140E-2,-3.631877899E-2
2.521116930E-1,-2.910459042E-2,-4.798889160E-3,-5.017662048E-2
2.601073920E-1,1.334893703E-2,1.801490784E-3,-7.119655609E-2
2.681019390E-1,5.444657803E-2,6.153202057E-2,-8.309888840E-2
2.760970230E-1,5.252528191E-2,8.486366272E-2,-9.681844711E-2
2.841247220E-1,1.709508896E-2,1.043767929E-1,-6.578397751E-2
2.921197300E-1,-4.061543941E-2,8.114147186E-2,-6.115913391E-2
3.001170450E-1,-7.300353050E-2,5.822467804E-2,-2.063512802E-2
3.081112070E-1,-1.720898151E-1,7.144451141E-2,1.293611526E-2
3.161065980E-1,-2.234250307E-1,6.090641022E-2,-3.437519073E-3
3.241025290E-1,-2.920540571E-1,7.446861267E-2,-2.175426483E-2
3.320983060E-1,-3.302615881E-1,7.634639740E-2,-2.977943420E-2
3.401253900E-1,-4.022377729E-1,7.864475250E-2,-6.339502335E-2
3.481200900E-1,-4.760037661E-1,9.831237793E-2,-9.867143631E-2
3.561148660E-1,-4.676302671E-1,9.000587463E-2,-1.426134109E-1
3.641114900E-1,-4.702254534E-1,9.228992462E-2,-1.901297569E-1
3.721066510E-1,-4.508680105E-1,1.219277382E-1,-2.337989807E-1
3.801026590E-1,-4.386606216E-1,1.286945343E-1,-2.973346710E-1
3.880980500E-1,-4.768053293E-1,1.824979782E-1,-4.038863182E-1
3.961241340E-1,-4.980126619E-1,2.018504143E-1,-3.070592880E-1
4.041192960E-1,-5.012537241E-1,2.223052979E-1,-3.516564369E-1
4.121155340E-1,-5.353553295E-1,2.439570427E-1,-3.695631027E-1
4.201121570E-1,-5.649820566E-1,2.690281868E-1,-3.488335609E-1
4.281060870E-1,-6.195306778E-1,2.591915131E-1,-3.179335594E-1
4.361011710E-1,-6.390922070E-1,1.714019775E-1,3.433489799E-1
4.440984100E-1,-4.752289057E-1,4.358482361E-2,-1.843056679E-1
4.521239550E-1,-3.165072203E-1,-4.165458679E-2,-3.524971008E-1
4.601208870E-1,-1.881549358E-1,-9.476661682E-3,-4.359626770E-1
4.681155860E-1,-6.236112118E-2,1.874351501E-2,-6.208062172E-1
4.761109790E-1,-3.037786484E-2,6.740379333E-2,-6.916208267E-1
4.841067550E-1,4.109358788E-2,4.354953766E-2,-7.201809883E-1
4.921012230E-1,3.450632095E-2,7.106971741E-2,-7.002205849E-1
5.000977700E-1,-6.399059296E-2,8.346652985E-2,-7.339825630E-1
5.081233920E-1,-1.322513819E-1,1.146411896E-1,-7.441868782E-1
5.161190160E-1,-2.936053276E-1,1.693334579E-1,-7.135887146E-1
5.241154070E-1,-4.631220102E-1,2.570075989E-1,-6.609301567E-1
5.321101850E-1,-6.320995092E-1,3.155183792E-1,-5.999326706E-1
5.401061150E-1,-7.226761580E-1,3.133602142E-1,-3.942036629E-1
5.481021220E-1,-6.970536709E-1,2.546749115E-1,-1.810522079E-1
5.560975140E-1,-5.294054747E-1,1.958227158E-1,1.627922058E-2
5.641231370E-1,-3.396793604E-1,1.431617737E-1,-2.866172791E-2
5.721184520E-1,-9.760451317E-2,1.469383240E-1,-1.503844261E-1
5.801154590E-1,9.869897366E-2,2.433557510E-1,-1.831774712E-1
5.881099280E-1,2.739706039E-1,3.012638092E-1,-1.490097046E-1
5.961055510E-1,4.525301456E-1,3.332443237E-1,-2.011833191E-1
6.041019430E-1,5.445734262E-1,3.633670807E-1,-2.405352592E-1
6.120972590E-1,5.858114958E-1,4.151763916E-1,-2.845263481E-1
6.201231890E-1,5.087076426E-1,4.669866562E-1,-3.403906822E-1
6.281188890E-1,3.845717907E-1,4.807920456E-1,-3.378276825E-1
6.361142810E-1,2.174471617E-1,4.477767944E-1,-2.280731201E-1
6.441102110E-1,1.186466217E-1,3.389120102E-1,-8.525228500E-2
6.521056800E-1,1.141691208E-2,2.302360535E-1,4.043197632E-2
6.601016870E-1,-1.166892052E-2,1.545934677E-1,1.227049828E-1
6.680961570E-1,-7.952296734E-2,1.236619949E-1,1.953110695E-1
6.761228560E-1,-1.053563356E-1,1.537904739E-1,2.532687187E-1
6.841189410E-1,-7.880091667E-2,1.321105957E-1,2.963771820E-1
6.921137180E-1,3.020036221E-2,1.002216339E-2,3.712203503E-1
7.001100320E-1,1.770926714E-1,-1.317930222E-1,3.664643764E-1
7.081062710E-1,3.733551502E-1,-3.190336227E-1,1.422922611E-1
7.161011240E-1,5.556849241E-1,-4.809846878E-1,2.415752411E-2
7.240970550E-1,6.423170567E-1,-5.012121201E-1,-3.422093391E-2
7.321223700E-1,7.542477846E-1,-5.118618011E-1,-6.793236732E-2
7.401195320E-1,7.896106243E-1,-4.751071930E-1,-6.178689003E-2
7.481140000E-1,7.365155220E-1,-4.149303436E-1,-1.069154739E-1
7.561094690E-1,6.954749823E-1,-3.839902878E-1,-1.362688541E-1
7.641057080E-1,6.034411192E-1,-3.367052078E-1,-1.660523415E-1
7.721008690E-1,4.925311804E-1,-2.852411270E-1,-1.793723106E-1
7.800977230E-1,3.262032270E-1,-2.389450073E-1,-1.753926277E-1
7.881230380E-1,6.207394600E-2,-1.855020523E-1,-2.206101418E-1
7.961183520E-1,-1.105288267E-1,-1.916961670E-1,-1.263854504E-1
8.041135140E-1,-2.551479340E-1,-2.570352554E-1,4.225897789E-2
8.121091360E-1,-2.796368599E-1,-3.249883652E-1,1.888837814E-1
8.201054520E-1,-1.844928265E-1,-3.627395630E-1,1.215188503E-1
8.281011520E-1,-4.459583759E-2,-4.303369522E-1,5.543017387E-2
8.360959290E-1,7.013380527E-2,-3.890542984E-1,-3.824067116E-2
8.441227820E-1,1.058386564E-1,-3.346023560E-1,2.441406250E-2
8.521174810E-1,9.237957001E-2,-3.003768921E-1,8.499622345E-3
8.601150280E-1,-1.395940781E-2,-2.956743240E-1,6.707143784E-2
8.681082660E-1,-1.262084246E-1,-2.965211868E-1,1.063833237E-1
8.761049660E-1,-2.512726784E-1,-2.500886917E-1,3.806138039E-2
8.841005880E-1,-3.818812370E-1,-2.086610794E-1,-8.904457092E-2
8.920962880E-1,-4.650747776E-1,-1.596918106E-1,-2.280728817E-1
9.001225260E-1,-4.836796522E-1,-8.122634888E-2,-2.704184055E-1
9.081178410E-1,-4.595702887E-1,-8.056831360E-2,-3.727204800E-1
9.161123880E-1,-3.553689718E-1,-1.005573273E-1,-3.389339447E-1
9.241090100E-1,-2.250951529E-1,-1.729717255E-1,-3.377022743E-1
9.321050180E-1,-8.460521698E-2,-1.285219193E-1,-3.007080555E-1
9.401013330E-1,7.731842995E-2,-8.501529694E-2,-2.600233555E-1
9.480954940E-1,2.416685820E-1,-3.825473785E-2,-1.216571331E-1
9.561218860E-1,3.520878553E-1,-1.028671265E-1,-1.344239712E-1
9.641173550E-1,4.922201633E-1,-1.995754242E-1,-7.381987572E-2
9.721129780E-1,5.144222975E-1,-2.033815384E-1,-1.017267704E-1
9.801092930E-1,3.529609442E-1,-2.457075119E-1,-9.230232239E-2
9.881044550E-1,8.925974369E-2,-2.089881897E-1,-1.573793888E-1
9.961003850E-1,-1.707592010E-1,-2.150125504E-1,-1.838567257E-1
1.004125930E0,-3.431859016E-1,-2.108469009E-1,-1.782534122E-1
1.012121708E0,-4.377691746E-1,-1.818742752E-1,-1.468980312E-1
1.020117638E0,-4.519417286E-1,-1.638841629E-1,-1.781148911E-1
1.028112800E0,-3.984016180E-1,-1.473960876E-1,-2.573511600E-1
1.036109037E0,-2.783495188E-1,-5.126571655E-2,-3.079962730E-1
1.044104738E0,-1.601889133E-1,6.401729584E-2,-3.070967197E-1
1.052099822E0,-8.811593056E-3,1.499691010E-1,-3.205764294E-1
1.060126906E0,1.440172195E-1,1.964998245E-1,-3.088448048E-1
1.068121760E0,2.473206520E-1,2.110548019E-1,-3.607583046E-1
1.076117151E0,3.958154917E-1,1.965646744E-1,-4.468424320E-1
1.084113467E0,4.294224977E-1,1.943254471E-1,-5.104174614E-1
1.092108474E0,3.794466257E-1,1.904439926E-1,-5.860650539E-1
1.100105096E0,3.374122381E-1,1.468257904E-1,-6.016173363E-1
1.108100181E0,2.582199574E-1,8.047199249E-2,-6.331472397E-1
1.116125188E0,1.310884953E-1,-2.540397644E-2,-5.569837093E-1
1.124121120E0,3.617727757E-2,-5.393695831E-2,-4.447255135E-1
1.132116896E0,-5.256009102E-2,-1.252737045E-1,-3.267261982E-1
1.140113827E0,-8.572471142E-2,-1.319007874E-1,-2.486164570E-1
1.148109142E0,-9.808468819E-2,-1.197805405E-1,-1.440596581E-1
1.156103379E0,-7.673132420E-2,-5.327892303E-2,-9.198570251E-2
1.164099310E0,-3.490269184E-2,-5.666637421E-2,-1.626231670E-1
1.172125164E0,2.214467525E-2,-2.210521698E-2,-1.973114014E-1
1.180122095E0,4.888677597E-2,-1.411151886E-2,-2.243378162E-1
1.188117256E0,3.434264660E-2,-4.915237427E-2,-2.721347809E-1
1.196112571E0,1.544129848E-2,-8.634471893E-2,-2.665984631E-1
1.204108578E0,1.239335537E-2,-1.353158951E-1,-1.918957233E-1
1.212103662E0,5.631685257E-2,-2.130184174E-1,-1.301136017E-1
1.220100363E0,6.814146042E-2,-2.406435013E-1,-9.865570068E-2
1.228124985E0,1.171673536E-1,-2.085437775E-1,-3.497004509E-2
1.236120685E0,1.319770813E-1,-9.281444550E-2,1.419060230E-1
1.244117000E0,1.625494957E-1,-3.578186035E-3,1.856071949E-1
1.252111469E0,2.441127300E-1,5.174446106E-2,2.729635239E-1
1.260109323E0,2.731438875E-1,2.007865906E-2,3.622334003E-1
1.268103791E0,2.731111050E-1,-5.095291138E-2,4.049196243E-1
1.276099107E0,2.300726175E-1,-6.571865082E-2,4.696099758E-1
1.284125653E0,1.281785965E-1,-8.140563965E-2,4.896044731E-1
1.292120122E0,2.094304562E-2,-5.478668213E-2,5.366075039E-1
1.300116745E0,-1.031147242E-1,-7.663917542E-2,5.799398422E-1
1.308112136E0,-2.173883915E-1,-1.085615158E-1,6.126313210E-1
1.316107144E0,-2.958408594E-1,-1.620559692E-1,5.313286781E-1
1.324103459E0,-3.918576241E-1,-1.744308472E-1,4.051685333E-1
1.332099544E0,-4.513572454E-1,-1.670751572E-1,3.095960617E-1
1.340125320E0,-4.683387280E-1,-1.327486038E-1,1.641945839E-1
1.348121097E0,-4.436450005E-1,-1.240501404E-1,3.673744202E-2
1.356116489E0,-4.020496607E-1,-1.292352676E-1,-3.658533096E-3
1.364112111E0,-3.463529348E-1,-1.100854874E-1,-1.222884655E-1
1.372107273E0,-2.645627260E-1,-1.218729019E-1,-1.236014366E-1
1.380103896E0,-1.756860018E-1,-1.313533783E-1,-7.571601868E-2
1.388097673E0,-7.495760918E-2,-1.243896484E-1,-1.278600693E-1
1.396124834E0,2.604687214E-2,-1.442728043E-1,-9.424471855E-2
1.404121687E0,1.777428389E-1,-1.624040604E-1,-1.501905918E-1
1.412115849E0,2.922519445E-1,-1.763820648E-1,-2.003583908E-1
1.420112163E0,3.032475710E-1,-2.360439301E-1,-2.580306530E-1
1.428108248E0,2.688817978E-1,-2.116775513E-1,-3.173766136E-1
1.436102640E0,1.878297329E-1,-1.890764236E-1,-3.680980206E-1
1.444098648E0,9.920442104E-2,-1.106023788E-1,-3.789491653E-1
1.452124194E0,5.387651920E-2,-6.245136261E-2,-3.407175541E-1
1.460121739E0,8.950960636E-2,-2.115726471E-2,-2.522380352E-1
1.468115978E0,1.234624386E-1,3.061294556E-3,-1.149852276E-1
1.476111062E0,2.110606432E-1,9.753227234E-3,-6.090641022E-2
1.484107993E0,2.171595097E-1,-1.197814941E-3,-3.470802307E-2
1.492102692E0,2.035080194E-1,2.530479431E-2,-5.037808418E-2
1.500099700E0,1.730836630E-1,5.604362488E-2,-7.369589806E-2
1.508125169E0,1.552582979E-1,9.125518799E-2,-1.257834435E-1
1.516119407E0,1.340696812E-1,9.762096405E-2,-1.489424706E-1
1.524117184E0,1.171747446E-1,1.375303268E-1,-2.148246765E-1
1.532111114E0,1.073342562E-1,1.512432098E-1,-2.298500538E-1
1.540107968E0,7.367634773E-2,1.699743271E-1,-2.728729248E-1
1.548102437E0,5.193245411E-2,2.392873764E-1,-3.100132942E-1
1.556097213E0,3.284549713E-2,2.896633148E-1,-2.986843586E-1
1.564124606E0,4.276752472E-2,3.329381943E-1,-2.824404240E-1
1.572119997E0,6.972563267E-2,3.187198639E-1,-2.736597061E-1
1.580117005E0,1.160401106E-1,2.923736572E-1,-2.344264984E-1
1.588111089E0,1.436508894E-1,2.273473740E-1,-1.105825901E-1
1.596106482E0,1.076186895E-1,1.619482040E-1,-1.131436825E-1
1.604102796E0,8.481359482E-2,1.224699020E-1,-5.088734627E-2
1.612097650E0,4.167795181E-2,1.186275482E-1,-1.172225475E-1
1.620124658E0,-3.109943867E-2,1.221065521E-1,-2.102899551E-1
1.628120049E0,-9.535861015E-2,1.308774948E-1,-2.640919685E-1
1.636115519E0,-1.988688707E-1,9.964847565E-2,-2.708280087E-1
1.644111141E0,-2.674547434E-1,7.412624359E-2,-2.967619896E-1
1.652105995E0,-3.251447678E-1,2.082443237E-2,-2.818591595E-1
1.660102310E0,-3.651741743E-1,1.148033142E-2,-2.333581448E-1
1.668098009E0,-3.329977989E-1,-1.884174347E-2,-1.495406628E-1
1.676123864E0,-2.799749374E-1,-4.434680939E-2,-3.882384300E-2
1.684119794E0,-1.690490246E-1,-9.412860870E-2,-2.145624161E-2
1.692114879E0,-3.686523438E-2,-1.420850754E-1,-3.082180023E-2
1.700111270E0,8.029806614E-2,-1.140556335E-1,-6.930780411E-2
1.708105970E0,1.519777775E-1,-9.123420715E-2,-1.054711342E-1
1.716101362E0,1.910810471E-1,-3.993606567E-2,-1.296951771E-1
1.724097677E0,2.270658016E-1,-3.431701660E-2,-1.182339191E-1
1.732123839E0,2.292019129E-1,-3.115558624E-2,-1.307435036E-1
1.740119923E0,2.000566721E-1,-1.843929291E-2,-1.527981758E-1
1.748114931E0,1.422752142E-1,1.103878021E-2,-1.509552002E-1
1.756110092E0,4.661214352E-2,5.247688293E-2,-1.374106407E-1
1.764106714E0,-2.202856541E-2,7.957458496E-2,-1.217944622E-1
1.772101184E0,-8.295679092E-2,5.631256104E-2,-6.607437134E-2
1.780097806E0,-8.600687981E-2,4.256057739E-2,-7.547879219E-2
1.788123583E0,-1.056996584E-1,9.638786316E-3,-9.697937965E-2
1.796118436E0,-7.763183117E-2,-1.849937439E-2,-5.137920380E-2
1.804115368E0,-4.726970196E-2,-1.560497284E-2,-1.563119888E-2
1.812110451E0,-1.691484451E-2,-1.762294769E-2,5.378723145E-4
1.820106382E0,3.986871243E-2,8.942604065E-3,1.133799553E-2
1.828101774E0,4.656100273E-2,2.347660065E-2,2.181744576E-2
1.836097781E0,2.715480328E-2,1.881217957E-2,2.240943909E-2
1.844123712E0,5.476117134E-3,6.922149658E-2,-3.389358521E-3
1.852119027E0,-7.594549656E-2,7.419300079E-2,-6.017613411E-2
1.860115112E0,-9.026134014E-2,5.534172058E-2,-4.476976395E-2
1.868109888E0,-1.407058239E-1,4.378318787E-2,-7.431554794E-2
1.876105511E0,-1.652102470E-1,2.756690979E-2,-6.725144386E-2
1.884101288E0,-1.733133793E-1,-1.248741150E-2,-4.761886597E-2
1.892096295E0,-1.912275553E-1,-4.051971436E-2,3.937578201E-2
1.900124688E0,-1.161386967E-1,-8.548259735E-2,3.979659081E-2
1.908118848E0,-3.707182407E-2,-9.478569031E-2,4.219818115E-2
1.916113932E0,1.239681244E-2,-8.999919891E-2,3.456926346E-2
1.924109940E0,6.825256348E-2,-5.435848236E-2,-7.063150406E-3
1.932105255E0,3.772854805E-2,7.460594177E-3,-3.716897964E-2
1.940102571E0,2.717137337E-3,4.529571533E-2,-6.281185150E-2
1.948096962E0,-3.914749622E-2,1.094722748E-1,-6.230187416E-2
1.956122817E0,-7.603549957E-2,1.234025955E-1,-8.334422112E-2
1.964118824E0,-1.081389189E-1,1.613340378E-1,-9.457778931E-2
1.972113677E0,-1.428785324E-1,1.586475372E-1,-5.507087708E-2
1.980110839E0,-1.515727043E-1,1.320495605E-1,-2.007102966E-2
1.988105384E0,-1.674962044E-1,7.197189331E-2,-3.755688667E-2
1.996101315E0,-1.759842634E-1,1.431274414E-2,4.304671288E-2
2.004096707E0,-1.030199528E-1,-5.548286438E-2,5.121111870E-2
2.012122023E0,-3.727996349E-2,-1.110401154E-1,2.782034874E-2
2.020118876E0,-1.439094543E-2,-1.499567032E-1,1.115946770E-1
2.028113729E0,1.606786251E-2,-1.364297867E-1,4.346084595E-2
2.036109429E0,2.312517166E-2,-8.475875854E-2,9.172558784E-2
2.044105667E0,1.431870461E-2,-6.187725067E-2,-2.838087082E-2
2.052100521E0,-2.669012547E-2,-2.686882019E-2,-3.861880302E-2
2.060127528E0,-8.330869675E-2,2.748394012E-2,-3.415822983E-3
2.068122304E0,-1.315773726E-1,3.662490845E-2,-1.342916489E-2
2.076118697E0,-2.006707191E-1,9.151649475E-2,2.013969421E-2
2.084114320E0,-3.094341755E-1,1.444597244E-1,1.635217667E-2
2.092109097E0,-3.527414799E-1,1.786947250E-1,7.351350784E-2
2.100106027E0,-4.234484434E-1,1.846246719E-1,8.110189438E-2
2.108101112E0,-4.162006378E-1,1.570920944E-1,1.958270073E-1
2.116096273E0,-3.157218695E-1,9.584712982E-2,6.574130058E-2
2.124122434E0,-1.946855783E-1,5.817127228E-2,1.552186012E-1
2.132117826E0,-9.664046764E-2,6.781387329E-2,2.028715611E-1
2.140114756E0,1.413929462E-2,5.293083191E-2,1.512835026E-1
2.148109534E0,9.058284760E-2,6.415939331E-2,7.784390450E-2
2.156104848E0,1.144593954E-1,5.622863770E-2,4.982471466E-2
2.164100241E0,1.154664755E-1,2.210807800E-2,2.408361435E-2
2.172126094E0,6.516098976E-2,-1.414775848E-2,-1.111960411E-2
2.180122486E0,-5.317020416E-2,2.581596375E-3,-1.014375687E-2
2.188117878E0,-1.680161953E-1,2.865791321E-3,-1.106643677E-2
2.196113501E0,-2.892007828E-1,1.780605316E-2,7.725000381E-3
2.204108893E0,-3.405287266E-1,2.587985992E-2,5.613541603E-2
2.212104593E0,-3.653503656E-1,-1.850795746E-2,1.004302502E-1
2.220101215E0,-3.380988836E-1,-8.212661743E-2,1.591892242E-1
2.228126454E0,-2.453784943E-1,-1.726102829E-1,1.930797100E-1
2.236121230E0,-1.345648766E-1,-1.895761490E-1,1.283352375E-1
2.244117315E0,-8.927345276E-2,-1.687726974E-1,4.442167282E-2
2.252113322E0,-4.878306389E-2,-1.554927826E-1,2.054500580E-2
2.260109253E0,-3.785538673E-2,-1.088914871E-1,-3.704643250E-2
2.268103799E0,4.124403000E-3,-8.870601654E-2,-9.008932114E-2
2.276099421E0,4.203677177E-2,-6.610012054E-2,-1.171021461E-1
2.284126583E0,1.426410675E-2,-6.736183167E-2,-7.760286331E-2
2.292121590E0,-3.305149078E-2,-2.294921875E-2,-1.630980968E-1
2.300117598E0,-1.046603918E-1,1.706123352E-2,-1.167321205E-1
2.308113682E0,-1.838569641E-1,2.641677856E-2,-9.380602837E-2
2.316108382E0,-2.280576229E-1,2.426433563E-2,-6.769800186E-2
2.324104774E0,-3.070983887E-1,2.494812012E-2,-2.866458893E-2
2.332099473E0,-3.446738720E-1,1.888656616E-2,6.675243378E-3
2.340126558E0,-3.626219034E-1,2.991771698E-2,2.379465103E-2
2.348121950E0,-3.467328548E-1,2.204132080E-2,2.724337578E-2
2.356117112E0,-2.976037264E-1,7.168102264E-2,2.868843079E-2
2.364112811E0,-2.253150940E-1,9.002876282E-2,1.114034653E-1
2.372107895E0,-1.372679472E-1,6.500053406E-2,8.118510246E-2
2.380105364E0,-8.330965042E-2,7.328414917E-2,9.127998352E-2
2.388100525E0,-1.310932636E-2,5.988025665E-2,6.766080856E-2
2.396125456E0,1.405978203E-2,5.593013763E-2,9.147691727E-2
2.404122617E0,1.290833950E-2,1.846122742E-2,8.635067940E-2
2.412116779E0,4.296302795E-4,1.249313354E-4,8.560657501E-2
2.420113478E0,-4.004120827E-2,-2.542400360E-2,1.250844002E-1
2.428108486E0,-3.220021725E-2,-4.399013519E-2,1.852016449E-1
2.436103955E0,-3.165018559E-2,-6.529045105E-2,1.939492226E-1
2.444099885E0,-2.434337139E-2,-5.577659607E-2,1.707296371E-1
2.452125432E0,3.526687622E-3,-5.377960205E-2,1.732354164E-1
2.460122054E0,2.067196369E-2,-6.162929535E-2,1.490807533E-1
2.468117139E0,3.191733360E-2,-5.027770996E-3,1.128764153E-1
2.476112915E0,1.326775551E-2,2.025508881E-2,8.620929718E-2
2.484108230E0,3.415346146E-3,6.222152710E-2,5.729007721E-2
2.492103700E0,2.612173557E-2,3.948783875E-2,4.064464569E-2
2.500100245E0,1.442241669E-2,5.740261078E-2,7.524013519E-3
2.508125484E0,6.708860397E-3,4.656219482E-2,3.460168839E-3
2.516121260E0,-1.714110374E-3,4.764175415E-2,9.170055389E-3
2.524117498E0,-5.823612213E-3,3.671932220E-2,2.459955215E-2
2.532112352E0,1.368975639E-2,3.527069092E-2,7.096982002E-2
2.538124588E0,2.348434925E-2,3.363704681E-2,9.524345398E-2
2.540108051E0,4.024374485E-2,1.927185059E-2,1.072144508E-1
2.548103367E0,5.723702908E-2,-1.687049866E-3,6.865668297E-2
2.556098528E0,7.436406612E-2,1.791381836E-2,6.308317184E-2
2.564124997E0,9.898293018E-2,3.017807007E-2,4.487037659E-2
2.572120312E0,9.059941769E-2,4.479694366E-2,2.627968788E-2
2.580117319E0,6.604313850E-2,4.979610443E-2,4.797363281E-2
2.588111173E0,5.385088921E-2,2.124214172E-2,2.336740494E-3
2.596107719E0,2.272975445E-2,4.063034058E-2,-4.080104828E-2
2.604103496E0,-2.041304111E-2,2.659702301E-2,-2.372336388E-2
2.612098580E0,-6.390249729E-2,5.331897736E-2,-4.218387604E-2
2.620126203E0,-8.159041405E-2,6.811714172E-2,-2.429223061E-2
2.628120672E0,-7.137882710E-2,3.506660461E-2,-2.979373932E-2
2.636116064E0,-4.307866096E-2,2.354526520E-2,-1.326632500E-2
2.644112764E0,5.505084991E-3,2.151679993E-2,-3.946137428E-2
2.652107463E0,3.610241413E-2,4.817390442E-2,-6.038713455E-2
2.660103779E0,6.370270252E-2,8.195495605E-2,2.608537674E-3
2.668098248E0,1.172518730E-1,7.250404358E-2,-4.954171181E-2
2.676124717E0,1.825090647E-1,5.341243744E-2,-5.386662483E-2
2.684121109E0,1.925859451E-1,1.508140564E-2,-5.121111870E-2
2.692115577E0,1.859779358E-1,1.020145416E-2,-6.794238091E-2
2.700112201E0,1.705397367E-1,3.172206879E-2,-6.326961517E-2
2.708107208E0,1.677244902E-1,4.842662811E-2,-6.618356705E-2
2.716102600E0,1.369905472E-1,5.802822113E-2,-5.725026131E-2
2.724099607E0,9.011924267E-2,4.855728149E-2,-6.272912025E-2
2.732124230E0,3.429913521E-2,9.178161621E-2,-3.492569923E-2
2.740120161E0,5.060195923E-3,1.111488342E-1,-9.073638916E-2
2.748116168E0,-5.729508400E-2,1.259260178E-1,-5.034947395E-2
2.756111561E0,-8.853876591E-2,1.432609558E-1,-8.123970032E-2
2.764107260E0,-9.857988358E-2,1.632003784E-1,-7.774972916E-2
2.772102422E0,-8.054196835E-2,1.809844971E-1,-6.596660614E-2
2.780098967E0,-7.744061947E-2,1.510725021E-1,-3.413081169E-2
2.788124590E0,-5.338084698E-2,1.357221603E-1,-4.924225807E-2
2.796119905E0,-5.878210068E-3,1.277465820E-1,-6.587195396E-2
2.804116297E0,1.023995876E-2,1.438808441E-1,-4.043579102E-4
2.812110997E0,5.495381355E-2,1.552209854E-1,3.638434410E-2
2.820107312E0,1.381455660E-1,1.304550171E-1,-3.765654564E-2
2.828102397E0,2.432770729E-1,1.486835480E-1,-9.065866470E-2
2.836098712E0,2.959069014E-1,1.476888657E-1,-1.200315952E-1
2.844124565E0,3.031374216E-1,1.538648605E-1,-1.398956776E-1
2.852119727E0,2.346358299E-1,1.769180298E-1,-1.406950951E-1
2.860116888E0,1.509314775E-1,1.570901871E-1,-1.344532967E-1
2.868112049E0,1.023099422E-1,1.207160950E-1,-9.722304344E-2
2.876106826E0,3.101909161E-2,1.061086655E-1,-1.054666042E-1
2.884103448E0,-3.734982014E-2,9.173297882E-2,-7.971715927E-2
2.892097533E0,-1.392129660E-1,1.038427353E-1,-6.548571587E-2
2.900124078E0,-1.987926960E-1,9.924888611E-2,-4.585790634E-2
2.908119394E0,-1.999835968E-1,4.917335510E-2,5.695104599E-3
2.916114863E0,-1.816539764E-1,4.450130463E-2,2.453112602E-2
2.924111178E0,-1.195913553E-1,3.010463715E-2,1.271748543E-2
2.932105955E0,-8.023726940E-2,1.082229614E-2,2.036595345E-2
2.940103500E0,-2.455234528E-2,1.298522949E-2,2.794837952E-2
2.948097662E0,2.440643311E-2,3.186416626E-2,-5.551338196E-3
2.956123823E0,4.810380936E-2,5.079555511E-2,-1.071763039E-2
2.964119139E0,6.355679035E-2,7.704830170E-2,-6.577968597E-3
2.972114838E0,3.969550133E-3,7.232761383E-2,4.376649857E-3
2.980111538E0,-3.507208824E-2,6.051158905E-2,7.949876785E-2
2.988105699E0,-6.105804443E-2,3.426742554E-2,1.107265949E-1
2.996101014E0,-1.008214951E-1,1.031970978E-2,1.604745388E-1
3.004128483E0,-1.258683205E-1,1.007270813E-2,2.284049988E-1
3.012123183E0,-1.365691423E-1,-2.407550812E-2,2.640039921E-1
3.020120114E0,-1.450443268E-1,-3.482437134E-2,3.434438705E-1
3.028114890E0,-1.180570126E-1,-8.693790436E-2,3.659577370E-1
3.036110282E0,-7.513558865E-2,-1.133699417E-1,3.700811863E-1
3.044106367E0,2.157151699E-2,-2.005090714E-1,4.799547195E-1
3.052101681E0,9.242343903E-2,-2.384958267E-1,5.298759937E-1
3.060128459E0,1.777381897E-1,-2.871036530E-1,5.275328159E-1
3.068123543E0,2.459869385E-1,-3.201246262E-1,5.996801853E-1
3.076118704E0,3.066715002E-1,-3.496828079E-1,6.621634960E-1
3.084114711E0,3.424886465E-1,-3.855257034E-1,7.363777161E-1
3.092110103E0,3.981488943E-1,-4.661273956E-1,8.343272209E-1
3.100106957E0,4.470735788E-1,-5.340557098E-1,9.274818897E-1
3.108101734E0,4.670858383E-1,-6.156110764E-1,1.026046276E0
3.116127049E0,5.560330153E-1,-7.274312973E-1,1.204991817E0
3.124123287E0,5.987583399E-1,-8.743343353E-1,1.572304010E0
3.132118680E0,5.691107512E-1,-1.027564049E0,1.893585443E0
3.140116225E0,6.749099493E-1,-1.275926590E0,2.219020844E0
3.148108924E0,8.116010427E-1,-1.514412880E0,2.403346777E0
3.156105240E0,1.105239987E0,-1.764719009E0,2.547966719E0
3.164101555E0,1.440657616E0,-1.939243317E0,2.487491131E0
3.172127409E0,1.790891171E0,-2.040439606E0,2.335894108E0
3.180123955E0,1.994014263E0,-2.035125732E0,1.994054556E0
3.188118808E0,2.052414179E0,-1.970875740E0,1.667823553E0
3.196114431E0,2.096608400E0,-1.806339264E0,1.407386065E0
3.204110438E0,2.054633379E0,-1.737882614E0,1.254860878E0
3.212105600E0,2.030680656E0,-1.719504356E0,1.156955957E0
3.220101915E0,2.013764143E0,-1.749320984E0,1.330408573E0
3.228126846E0,2.026648760E0,-1.830678940E0,1.818782330E0
3.236122468E0,2.160701752E0,-1.945777893E0,1.919241667E0
3.244118552E0,2.307507038E0,-2.014436722E0,2.180263042E0
3.252113868E0,2.651147127E0,-2.128934860E0,2.317166567E0
3.260110567E0,2.948172331E0,-2.188313484E0,2.255818129E0
3.268105268E0,3.273466587E0,-2.210601330E0,2.110539198E0
3.276100736E0,3.566529751E0,-2.218041897E0,1.894326448E0
3.284096975E0,3.804101944E0,-2.252949715E0,1.750630140E0
3.292122597E0,3.985747337E0,-2.267136574E0,1.587992191E0
3.300119450E0,4.073778152E0,-2.315701485E0,1.428156376E0
3.308113997E0,3.950956345E0,-2.288343906E0,1.202883244E0
3.316110004E0,3.589866161E0,-2.173942089E0,9.945874214E-1
3.324105935E0,3.189268112E0,-2.133382320E0,8.450937271E-1
3.332101404E0,2.777771950E0,-2.147804260E0,7.596278191E-1
3.340127796E0,2.530128002E0,-2.234785080E0,8.767027855E-1
3.348122572E0,2.427055359E0,-2.359495163E0,8.320908546E-1
3.356118349E0,2.435051441E0,-2.489743710E0,6.611928940E-1
3.364113664E0,2.468528271E0,-2.572921276E0,3.838114738E-1
3.372109441E0,2.379320145E0,-2.561431408E0,2.666082382E-1
3.380105372E0,2.239304543E0,-2.641829491E0,3.151783943E-1
3.388100148E0,1.983681679E0,-2.646381378E0,1.647124290E-1
3.396126309E0,1.682018757E0,-2.690789700E0,2.032823563E-1
3.404123240E0,1.278922558E0,-2.673648357E0,2.775726318E-1
3.412117401E0,1.242967606E0,-2.822262764E0,1.887383461E-1
3.420114640E0,1.379645348E0,-3.022539377E0,-1.848697662E-3
3.428109416E0,1.547024727E0,-3.068591356E0,2.770185471E-2
3.436104885E0,1.672150612E0,-3.029131413E0,4.922866821E-3
3.444101123E0,1.871349335E0,-2.960432291E0,-6.170082092E-2
3.452125823E0,2.001204491E0,-2.890554905E0,-4.997396469E-2
3.460123677E0,2.087370872E0,-2.949504375E0,-2.695248127E-1
3.468118068E0,2.116860390E0,-3.000661850E0,-3.982639313E-1
3.476112615E0,1.938829422E0,-3.062868357E0,-4.764039516E-1
3.484109468E0,1.748415947E0,-3.113144875E0,-6.147551537E-1
3.492104244E0,1.493605614E0,-3.227765560E0,-6.046936512E-1
3.500100945E0,1.022238731E0,-3.283033133E0,-6.748270988E-1
3.508126798E0,6.834335327E-1,-3.406466246E0,-7.322831154E-1
3.516121498E0,5.048961639E-1,-3.636599064E0,-7.184784412E-1
3.524118197E0,2.746639252E-1,-3.706325769E0,-6.739518642E-1
3.532112667E0,2.370834351E-2,-3.692809105E0,-8.450157642E-1
3.540108982E0,-5.288219452E-2,-3.620638371E0,-1.095233917E0
3.548104373E0,7.623767853E-2,-3.532896042E0,-1.170789003E0
3.556099689E0,1.189231873E-2,-3.519330978E0,-1.022895336E0
3.564126850E0,-3.408784866E-1,-3.439138651E0,-8.396024704E-1
3.572121319E0,-7.748904228E-1,-3.401351690E0,-7.516367435E-1
3.580117557E0,-1.368790150E0,-3.251468897E0,-7.766287327E-1
3.588113565E0,-1.904300213E0,-3.180211067E0,-7.690255642E-1
3.596108111E0,-2.449730396E0,-3.031689882E0,-9.505786896E-1
3.604104964E0,-2.864824295E0,-2.830776215E0,-1.051100492E0
3.612099510E0,-2.904231071E0,-2.739877224E0,-1.151762962E0
3.620126825E0,-2.666712284E0,-2.594465017E0,-1.130364895E0
3.628121679E0,-2.374749660E0,-2.584372520E0,-1.359234333E0
3.636116763E0,-2.399378300E0,-2.551859856E0,-1.358356476E0
3.644113387E0,-2.665244579E0,-2.498266459E0,-1.417894125E0
3.652107778E0,-2.876190186E0,-2.506640434E0,-1.498569727E0
3.660105324E0,-3.181128025E0,-2.478774786E0,-1.445316315E0
3.668099870E0,-3.426522017E0,-2.426389217E0,-1.333965540E0
3.676125954E0,-3.712824583E0,-2.344887257E0,-1.201218843E0
3.684121424E0,-3.797839642E0,-2.251327038E0,-1.146546125E0
3.692117431E0,-3.755445242E0,-2.183310509E0,-1.258852243E0
3.700113745E0,-3.444741964E0,-2.083858013E0,-1.335637808E0
3.708107830E0,-3.118536472E0,-2.036163330E0,-1.343662024E0
3.716103837E0,-2.955262184E0,-2.001807690E0,-1.419611931E0
3.724099845E0,-2.993417978E0,-1.974017143E0,-1.447021961E0
3.732125468E0,-3.102240562E0,-1.940286160E0,-1.549748659E0
3.740121784E0,-3.130688906E0,-1.922133446E0,-1.452438116E0
3.748116791E0,-3.078310728E0,-1.900823116E0,-1.238066435E0
3.756112182E0,-2.970775604E0,-1.939558506E0,-9.309406281E-1
3.764108190E0,-2.767471075E0,-2.055551052E0,-7.419681549E-1
3.772102659E0,-2.483631134E0,-2.186905384E0,-5.364115238E-1
3.780099667E0,-2.334895611E0,-2.368170261E0,-3.727121353E-1
3.788125520E0,-2.455758572E0,-2.516951561E0,-3.008217812E-1
3.796120913E0,-2.718427896E0,-2.604901314E0,-3.813815117E-1
3.804116612E0,-2.795588732E0,-2.548275948E0,-4.589877129E-1
3.812111619E0,-2.735208750E0,-2.335170269E0,-5.009026527E-1
3.820108550E0,-2.561058044E0,-2.057087898E0,-5.046224594E-1
3.828104326E0,-2.357087612E0,-1.654455662E0,-4.821262360E-1
3.836098796E0,-2.097903728E0,-1.498857498E0,-2.668349743E-1
3.844125187E0,-1.668471575E0,-1.497929096E0,-2.447631359E-1
3.852120348E0,-1.324802637E0,-1.542151451E0,1.406972408E-1
3.860116895E0,-1.391883969E0,-1.673052788E0,5.221068859E-1
3.868111133E0,-2.251582384E0,-1.821146965E0,9.433956146E-1
3.876107987E0,-3.203821898E0,-1.815357685E0,1.268618822E0
3.884103148E0,-4.122409344E0,-1.777492523E0,1.451411963E0
3.892098233E0,-4.314609051E0,-1.619464874E0,1.201705694E0
3.900125624E0,-3.962872505E0,-1.363240719E0,1.006475449E0
3.908121247E0,-3.119030952E0,-1.004966736E0,6.538279057E-1
3.916115793E0,-2.366278648E0,-6.720480919E-1,2.924151421E-1
3.924112339E0,-1.700843573E0,-3.933401108E-1,3.866267204E-2
3.932106885E0,-1.241030931E0,-2.527675629E-1,-1.705145836E-1
3.940103507E0,-1.123622060E0,-1.733026505E-1,-3.856141567E-1
3.948129285E0,-9.377722740E-1,-1.951532364E-1,-1.899797916E-1
3.956124753E0,-6.189577579E-1,-2.707176208E-1,-2.100875378E-1
3.964120453E0,-4.135220051E-1,-2.357234955E-1,-2.375793457E-1
3.972116076E0,-2.992048264E-1,-2.271175385E-1,-2.667365074E-1
3.980112391E0,-9.512090683E-2,-1.353445053E-1,-3.113205433E-1
3.988107245E0,2.215518951E-1,-3.325366974E-2,-2.687153816E-1
3.996102560E0,4.487187862E-1,7.003498077E-2,-2.353067398E-1
4.004129644E0,5.820639133E-1,1.489124298E-1,-1.828079224E-1
4.012124421E0,6.181960106E-1,1.752424240E-1,-1.528558731E-1
4.020121351E0,5.502150059E-1,1.885929108E-1,-1.064414978E-1
4.028115820E0,4.493770599E-1,1.265373230E-1,-1.834511757E-2
4.036111520E0,2.775840759E-1,6.484127045E-2,6.586074829E-2
4.044107220E0,-1.945948601E-2,-4.123687744E-3,1.609990597E-1
4.052102612E0,-3.266832829E-1,-5.889034271E-2,2.480201721E-1
4.060129465E0,-6.264317036E-1,-5.404853821E-2,3.120703697E-1
4.068124550E0,-7.789876461E-1,-3.044033051E-2,2.978105545E-1
4.076120172E0,-7.553606033E-1,2.856063843E-2,3.107790947E-1
4.084115873E0,-6.593103409E-1,9.409809113E-2,2.825558186E-1
4.092111649E0,-5.564234257E-1,1.854209900E-1,2.759516239E-1
4.100107041E0,-5.097005367E-1,1.997318268E-1,2.337508202E-1
4.108102741E0,-4.691917896E-1,1.849317551E-1,2.016661167E-1
4.116097748E0,-4.525117874E-1,1.388473511E-1,1.558806896E-1
4.124124294E0,-4.103999138E-1,7.614517212E-2,1.179621220E-1
4.132119917E0,-3.677868843E-1,1.921653748E-3,9.982347488E-2
4.140116232E0,-3.725759983E-1,-6.949329376E-2,1.015055180E-1
4.148112316E0,-3.553230762E-1,-8.075809479E-2,1.016716957E-1
4.156105862E0,-4.178950787E-1,2.254772186E-2,6.030678749E-2
4.164102716E0,-4.684872627E-1,1.728801727E-1,3.064537048E-2
4.172128262E0,-4.876549244E-1,3.053226471E-1,-6.045341492E-3
4.180124962E0,-4.829506874E-1,3.504056931E-1,-8.537745476E-2
4.188118815E0,-4.057576656E-1,3.039112091E-1,-1.405487061E-1
4.196115054E0,-3.658580780E-1,1.829299927E-1,-1.797385216E-1
4.204111369E0,-3.601903915E-1,2.849769592E-2,-1.754009724E-1
4.212105914E0,-3.533756733E-1,-7.486915588E-2,-1.264336109E-1
4.220102768E0,-3.928592205E-1,-1.844177246E-1,-5.754733086E-2
4.228097929E0,-4.494730234E-1,-2.356100082E-1,-7.091283798E-3
4.236123476E0,-4.493955374E-1,-2.620820999E-1,1.585960388E-2
4.244120329E0,-3.701949120E-1,-2.780275345E-1,9.403705597E-3
4.252115106E0,-2.841513157E-1,-2.380599976E-1,2.907228470E-2
4.260111498E0,-1.486341953E-1,-1.782464981E-1,1.227855682E-3
4.268106274E0,-9.689974785E-2,-7.267379761E-2,-5.453419685E-2
4.276101974E0,-3.238582611E-2,1.626682281E-2,-1.000697613E-1
4.284128981E0,7.354736328E-3,6.209182739E-2,-1.402778625E-1
4.292123220E0,2.777385712E-2,1.691532135E-2,-1.348412037E-1
4.300120381E0,3.883838654E-2,1.957416534E-2,-8.631253242E-2
4.308114619E0,6.198644638E-2,1.010417938E-2,-5.184531212E-2
4.316109934E0,8.496737480E-2,5.318546295E-2,3.326869011E-2
4.324106557E0,9.059166908E-2,6.736660004E-2,1.143195629E-1
4.332101411E0,8.806371689E-2,1.171169281E-1,1.416072845E-1
4.340128495E0,1.078627110E-1,1.783552170E-1,1.780545712E-1
4.348123887E0,1.066293716E-1,2.390670776E-1,1.472778320E-1
4.356118971E0,2.327406406E-1,2.800912857E-1,9.721708298E-2
4.364114978E0,3.043804169E-1,3.375253677E-1,5.134105682E-2
4.372109986E0,3.698139191E-1,3.372220993E-1,1.886010170E-2
4.380106378E0,3.551373482E-1,3.321018219E-1,1.103115082E-2
4.388100848E0,2.899181843E-1,3.294878006E-1,3.904366493E-2
4.396127239E0,2.510430813E-1,2.936468124E-1,9.515810013E-2
4.404123863E0,2.319793701E-1,2.654151917E-1,1.499683857E-1
4.412118947E0,2.399699688E-1,1.826906204E-1,2.414047718E-1
4.420115031E0,2.102084160E-1,9.119701385E-2,3.211398125E-1
4.428110039E0,1.879103184E-1,-1.602172852E-2,3.983998299E-1
4.436105815E0,2.207369804E-1,-1.313056946E-1,4.602620602E-1
4.444102669E0,3.026416302E-1,-2.611303329E-1,4.987041950E-1
4.452126753E0,3.347959518E-1,-3.593368530E-1,5.078577995E-1
4.460123684E0,3.287374973E-1,-4.139528275E-1,4.641077518E-1
4.468118768E0,2.952105999E-1,-4.430580139E-1,3.961279392E-1
4.476114390E0,3.270239830E-1,-4.350481033E-1,3.266539574E-1
4.484109552E0,3.070955276E-1,-3.975811005E-1,2.542390823E-1
4.492105482E0,2.955305576E-1,-3.168716431E-1,1.943850517E-1
4.500101875E0,2.310736179E-1,-2.747478485E-1,1.498293877E-1
4.508127036E0,1.307044029E-1,-2.465124130E-1,1.249351501E-1
4.516122120E0,1.437854767E-2,-2.134761810E-1,6.986284256E-2
4.524118743E0,-1.274592876E-1,-1.998033524E-1,-3.654336929E-2
4.532114212E0,-1.887776852E-1,-2.214307785E-1,-8.974504471E-2
4.540110451E0,-2.471919060E-1,-2.512512207E-1,-8.602428436E-2
4.548105304E0,-2.557499409E-1,-2.552633286E-1,-8.573150635E-2
4.556100696E0,-1.691038609E-1,-2.285280228E-1,-8.191108704E-2
4.564127473E0,-4.218459129E-2,-1.686553955E-1,-9.379386902E-2
4.572122557E0,1.523280144E-2,-1.044607162E-1,-1.142277718E-1
4.580119180E0,-1.767754555E-2,2.245903015E-3,-1.769056320E-1
4.588113879E0,-8.300805092E-2,5.834674835E-2,-2.443213463E-1
4.596109964E0,-1.183812618E-1,5.656337738E-2,-2.971963882E-1
4.604105664E0,-1.527755260E-1,1.839256287E-2,-3.257029057E-1
4.612100363E0,-1.908915043E-1,-2.524566650E-2,-3.462255001E-1
4.620127140E0,-2.231652737E-1,-8.854866028E-2,-2.824926376E-1
4.628122224E0,-2.596123219E-1,-7.074642181E-2,-1.969428062E-1
4.636117924E0,-3.244898319E-1,-6.046962738E-2,-1.419730186E-1
4.644114008E0,-3.177406788E-1,-5.129814148E-3,-1.554183960E-1
4.652109324E0,-2.950038910E-1,-5.273818970E-4,-2.129344940E-1
4.660105408E0,-2.612254620E-1,-1.543712616E-2,-2.667489052E-1
4.668101030E0,-2.143683434E-1,-6.384563446E-2,-2.576031685E-1
4.676126577E0,-1.998615265E-1,-1.261568069E-1,-2.127828598E-1
4.684122892E0,-6.075286865E-2,-2.088432312E-1,-1.595187187E-1
4.692118053E0,3.790664673E-2,-2.591075897E-1,-9.336996078E-2
4.700114368E0,1.446313858E-1,-2.771234512E-1,-2.390384674E-2
4.708108530E0,2.435200214E-1,-2.968406677E-1,2.294683456E-2
4.716104229E0,3.403773308E-1,-2.540473938E-1,8.101940155E-2
4.724100236E0,4.089193344E-1,-2.015876770E-1,1.003646851E-1
4.732126091E0,4.245173931E-1,-2.107629776E-1,9.464359283E-2
4.740122636E0,4.442737103E-1,-1.999425888E-1,8.514642715E-2
4.748116875E0,4.204294682E-1,-2.145519257E-1,9.321212769E-2
4.756112574E0,4.268925190E-1,-2.113113403E-1,1.330199242E-1
4.764108890E0,3.946738243E-1,-1.734809875E-1,1.828126907E-1
4.772103897E0,4.000086784E-1,-1.297779083E-1,2.260518074E-1
4.780101135E0,3.716402054E-1,-8.269500732E-2,2.937469482E-1
4.788125835E0,3.433163166E-1,-5.387592316E-2,3.309164047E-1
4.796122380E0,2.900235653E-1,-3.225231171E-2,3.027300835E-1
4.804117773E0,2.314183712E-1,-1.832866669E-2,2.482271194E-1
4.812112549E0,1.724672318E-1,2.565860748E-2,1.683969498E-1
4.820109249E0,9.453296661E-2,5.624198914E-2,1.043658257E-1
4.828104334E0,-7.100677490E-2,1.352434158E-1,8.043050766E-2
4.836100264E0,-2.243967056E-1,2.054586411E-1,5.344057083E-2
4.844125887E0,-3.677167892E-1,2.436246872E-1,5.677890778E-2
4.852121279E0,-4.835584164E-1,2.720212936E-1,5.170202255E-2
4.860118518E0,-5.846002102E-1,3.140840530E-1,6.215190887E-2
4.868112601E0,-5.993573666E-1,3.595018387E-1,4.049587250E-2
4.876108608E0,-5.893189907E-1,3.888978958E-1,5.377626419E-2
4.884104309E0,-5.451014042E-1,4.095039368E-1,6.132173538E-2
4.892098854E0,-4.797730446E-1,4.024686813E-1,1.291990280E-2
4.900126555E0,-3.707494736E-1,4.138441086E-1,-5.548954010E-3
4.908121562E0,-3.285388947E-1,3.649158478E-1,-4.712772369E-2
4.916116954E0,-3.143763542E-1,2.918415070E-1,-6.708955765E-2
4.924112731E0,-3.444335461E-1,2.257423401E-1,-8.969926834E-2
4.932108353E0,-3.802125454E-1,1.070585251E-1,-7.735633850E-2
4.940104746E0,-4.119231701E-1,4.847908020E-2,-4.485654831E-2
4.948099522E0,-4.069936275E-1,-5.014228821E-2,-9.241580963E-3
4.956125068E0,-3.831632137E-1,-1.667575836E-1,2.423048019E-2
4.964121614E0,-3.415946960E-1,-2.294759750E-1,3.453540802E-2
4.972116698E0,-2.984266281E-1,-2.524890900E-1,1.031589508E-2
4.980113321E0,-2.865233421E-1,-2.601423264E-1,-2.508640289E-3
4.988108482E0,-2.296082973E-1,-2.455167770E-1,-3.435754776E-2
4.996103798E0,-1.991798878E-1,-2.447156906E-1,-4.673337936E-2
5.004099805E0,-1.332054138E-1,-2.435588837E-1,-9.422206879E-2
5.012125351E0,-8.835792542E-4,-2.515754700E-1,-1.097173691E-1
5.020121127E0,9.777116776E-2,-2.592763901E-1,-6.939268112E-2
5.028116750E0,1.804254055E-1,-1.975669861E-1,-5.685997009E-2
5.036112527E0,2.527256012E-1,-1.431999207E-1,-5.075454712E-2
5.044108534E0,3.488168716E-1,-5.794429779E-2,-2.971887589E-2
5.052103311E0,4.106965065E-1,1.286888123E-2,-1.772117615E-2
5.060100549E0,4.807214737E-1,3.596878052E-2,-1.484441757E-2
5.068125403E0,5.198204517E-1,4.266357422E-2,2.205276489E-2
5.076121180E0,4.871721268E-1,3.064441681E-2,4.021549225E-2
5.084116879E0,3.983285427E-1,1.887416840E-2,7.529163361E-2
5.092112502E0,2.670421600E-1,3.330421448E-2,8.158731461E-2
5.100107971E0,1.801986694E-1,7.620811462E-2,1.092228889E-1
5.108102748E0,1.424379349E-1,1.070013046E-1,1.340909004E-1
5.116129755E0,5.823421478E-2,1.256523132E-1,1.704821587E-1
5.124124916E0,-1.237893105E-2,1.273832321E-1,2.158603668E-1
5.132120924E0,-3.707408905E-4,1.315889359E-1,2.603936195E-1
5.140117239E0,1.478552818E-2,1.288394928E-1,3.064327240E-1
5.148112016E0,2.098107338E-2,6.192207336E-2,3.391871452E-1
5.156107408E0,1.424684525E-1,2.775192261E-3,3.274583817E-1
5.164102723E0,1.852347851E-1,-4.365062714E-2,3.164548874E-1
5.172129269E0,1.639378071E-1,-4.166603088E-2,2.825269699E-1
5.180125584E0,1.409304142E-1,-1.550865173E-2,2.741007805E-1
5.188121207E0,1.111893654E-1,1.318073273E-2,2.531943321E-1
5.196116368E0,6.757187843E-2,3.442955017E-2,1.942420006E-1
5.204112607E0,1.723718643E-2,1.935195923E-2,1.358699799E-1
5.212107691E0,-1.636266708E-3,1.552581787E-3,1.091003418E-1
5.220104622E0,-2.743124962E-2,-7.131576538E-3,5.199241638E-2
5.228129552E0,-8.422708511E-2,1.028156281E-2,3.121376038E-2
5.236125020E0,-1.433024406E-1,-3.590583801E-3,2.027559280E-2
5.244120413E0,-1.234228611E-1,2.083015442E-2,2.377033234E-2
5.252115805E0,-8.721423149E-2,4.765796661E-2,-3.628730774E-3
5.260112120E0,-4.911518097E-2,2.662086487E-2,-2.838134766E-2
5.268106897E0,-2.555966377E-2,3.192901611E-3,-4.824352264E-2
5.276103442E0,2.861928940E-2,-2.019214630E-2,-6.789445877E-2
5.284129912E0,2.976155281E-2,-8.905410767E-2,-1.041226387E-1
5.292124072E0,4.956865311E-2,-1.171951294E-1,-1.041917801E-1
5.300120696E0,-5.131721497E-3,-1.405591965E-1,-1.040720940E-1
5.308115549E0,2.354240417E-2,-1.471710205E-1,-9.650802612E-2
5.316111788E0,1.115448475E-1,-1.323060989E-1,-7.892942429E-2
5.324107872E0,1.630375385E-1,-9.610462189E-2,-8.693170547E-2
5.332102263E0,2.044792175E-1,-2.429199219E-2,-6.534862518E-2
5.340129964E0,1.619558334E-1,2.563476562E-2,-7.173395157E-2
5.348124509E0,1.147532463E-1,7.762718201E-2,-7.993459702E-2
5.356120748E0,6.065249443E-2,7.677268982E-2,-5.922174454E-2
5.364116447E0,2.856230736E-2,3.275299072E-2,-4.102563858E-2
5.372110686E0,-3.882336617E-2,3.079414368E-3,-1.116609573E-2
5.380107847E0,-1.006083488E-1,-5.051612854E-2,1.580333710E-2
5.388102700E0,-1.382143497E-1,-6.821632385E-2,3.070354462E-2
5.396127554E0,-1.687345505E-1,-1.074867249E-1,2.655363083E-2
5.404124561E0,-1.494805813E-1,-7.969284058E-2,5.877017975E-3
5.412119954E0,-1.092519760E-1,-4.226303101E-2,2.611494064E-2
5.420116499E0,-6.960749626E-2,-4.801750183E-3,3.225755692E-2
5.428110431E0,5.067205429E-2,2.548694611E-2,2.445793152E-2
5.436106130E0,1.439824104E-1,4.616832733E-2,9.899139404E-3
5.444102060E0,2.250669003E-1,5.479526520E-2,5.226612091E-3
5.452127683E0,2.536935806E-1,4.402732849E-2,-2.543258667E-2
5.460124613E0,2.730076313E-1,1.859474182E-2,-3.171396255E-2
5.468119391E0,2.137691975E-1,-2.139568329E-2,-2.590847015E-2
5.476115398E0,1.385335922E-1,-3.527641296E-2,-3.446817398E-2
5.484111020E0,7.323980331E-2,-7.072830200E-2,-7.271766663E-3
5.492106182E0,-2.738046646E-2,-6.562328339E-2,-8.866310120E-3
5.500103343E0,-4.396533966E-2,-5.339241028E-2,-1.527118683E-2
5.508127966E0,-4.188370705E-2,-1.967811584E-2,-1.887845993E-2
5.516123742E0,-4.039525986E-2,6.855010986E-3,-4.369163513E-2
5.524118827E0,3.217864037E-2,6.218147278E-2,-4.904079437E-2
5.532114450E0,8.264136314E-2,8.414554596E-2,-4.238891602E-2
5.540111072E0,1.232655048E-1,7.984352112E-2,-4.529142380E-2
5.548105849E0,1.328117847E-1,5.403041840E-2,-5.068016052E-2
5.556101318E0,1.307668686E-1,3.069496155E-2,-2.053451538E-2
5.564128403E0,1.219027042E-1,-2.607345581E-2,1.402664185E-2
5.572123487E0,1.231675148E-1,-4.216957092E-2,2.677488327E-2
5.580120418E0,7.949113846E-2,-3.440475464E-2,2.260589600E-2
5.588114579E0,6.253314018E-2,-4.106330872E-2,3.747797012E-2
5.596109663E0,3.156232834E-2,-3.827667236E-2,1.887941360E-2
5.604106517E0,-1.618385315E-2,-3.790950775E-2,-1.163101196E-2
5.612100678E0,-4.217624664E-3,-2.084922791E-2,-3.953075409E-2
5.620128378E0,3.380680084E-2,-3.247642517E-2,-4.819345474E-2
5.628123539E0,-2.675056458E-4,1.812839508E-2,-4.708623886E-2
5.636117931E0,-1.274085045E-2,1.021213531E-1,-7.687377930E-2
5.644115169E0,-1.336598396E-2,1.525497437E-1,-9.213972092E-2
5.652110253E0,-4.502105713E-2,1.860265732E-1,-8.792877197E-2
5.660106877E0,-7.426786423E-2,1.810188293E-1,-1.097168922E-1
5.668101345E0,-9.144973755E-2,1.518564224E-1,-1.191716194E-1
5.676127276E0,-5.836391449E-2,8.425521851E-2,-1.307573318E-1
5.684123283E0,-2.059221268E-2,4.296970367E-2,-9.914207458E-2
5.692118983E0,2.614259720E-3,-7.647514343E-3,-7.984924316E-2
5.700115299E0,2.319979668E-2,-5.084896088E-2,-7.045078278E-2
5.708109152E0,2.922964096E-2,-5.304050446E-2,-8.859634399E-3
5.716105467E0,5.901455879E-2,-1.428890228E-2,2.125072479E-2
5.724101782E0,6.718039513E-2,5.331707001E-2,3.440523148E-2
5.732127559E0,6.579065323E-2,9.448242188E-2,4.536008835E-2
5.740124182E0,5.964493752E-2,1.093158722E-1,3.234815598E-2
5.748119343E0,1.532125473E-2,1.288824081E-1,3.134632111E-2
5.756113735E0,-1.740455627E-5,1.197366714E-1,2.057504654E-2
5.764110127E0,-1.280832291E-2,8.672046661E-2,1.436614990E-2
5.772105443E0,-6.114411354E-2,4.656219482E-2,1.503705978E-2
5.780101757E0,-9.712195396E-2,1.607227325E-2,8.113384247E-3
5.788126764E0,-1.017580032E-1,1.680850983E-2,1.761913300E-2
5.796122772E0,-8.961510658E-2,8.106231689E-3,1.726961136E-2
5.804118472E0,-8.717679977E-2,4.309654236E-3,9.586811066E-3
5.812113787E0,-5.611872673E-2,1.256275177E-2,-2.212190628E-2
5.820109871E0,-4.918861389E-2,5.923461914E-2,-4.435443878E-2
5.828104879E0,-6.582498550E-3,9.154605865E-2,-5.448246002E-2
5.836101271E0,-1.909947395E-2,1.237964630E-1,-9.557771683E-2
5.844128355E0,-5.336523056E-3,1.128845215E-1,-7.185792923E-2
5.852122440E0,8.565664291E-3,8.755397797E-2,-7.924652100E-2
5.860118524E0,-3.465104103E-2,4.063701630E-2,-7.479572296E-2
5.868113916E0,-7.754540443E-2,1.276969910E-2,-7.752037048E-2
5.876109231E0,-1.201648712E-1,-1.749134064E-2,-3.492593765E-2
5.884105932E0,-1.532189846E-1,-2.264976501E-3,-2.583742142E-2
5.892100631E0,-1.074185371E-1,2.006149292E-2,-6.918907166E-3
5.900127176E0,-1.002244949E-1,4.470157623E-2,9.953975677E-3
5.908122800E0,-5.969738960E-2,4.298973083E-2,3.028392792E-3
5.916118499E0,-2.793312073E-3,3.647327423E-2,-2.038478851E-2
5.924114507E0,1.062536240E-2,3.473663330E-2,-3.396081924E-2
5.932109283E0,3.576231003E-2,2.578353882E-2,-6.167936325E-2
5.940105598E0,1.774787903E-2,6.103515625E-5,-6.778955460E-2
5.948130606E0,4.759740829E-2,-4.478263855E-2,-7.873868942E-2
5.956126536E0,3.682279587E-2,-4.903030396E-2,-9.910154343E-2
5.964121929E0,1.894521713E-2,-3.907871246E-2,-1.048245430E-1
5.972117090E0,2.010965347E-2,-5.311965942E-3,-1.030435562E-1
5.980114252E0,-9.993314743E-3,2.110671997E-2,-1.032390594E-1
5.988108797E0,-2.042055130E-3,7.613754272E-2,-1.126194000E-1
5.996104727E0,3.389120102E-3,7.601070404E-2,-8.582210541E-2
6.004131197E0,-1.510190964E-2,7.099723816E-2,-8.278465271E-2
6.012126588E0,-6.437945366E-2,6.588649750E-2,-5.342674255E-2
6.020122596E0,-6.547451019E-2,4.156494141E-2,-4.807806015E-2
6.028117373E0,-1.887416840E-2,-8.937835693E-3,-1.897430420E-2
6.036112457E0,-1.057696342E-2,-3.544807434E-2,-1.933097839E-3
6.044109465E0,9.996175766E-3,-2.612495422E-2,-1.844453812E-2
6.052103933E0,2.358222008E-2,3.338909149E-2,-1.575565338E-2
6.060130710E0,1.576328278E-2,5.453205109E-2,-5.611848831E-2
6.068126333E0,2.701282501E-2,8.996772766E-2,-7.952547073E-2
6.076121110E0,-2.512693405E-3,9.427452087E-2,-9.808206558E-2
6.084117809E0,1.101994514E-2,6.992435455E-2,-8.084058762E-2
6.092112586E0,3.183531761E-2,4.803943634E-2,-6.140518188E-2
6.100109517E0,9.084367752E-2,3.825950623E-2,-3.018617630E-2
6.108104601E0,1.689922810E-1,7.402515411E-2,1.529741287E-2
6.116099378E0,2.376165390E-1,1.002178192E-1,2.962684631E-2
6.124126385E0,2.944629192E-1,1.287145615E-1,1.048803329E-2
6.132121777E0,3.180022240E-1,1.187801361E-1,-6.145000458E-3
6.140117554E0,3.652486801E-1,1.016559601E-1,-1.781940460E-2
6.148113253E0,3.001997471E-1,5.331420898E-2,2.321624756E-2
6.156108261E0,1.977269650E-1,2.880764008E-2,3.276395798E-2
6.164103653E0,9.641933441E-2,6.550788879E-3,6.578302383E-2
6.172130507E0,-8.303403854E-3,1.045703888E-2,8.148908615E-2
6.180126514E0,-9.292840958E-2,2.247810364E-3,8.489465714E-2
6.188121599E0,-1.555061340E-1,4.169273376E-2,9.321928024E-2
6.196116683E0,-1.820666790E-1,4.037380219E-2,9.681320190E-2
6.204112998E0,-1.753726006E-1,2.719688416E-2,8.599138260E-2
6.212108082E0,-1.591234207E-1,4.279804230E-2,9.424686432E-2
6.220104320E0,-1.024057865E-1,1.783275604E-2,8.083486557E-2
6.228129944E0,-7.702136040E-2,2.174091339E-2,4.094171524E-2
6.236126258E0,-7.321524620E-2,1.376819611E-2,3.201484680E-2
6.244121036E0,-6.472206116E-2,2.025604248E-2,6.206512451E-3
6.252116966E0,3.421783447E-3,-1.959800720E-3,-2.431344986E-2
6.260113050E0,1.154208183E-2,-2.896308899E-2,-3.317165375E-2
6.268108135E0,5.261898041E-3,-1.292610168E-2,-4.908275604E-2
6.276103449E0,8.591651917E-3,-1.604843140E-2,-8.415699005E-2
6.284130303E0,-2.642917633E-2,-2.397251129E-2,-9.523057938E-2
6.292125387E0,-4.004549980E-2,1.371860504E-2,-7.773590088E-2
6.300122010E0,-2.989196777E-2,4.175472260E-2,-6.715011597E-2
6.308116787E0,-1.980614662E-2,2.729415894E-3,-4.689931870E-2
6.316112409E0,-5.767178535E-2,1.152420044E-2,-5.999279022E-2
6.324108110E0,-9.803223610E-2,-1.080226898E-2,-6.105709076E-2
6.332103501E0,-1.336767673E-1,-6.814956665E-3,-6.681680679E-2
6.340130356E0,-8.126568794E-2,-4.580497742E-2,-4.134321213E-2
6.348124440E0,-9.147548676E-2,-5.127239227E-2,-3.957557678E-2
6.356121062E0,-8.275246620E-2,-1.846313477E-2,-1.605653763E-2
6.364116762E0,-7.908678055E-2,3.242492676E-5,-4.431247711E-3
6.372111846E0,-4.209780693E-2,2.332592010E-2,-1.903390884E-2
6.380107931E0,-4.368853569E-2,2.518272400E-2,-4.952907562E-3
6.388103630E0,-8.366632462E-2,3.243446350E-3,4.106521606E-3
6.396129408E0,-1.186444759E-1,-4.492473602E-2,1.760292053E-2
6.404126030E0,-1.679310799E-1,-1.000957489E-1,5.703687668E-2
6.412120268E0,-2.430789471E-1,-1.431789398E-1,1.222643852E-1
6.420116814E0,-2.865884304E-1,-2.122640610E-1,1.840901375E-1
6.428111668E0,-2.886564732E-1,-2.234992981E-1,2.326822281E-1
6.436107983E0,-2.853043079E-1,-1.720552444E-1,2.608461380E-1
6.444103298E0,-2.648305893E-1,-1.250629425E-1,2.138838768E-1
6.452128305E0,-1.614177227E-1,-7.800960541E-2,1.482138634E-1
6.460124928E0,1.165318489E-2,-2.134704590E-2,9.107494354E-2
6.468120859E0,1.273009777E-1,4.945468903E-2,1.917505264E-2
6.476115636E0,1.574594975E-1,1.032323837E-1,-5.598545074E-3
6.484112566E0,1.768968105E-1,1.065883636E-1,-5.086994171E-2
6.492107035E0,2.076270580E-1,7.641124725E-2,-6.691694260E-2
6.500103735E0,2.404508591E-1,7.269573212E-2,-8.061170578E-2
6.508129203E0,3.377289772E-1,-5.092620850E-3,-1.207923889E-1
6.516124904E0,4.773740768E-1,-2.511310577E-2,-1.467161179E-1
6.524120295E0,5.743381977E-1,-3.513431549E-2,-1.625618935E-1
6.532115765E0,6.847670078E-1,3.911399841E-2,-2.034378052E-1
6.540111772E0,7.126183510E-1,7.791328430E-2,-1.876969337E-1
6.548108011E0,7.537851334E-1,1.362638474E-1,-1.846747398E-1
6.556103095E0,6.433544159E-1,1.538600922E-1,-1.593475342E-1
6.564129563E0,5.036339760E-1,1.589508057E-1,-1.364846230E-1
6.572124033E0,2.848467827E-1,1.176939011E-1,-9.834814072E-2
6.580121040E0,1.119570732E-1,8.031558990E-2,-6.916761398E-2
6.588116432E0,-1.126837730E-1,4.446411133E-2,-8.735179901E-3
6.596111747E0,-2.895867825E-1,2.707576752E-2,3.784084320E-2
6.604107216E0,-4.136607647E-1,3.339004517E-2,1.070294380E-1
6.612102224E0,-5.043323040E-1,3.269386292E-2,1.951103210E-1
6.620130231E0,-5.399107933E-1,7.942199707E-3,2.642493248E-1
6.628124085E0,-5.948722363E-1,-4.576969147E-2,2.916250229E-1
6.636119784E0,-6.503038406E-1,-9.969711304E-2,3.427457809E-1
6.644117023E0,-6.789510250E-1,-1.583824158E-1,3.638315201E-1
6.652110568E0,-6.631550789E-1,-2.165889740E-1,4.005837440E-1
6.660107191E0,-6.096458435E-1,-2.764673233E-1,3.621826172E-1
6.668102045E0,-3.892734051E-1,-3.544874191E-1,3.024392128E-1
6.676128514E0,-2.566885948E-1,-4.218568802E-1,2.146077156E-1
6.684124445E0,-1.758358479E-1,-4.528570175E-1,9.738159180E-2
6.692119529E0,-1.567368507E-1,-5.125484467E-1,-7.435321808E-3
6.700115921E0,-1.536445618E-1,-5.603394508E-1,-1.165771484E-1
6.708111005E0,-1.709992886E-1,-6.008419991E-1,-1.851439476E-1
6.716106704E0,-2.035348415E-1,-6.577463150E-1,-2.354850769E-1
6.724102328E0,-2.868690491E-1,-7.476019859E-1,-2.634129524E-1
6.732127873E0,-3.729007244E-1,-8.151159286E-1,-2.431631088E-1
6.740124804E0,-5.140740871E-1,-9.318375587E-1,-1.849818230E-1
6.748118965E0,-6.839177608E-1,-1.040195942E0,-9.872436523E-2
6.756115049E0,-9.361329079E-1,-1.195653439E0,-9.060144424E-2
6.764111288E0,-1.248886585E0,-1.292531013E0,-8.790493011E-2
6.772105834E0,-1.518647432E0,-1.337628841E0,-3.731584549E-2
6.780102995E0,-1.894897819E0,-1.328169823E0,4.221391678E-2
6.788128541E0,-2.278497458E0,-1.309026718E0,8.917236328E-2
6.796123934E0,-2.648414373E0,-1.373239517E0,4.612874985E-2
6.804120325E0,-2.806577682E0,-1.522587299E0,-3.219461441E-2
6.812114486E0,-2.942418575E0,-1.617847919E0,-1.458115578E-1
6.820110494E0,-3.099716663E0,-1.739819050E0,-2.301707268E-1
6.828106116E0,-3.324468851E0,-1.796874523E0,-3.500730991E-1
6.836101586E0,-3.530603886E0,-1.869546890E0,-4.656112194E-1
6.844128901E0,-3.579550505E0,-2.012047768E0,-5.365540981E-1
6.852123063E0,-3.546565294E0,-2.104538441E0,-5.561249256E-1
6.860120300E0,-3.523019314E0,-2.153284550E0,-6.204142570E-1
6.868114538E0,-3.607076645E0,-2.178928375E0,-6.915836334E-1
6.876110546E0,-3.766011238E0,-2.181231022E0,-7.080645561E-1
6.884105938E0,-3.971649170E0,-2.137496471E0,-7.083535194E-1
6.892101023E0,-4.255633354E0,-2.048956394E0,-7.690000534E-1
6.900128107E0,-4.465342522E0,-2.007707596E0,-7.939414978E-1
6.908123498E0,-4.547996998E0,-1.960165024E0,-7.778754234E-1
6.916118891E0,-4.421014786E0,-2.016698837E0,-6.810050011E-1
6.924114590E0,-4.156427383E0,-2.088446617E0,-5.560872555E-1
6.932111137E0,-3.650333405E0,-2.279100895E0,-3.860461712E-1
6.940106913E0,-3.143574953E0,-2.495433807E0,-3.506996632E-1
6.948101383E0,-2.530862331E0,-2.583044052E0,-3.322021961E-1
6.956127236E0,-1.973420143E0,-2.670160532E0,-3.293044567E-1
6.964124474E0,-1.639737606E0,-2.666677952E0,-4.423544407E-1
6.972118558E0,-1.353555202E0,-2.627700806E0,-6.176886559E-1
6.980115489E0,-1.293263435E0,-2.557595491E0,-7.494003773E-1
6.988109650E0,-1.247372627E0,-2.449964285E0,-8.787853718E-1
6.996105427E0,-1.048211098E0,-2.312490940E0,-9.323072433E-1
7.004101358E0,-8.422851562E-1,-2.155787468E0,-9.775514603E-1
7.012127211E0,-4.882183075E-1,-2.004297495E0,-8.936486244E-1
7.020124218E0,-1.346483231E-1,-1.828182459E0,-9.579658508E-1
7.028118688E0,4.273929596E-1,-1.699247599E0,-1.017610073E0
7.036114002E0,9.086589813E-1,-1.574019909E0,-1.015974522E0
7.044110318E0,1.402448654E0,-1.463892460E0,-1.095247984E0
7.052105171E0,1.787508011E0,-1.405376434E0,-1.064129829E0
7.060102024E0,1.993940353E0,-1.397796750E0,-1.104424238E0
7.068127263E0,2.199979782E0,-1.396275401E0,-8.877263069E-1
7.076122424E0,2.324390411E0,-1.500748634E0,-7.996633053E-1
7.084118047E0,2.366894722E0,-1.673575163E0,-6.548609734E-1
7.092113824E0,2.306273460E0,-1.907854676E0,-5.767958164E-1
7.100110678E0,2.172200203E0,-2.043276548E0,-5.227894783E-1
7.108105146E0,1.971195221E0,-2.174401760E0,-5.845627785E-1
7.116131384E0,1.672326088E0,-2.217622757E0,-6.330220699E-1
7.124127084E0,1.450836182E0,-2.283404350E0,-7.533538342E-1
7.132122399E0,1.329734802E0,-2.363004684E0,-8.003175259E-1
7.140119100E0,1.183740616E0,-2.324873686E0,-8.650379181E-1
7.148113491E0,9.596958160E-1,-2.332241297E0,-9.272744656E-1
7.156109268E0,9.051485062E-1,-2.301812649E0,-9.868295193E-1
7.164106122E0,9.658403397E-1,-2.337419510E0,-9.412286282E-1
7.172131052E0,8.257493973E-1,-2.310951471E0,-8.055617809E-1
7.180128290E0,4.485168457E-1,-2.242934704E0,-6.053712368E-1
7.188122451E0,1.861248016E-1,-2.194408655E0,-4.822299480E-1
7.196117613E0,2.087001801E-1,-2.161205769E0,-3.722913265E-1
7.204113543E0,2.788114548E-1,-2.120663643E0,-2.558376789E-1
7.212108705E0,2.565851212E-1,-2.040101528E0,-2.177789211E-1
7.220105943E0,2.420644760E-1,-2.017215729E0,-1.352646351E-1
7.228131104E0,2.298583984E-1,-2.018715858E0,1.405429840E-2
7.236125958E0,2.981863022E-1,-2.016339779E0,1.355504990E-2
7.244121965E0,3.366270065E-1,-2.010031462E0,-7.706332207E-2
7.252117281E0,3.767843246E-1,-1.975167036E0,-2.240455151E-1
7.260114518E0,4.554595947E-1,-1.922538996E0,-3.895301819E-1
7.268108679E0,4.887943268E-1,-1.798230886E0,-4.650957584E-1
7.276104457E0,3.934240341E-1,-1.643054008E0,-5.054523945E-1
7.284131156E0,1.794061661E-1,-1.481482267E0,-4.479062557E-1
7.292126010E0,4.082393646E-2,-1.324743986E0,-3.491525650E-1
7.300122556E0,8.753585815E-2,-1.276459217E0,-1.895430088E-1
7.308117333E0,2.709341049E-1,-1.290401459E0,-3.574156761E-2
7.316113340E0,4.728822708E-1,-1.341335297E0,9.408164024E-2
7.324109424E0,5.790338516E-1,-1.393335819E0,1.298468113E-1
7.332104432E0,5.648555756E-1,-1.385915756E0,1.549124718E-1
7.340131593E0,4.156017303E-1,-1.320811272E0,1.515676975E-1
7.348125985E0,2.770519257E-1,-1.238178730E0,7.532262802E-2
7.356121762E0,2.309074402E-1,-1.166038036E0,9.831237793E-2
7.364117770E0,3.805909157E-1,-1.166078091E0,-2.209544182E-2
7.372112238E0,5.928182602E-1,-1.158370972E0,-1.310949326E-1
7.380109091E0,5.886464119E-1,-1.106260300E0,-2.787566185E-1
7.388104561E0,4.329481125E-1,-9.970736504E-1,-3.402221203E-1
7.396130645E0,1.929059029E-1,-8.830604553E-1,-3.559606075E-1
7.404126345E0,5.602502823E-2,-8.066682816E-1,-2.143125534E-1
7.412121737E0,3.088374138E-1,-9.105949402E-1,-4.445338249E-2
7.420117821E0,9.214849472E-1,-1.117608547E0,1.314878464E-2
7.428112829E0,1.247066975E0,-1.210276604E0,2.371335030E-1
7.436108297E0,1.246947289E0,-1.209990978E0,3.071756363E-1
7.444104921E0,1.061460972E0,-1.103043079E0,2.878360748E-1
7.452130082E0,9.654326439E-1,-1.007668972E0,3.110778332E-1
7.460126705E0,1.087314129E0,-9.659576416E-1,2.026379108E-1
7.468121481E0,1.116486073E0,-8.744506836E-1,1.488969326E-1
7.476116257E0,1.000715733E0,-7.351455688E-1,1.020135880E-1
7.484112573E0,8.275957108E-1,-5.754904747E-1,5.518245697E-2
7.492107734E0,5.657248497E-1,-4.196133614E-1,5.222535133E-2
7.500105204E0,4.220371246E-1,-3.577041626E-1,2.013683319E-1
7.508130211E0,5.437202454E-1,-4.864482880E-1,3.551537991E-1
7.516124603E0,9.088182449E-1,-7.225389481E-1,4.561595917E-1
7.524121610E0,1.163719654E0,-8.745312691E-1,4.388363361E-1
7.532117233E0,1.143433571E0,-9.336538315E-1,4.243085384E-1
7.540113318E0,9.502358437E-1,-8.134403229E-1,4.017102718E-1
7.548108094E0,7.131886482E-1,-7.363958359E-1,3.493204117E-1
7.556103717E0,5.993208885E-1,-7.035570145E-1,2.956809998E-1
7.564130570E0,5.592179298E-1,-7.001152039E-1,3.166959286E-1
7.572125347E0,5.693240166E-1,-7.330846786E-1,3.113155365E-1
7.580121893E0,6.107239723E-1,-7.354011536E-1,3.866941929E-1
7.588116362E0,6.979336739E-1,-7.740697861E-1,4.012153149E-1
7.596112139E0,7.667565346E-1,-7.722301483E-1,3.787486553E-1
7.604108377E0,7.876417637E-1,-7.566194534E-1,4.077022076E-1
7.612103154E0,7.922487259E-1,-7.269067764E-1,4.378962517E-1
7.620130238E0,8.091711998E-1,-7.070121765E-1,4.862575531E-1
7.628125322E0,8.358159065E-1,-6.730155945E-1,5.552656651E-1
7.636121330E0,8.932559490E-1,-6.778230667E-1,7.115967274E-1
7.644117106E0,1.030874729E0,-7.434711456E-1,8.490169048E-1
7.652111499E0,1.233318329E0,-8.583974838E-1,8.949141502E-1
7.660108814E0,1.361467838E0,-9.251852036E-1,9.256083965E-1
7.668102360E0,1.404990911E0,-9.366436005E-1,9.336333275E-1
7.676129059E0,1.360769033E0,-8.973741531E-1,8.498361111E-1
7.684125451E0,1.233970881E0,-8.307619095E-1,7.608885765E-1
7.692120151E0,1.187669039E0,-7.985353470E-1,6.746513844E-1
7.700116466E0,1.126865625E0,-8.337974548E-1,6.197426319E-1
7.708111859E0,1.175904751E0,-8.693304062E-1,6.345167160E-1
7.716107327E0,1.285186291E0,-8.478803635E-1,7.045159340E-1
7.724103027E0,1.401748180E0,-8.387212753E-1,7.841498852E-1
7.732129496E0,1.482068777E0,-7.914657593E-1,8.636827469E-1
7.740125503E0,1.578595757E0,-6.724519730E-1,9.573166370E-1
7.748119665E0,1.669858336E0,-5.725164413E-1,9.928500652E-1
7.756115364E0,1.734985828E0,-5.057554245E-1,9.892554283E-1
7.764112218E0,1.827396870E0,-4.503765106E-1,9.534976482E-1
7.772107072E0,1.841877937E0,-4.038963318E-1,9.331740141E-1
7.780104540E0,1.820346236E0,-3.732528687E-1,9.231907129E-1
7.788128625E0,1.768179536E0,-3.415164948E-1,8.899636269E-1
7.796123940E0,1.700532317E0,-3.420181274E-1,9.029148817E-1
7.804121179E0,1.650836706E0,-2.933063507E-1,9.046082497E-1
7.812115109E0,1.585524678E0,-2.455539703E-1,9.049584866E-1
7.820112271E0,1.520888567E0,-1.795969009E-1,8.921755552E-1
7.828107662E0,1.449760556E0,-1.586904526E-1,9.338515997E-1
7.836102438E0,1.361711860E0,-1.160507202E-1,1.002700567E0
7.844128985E0,1.314648509E0,-9.717369080E-2,9.545652866E-1
7.852124300E0,1.290677309E0,-1.017646790E-1,8.977539539E-1
7.860120692E0,1.269044161E0,-8.896350861E-2,7.656348944E-1
7.868115469E0,1.267834425E0,-1.134777069E-1,7.028741837E-1
7.876111091E0,1.189923882E0,-1.271734238E-1,6.120665073E-1
7.884107791E0,1.084110379E0,-1.370801926E-1,5.485755205E-1
7.892102260E0,9.970960617E-1,-1.405544281E-1,4.841849804E-1
7.900129345E0,8.789862394E-1,-1.184558868E-1,4.402374029E-1
7.908124429E0,7.882287502E-1,-1.088666916E-1,4.387413263E-1
7.916119437E0,6.746904850E-1,-7.594585419E-2,4.745680094E-1
7.924116444E0,6.318645477E-1,-8.667087555E-2,4.043354988E-1
7.932111220E0,5.496554375E-1,-9.544372559E-2,3.483319283E-1
7.940107151E0,4.660390615E-1,-7.111263275E-2,2.663247585E-1
7.948101927E0,3.696604967E-1,-8.287143707E-2,2.044641972E-1
7.956128782E0,2.583540678E-1,-3.484630585E-2,1.031961441E-1
7.964124712E0,1.570606232E-1,-1.527309418E-2,6.294012070E-3
7.972119489E0,5.490207672E-2,1.688957214E-2,-6.662416458E-2
7.980116188E0,-1.063859463E-2,4.296493530E-2,-1.437871456E-1
7.988110580E0,-5.025196075E-2,4.738712311E-2,-1.996233463E-1
7.996106049E0,-6.616902351E-2,9.885215759E-2,-2.284578085E-1
8.004102056E0,-8.118462563E-2,8.666515350E-2,-1.527502537E-1
8.012127834E0,-5.327105522E-2,8.455085754E-2,-1.437628269E-1
8.020124225E0,-2.610254288E-2,5.639743805E-2,-1.228675842E-1
8.028119849E0,-1.220965385E-2,6.789207458E-3,-6.413912773E-2
8.036115317E0,-6.549596786E-3,3.833770752E-4,-6.117391586E-2
8.044111555E0,-4.966878891E-2,-8.255004883E-3,-3.968763351E-2
8.052106409E0,-1.124558449E-1,-1.179122925E-2,-4.972219467E-2
8.060102339E0,-2.014842033E-1,1.876544952E-2,-8.122324944E-2
8.068127963E0,-2.729783058E-1,4.057598114E-2,-1.122519970E-1
8.076123585E0,-3.289288282E-1,5.867290497E-2,-1.517536640E-1
8.084119977E0,-3.764446974E-1,7.793045044E-2,-1.803054810E-1
8.092115062E0,-4.179415703E-1,8.156681061E-2,-1.620779037E-1
8.100111915E0,-4.225454330E-1,8.146286011E-2,-1.738140583E-1
8.108106077E0,-4.222910404E-1,1.107730865E-1,-1.347510815E-1
8.116132238E0,-4.014019966E-1,1.642847061E-1,-5.771040916E-2
8.124128015E0,-3.795890808E-1,1.532325745E-1,-6.980490685E-2
8.132123945E0,-3.335384130E-1,1.540002823E-1,-2.296495438E-2
8.140119414E0,-3.136864901E-1,1.426153183E-1,1.427412033E-3
8.148114422E0,-2.865265608E-1,9.757041931E-2,2.031373978E-2
8.156110121E0,-2.969220877E-1,8.129978180E-2,7.565259933E-3
8.164106129E0,-3.064397573E-1,3.642368317E-2,3.526997566E-2
8.172132367E0,-3.195142746E-1,3.483390808E-2,4.589414597E-2
8.180128375E0,-3.268074989E-1,2.380084991E-2,8.016872406E-2
8.188123151E0,-3.238170147E-1,2.961444855E-2,8.071255684E-2
8.196118773E0,-3.063051701E-1,3.783798218E-2,8.607840538E-2
8.204114243E0,-2.891867161E-1,5.555725098E-2,9.636783600E-2
8.212110173E0,-2.632815838E-1,4.918575287E-2,1.068632603E-1
8.220106489E0,-2.145103216E-1,3.064823151E-2,6.254911423E-2
8.228131726E0,-1.505643129E-1,5.018234253E-2,2.356219292E-2
8.236127426E0,-1.026418209E-1,5.988407135E-2,1.860499382E-2
8.244123742E0,-7.244777679E-2,2.153301239E-2,3.060173988E-2
8.252118287E0,-3.211498260E-4,-3.013610840E-4,1.870799065E-2
8.260115141E0,1.358926296E-2,-4.861545563E-2,-5.067348480E-3
8.268110225E0,2.455103397E-2,-7.553958893E-2,-2.668380737E-3
8.276106002E0,4.027605057E-3,-1.312770844E-1,-1.464319229E-2
8.284132086E0,-2.405655384E-2,-1.750984192E-1,-3.368830681E-2
8.292126939E0,-2.175319195E-2,-1.950950623E-1,-5.014681816E-2
8.300123255E0,-4.418849945E-2,-2.295284271E-1,-2.308273315E-2
8.308118647E0,-4.126966000E-2,-2.018165588E-1,-7.694888115E-2
8.316113655E0,-1.303422451E-2,-1.478881836E-1,-1.040487289E-1
8.324110354E0,1.426589489E-2,-6.769466400E-2,-1.210011244E-1
8.332105131E0,6.252455711E-2,-1.626300812E-2,-1.207715273E-1
8.340131831E0,1.368641853E-1,6.389904022E-2,-1.250764132E-1
8.348127222E0,1.991735697E-1,1.153383255E-1,-1.005394459E-1
8.356121769E0,2.444859743E-1,1.308431625E-1,-8.064591885E-2
8.364118699E0,2.796081305E-1,1.414012909E-1,-6.328523159E-2
8.372113476E0,2.400345802E-1,1.278104782E-1,-5.840158463E-2
8.380110945E0,1.667031050E-1,1.140785217E-1,-6.591069698E-2
8.388105183E0,1.030981541E-1,1.218328476E-1,-4.512238503E-2
8.396131883E0,-7.822036743E-3,1.176300049E-1,-2.720367908E-2
8.404127044E0,-8.019816875E-2,1.397962570E-1,-9.350299835E-3
8.412122436E0,-1.239978075E-1,1.787376404E-1,-1.759588718E-2
8.420118674E0,-1.256026030E-1,2.296047211E-1,-5.630052090E-2
8.428114144E0,-8.523321152E-2,2.588644028E-1,-6.304538250E-2
8.436109151E0,-3.087997437E-3,2.616443634E-1,-4.042315483E-2
8.444106081E0,7.076919079E-2,2.403001785E-1,-7.500505447E-2
8.452130781E0,1.843413115E-1,2.044000626E-1,-1.047167778E-1
8.460127942E0,2.611579895E-1,1.563081741E-1,-1.058595181E-1
8.468121873E0,2.965588570E-1,1.511049271E-1,-1.192249060E-1
8.476117496E0,3.313039541E-1,1.002206802E-1,-1.208214760E-1
8.484114734E0,3.345495462E-1,9.466838837E-2,-1.467083693E-1
8.492109203E0,2.829868793E-1,8.437252045E-2,-1.031473875E-1
8.500105287E0,2.345525026E-1,9.332466125E-2,-3.828680515E-2
8.508130756E0,2.085659504E-1,7.363605499E-2,9.343624115E-3
8.516126840E0,1.833834648E-1,3.478336334E-2,1.159565449E-1
8.524122771E0,1.324748993E-1,2.210521698E-2,1.804625988E-1
8.532117625E0,1.058216095E-1,-4.583072662E-2,1.838413477E-1
8.540114555E0,9.119915962E-2,-6.600761414E-2,1.314703226E-1
8.548109640E0,5.281400681E-2,-7.186985016E-2,1.409380436E-1
8.556104339E0,-2.334809303E-2,-8.722305298E-2,1.526670456E-1
8.564131193E0,-7.016992569E-2,-6.173992157E-2,1.260942221E-1
8.572126200E0,-1.448315382E-1,-5.518722534E-2,1.260330677E-1
8.580122593E0,-1.563838720E-1,-3.649330139E-2,1.474306583E-1
8.588118292E0,-1.480373144E-1,-4.889202118E-2,2.017092705E-1
8.596113068E0,-1.177268028E-1,-4.931831360E-2,1.430040598E-1
8.604109999E0,-1.018440723E-1,-4.502487183E-2,1.199605465E-1
8.612103853E0,-1.027116776E-1,-2.637195587E-2,1.327781677E-1
8.620131168E0,-1.177434921E-1,4.191398621E-3,1.522778273E-1
8.628126252E0,-1.373698711E-1,2.273845673E-2,1.521950960E-1
8.636122030E0,-1.231236458E-1,2.216911316E-2,1.423330307E-1
8.644117652E0,-1.325285435E-1,1.202392578E-2,1.417459249E-1
8.652113120E0,-1.081871986E-1,9.066581726E-3,1.600931883E-1
8.660109359E0,-1.315171719E-1,1.081657410E-2,1.658617258E-1
8.668104443E0,-1.095092297E-1,1.004028320E-2,1.472178698E-1
8.676130913E0,-1.256341934E-1,-3.805160522E-4,1.543954611E-1
8.684126304E0,-1.201527119E-1,5.946159363E-3,1.135812998E-1
8.692120773E0,-1.194984913E-1,-2.120876312E-2,7.060635090E-2
8.700117473E0,-1.544266939E-1,-5.158424377E-3,7.571399212E-2
8.708113480E0,-1.673702002E-1,3.860473633E-3,6.673252583E-2
8.716108181E0,-1.938303709E-1,-1.279830933E-3,8.181571960E-2
8.724105111E0,-2.147985697E-1,1.051235199E-2,7.306051254E-2
8.732129734E0,-1.899155378E-1,1.764488220E-2,4.300963879E-2
8.740126972E0,-1.934877634E-1,5.756378174E-3,4.444754124E-2
8.748121517E0,-1.779574156E-1,-8.484840393E-3,3.896617889E-2
8.756117141E0,-1.460446119E-1,1.558113098E-2,1.712739468E-2
8.764112609E0,-1.145565510E-1,3.676414490E-3,4.333937168E-2
8.772107310E0,-8.615326881E-2,1.196861267E-3,-1.426291466E-2
8.780104932E0,-4.634594917E-2,-1.575374603E-2,-3.585255146E-2
8.788129863E0,-3.559350967E-2,-2.315139771E-2,-7.638204098E-2
8.796125255E0,-4.395461082E-2,-2.097702026E-2,-8.346164227E-2
8.804121877E0,-8.541059494E-2,-2.591133118E-2,-8.582186699E-2
8.812116578E0,-1.213377714E-1,-4.262733459E-2,-9.042155743E-2
8.820113200E0,-1.279474497E-1,-1.366424561E-2,-1.330237389E-1
8.828108670E0,-1.651695967E-1,1.175880432E-3,-1.342957020E-1
8.836103446E0,-1.901978254E-1,-1.488876343E-2,-1.251771450E-1
8.844130838E0,-1.956850290E-1,-3.548812866E-2,-1.272059679E-1
8.852124922E0,-1.796685457E-1,-3.678703308E-2,-1.284869909E-1
8.860121852E0,-1.542497873E-1,-3.796291351E-2,-1.481513977E-1
8.868116091E0,-1.196113825E-1,-5.345344543E-2,-1.552475691E-1
8.876111406E0,-9.970283508E-2,-4.496097565E-2,-1.593669653E-1
8.884108645E0,-9.912419319E-2,-4.598808289E-2,-1.893669367E-1
8.892104113E0,-6.992161274E-2,-1.820278168E-2,-2.020958662E-1
8.900130890E0,-6.939172745E-2,-3.102874756E-2,-2.048738003E-1
8.908125282E0,-5.689060688E-2,-3.187942505E-2,-1.764819622E-1
8.916120443E0,-5.639374256E-2,3.168106079E-3,-1.912035942E-1
8.924117297E0,-3.937947750E-2,4.525756836E-2,-1.345218420E-1
8.932111843E0,-1.793050766E-2,6.561660767E-2,-1.501814127E-1
8.940108081E0,1.025366783E-2,9.056854248E-2,-1.495524645E-1
8.948102627E0,-9.909987450E-3,1.177663803E-1,-1.635488272E-1
8.956129634E0,5.111694336E-4,1.328706741E-1,-1.799743176E-1
8.964125334E0,-3.723371029E-2,9.762859344E-2,-1.509577036E-1
8.972120418E0,-6.536042690E-2,1.102981567E-1,-1.745110750E-1
8.980116503E0,-1.053115129E-1,5.597209930E-2,-1.357527971E-1
8.988111818E0,-1.351145506E-1,4.249286652E-2,-1.399639845E-1
8.996107286E0,-1.549949646E-1,-4.410743713E-3,-9.616553783E-2
9.004102987E0,-1.648395061E-1,-2.483654022E-2,-9.762418270E-2
9.012128532E0,-1.958055496E-1,-2.832221985E-2,-9.862720966E-2
9.020125771E0,-1.785720587E-1,-5.320930481E-2,-7.526803017E-2
9.028120470E0,-1.304948330E-1,-4.222106934E-2,-2.786803246E-2
9.036116478E0,-1.044049263E-1,2.129650116E-2,-9.427785873E-3
9.044112870E0,-5.268275738E-2,5.104351044E-2,1.088178158E-2
9.052106723E0,-1.129174232E-2,5.181884766E-2,3.795802593E-2
9.060135270E0,2.951574326E-2,3.560447693E-2,6.688976288E-2
9.068128892E0,6.993949413E-2,-1.671600342E-2,1.000473499E-1
9.076124592E0,6.700956821E-2,-3.331089020E-2,9.902405739E-2
9.084120907E0,1.411795616E-2,-2.842140198E-2,1.117163897E-1
9.092116223E0,-3.585135937E-2,-6.848335266E-3,1.618049145E-1
9.100112230E0,-9.458589554E-2,2.430152893E-2,1.464147568E-1
9.108107083E0,-1.357282400E-1,3.630733490E-2,1.613501310E-1
9.116132553E0,-1.689774990E-1,3.154659271E-2,1.563764811E-1
9.124128944E0,-1.827282906E-1,4.589653015E-2,1.364763975E-1
9.132123721E0,-2.297980785E-1,8.420276642E-2,9.491991997E-2
9.140120652E0,-2.386076450E-1,8.425998688E-2,7.045972347E-2
9.148116275E0,-2.472436428E-1,1.494216919E-2,7.722961903E-2
9.156110744E0,-2.244697809E-1,-1.120185852E-2,7.454729080E-2
9.164106827E0,-1.584408283E-1,-2.287864685E-2,7.939410210E-2
9.172132682E0,-9.214746952E-2,-3.210258484E-2,9.625077248E-2
9.180129612E0,-3.755903244E-2,-2.692222595E-2,9.628438950E-2
9.188124004E0,3.415513039E-2,7.025718689E-3,1.057194471E-1
9.196119473E0,8.457243443E-2,2.657890320E-3,6.461238861E-2
9.204115095E0,9.020256996E-2,4.867744446E-2,4.970073700E-2
9.212111103E0,7.506990433E-2,6.368064880E-2,3.696286678E-2
9.220108033E0,9.793043137E-4,7.644844055E-2,2.415537834E-2
9.228133349E0,-3.191781044E-2,9.889316559E-2,2.336919308E-2
9.236128356E0,-5.014526844E-2,6.874370575E-2,-1.800179482E-2
9.244124364E0,-3.249621391E-2,5.063438416E-2,8.984804153E-4
9.252119525E0,-4.876720905E-2,2.053928375E-2,9.826421738E-4
9.260116071E0,-5.835950375E-2,2.390861511E-3,-5.719184875E-3
9.268110002E0,-3.991901875E-2,-1.101112366E-2,4.814982414E-3
9.276106316E0,-2.446138859E-2,-1.967239380E-2,-2.978658676E-2
9.284133094E0,2.289533615E-3,-5.951976776E-2,-5.207264423E-2
9.292127870E0,5.945932865E-2,-7.549476624E-2,-8.838319778E-2
9.300123878E0,7.768559456E-2,-1.082715988E-1,-8.360707760E-2
9.308119500E0,1.217141151E-1,-1.267910004E-1,-3.334307671E-2
9.316114969E0,1.578866243E-1,-1.095542908E-1,-5.264782906E-2
9.324111515E0,2.147886753E-1,-8.768653870E-2,-6.956255436E-2
9.332106061E0,2.633731365E-1,-4.447841644E-2,-6.727504730E-2
9.340133069E0,2.839614153E-1,1.759338379E-2,-1.079444885E-1
9.348127845E0,2.645033598E-1,6.262779236E-2,-1.459530592E-1
9.356122929E0,2.363451719E-1,1.266479492E-1,-1.881468296E-1
9.364119860E0,1.759784222E-1,2.049427032E-1,-2.130085230E-1
9.372114636E0,1.272586584E-1,2.616834641E-1,-2.136328220E-1
9.380112260E0,7.387661934E-2,2.754449844E-1,-2.353422642E-1
9.388106113E0,3.267383575E-2,2.534074783E-1,-2.279509306E-1
9.396131890E0,8.433818817E-3,2.290534973E-1,-1.940197945E-1
9.404128513E0,-3.019750118E-2,1.784362793E-1,-2.003916502E-1
9.412123289E0,-5.208086967E-2,1.279001236E-1,-2.015460730E-1
9.420119374E0,-6.922924519E-2,7.028865814E-2,-1.949249506E-1
9.428114458E0,-6.015694141E-2,4.155063629E-2,-2.114073038E-1
9.436110158E0,-8.423769474E-2,-2.284431458E-2,-2.125961781E-1
9.444106165E0,-7.892417908E-2,-3.906250000E-2,-1.961997747E-1
9.452131635E0,-6.536030769E-2,-3.583335876E-2,-1.745736599E-1
9.460128334E0,-3.607726097E-2,-3.954601288E-2,-1.482715607E-1
9.468123033E0,-2.228605747E-2,-1.433277130E-2,-1.294009686E-1
9.476118734E0,3.334677219E-2,4.213905334E-2,-1.157563925E-1
9.484114741E0,4.916679859E-2,8.186435699E-2,-7.657170296E-2
9.492110133E0,6.811869144E-2,1.048469543E-1,-8.111965656E-2
9.500107140E0,6.845867634E-2,1.302089691E-1,-4.556643963E-2
9.508131993E0,7.860004902E-2,1.483621597E-1,-3.908526897E-2
9.516126848E0,6.010782719E-2,1.664581299E-1,-1.860475540E-2
9.524124008E0,3.670120239E-2,1.414260864E-1,-3.406476974E-2
9.532118786E0,1.328027248E-2,1.402978897E-1,2.452707291E-2
9.540115177E0,3.912806511E-3,1.079750061E-1,1.844751835E-2
9.548110262E0,-3.490447998E-3,9.234142303E-2,3.638148308E-2
9.556104962E0,7.767677307E-3,1.005611420E-1,3.522264957E-2
9.564131507E0,-3.218412399E-3,6.556129456E-2,7.003509998E-2
9.572126823E0,-2.935171127E-3,7.831096649E-2,8.333647251E-2
9.580123138E0,2.042257786E-2,5.013847351E-2,8.200871944E-2
9.588117915E0,6.440973282E-2,7.199764252E-2,1.042971611E-1
9.596114230E0,8.111679554E-2,7.431983948E-3,8.801770210E-2
9.604109699E0,8.504772186E-2,9.670257568E-3,9.050357342E-2
9.612104706E0,1.003849506E-1,2.848339081E-2,9.263658524E-2
9.620132175E0,9.378099442E-2,2.801227570E-2,7.533550262E-2
9.628126952E0,8.946669102E-2,-1.082324982E-2,6.983077526E-2
9.636122574E0,8.761954308E-2,-2.093887329E-2,6.182372570E-2
9.644118890E0,6.674981117E-2,-2.146339417E-2,5.855095387E-2
9.652113974E0,5.319738388E-2,-4.831790924E-2,7.912051678E-2
9.660110673E0,2.302694321E-2,-2.489566803E-2,4.927110672E-2
9.668105066E0,7.398843765E-3,-1.340103149E-2,4.819989204E-2
9.676131842E0,-1.549625397E-2,1.723861694E-2,5.676090717E-2
9.684127312E0,-2.878689766E-2,-5.722045898E-6,6.290090084E-2
9.692122319E0,-5.637133121E-2,9.098052979E-3,4.988253117E-2
9.700119634E0,-7.190644741E-2,2.062129974E-2,4.650247097E-2
9.708113103E0,-8.730530739E-2,1.053810120E-3,4.795801640E-2
9.716109725E0,-1.024496555E-1,1.745414734E-2,3.746020794E-2
9.724105733E0,-1.292073727E-1,2.196025848E-2,5.812335014E-2
9.732131279E0,-1.290404797E-1,9.800910950E-3,7.386040688E-2
9.740126748E0,-1.353126764E-1,-2.281188965E-3,1.083738804E-1
9.748122371E0,-1.147971153E-1,-1.431560516E-2,8.520102501E-2
9.756117840E0,-9.150719643E-2,-1.197814941E-2,9.996843338E-2
9.764113771E0,-8.241379261E-2,-4.895210266E-3,1.071408987E-1
9.772108931E0,-7.791006565E-2,1.652431488E-2,9.719192982E-2
9.780105786E0,-9.712088108E-2,2.835941315E-2,6.781589985E-2
9.788130408E0,-1.016807556E-1,1.862907410E-2,8.591735363E-2
9.796126416E0,-1.155295372E-1,2.569961548E-2,5.365264416E-2
9.804122500E0,-1.144890785E-1,1.132869720E-2,5.490612984E-2
9.812117893E0,-1.490677595E-1,2.572345734E-2,6.322216988E-2
9.820113515E0,-1.451365948E-1,-2.944946289E-3,7.150185108E-2
9.828108676E0,-1.837842464E-1,-4.119873047E-4,9.159183502E-2
9.836104299E0,-1.742390394E-1,-3.139114380E-2,1.042208672E-1
9.844130845E0,-1.501967907E-1,-6.235504150E-2,9.524357319E-2
9.852126776E0,-1.431251764E-1,-5.983829498E-2,8.630108833E-2
9.860122860E0,-1.408773661E-1,-5.495071411E-2,1.203738451E-1
9.868117021E0,-1.292246580E-1,-1.901149750E-2,8.241903782E-2
9.876112952E0,-1.105681658E-1,1.449203491E-2,6.598544121E-2
9.884108959E0,-8.731472492E-2,-4.697799683E-3,4.008066654E-2
9.892103505E0,-7.877099514E-2,-1.670360565E-2,7.356166840E-3
9.900131205E0,-5.154466629E-2,-2.636337280E-2,-2.990996838E-2
9.908125905E0,-6.274056435E-2,-9.668350220E-3,-1.668131351E-2
9.916121912E0,-9.279656410E-2,-3.601074219E-2,3.727197647E-3
9.924118611E0,-1.175014973E-1,-1.435375214E-2,1.935291290E-2
9.932113004E0,-1.154793501E-1,2.650833130E-2,3.245258331E-2
9.940108780E0,-1.015077829E-1,2.908039093E-2,2.173841000E-2
9.948134557E0,-9.479737282E-2,7.709503174E-3,2.066862583E-2
9.956131257E0,-1.097239256E-1,-6.480216980E-3,-6.646037102E-3
9.964127188E0,-1.009006500E-1,8.027076721E-3,9.144544601E-3
9.972121118E0,-9.452176094E-2,8.171081543E-3,-4.680991173E-2
9.980117356E0,-1.072087288E-1,2.032661438E-2,-6.672525406E-2
9.988113056E0,-8.367753029E-2,3.015995026E-2,-6.024873257E-2
9.996108217E0,-7.651627064E-2,4.963874817E-2,-4.663276672E-2
1.000410392E1,-9.276127815E-2,5.246162415E-2,-4.739820957E-2
1.001212977E1,-6.560206413E-2,4.095554352E-2,-4.109072685E-2
1.002012609E1,-5.284512043E-2,5.816841125E-2,-4.200804234E-2
1.002812148E1,-5.460274220E-2,4.904365540E-2,-4.514634609E-2
1.003611710E1,-3.504383564E-2,4.228305817E-2,-6.496560574E-2
1.004411311E1,-3.715574741E-2,3.313732147E-2,-7.981479168E-2
1.005210796E1,-4.196012020E-2,-7.130622864E-3,-8.478319645E-2
1.006010420E1,-3.492569923E-2,1.007556915E-2,-9.431648254E-2
1.006812975E1,-2.816843987E-2,9.269714355E-4,-8.931386471E-2
1.007612544E1,2.467870712E-3,-1.048088074E-3,-1.034370661E-1
1.008412176E1,3.308248520E-2,-1.259517670E-2,-1.151189804E-1
1.009211661E1,4.690670967E-2,-3.133106232E-2,-9.807229042E-2
1.010011324E1,5.822229385E-2,-2.245903015E-3,-9.799396992E-2
1.010810771E1,4.552781582E-2,3.160285950E-2,-1.099458933E-1
1.011610271E1,5.898606777E-2,4.146957397E-2,-1.051558256E-1
1.012413010E1,5.777084827E-2,2.980327606E-2,-1.718034744E-1
1.013212550E1,2.506601810E-2,2.054500580E-2,-1.446367502E-1
1.014012181E1,8.925914764E-3,-5.408287048E-3,-1.504740715E-1
1.014811636E1,-9.610056877E-3,1.416110992E-2,-9.867107868E-2
1.015611175E1,-3.506743908E-2,4.815959930E-2,-1.138300896E-1
1.016410837E1,-7.830858231E-3,6.303405762E-2,-1.144976616E-1
1.017213423E1,1.911234856E-2,9.945011139E-2,-9.814941883E-2
1.018013054E1,2.882921696E-2,9.511184692E-2,-1.031368971E-1
1.018812501E1,2.845537663E-2,7.394790649E-2,-8.401775360E-2
1.019612094E1,2.297866344E-2,3.114318848E-2,-8.899140358E-2
1.020411726E1,4.843318462E-2,2.418994904E-2,-9.410107136E-2
1.021211173E1,4.998123646E-2,5.549430847E-2,-8.033382893E-2
1.022010843E1,5.657672882E-2,7.960700989E-2,-9.322476387E-2
1.022813428E1,5.407464504E-2,6.785106659E-2,-4.411387444E-2
1.023612906E1,7.122373581E-2,8.723449707E-2,-1.937448978E-2
1.024412537E1,7.202363014E-2,8.508777618E-2,-1.648843288E-2
1.025212038E1,8.018100262E-2,8.772945404E-2,-1.822233200E-3
1.026011616E1,8.832514286E-2,1.047000885E-1,3.900682926E-2
1.026811147E1,7.456052303E-2,8.565616608E-2,6.770801544E-2
1.027610717E1,1.030602455E-1,7.598304749E-2,1.009531021E-1
1.028413402E1,1.491965055E-1,5.155181885E-2,1.528463364E-1
1.029212965E1,2.193025351E-1,6.010150909E-2,1.492649317E-1
1.030012542E1,2.314939499E-1,1.158151627E-1,2.501784563E-1
1.030812020E1,2.614064217E-1,1.895799637E-1,3.540890217E-1
1.031611552E1,3.013499975E-1,2.307052612E-1,4.666506052E-1
1.032411252E1,3.557671309E-1,2.100381851E-1,5.598720312E-1
1.033210691E1,4.590753317E-1,1.530370712E-1,6.765912771E-1
1.034013438E1,5.187368393E-1,9.338283539E-2,7.646218538E-1
1.034812916E1,4.963438511E-1,5.854320526E-2,7.559137344E-1
1.035612509E1,4.975342751E-1,3.189659119E-2,7.541344166E-1
1.036412025E1,5.058450699E-1,-1.747226715E-2,7.411258221E-1
1.037211587E1,5.069017410E-1,-9.184074402E-2,7.320542336E-1
1.038011196E1,5.699434280E-1,-1.696710587E-1,7.392847538E-1
1.038810758E1,7.249917984E-1,-2.439718246E-1,7.393822670E-1
1.039613313E1,8.495182991E-1,-3.316793442E-1,7.993562222E-1
1.040412914E1,1.036116838E0,-3.803405762E-1,8.476119041E-1
1.041212399E1,1.130841017E0,-3.710689545E-1,8.243796825E-1
1.042012061E1,1.269785643E0,-3.662004471E-1,7.493860722E-1
1.042811570E1,1.358854294E0,-3.875761032E-1,6.970467567E-1
1.043611193E1,1.425388336E0,-4.516458511E-1,5.963442326E-1
1.044410679E1,1.483968019E0,-5.896577835E-1,4.830858707E-1
1.045213203E1,1.504581451E0,-7.583446503E-1,4.386446476E-1
1.046012980E1,1.515323162E0,-9.766225815E-1,3.857431412E-1
1.046812427E1,1.517605543E0,-1.196533203E0,3.687584400E-1
1.047611943E1,1.578988314E0,-1.368990898E0,2.637641430E-1
1.048411506E1,1.607511044E0,-1.441919327E0,2.811391354E-1
1.049211137E1,1.604568958E0,-1.450851440E0,2.990701199E-1
1.050010807E1,1.603362799E0,-1.407944679E0,1.982016563E-1
1.050813292E1,1.526890993E0,-1.361152649E0,1.781795025E-1
1.051612770E1,1.458557844E0,-1.289064407E0,1.368160248E-1
1.052412502E1,1.380437613E0,-1.297502518E0,1.275823116E-1
1.053211972E1,1.342305899E0,-1.333971977E0,1.563286781E-1
1.054011665E1,1.259107590E0,-1.379954338E0,2.095499039E-1
1.054811088E1,1.188917160E0,-1.432938576E0,2.161152363E-1
1.055610597E1,1.189394951E0,-1.476643562E0,1.299769878E-1
1.056413336E1,1.237689018E0,-1.487049103E0,6.585216522E-2
1.057212783E1,1.332258701E0,-1.466650009E0,-2.704930305E-2
1.058012445E1,1.397429943E0,-1.446539879E0,-5.814456940E-2
1.058811915E1,1.474840641E0,-1.438757896E0,-7.375788689E-2
1.059611524E1,1.550534725E0,-1.467616081E0,-1.322250366E-1
1.060411148E1,1.573585987E0,-1.561380863E0,-1.914942265E-1
1.061210625E1,1.579803467E0,-1.643971443E0,-2.186911106E-1
1.062013334E1,1.588536739E0,-1.720363140E0,-2.618591785E-1
1.062812780E1,1.556865215E0,-1.823970795E0,-2.987911701E-1
1.063612358E1,1.553632259E0,-1.885460854E0,-3.541619778E-1
1.064411982E1,1.492078304E0,-1.895357609E0,-3.208656311E-1
1.065211490E1,1.373548985E0,-1.899935246E0,-2.263579369E-1
1.066011099E1,1.227805614E0,-1.929408550E0,-2.681856155E-1
1.066810577E1,1.146150589E0,-1.983941078E0,-2.477145195E-1
1.067613254E1,1.140922546E0,-2.032838345E0,-1.561281681E-1
1.068412816E1,1.229425907E0,-2.093437195E0,-1.265373230E-1
1.069212333E1,1.386090279E0,-2.087019920E0,-1.722078323E-1
1.070011956E1,1.451139927E0,-2.088066578E0,-2.222783566E-1
1.070811442E1,1.518273830E0,-2.039276600E0,-2.839412689E-1
1.071611035E1,1.469660759E0,-1.938489914E0,-2.800717354E-1
1.072410636E1,1.307807922E0,-1.897784710E0,-2.982177734E-1
1.073213167E1,1.097883224E0,-1.849371433E0,-3.020896912E-1
1.074012729E1,9.863142967E-1,-1.933923721E0,-3.106219769E-1
1.074812330E1,1.044586182E0,-2.056182384E0,-3.403618336E-1
1.075611869E1,1.046358109E0,-2.148702145E0,-3.186078072E-1
1.076411470E1,1.045004845E0,-2.193761826E0,-2.041945457E-1
1.077210948E1,1.025603294E0,-2.190351963E0,-1.474759579E-1
1.078010679E1,1.034398079E0,-2.221869230E0,-2.681088448E-2
1.078813111E1,9.887447357E-1,-2.148836374E0,-4.020285606E-2
1.079612765E1,8.185567856E-1,-1.952973127E0,-5.410790443E-2
1.080412343E1,7.121896744E-1,-1.725964069E0,-1.364152431E-1
1.081211844E1,6.803159714E-1,-1.588307381E0,-1.699585915E-1
1.082011506E1,5.837945938E-1,-1.531009436E0,-1.337895393E-1
1.082810991E1,3.986911774E-1,-1.537930012E0,-8.924889565E-2
1.083610561E1,3.973808289E-1,-1.737176180E0,-9.140229225E-2
1.084413116E1,4.303503036E-1,-1.988761306E0,-4.675722122E-2
1.085212740E1,4.386606216E-1,-2.239075661E0,1.857686043E-1
1.086012318E1,4.809408188E-1,-2.400456905E0,3.499662876E-1
1.086811818E1,5.471382141E-1,-2.381184101E0,1.919803619E-1
1.087611388E1,6.123809814E-1,-2.331355572E0,6.039857864E-3
1.088411058E1,6.852931976E-1,-2.199492455E0,-5.426883698E-2
1.089210536E1,6.974420547E-1,-2.093787670E0,-5.450081825E-2
1.090013267E1,6.206722260E-1,-1.938458562E0,-3.077960014E-2
1.090812660E1,6.443014145E-1,-1.880307674E0,-1.010055542E-1
1.091612292E1,6.697978973E-1,-1.921107173E0,-1.694090366E-1
1.092411893E1,6.051244736E-1,-1.935855627E0,-2.473468781E-1
1.093211432E1,6.676197052E-1,-1.983676314E0,-3.054354191E-1
1.094011033E1,6.523017883E-1,-2.080763817E0,-1.939690113E-1
1.094810533E1,5.381116867E-1,-2.123016596E0,-1.787791252E-1
1.095613119E1,2.718114853E-1,-2.083952904E0,-2.007992268E-1
1.096412781E1,-1.527261734E-1,-1.895889997E0,-2.623438835E-1
1.097212166E1,-3.407154083E-1,-1.650160313E0,-3.770890236E-1
1.098011859E1,-3.841314316E-1,-1.325094700E0,-4.539134502E-1
1.098811345E1,-2.755832672E-1,-1.099737048E0,-5.229268074E-1
1.099610946E1,-1.517944336E-1,-8.151080608E-1,-5.685181618E-1
1.100410577E1,3.166294098E-2,-5.664297342E-1,-7.379179001E-1
1.101213093E1,1.879281998E-1,-4.011380672E-1,-8.333009481E-1
1.102012755E1,2.026500702E-1,-2.583551407E-1,-8.470469713E-1
1.102812210E1,1.495161057E-1,-1.860334873E-1,-7.678338289E-1
1.103611811E1,-9.155845642E-2,-1.025021076E-1,-7.814975977E-1
1.104411404E1,-4.726467133E-1,-2.257585526E-3,-7.717782259E-1
1.105210851E1,-9.429426193E-1,7.015156746E-2,-7.780449390E-1
1.106010513E1,-1.312383652E0,1.158821583E-1,-7.508628368E-1
1.106813098E1,-1.455339432E0,5.885004997E-2,-6.169575453E-1
1.107612584E1,-1.549809933E0,1.947450638E-2,-5.537502766E-1
1.108412154E1,-1.723388195E0,-5.151987076E-2,-5.969604254E-1
1.109211778E1,-2.139976978E0,5.101203918E-3,-6.615192890E-1
1.110011501E1,-2.652184010E0,3.733396530E-2,-7.918518782E-1
1.110810894E1,-2.955923080E0,4.443502426E-2,-1.086624384E0
1.111610464E1,-3.178005695E0,1.326799393E-2,-1.113157034E0
1.112412988E1,-3.180015087E0,-1.269783974E-1,-1.071270227E0
1.113212589E1,-3.040796280E0,-2.046656609E-1,-1.050853968E0
1.114012282E1,-2.966358662E0,-3.591609001E-1,-6.954501867E-1
1.114811698E1,-3.002291679E0,-5.271711349E-1,-3.902208805E-1
1.115611353E1,-3.213104725E0,-7.335619926E-1,-3.447580338E-2
1.116410892E1,-3.475853682E0,-9.300713539E-1,2.281022072E-1
1.117213447E1,-3.869062662E0,-1.130450249E0,4.117686749E-1
1.118013109E1,-4.122031212E0,-1.317277431E0,5.692815781E-1
1.118812563E1,-4.371831894E0,-1.417253017E0,6.472301483E-1
1.119612102E1,-4.473945141E0,-1.380202293E0,6.643617153E-1
1.120411796E1,-4.256205559E0,-1.329354286E0,7.727122307E-1
1.121211273E1,-3.735666752E0,-1.217635632E0,5.636441708E-1
1.122010928E1,-3.234390736E0,-1.079949856E0,3.305921555E-1
1.122813459E1,-2.844424009E0,-9.625506401E-1,2.646346092E-1
1.123613022E1,-2.867013454E0,-9.611268044E-1,4.611806870E-1
1.124412622E1,-3.077287436E0,-1.053596020E0,4.986870289E-1
1.125212100E1,-3.317260265E0,-1.208228111E0,5.942583084E-1
1.126011770E1,-3.373656988E0,-1.398970127E0,6.802401543E-1
1.126811248E1,-3.388656139E0,-1.597428799E0,8.882720470E-1
1.127610818E1,-3.312721252E0,-1.735170364E0,9.829490185E-1
1.128413526E1,-3.233064175E0,-1.803483963E0,1.085610151E0
1.129212973E1,-3.295289993E0,-1.730546951E0,1.132234812E0
1.130012666E1,-3.340515852E0,-1.616560936E0,9.630827904E-1
1.130812136E1,-3.248749971E0,-1.478190899E0,8.896307945E-1
1.131611652E1,-2.964062691E0,-1.380533218E0,7.692799568E-1
1.132411307E1,-2.571586847E0,-1.285774708E0,7.707061768E-1
1.133210815E1,-2.325683117E0,-1.195084095E0,8.480713367E-1
1.134013524E1,-2.246696949E0,-1.140245914E0,8.284299374E-1
1.134813009E1,-2.201809883E0,-1.040214539E0,8.708927631E-1
1.135612571E1,-2.092490911E0,-9.211821556E-1,8.806757927E-1
1.136412141E1,-1.992476702E0,-7.139177322E-1,9.746844769E-1
1.137211627E1,-1.872643232E0,-4.786429405E-1,1.107776165E0
1.138011281E1,-1.802341223E0,-2.970676422E-1,1.218472719E0
1.138810736E1,-1.638006210E0,-1.261835098E-1,1.280806541E0
1.139613383E1,-1.532398224E0,-1.903915405E-2,1.307049036E0
1.140413014E1,-1.494318485E0,4.792213440E-2,1.249161243E0
1.141212546E1,-1.516015053E0,-9.433746338E-3,1.174259424E0
1.142012116E1,-1.587433338E0,-1.327209473E-1,1.188706398E0
1.142811655E1,-1.613382578E0,-2.115459442E-1,1.211795092E0
1.143611286E1,-1.732311964E0,-2.310199738E-1,1.248152018E0
1.144410826E1,-2.108941317E0,-2.601871490E-1,1.348047256E0
1.145213380E1,-2.516739607E0,-3.030433655E-1,1.320638895E0
1.146012989E1,-2.722492218E0,-3.609600067E-1,1.125518084E0
1.146812497E1,-2.561529160E0,-3.665447235E-1,9.583909512E-1
1.147612067E1,-2.136962414E0,-3.323917389E-1,9.037415981E-1
1.148411629E1,-1.733967543E0,-2.688503265E-1,8.577713966E-1
1.149211176E1,-1.454115152E0,-1.954593658E-1,8.101398945E-1
1.150010862E1,-1.277868032E0,-1.459417343E-1,7.251317501E-1
1.150813355E1,-1.160455465E0,-1.226472855E-1,5.869481564E-1
1.151612925E1,-1.100611448E0,-7.991409302E-2,4.589006901E-1
1.152412525E1,-1.044514418E0,-7.033634186E-2,2.705121040E-1
1.153212003E1,-1.014623642E0,-6.016063690E-2,1.538047791E-1
1.154011758E1,-9.509651661E-1,-4.233932495E-2,1.184206009E-1
1.154811204E1,-8.635003567E-1,-5.270004272E-2,6.866335869E-2
1.155610751E1,-6.965680122E-1,-6.966209412E-2,1.089110374E-1
1.156413391E1,-5.433952808E-1,-1.313238144E-1,1.952044964E-1
1.157212899E1,-4.138562679E-1,-1.826181412E-1,2.057096958E-1
1.158012600E1,-3.202276230E-1,-2.712240219E-1,2.382769585E-1
1.158812039E1,-2.674021721E-1,-3.084764481E-1,2.663800716E-1
1.159611547E1,-2.434008121E-1,-3.326416016E-1,2.850384712E-1
1.160411187E1,-2.619264126E-1,-2.913141251E-1,3.013660908E-1
1.161210695E1,-3.629260063E-1,-2.806978226E-1,2.989203930E-1
1.162013434E1,-4.975712299E-1,-2.151784897E-1,2.446789742E-1
1.162812935E1,-5.985336304E-1,-1.598072052E-1,2.088298798E-1
1.163612451E1,-6.560804844E-1,-1.385240555E-1,1.768231392E-1
1.164412052E1,-7.274315357E-1,-1.082944870E-1,1.677138805E-1
1.165211522E1,-7.460377216E-1,-1.526613235E-1,1.717448235E-1
1.166011184E1,-7.194118500E-1,-1.732597351E-1,1.743347645E-1
1.166810700E1,-6.506409645E-1,-2.391281128E-1,1.966857910E-1
1.167613286E1,-5.734472275E-1,-2.494983673E-1,2.120845318E-1
1.168412940E1,-5.268199444E-1,-3.022260666E-1,2.610673904E-1
1.169212418E1,-4.915888309E-1,-2.968816757E-1,2.648994923E-1
1.170011988E1,-4.796428680E-1,-2.813577652E-1,2.570166588E-1
1.170811589E1,-4.359364510E-1,-2.389678955E-1,2.184352875E-1
1.171611128E1,-3.271100521E-1,-1.937541962E-1,1.830537319E-1
1.172410675E1,-2.342104912E-1,-1.364326477E-1,1.320846081E-1
1.173213291E1,-1.736693382E-1,-8.395004272E-2,8.722996712E-2
1.174012922E1,-1.700534821E-1,-4.123878479E-2,4.700708389E-2
1.174812400E1,-1.825029850E-1,-1.070213318E-2,2.083992958E-2
1.175611901E1,-1.912832260E-1,-1.856613159E-2,2.705979347E-2
1.176411632E1,-2.317409515E-1,-2.887725830E-2,3.392744064E-2
1.177211041E1,-1.492779255E-1,-1.994800568E-2,-1.090764999E-3
1.178010765E1,-9.237861633E-2,2.021408081E-2,1.297163963E-2
1.178813235E1,-1.124284267E-1,1.559133530E-1,3.509688377E-2
1.179612889E1,-1.867427826E-1,2.742490768E-1,5.082583427E-2
1.180412459E1,-3.138127327E-1,3.079061508E-1,7.626533508E-2
1.181211975E1,-4.183738232E-1,3.069467545E-1,7.750988007E-2
1.182011599E1,-4.836211205E-1,2.619161606E-1,9.733271599E-2
1.182811108E1,-5.310373306E-1,1.608877182E-1,8.292603493E-2
1.183610677E1,-4.882135391E-1,6.657981873E-2,2.041149139E-2
1.184413332E1,-3.565280437E-1,-3.174781799E-2,3.691768646E-2
1.185212779E1,-2.388010025E-1,-9.301853180E-2,-1.975274086E-2
1.186012495E1,-1.278069019E-1,-9.331989288E-2,-2.750754356E-2
1.186811911E1,-7.520723343E-2,-9.146690369E-3,-6.038045883E-2
1.187611512E1,-2.982759476E-2,8.023643494E-2,-8.977723122E-2
1.188411090E1,-5.299854279E-2,1.410999298E-1,-1.303415298E-1
1.189210629E1,-1.337349415E-1,1.826772690E-1,-1.345610619E-1
1.190013306E1,-1.996624470E-1,1.282777786E-1,-1.075062752E-1
1.190812723E1,-2.505977154E-1,6.655216217E-2,-1.045720577E-1
1.191612408E1,-1.964175701E-1,-2.375221252E-2,-1.042070389E-1
1.192411916E1,-8.881139755E-2,-1.349020004E-1,-8.500981331E-2
1.193211486E1,-3.096795082E-2,-2.189464569E-1,-4.693698883E-2
1.194011156E1,8.037209511E-2,-2.066679001E-1,-3.281331062E-2
1.194813680E1,2.048070431E-1,-2.012071609E-1,-1.607203484E-2
1.195613189E1,3.218913078E-1,-1.837453842E-1,-1.598906517E-2
1.196412851E1,3.657591343E-1,-1.163396835E-1,3.434252739E-2
1.197212298E1,2.907514572E-1,-7.797527313E-2,7.036876678E-2
1.198011899E1,1.539063454E-1,-4.696559906E-2,1.112694740E-1
1.198811461E1,6.544685364E-2,-2.342033386E-2,7.823300362E-2
1.199611039E1,-1.768445969E-2,-1.928424835E-2,6.692647934E-2
1.200413678E1,-8.609962463E-2,-2.263641357E-2,3.933668137E-2
1.201213163E1,-1.307959557E-1,-5.707359314E-2,5.496668816E-2
1.202012941E1,-1.302931309E-1,-5.776309967E-2,1.325333118E-1
1.202812326E1,-6.824302673E-2,-5.569267273E-2,1.954517365E-1
1.203611904E1,7.425570488E-2,-1.735877991E-2,1.889326572E-1
1.204411474E1,2.589683533E-1,3.086948395E-2,1.776349545E-1
1.205210982E1,3.953974247E-1,8.399581909E-2,1.568739414E-1
1.206010737E1,4.861879349E-1,1.300296783E-1,9.533667564E-2
1.206813161E1,4.887573719E-1,2.025117874E-1,7.868194580E-2
1.207612708E1,4.393463135E-1,2.271690369E-1,6.123757362E-2
1.208412393E1,3.311839104E-1,2.014675140E-1,5.494403839E-2
1.209211817E1,2.602405548E-1,1.779451370E-1,2.488851547E-3
1.210011479E1,1.357505322E-1,1.588029861E-1,-1.442027092E-2
1.210810987E1,8.443903923E-2,1.704301834E-1,-2.689456940E-2
1.211610588E1,3.648781776E-2,1.937332153E-1,-4.670047760E-2
1.212413112E1,5.383181572E-2,3.030853271E-1,-6.196045876E-2
1.213212736E1,1.309487820E-1,3.838005066E-1,-1.180880070E-1
1.214012344E1,1.816744804E-1,4.311075211E-1,-1.624841690E-1
1.214811814E1,1.918890476E-1,4.639987946E-1,-2.021398544E-1
1.215611415E1,1.978194714E-1,4.560565948E-1,-2.036263943E-1
1.216411016E1,2.090125084E-1,3.977813721E-1,-1.958351135E-1
1.217213578E1,1.707396507E-1,2.532958984E-1,-1.432883739E-1
1.218013209E1,1.262137890E-1,1.064405441E-1,-1.252057552E-1
1.218812749E1,5.866456032E-2,-1.641082764E-2,-9.617662430E-2
1.219612280E1,-5.841708183E-2,-9.843540192E-2,-8.015966415E-2
1.220411889E1,-1.316399574E-1,-1.324691772E-1,-4.359030724E-2
1.221211389E1,-2.260694504E-1,-1.279268265E-1,-1.041793823E-2
1.222010990E1,-3.227491379E-1,-1.063356400E-1,3.144621849E-2
1.222813552E1,-4.529371262E-1,-1.061477661E-1,7.055997849E-2
1.223613122E1,-5.231406689E-1,-1.155920029E-1,7.619476318E-2
1.224412723E1,-5.446565151E-1,-1.372070312E-1,8.163428307E-2
1.225212201E1,-5.389831066E-1,-1.925888062E-1,7.737779617E-2
1.226011886E1,-5.159680843E-1,-2.337989807E-1,4.918694496E-2
1.226811341E1,-4.904053211E-1,-2.679529190E-1,4.456996918E-3
1.227610911E1,-5.009570122E-1,-2.758502960E-1,-2.548909187E-2
1.228413558E1,-4.905934334E-1,-3.005809784E-1,-8.575654030E-2
1.229213058E1,-4.575569630E-1,-2.654323578E-1,-1.401262283E-1
1.230012751E1,-3.951499462E-1,-2.182588577E-1,-2.050046921E-1
1.230812175E1,-2.821180820E-1,-1.612873077E-1,-2.159316540E-1
1.231611745E1,-1.877892017E-1,-1.087770462E-1,-1.996111870E-1
1.232411438E1,-9.971761703E-2,-4.401111603E-2,-1.539795399E-1
1.233210854E1,-6.735134125E-2,-5.401611328E-3,-1.441407204E-1
1.234013555E1,-8.758354187E-2,-1.697826385E-2,-1.322159767E-1
1.234813071E1,-1.649122238E-1,-8.590698242E-2,-8.977389336E-2
1.235612641E1,-2.391114235E-1,-1.309995651E-1,-9.081602097E-2
1.236412296E1,-2.745678425E-1,-2.191066742E-1,-7.091426849E-2
1.237211743E1,-2.478306293E-1,-2.376651764E-1,-5.843925476E-2
1.238011436E1,-2.356274128E-1,-2.514991760E-1,-4.325628281E-2
1.238810860E1,-2.805149555E-1,-1.579656601E-1,-5.857181549E-2
1.239613476E1,-2.888436317E-1,-3.391456604E-2,-8.727455139E-2
1.240413138E1,-1.989717484E-1,4.424095154E-2,-1.269383430E-1
1.241212608E1,-1.332919598E-1,9.095096588E-2,-1.559727192E-1
1.242012278E1,-1.060273647E-1,8.463478088E-2,-1.744155884E-1
1.242811748E1,-7.391357422E-2,6.364440918E-2,-1.849346161E-1
1.243611233E1,-8.698701859E-2,7.344245911E-2,-1.948504448E-1
1.244410896E1,-1.567897797E-1,9.232616425E-2,-1.849918365E-1
1.245213473E1,-2.444570065E-1,1.631374359E-1,-1.767437458E-1
1.246013136E1,-3.021245003E-1,2.068071365E-1,-1.579482555E-1
1.246812590E1,-3.084185123E-1,2.234764099E-1,-1.527535915E-1
1.247612129E1,-2.449929714E-1,2.660856247E-1,-1.563234329E-1
1.248411822E1,-1.792926788E-1,2.964191437E-1,-1.613397598E-1
1.249211292E1,-1.451745033E-1,3.170833588E-1,-1.824128628E-1
1.250010932E1,-5.748152733E-2,3.527011871E-1,-1.581499577E-1
1.250813455E1,-2.830410004E-2,3.649158478E-1,-1.391034126E-1
1.251612987E1,4.776477814E-3,3.969030380E-1,-1.136865616E-1
1.252412657E1,2.989268303E-2,3.769502640E-1,-8.469009399E-2
1.253212127E1,4.739093781E-2,3.744907379E-1,-4.766535759E-2
1.254011789E1,9.095931053E-2,3.630733490E-1,-1.683378220E-2
1.254811236E1,1.035540104E-1,3.521184921E-1,1.741695404E-2
1.255610868E1,8.782243729E-2,3.724908829E-1,4.117655754E-2
1.256413430E1,2.965211868E-2,4.047784805E-1,5.012440681E-2
1.257212992E1,-8.647203445E-3,3.770980835E-1,2.759933472E-2
1.258012570E1,-5.828094482E-2,3.540344238E-1,2.171325684E-2
1.258812109E1,-9.316372871E-2,3.260107040E-1,3.749179840E-2
1.259611640E1,-1.491141319E-1,2.642736435E-1,2.941131592E-2
1.260411334E1,-1.782882214E-1,2.024240494E-1,2.603793144E-2
1.261210757E1,-1.690764427E-1,1.740951538E-1,3.934526443E-2
1.262013496E1,-1.553711891E-1,1.721954346E-1,2.155756950E-2
1.262813028E1,-8.970117569E-2,1.777114868E-1,1.337146759E-2
1.263612575E1,5.357313156E-2,1.860914230E-1,-2.832245827E-2
1.264412083E1,1.667671204E-1,1.972970963E-1,-6.756544113E-2
1.265211653E1,2.789735794E-1,1.657552719E-1,-9.726977348E-2
1.266011285E1,3.429443836E-1,1.223278046E-1,-1.484334469E-1
1.266810786E1,3.395199776E-1,3.106403351E-2,-1.610929966E-1
1.267613402E1,3.089823723E-1,-1.699733734E-2,-1.805133820E-1
1.268412972E1,2.632129192E-1,-4.335117340E-2,-1.756243706E-1
1.269212542E1,3.000421524E-1,-3.114032745E-2,-1.751286983E-1
1.270012119E1,3.003599644E-1,2.195072174E-2,-1.218891144E-1
1.270811620E1,3.075232506E-1,2.969169617E-2,-1.165921688E-1
1.271611229E1,3.262629509E-1,3.040885925E-2,-9.938216209E-2
1.272410799E1,2.900781631E-1,2.882671356E-2,-8.015847206E-2
1.273213345E1,2.307393551E-1,4.640674591E-2,-5.688500404E-2
1.274013008E1,1.960763931E-1,2.333164215E-2,-4.878020287E-2
1.274812555E1,2.332689762E-1,-2.117061615E-2,-6.018352509E-2
1.275612063E1,2.865912914E-1,-7.020950317E-2,-5.970644951E-2
1.276411718E1,3.367438316E-1,-7.114791870E-2,-5.669927597E-2
1.277211195E1,3.623306751E-1,-6.466865540E-2,-1.782965660E-2
1.278010765E1,3.161118031E-1,-6.533050537E-2,-3.020763397E-3
1.278813328E1,2.726640701E-1,-5.171680450E-2,-2.422618866E-2
1.279612982E1,2.324666977E-1,-6.224822998E-2,4.604816437E-3
1.280412498E1,1.812777519E-1,-9.461307526E-2,-1.458024979E-2
1.281212061E1,1.290962696E-1,-1.009960175E-1,-1.257705688E-2
1.282011600E1,1.070163250E-1,-1.077661514E-1,3.561973572E-3
1.282811170E1,9.100723267E-2,-6.709671021E-2,-1.621222496E-2
1.283610771E1,6.464743614E-2,-3.176879883E-2,-1.684761047E-2
1.284413333E1,6.471633911E-3,2.929115295E-2,-1.983332634E-2
1.285212926E1,-2.473831177E-3,1.042041779E-1,-3.704118729E-2
1.286012627E1,3.010725975E-2,1.524829865E-1,-3.504729271E-2
1.286812012E1,1.343564987E-1,1.097278595E-1,-3.514075279E-2
1.287611551E1,2.381043434E-1,8.853149414E-2,-3.957033157E-2
1.288411152E1,2.956714630E-1,5.065441132E-2,-3.398704529E-2
1.289210745E1,3.543865681E-1,-3.961086273E-2,-3.519463539E-2
1.290013369E1,3.894371986E-1,-8.855628967E-2,-2.595901489E-3
1.290812816E1,3.844380379E-1,-1.010274887E-1,2.529740334E-2
1.291612532E1,3.239090443E-1,-3.434371948E-2,2.210307121E-2
1.292411979E1,2.783117294E-1,3.518104553E-3,7.130217552E-2
1.293211579E1,2.362520695E-1,5.307483673E-2,1.249809265E-1
1.294011219E1,1.478688717E-1,4.711437225E-2,1.497118473E-1
1.294810750E1,1.206016541E-1,1.206493378E-2,1.383435726E-1
1.295613312E1,9.202194214E-2,-4.468917847E-2,1.527409554E-1
1.296412936E1,1.186072826E-1,-9.891986847E-2,1.331846714E-1
1.297212422E1,1.997714043E-1,-4.982376099E-2,1.417851448E-1
1.298012084E1,1.924753189E-1,1.130676270E-2,1.501076221E-1
1.298811523E1,1.478610039E-1,1.105175018E-1,1.701188087E-1
1.299611093E1,1.499006748E-1,1.518402100E-1,1.279911995E-1
1.300410725E1,1.455929279E-1,1.450777054E-1,1.359465122E-1
1.301213218E1,1.636202335E-1,1.213932037E-1,1.340665817E-1
1.302012942E1,1.229674816E-1,1.117362976E-1,1.009423733E-1
1.302812419E1,5.037212372E-2,1.160469055E-1,7.948541641E-2
1.303611897E1,2.231764793E-2,1.199874878E-1,6.017231941E-2
1.304411651E1,-1.401042938E-2,2.265529633E-1,3.824520111E-2
1.305211044E1,-4.919219017E-2,3.114290237E-1,8.278894424E-2
1.306013807E1,-8.569908142E-2,3.459577560E-1,9.553265572E-2
1.306813261E1,-1.311056614E-1,3.255863190E-1,1.121077538E-1
1.307612854E1,-9.237551689E-2,2.863407135E-1,9.420633316E-2
1.308412486E1,-3.674364090E-2,2.139005661E-1,9.935474396E-2
1.309211964E1,-4.071807861E-2,2.039337158E-1,1.325223446E-1
1.310011595E1,-5.674767494E-2,1.774911880E-1,1.411643028E-1
1.310811111E1,-5.614042282E-2,1.656751633E-1,1.373538971E-1
1.311610643E1,-7.511734962E-2,1.875982285E-1,1.070861816E-1
1.312413267E1,-7.543396950E-2,2.337331772E-1,5.267429352E-2
1.313212836E1,-1.583290100E-2,1.818065643E-1,2.438282967E-2
1.314012437E1,4.632711411E-2,1.346664429E-1,8.599758148E-4
1.314811915E1,8.982872963E-2,8.019828796E-2,3.729200363E-2
1.315611454E1,6.692051888E-2,-5.501747131E-3,9.038519859E-2
1.316411047E1,5.414104462E-2,-1.127939224E-1,1.241230965E-1
1.317213694E1,4.849195480E-2,-1.815176010E-1,1.597363949E-1
1.318013395E1,2.367496490E-2,-2.212085724E-1,1.851208210E-1
1.318812780E1,1.799464226E-2,-2.247228622E-1,1.548893452E-1
1.319612381E1,5.024194717E-3,-2.207860947E-1,1.433281898E-1
1.320412005E1,-5.536484718E-2,-1.834383011E-1,9.352684021E-2
1.321211459E1,-1.556558609E-1,-1.584711075E-1,3.955292702E-2
1.322011091E1,-2.426407337E-1,-1.675958633E-1,-3.531503677E-2
1.322813676E1,-3.408055305E-1,-1.866798401E-1,-8.567094803E-2
1.323613185E1,-3.838031292E-1,-2.250509262E-1,-9.967660904E-2
1.324412847E1,-4.706146717E-1,-2.705268860E-1,-1.084210873E-1
1.325212263E1,-4.983282089E-1,-3.422060013E-1,-1.599252224E-1
1.326012010E1,-5.099581480E-1,-3.851203918E-1,-1.534512043E-1
1.326811434E1,-4.768415689E-1,-3.633375168E-1,-1.440787315E-1
1.327610996E1,-4.277088642E-1,-2.722120285E-1,-1.721663475E-1
1.328413620E1,-3.481736183E-1,-1.716794968E-1,-1.896500587E-1
1.329213213E1,-2.978713512E-1,-7.851219177E-2,-2.253952026E-1
1.330012821E1,-2.714972496E-1,4.289817810E-2,-2.454490662E-1
1.330812353E1,-3.017568588E-1,1.013135910E-1,-2.544887066E-1
1.331611838E1,-3.594779968E-1,1.395721436E-1,-2.832593918E-1
1.332411554E1,-3.969248533E-1,1.219024658E-1,-2.649545670E-1
1.333211009E1,-4.192045927E-1,6.052017212E-2,-2.694067955E-1
1.334013679E1,-4.290081263E-1,3.940105438E-2,-2.537667751E-1
1.334813126E1,-4.551894665E-1,5.621242523E-2,-2.492289543E-1
1.335612696E1,-4.262771606E-1,9.418010712E-2,-2.698848248E-1
1.336412366E1,-4.045426846E-1,1.437273026E-1,-2.534563541E-1
1.337211843E1,-3.571276665E-1,1.882658005E-1,-2.478566170E-1
1.338011560E1,-3.036087751E-1,2.255821228E-1,-2.293605804E-1
1.338811006E1,-2.469774485E-1,1.987314224E-1,-1.941735744E-1
1.339613630E1,-1.993073225E-1,1.940450668E-1,-1.617798805E-1
1.340413231E1,-1.776982546E-1,1.233491898E-1,-1.211135387E-1
1.341212732E1,-1.627615690E-1,9.432125092E-2,-8.416819572E-2
1.342012371E1,-1.522036791E-1,3.993225098E-2,-8.206033707E-2
1.342811818E1,-1.291373968E-1,-2.305793762E-2,-8.137345314E-2
1.343611380E1,-1.361008883E-1,-6.143951416E-2,-1.008079052E-1
1.344410989E1,-8.708548546E-2,-9.192657471E-2,-1.068565845E-1
1.345213566E1,-7.007789612E-2,-3.818702698E-2,-1.254775524E-1
1.346013205E1,-1.062254906E-1,-1.281929016E-2,-1.040513515E-1
1.346812706E1,-1.211324930E-1,2.003288269E-2,-9.041547775E-2
1.347612184E1,-1.125965118E-1,2.455139160E-2,-3.443479538E-2
1.348411846E1,-1.522874832E-1,7.362365723E-4,3.946065903E-3
1.349211455E1,-1.921521425E-1,-2.519512177E-2,1.536774635E-2
1.350011017E1,-1.844686270E-1,-6.764316559E-2,2.874445915E-2
1.350813610E1,-2.176938057E-1,-1.219005585E-1,3.943133354E-2
1.351613172E1,-2.248258591E-1,-1.472339630E-1,3.538870811E-2
1.352412742E1,-1.752369404E-1,-1.795110703E-1,4.551839828E-2
1.353212228E1,-1.669872999E-1,-1.637544632E-1,5.640983582E-4
1.354011951E1,-9.969401360E-2,-9.519481659E-2,-3.467965126E-2
1.354811329E1,-7.344961166E-2,-7.418632507E-3,-5.312776566E-2
1.355610930E1,-2.113401890E-2,7.799720764E-2,-6.193113327E-2
1.356413615E1,9.384155273E-3,1.394557953E-1,-8.969593048E-2
1.357213054E1,4.938185215E-2,1.266422272E-1,-9.332299232E-2
1.358012755E1,8.698320389E-2,9.936618805E-2,-1.110613346E-1
1.358812133E1,1.104835272E-1,9.101200104E-2,-1.091885567E-1
1.359611734E1,4.826366901E-2,7.044601440E-2,-8.062243462E-2
1.360411427E1,-7.087874413E-2,7.357788086E-2,-3.497195244E-2
1.361210820E1,-1.346442699E-1,7.176303864E-2,1.336812973E-3
1.362013582E1,-2.316575050E-1,1.152877808E-1,7.379293442E-2
1.362813090E1,-2.564408779E-1,1.538286209E-1,1.297650337E-1
1.363612630E1,-3.185939789E-1,1.896514893E-1,1.716828346E-1
1.364412176E1,-3.314884901E-1,2.442731857E-1,1.993722916E-1
1.365211716E1,-3.429074287E-1,2.531728745E-1,1.909160614E-1
1.366011470E1,-3.244076967E-1,2.474813461E-1,1.752080917E-1
1.366810886E1,-2.886862755E-1,1.747579575E-1,1.472604275E-1
1.367613472E1,-2.907888889E-1,6.620883942E-2,1.451766491E-1
1.368413065E1,-2.383682728E-1,-3.487014771E-2,1.091525555E-1
1.369212581E1,-9.709846973E-2,-1.402683258E-1,6.592392921E-2
1.370012205E1,3.438889980E-2,-1.972961426E-1,1.042952538E-1
1.370811775E1,6.366813183E-2,-2.156810760E-1,1.929967403E-1
1.371611229E1,5.896306038E-2,-2.122430801E-1,3.219535351E-1
1.372410892E1,6.366491318E-2,-1.747913361E-1,4.090304375E-1
1.373213477E1,7.777142525E-2,-1.413068771E-1,4.917125702E-1
1.374013101E1,5.613744259E-2,-1.115646362E-1,5.692465305E-1
1.374812555E1,3.497397900E-2,-1.095457077E-1,5.841288567E-1
1.375612095E1,-2.118098736E-2,-8.798980713E-2,5.137882233E-1
1.376411749E1,-9.736382961E-2,-6.921482086E-2,4.268896580E-1
1.377211196E1,-2.196505070E-1,-6.189346313E-3,2.799499035E-1
1.378010866E1,-3.265825510E-1,8.818721771E-2,5.895090103E-2
1.378813474E1,-3.430459499E-1,2.378330231E-1,-1.562702656E-1
1.379612990E1,-2.590063810E-1,4.049825668E-1,-4.282755852E-1
1.380412676E1,-7.735240459E-2,5.501146317E-1,-5.634329319E-1
1.381212092E1,1.907821894E-1,6.303758621E-1,-6.681270599E-1
1.382011793E1,4.480998516E-1,5.878705978E-1,-7.201609612E-1
1.382811324E1,5.768263340E-1,5.493392944E-1,-6.518166065E-1
1.383610810E1,4.604350328E-1,4.744720459E-1,-5.171599388E-1
1.384413487E1,2.985076904E-1,4.355831146E-1,-3.969049454E-1
1.385212996E1,5.138504505E-2,4.594860077E-1,-2.665355206E-1
1.386012650E1,-1.282896996E-1,5.008153915E-1,-1.763603687E-1
1.386812136E1,-2.771769762E-1,4.973058701E-1,-9.959888458E-2
1.387611698E1,-2.816714048E-1,4.778156281E-1,-3.107786179E-2
1.388411337E1,-2.306857109E-1,3.705911636E-1,1.245212555E-2
1.389210776E1,-8.401918411E-2,1.858034134E-1,9.196281433E-2
1.390013493E1,4.947423935E-3,-4.746627808E-2,1.731004715E-1
1.390812901E1,1.200754642E-1,-3.529911041E-1,2.841336727E-1
1.391612509E1,2.243020535E-1,-5.925121307E-1,3.900566101E-1
1.392412110E1,3.148944378E-1,-8.095664978E-1,4.549071789E-1
1.393211649E1,3.435461521E-1,-9.669528008E-1,4.875457287E-1
1.394011273E1,3.522105217E-1,-1.030674934E0,4.635317326E-1
1.394813835E1,3.473558426E-1,-1.008063316E0,4.723937511E-1
1.395613367E1,3.067457676E-1,-9.012336731E-1,5.043225288E-1
1.396412998E1,2.113754749E-1,-7.393760681E-1,4.598498344E-1
1.397212538E1,1.045105457E-1,-5.424318314E-1,2.929847240E-1
1.398012169E1,2.865791321E-2,-4.064340591E-1,1.674940586E-1
1.398811647E1,-1.382136345E-2,-2.647886276E-1,3.656768799E-2
1.399611186E1,-6.305694580E-2,-1.859416962E-1,-8.711361885E-2
1.400410856E1,-9.064030647E-2,-1.455602646E-1,-2.187590599E-1
1.401213349E1,-8.509206772E-2,-1.717338562E-1,-3.309347630E-1
1.402012973E1,-1.063978672E-1,-1.417188644E-1,-4.179530144E-1
1.402812458E1,-1.663935184E-1,-1.243238449E-1,-4.742395878E-1
1.403612051E1,-1.763994694E-1,-1.288042068E-1,-5.437474251E-1
1.404411629E1,-1.335911751E-1,-2.007217407E-1,-5.978198051E-1
1.405211191E1,-2.388644218E-2,-3.207340240E-1,-5.481557846E-1
1.406013930E1,1.500761509E-1,-3.425140381E-1,-4.024794102E-1
1.406813416E1,3.643693924E-1,-4.141397476E-1,-1.928420067E-1
1.407612978E1,4.897670746E-1,-4.832677841E-1,-4.633426666E-3
1.408412464E1,5.347476006E-1,-5.975294113E-1,1.503093243E-1
1.409212033E1,4.601240158E-1,-6.652908325E-1,2.350320816E-1
1.410011719E1,3.430116177E-1,-7.698783875E-1,2.575683594E-1
1.410811112E1,3.223752975E-1,-7.843351364E-1,2.153167725E-1
1.411613720E1,3.196098804E-1,-7.231903076E-1,1.682803631E-1
1.412413390E1,2.786691189E-1,-5.897464752E-1,1.177887917E-1
1.413212953E1,1.767771244E-1,-5.041484833E-1,7.127141953E-2
1.414012561E1,7.694625854E-2,-4.860296249E-1,1.019287109E-2
1.414811977E1,-1.351928711E-2,-4.780435562E-1,-1.979351044E-2
1.415611601E1,-4.724359512E-2,-4.968242645E-1,-6.416821480E-2
1.416411148E1,-1.297063828E-1,-4.847249985E-1,-5.150437355E-2
1.417213695E1,-2.538356781E-1,-4.751329422E-1,-3.716158867E-2
1.418013480E1,-3.387565613E-1,-4.726028442E-1,-2.134609222E-2
1.418812835E1,-4.206128120E-1,-4.482231140E-1,-1.633024216E-2
1.419612505E1,-5.185317993E-1,-4.643182755E-1,-6.026005745E-2
1.420411975E1,-6.156733036E-1,-4.586133957E-1,-9.581255913E-2
1.421211545E1,-6.140465736E-1,-4.456586838E-1,-1.630756855E-1
1.422011184E1,-5.764052868E-1,-4.302616119E-1,-2.160999775E-1
1.422813738E1,-5.483958721E-1,-4.244451523E-1,-2.187128067E-1
1.423613270E1,-5.231256485E-1,-4.353170395E-1,-2.019932270E-1
1.424412940E1,-5.175726414E-1,-4.579582214E-1,-1.493260860E-1
1.425212387E1,-5.364632607E-1,-4.852056503E-1,-8.943653107E-2
1.426012041E1,-5.368978977E-1,-5.291175842E-1,-9.136199951E-2
1.426811558E1,-5.854935646E-1,-4.749259949E-1,-1.143512726E-1
1.427611058E1,-5.762867928E-1,-3.324251175E-1,-1.344201565E-1
1.428413828E1,-5.804014206E-1,-1.524095535E-1,-1.556482315E-1
1.429213314E1,-5.658066273E-1,4.788398743E-2,-1.560633183E-1
1.430012976E1,-4.648053646E-1,2.320413589E-1,-1.613135338E-1
1.430812392E1,-3.705849648E-1,3.641090393E-1,-1.259868145E-1
1.431611985E1,-2.885000706E-1,4.227619171E-1,-6.933259964E-2
1.432411624E1,-2.502014637E-1,4.347362518E-1,-3.875255585E-3
1.433211040E1,-1.665012836E-1,3.532238007E-1,6.200194359E-2
1.434013772E1,-9.946227074E-2,1.579818726E-1,1.220581532E-1
1.434813250E1,2.312994003E-2,-4.212188721E-2,2.206373215E-1
1.435612889E1,1.493833065E-1,-2.869300842E-1,3.138930798E-1
1.436412397E1,2.174572945E-1,-4.420003891E-1,4.075403214E-1
1.437211936E1,2.637631893E-1,-5.154495239E-1,4.919939041E-1
1.438011537E1,2.664620876E-1,-4.933242798E-1,5.162463188E-1
1.438811100E1,2.828457355E-1,-4.784507751E-1,4.946184158E-1
1.439613662E1,3.357968330E-1,-5.260076523E-1,4.716472626E-1
1.440413232E1,3.702421188E-1,-6.386256218E-1,4.457411766E-1
1.441212832E1,3.914134502E-1,-7.422852516E-1,4.219720364E-1
1.442012402E1,3.427040577E-1,-7.966513634E-1,3.838689327E-1
1.442811934E1,2.370352745E-1,-8.881058693E-1,3.933813572E-1
1.443611481E1,8.504033089E-2,-9.378786087E-1,4.142434597E-1
1.444411082E1,-5.069470406E-2,-1.015584946E0,4.442319870E-1
1.445213629E1,-2.350018024E-1,-1.102066517E0,4.907734394E-1
1.446013298E1,-3.770768642E-1,-1.137667179E0,5.545902252E-1
1.446812807E1,-5.279734135E-1,-1.234924793E0,6.126525402E-1
1.447612338E1,-6.908102036E-1,-1.283760548E0,6.731522083E-1
1.448411947E1,-9.627807140E-1,-1.375224113E0,6.876740456E-1
1.449211417E1,-1.245109558E0,-1.437374115E0,6.461963654E-1
1.450011018E1,-1.550318003E0,-1.469305992E0,6.053519249E-1
1.450813703E1,-1.777707338E0,-1.532099724E0,5.656616688E-1
1.451613211E1,-1.914285421E0,-1.628954887E0,5.632183552E-1
1.452412812E1,-2.108198404E0,-1.824308395E0,5.309083462E-1
1.452812536E1,-2.307249069E0,-1.878089905E0,5.476105213E-1
1.453010866E1,-2.379075050E0,-1.935550690E0,5.308511257E-1
1.453212351E1,-2.410199642E0,-1.993011475E0,5.260627270E-1
1.454012006E1,-2.778180599E0,-2.136611462E0,5.920243263E-1
1.454811460E1,-3.152450085E0,-2.235499859E0,5.998575687E-1
1.455611023E1,-3.477430582E0,-2.233232498E0,5.886526108E-1
1.456413647E1,-3.801479340E0,-2.214889050E0,5.415303707E-1
1.457213217E1,-4.108258247E0,-2.136251450E0,5.879604816E-1
1.458012848E1,-4.445795059E0,-2.113803864E0,6.378314495E-1
1.458812264E1,-4.784115314E0,-2.182021618E0,6.783416271E-1
1.459611827E1,-5.021003246E0,-2.319332600E0,7.509872913E-1
1.460411404E1,-5.188791275E0,-2.606596470E0,7.555599213E-1
1.461210997E1,-5.243839264E0,-2.815476418E0,7.313041687E-1
1.462013683E1,-5.106993675E0,-3.065677643E0,6.199550629E-1
1.462813214E1,-4.841024399E0,-3.208575010E0,5.169880390E-1
1.463612753E1,-4.486464500E0,-3.237463951E0,3.594861031E-1
1.464412354E1,-3.978917122E0,-3.241189718E0,2.087070942E-1
1.465211801E1,-3.444096327E0,-3.169238329E0,1.218841076E-1
1.466011494E1,-2.719939232E0,-3.122573376E0,2.564954758E-2
1.466810941E1,-2.111896515E0,-3.087146997E0,1.287627220E-2
1.467613588E1,-1.496120453E0,-3.047401428E0,-3.985977173E-2
1.468413189E1,-1.046381950E0,-3.066130877E0,-1.029045582E-1
1.469212735E1,-7.595338821E-1,-3.064502239E0,-2.550017834E-1
1.470012359E1,-2.878789902E-1,-3.116814852E0,-5.531482697E-1
1.470811814E1,1.625986099E-1,-3.210457802E0,-8.620733023E-1
1.471611384E1,6.846380234E-1,-3.257613182E0,-1.120115280E0
1.472410985E1,1.099829674E0,-3.424152136E0,-1.381121874E0
1.473213501E1,1.350981712E0,-3.501905918E0,-1.535712600E0
1.474013232E1,1.505787849E0,-3.596705198E0,-1.564438939E0
1.474812702E1,1.828614235E0,-3.641783476E0,-1.630424500E0
1.475612241E1,2.411717415E0,-3.730485439E0,-1.595933080E0
1.476411819E1,2.800585747E0,-3.720021248E0,-1.358638167E0
1.477211420E1,2.972275734E0,-3.621581078E0,-1.312906981E0
1.478010990E1,2.850032806E0,-3.402856350E0,-1.236853004E0
1.478813514E1,2.526452065E0,-3.198801041E0,-1.211176753E0
1.479613137E1,2.007232666E0,-3.054380178E0,-1.258278012E0
1.480412777E1,1.446878433E0,-2.835816383E0,-1.355781555E0
1.481212216E1,7.838459015E-1,-2.692790508E0,-1.466420412E0
1.482011909E1,3.945264816E-1,-2.574330091E0,-1.546818018E0
1.482811333E1,3.788490295E-1,-2.499269724E0,-1.531912565E0
1.483610933E1,7.708301544E-1,-2.548158646E0,-1.518956780E0
1.484413542E1,1.326507568E0,-2.655568123E0,-1.461312890E0
1.485213089E1,1.631078720E0,-2.810628653E0,-1.363406658E0
1.486012689E1,1.586665154E0,-2.974864006E0,-1.265521526E0
1.486812167E1,1.333957672E0,-3.022755623E0,-1.174838185E0
1.487611799E1,8.922052383E-1,-3.059926987E0,-1.074566364E0
1.488411399E1,5.594320297E-1,-3.048956871E0,-1.136691093E0
1.489210969E1,2.740993500E-1,-2.978519917E0,-1.143625975E0
1.490013616E1,1.490020752E-1,-2.833376646E0,-1.098722816E0
1.490813063E1,1.118631363E-1,-2.714558840E0,-1.075759411E0
1.491612595E1,1.567916870E-1,-2.551470757E0,-7.670663595E-1
1.492412234E1,5.265178680E-1,-2.518816233E0,-6.731553078E-1
1.493211858E1,1.059625626E0,-2.611330986E0,-5.499603748E-1
1.494011428E1,1.324660301E0,-2.663935661E0,-4.806919098E-1
1.494810844E1,1.319155693E0,-2.685455322E0,-6.031968594E-1
1.495613529E1,1.172530174E0,-2.622217655E0,-4.971499443E-1
1.496413184E1,9.932241440E-1,-2.513464451E0,-4.608423710E-1
1.497212577E1,8.849797249E-1,-2.398582935E0,-3.613893986E-1
1.498012178E1,8.248801231E-1,-2.271334171E0,-3.816754818E-1
1.498811740E1,7.235379219E-1,-2.156389236E0,-4.276690483E-1
1.499611318E1,6.797442436E-1,-2.038250923E0,-4.872739315E-1
1.500410980E1,5.927166939E-1,-1.959891796E0,-5.860826969E-1
1.501213442E1,4.621171951E-1,-1.904685497E0,-5.679757595E-1
1.502013158E1,5.272316933E-1,-1.920627117E0,-6.484458447E-1
1.502812551E1,6.772656441E-1,-1.996051311E0,-5.346660614E-1
1.503612152E1,9.687314034E-1,-2.097712517E0,-3.834519386E-1
1.504411807E1,1.319418430E0,-2.244534969E0,-3.056473732E-1
1.505211292E1,1.476481915E0,-2.261964798E0,-2.666039467E-1
1.506014024E1,1.374475956E0,-2.157113552E0,-2.517576218E-1
1.506813501E1,1.150432587E0,-1.967514992E0,-2.141087055E-1
1.507613010E1,9.537701607E-1,-1.747434616E0,-1.620800495E-1
1.508412641E1,6.853752136E-1,-1.520062923E0,-1.125764847E-2
1.509212150E1,4.906067848E-1,-1.317872524E0,2.656579018E-2
1.510011812E1,2.705702782E-1,-1.158267021E0,1.951835155E-1
1.510811320E1,1.814999580E-1,-1.086205482E0,3.221588135E-1
1.511610806E1,3.158082962E-1,-1.169123173E0,5.658988953E-1
1.512413483E1,7.721490860E-1,-1.446364403E0,6.774611473E-1
1.513213015E1,1.236475468E0,-1.622321606E0,6.499359608E-1
1.514012654E1,1.464620590E0,-1.647279739E0,5.391230583E-1
1.514812124E1,1.389013767E0,-1.465495110E0,3.890438080E-1
1.515611609E1,1.257019997E0,-1.239027977E0,3.380103111E-1
1.516411325E1,1.200438499E0,-1.091004372E0,3.755304813E-1
1.517213826E1,1.342408180E0,-1.104874611E0,5.172324181E-1
1.518013481E1,1.572422504E0,-1.158934593E0,6.086726189E-1
1.518812935E1,1.666139841E0,-1.131828308E0,6.587531567E-1
1.519612505E1,1.570277929E0,-1.085734367E0,6.291594505E-1
1.520412129E1,1.315982103E0,-1.006036758E0,5.938613415E-1
1.521211638E1,1.149518251E0,-9.283504486E-1,5.436124802E-1
1.522011269E1,1.012296677E0,-9.018926620E-1,5.726006031E-1
1.522813831E1,9.857761860E-1,-9.239892960E-1,5.109753609E-1
1.523613424E1,9.692523479E-1,-9.344568253E-1,4.693937302E-1
1.524412995E1,9.863443375E-1,-9.282131195E-1,5.945594311E-1
1.525212511E1,1.017930984E0,-8.692827225E-1,7.089276314E-1
1.526012134E1,1.067061663E0,-8.532953262E-1,8.453292847E-1
1.526811620E1,1.114519596E0,-7.463178635E-1,1.050828218E0
1.527611182E1,1.218932152E0,-6.726608276E-1,1.195255280E0
1.528410783E1,1.358930349E0,-5.654029846E-1,1.246605873E0
1.529213368E1,1.525023937E0,-4.652719498E-1,1.257084370E0
1.530013000E1,1.610946894E0,-3.604536057E-1,1.181166887E0
1.530812539E1,1.628113270E0,-2.460985184E-1,1.129262924E0
1.531612055E1,1.615175724E0,-2.152633667E-1,9.844396114E-1
1.532411686E1,1.588441372E0,-2.079706192E-1,8.428852558E-1
1.533211226E1,1.567439318E0,-2.334909439E-1,7.409038544E-1
1.534013865E1,1.583081961E0,-2.487106323E-1,7.454774380E-1
1.534813373E1,1.652164221E0,-2.872200012E-1,7.747128010E-1
1.535612859E1,1.705409765E0,-3.203115463E-1,6.270716190E-1
1.536412606E1,1.721244574E0,-3.287916183E-1,6.065649986E-1
1.537212022E1,1.736443639E0,-2.597198486E-1,5.959908962E-1
1.538011684E1,1.734283805E0,-1.968374252E-1,5.857908726E-1
1.538811223E1,1.703257799E0,-9.677886963E-2,5.740396976E-1
1.539613847E1,1.628575921E0,-5.191421509E-2,5.571832657E-1
1.540413378E1,1.557154775E0,-8.141613007E-2,5.044920444E-1
1.541212918E1,1.407806277E0,-1.347284317E-1,4.285731316E-1
1.542012580E1,1.310236096E0,-1.828031540E-1,4.091520309E-1
1.542812035E1,1.198406696E0,-2.635850906E-1,3.581926823E-1
1.543611605E1,1.067169547E0,-2.716789246E-1,3.001010418E-1
1.544411259E1,9.682642221E-1,-3.073120117E-1,2.303075790E-1
1.545213760E1,9.173203707E-1,-3.414545059E-1,1.538519859E-1
1.546013422E1,8.847075701E-1,-3.762454987E-1,1.353151798E-1
1.546812862E1,9.381622076E-1,-3.757982254E-1,7.847833633E-2
1.547612439E1,9.339191914E-1,-3.306283951E-1,-4.309940338E-2
1.548412009E1,9.487969875E-1,-2.574834824E-1,-1.168973446E-1
1.549211548E1,8.727416992E-1,-1.442947388E-1,-2.191839218E-1
1.549812741E1,7.835822105E-1,-1.487407684E-1,-2.611215115E-1
1.550011211E1,7.787938118E-1,-1.367702484E-1,-2.659099102E-1
1.550813758E1,6.226379871E-1,-1.554203033E-1,-3.210926056E-1
1.551613235E1,4.484863281E-1,-1.854963303E-1,-3.413133621E-1
1.552412905E1,2.644467354E-1,-2.432918549E-1,-3.929982185E-1
1.553212444E1,3.778266907E-2,-2.661123276E-1,-3.630020618E-1
1.554012068E1,-1.347723007E-1,-3.063697815E-1,-3.208518028E-1
1.554811546E1,-2.980384827E-1,-3.016433716E-1,-2.427489758E-1
1.555611093E1,-4.247143269E-1,-3.360967636E-1,-1.402075291E-1
1.556413701E1,-4.487411976E-1,-3.171520233E-1,-7.477760315E-2
1.557213271E1,-4.248504639E-1,-2.877750397E-1,-1.139900684E-1
1.558012941E1,-3.462758064E-1,-2.001075745E-1,-8.045315742E-2
1.558812419E1,-2.375025749E-1,-5.698680878E-2,-6.604456902E-2
1.559611896E1,-1.541996002E-1,1.173124313E-1,-1.048002243E-1
1.560411590E1,-8.938407898E-2,2.125606537E-1,-1.441607475E-1
1.561211006E1,-7.642936707E-2,2.936630249E-1,-2.265975475E-1
1.562013714E1,-1.125373840E-1,2.890653610E-1,-3.085417747E-1
1.562813215E1,-1.875076294E-1,2.562379837E-1,-3.138675690E-1
1.563612762E1,-2.669348717E-1,1.859903336E-1,-3.020215034E-1
1.564412424E1,-3.714497089E-1,9.783840179E-2,-2.703008652E-1
1.565211925E1,-4.480519295E-1,6.376075745E-2,-2.592196465E-1
1.566011618E1,-5.113034248E-1,3.075695038E-2,-1.211147308E-1
1.566811042E1,-5.138814449E-1,4.403114319E-2,-1.125152111E-1
1.567613681E1,-5.047109127E-1,4.583263397E-2,-1.041235924E-1
1.568413166E1,-4.496574402E-1,9.537410736E-2,-7.483196259E-2
1.569212728E1,-3.739373684E-1,1.396617889E-1,-1.251564026E-1
1.570012429E1,-3.309202194E-1,2.264900208E-1,-1.806035042E-1
1.570811938E1,-2.754921913E-1,2.864046097E-1,-2.074472904E-1
1.571611531E1,-2.620153427E-1,2.838048935E-1,-2.316811085E-1
1.572411108E1,-2.991051674E-1,2.836246490E-1,-2.388355732E-1
1.573213624E1,-3.213255405E-1,2.669315338E-1,-2.288706303E-1
1.574013287E1,-3.594098091E-1,2.409553528E-1,-1.827857494E-1
1.574812764E1,-3.750197887E-1,2.271547318E-1,-1.224074364E-1
1.575612342E1,-3.567137718E-1,2.037572861E-1,-3.600692749E-2
1.576411974E1,-3.810484409E-1,1.684064865E-1,-5.280327797E-2
1.577211451E1,-3.555839062E-1,1.687946320E-1,-2.900266647E-2
1.578011106E1,-3.809316158E-1,1.666288376E-1,-1.480460167E-2
1.578813630E1,-3.686933517E-1,1.571311951E-1,-3.639364243E-2
1.579613200E1,-3.432710171E-1,1.905412674E-1,-8.636379242E-2
1.580412931E1,-3.498570919E-1,1.974859238E-1,-2.829575539E-2
1.581212317E1,-3.305566311E-1,1.587753296E-1,-6.373596191E-2
1.582012002E1,-2.996745110E-1,1.391944885E-1,-1.516151428E-1
1.582811356E1,-2.805821896E-1,1.054124832E-1,-1.409695148E-1
1.583611019E1,-3.010764122E-1,6.480121613E-2,-1.396558285E-1
1.584413612E1,-3.246022463E-1,5.582237244E-2,-9.259939194E-2
1.585213174E1,-3.700052500E-1,5.201816559E-2,-2.430748940E-2
1.586012844E1,-3.465765715E-1,4.855918884E-2,-1.128530502E-2
1.586812283E1,-3.458048105E-1,6.445217133E-2,3.019857407E-2
1.587611884E1,-3.398274183E-1,8.990287781E-2,6.663084030E-2
