"Time (s)","Acceleration x (m/s^2)","Acceleration y (m/s^2)","Acceleration z (m/s^2)"
4.437380000E-3,9.744400978E-1,-1.113303781E0,9.540893555E0
6.481691000E-3,9.193734527E-1,-1.086967587E0,9.548076630E0
8.587232000E-3,8.882488012E-1,-1.070208192E0,9.574412346E0
1.057123500E-2,8.882488012E-1,-1.065419793E0,9.598354340E0
1.258500800E-2,8.810662031E-1,-1.053448796E0,9.617507935E0
1.456870200E-2,9.026140571E-1,-1.051054597E0,9.641449928E0
1.658285900E-2,9.097966552E-1,-1.053448796E0,9.641449928E0
1.856593900E-2,9.385270476E-1,-1.072602391E0,9.660603523E0
2.057986500E-2,9.935936928E-1,-1.103726983E0,9.682151794E0
2.256440600E-2,1.015141487E0,-1.106121182E0,9.689333916E0
2.457794800E-2,1.060631394E0,-1.113303781E0,9.686940193E0
2.656102700E-2,1.077390790E0,-1.137245774E0,9.696516991E0
2.857610700E-2,1.084573388E0,-1.154005170E0,9.703699112E0
3.059095600E-2,1.086967587E0,-1.156399369E0,9.713275909E0
3.257342000E-2,1.079784989E0,-1.151610970E0,9.718064308E0
3.458788500E-2,1.055842996E0,-1.149216771E0,9.742006302E0
3.657150300E-2,1.022324085E0,-1.146822572E0,9.746794701E0
3.858573600E-2,1.019929886E0,-1.139639974E0,9.761159897E0
4.056943100E-2,1.012747288E0,-1.108515382E0,9.753977776E0
4.258389600E-2,9.600749016E-1,-1.108515382E0,9.749189377E0
4.456851400E-2,9.552865028E-1,-1.110909581E0,9.756371498E0
4.658197900E-2,9.433154464E-1,-1.101332784E0,9.773131371E0
4.856444300E-2,9.313444495E-1,-1.079784989E0,9.789890289E0
5.058044500E-2,9.289502501E-1,-1.063025594E0,9.799467087E0
5.256260200E-2,9.504981041E-1,-1.063025594E0,9.809044838E0
5.457675900E-2,9.768342972E-1,-1.063025594E0,9.794678688E0
5.656107000E-2,9.816226959E-1,-1.067813993E0,9.787496567E0
5.857561100E-2,9.888052940E-1,-1.063025594E0,9.789890289E0
6.058969100E-2,1.003170490E0,-1.072602391E0,9.770736694E0
6.257277000E-2,1.019929886E0,-1.072602391E0,9.777919769E0
6.458631200E-2,1.043871999E0,-1.086967587E0,9.777919769E0
6.657069900E-2,1.063025594E0,-1.089361787E0,9.780313492E0
6.858516400E-2,1.084573388E0,-1.084573388E0,9.785101891E0
7.056847400E-2,1.106121182E0,-1.072602391E0,9.782708168E0
7.258263100E-2,1.113303781E0,-1.082179189E0,9.780313492E0
7.456547900E-2,1.122880578E0,-1.065419793E0,9.780313492E0
7.658017500E-2,1.132457376E0,-1.082179189E0,9.770736694E0
7.856394700E-2,1.142034173E0,-1.079784989E0,9.761159897E0
8.057833500E-2,1.134851575E0,-1.046266198E0,9.749189377E0
8.256141500E-2,1.125274777E0,-1.034295082E0,9.749189377E0
8.457657000E-2,1.127668977E0,-1.029506683E0,9.744400978E0
8.655965000E-2,1.118092179E0,-1.024718285E0,9.744400978E0
8.857442300E-2,1.127668977E0,-1.017535686E0,9.734824181E0
9.058950300E-2,1.120486379E0,-1.012747288E0,9.732429504E0
9.257158200E-2,1.125274777E0,-9.959878922E-1,9.744400978E0
9.458604700E-2,1.137245774E0,-1.010353088E0,9.744400978E0
9.656912600E-2,1.127668977E0,-1.007958889E0,9.739612579E0
9.858305200E-2,1.144428372E0,-1.005564690E0,9.732429504E0
1.005675930E-1,1.146822572E0,-1.007958889E0,9.725247383E0
1.025809040E-1,1.144428372E0,-1.015141487E0,9.739612579E0
1.045642150E-1,1.149216771E0,-1.036689281E0,9.727641106E0
1.065786790E-1,1.137245774E0,-1.041477680E0,9.718064308E0
1.085626810E-1,1.156399369E0,-1.039083481E0,9.706093788E0
1.105774540E-1,1.165976286E0,-1.048660398E0,9.698910713E0
1.125606110E-1,1.154005170E0,-1.039083481E0,9.698910713E0
1.145744600E-1,1.137245774E0,-1.041477680E0,9.706093788E0
1.165888470E-1,1.115697980E0,-1.027112484E0,9.708487511E0
1.185725430E-1,1.115697980E0,-1.031900883E0,9.708487511E0
1.205873140E-1,1.096544385E0,-1.029506683E0,9.720458984E0
1.225707010E-1,1.082179189E0,-1.034295082E0,9.720458984E0
1.245854740E-1,1.084573388E0,-1.031900883E0,9.722852707E0
1.265685540E-1,1.067813993E0,-1.031900883E0,9.720458984E0
1.285824030E-1,1.058237195E0,-1.041477680E0,9.715670586E0
1.305664830E-1,1.046266198E0,-1.053448796E0,9.718064308E0
1.325812540E-1,1.027112484E0,-1.072602391E0,9.718064308E0
1.345643340E-1,1.019929886E0,-1.065419793E0,9.720458984E0
1.365787980E-1,1.005564690E0,-1.048660398E0,9.730035782E0
1.385614940E-1,1.003170490E0,-1.055842996E0,9.739612579E0
1.405756510E-1,1.010353088E0,-1.053448796E0,9.739612579E0
1.425898840E-1,1.012747288E0,-1.055842996E0,9.744400978E0
1.445731940E-1,1.022324085E0,-1.055842996E0,9.737217903E0
1.465880430E-1,1.019929886E0,-1.051054597E0,9.737217903E0
1.485720460E-1,1.015141487E0,-1.065419793E0,9.737217903E0
1.505852800E-1,1.017535686E0,-1.048660398E0,9.756371498E0
1.525698980E-1,1.015141487E0,-1.043871999E0,9.756371498E0
1.545828240E-1,1.017535686E0,-1.043871999E0,9.758766174E0
1.565670570E-1,1.000776291E0,-1.063025594E0,9.773131371E0
1.585809830E-1,1.007958889E0,-1.070208192E0,9.763554573E0
1.605655250E-1,1.010353088E0,-1.072602391E0,9.770736694E0
1.625794510E-1,1.005564690E0,-1.077390790E0,9.770736694E0
1.645628380E-1,9.888052940E-1,-1.082179189E0,9.775525093E0
1.665766100E-1,9.959878922E-1,-1.072602391E0,9.777919769E0
1.685609970E-1,9.983820915E-1,-1.067813993E0,9.770736694E0
1.705754620E-1,1.019929886E0,-1.060631394E0,9.761159897E0
1.725886190E-1,1.019929886E0,-1.060631394E0,9.770736694E0
1.745726990E-1,1.019929886E0,-1.053448796E0,9.773131371E0
1.765867790E-1,1.017535686E0,-1.043871999E0,9.773131371E0
1.785702420E-1,1.024718285E0,-1.036689281E0,9.758766174E0
1.805843990E-1,1.031900883E0,-1.029506683E0,9.761159897E0
1.825674790E-1,1.024718285E0,-1.036689281E0,9.761159897E0
1.845818670E-1,1.017535686E0,-1.029506683E0,9.756371498E0
1.865656390E-1,1.017535686E0,-1.034295082E0,9.756371498E0
1.885803340E-1,1.019929886E0,-1.034295082E0,9.751583099E0
1.905649510E-1,1.027112484E0,-1.024718285E0,9.753977776E0
1.925788010E-1,1.036689281E0,-1.024718285E0,9.746794701E0
1.945618810E-1,1.039083481E0,-1.015141487E0,9.737217903E0
1.965758070E-1,1.039083481E0,-1.024718285E0,9.739612579E0
1.985895790E-1,1.048660398E0,-1.024718285E0,9.734824181E0
2.005733510E-1,1.058237195E0,-1.017535686E0,9.722852707E0
2.025880450E-1,1.058237195E0,-1.007958889E0,9.722852707E0
2.045720480E-1,1.070208192E0,-1.010353088E0,9.730035782E0
2.065856670E-1,1.077390790E0,-1.005564690E0,9.725247383E0
2.085693620E-1,1.091755986E0,-1.010353088E0,9.727641106E0
2.105831340E-1,1.084573388E0,-1.010353088E0,9.737217903E0
2.125671370E-1,1.101332784E0,-1.029506683E0,9.744400978E0
2.145816010E-1,1.101332784E0,-1.041477680E0,9.739612579E0
2.165650650E-1,1.103726983E0,-1.029506683E0,9.730035782E0
2.185791450E-1,1.113303781E0,-1.039083481E0,9.737217903E0
2.205626100E-1,1.120486379E0,-1.034295082E0,9.742006302E0
2.225763820E-1,1.130063176E0,-1.036689281E0,9.734824181E0
2.245903080E-1,1.134851575E0,-1.051054597E0,9.737217903E0
2.265754640E-1,1.142034173E0,-1.043871999E0,9.734824181E0
2.285886980E-1,1.132457376E0,-1.065419793E0,9.737217903E0
2.305718550E-1,1.142034173E0,-1.067813993E0,9.742006302E0
2.325863190E-1,1.137245774E0,-1.077390790E0,9.744400978E0
2.345700150E-1,1.151610970E0,-1.072602391E0,9.739612579E0
2.365844010E-1,1.151610970E0,-1.058237195E0,9.734824181E0
2.385680960E-1,1.154005170E0,-1.055842996E0,9.734824181E0
2.405823300E-1,1.156399369E0,-1.051054597E0,9.730035782E0
2.425657180E-1,1.154005170E0,-1.051054597E0,9.732429504E0
2.445807980E-1,1.156399369E0,-1.063025594E0,9.744400978E0
2.465634930E-1,1.146822572E0,-1.070208192E0,9.751583099E0
2.485780340E-1,1.139639974E0,-1.065419793E0,9.742006302E0
2.505628830E-1,1.137245774E0,-1.058237195E0,9.744400978E0
2.525758860E-1,1.151610970E0,-1.067813993E0,9.739612579E0
2.545896580E-1,1.151610970E0,-1.067813993E0,9.730035782E0
2.565733530E-1,1.139639974E0,-1.060631394E0,9.730035782E0
2.585881260E-1,1.139639974E0,-1.067813993E0,9.732429504E0
2.605709740E-1,1.130063176E0,-1.074996591E0,9.727641106E0
2.625851310E-1,1.125274777E0,-1.060631394E0,9.718064308E0
2.645682100E-1,1.118092179E0,-1.055842996E0,9.710882187E0
2.665822900E-1,1.127668977E0,-1.055842996E0,9.734824181E0
2.685666010E-1,1.120486379E0,-1.060631394E0,9.734824181E0
2.705820660E-1,1.115697980E0,-1.070208192E0,9.732429504E0
2.725642210E-1,1.103726983E0,-1.055842996E0,9.732429504E0
2.745789940E-1,1.086967587E0,-1.063025594E0,9.718064308E0
2.765623040E-1,1.094150186E0,-1.048660398E0,9.727641106E0
2.785767690E-1,1.106121182E0,-1.039083481E0,9.730035782E0
2.805595410E-1,1.091755986E0,-1.060631394E0,9.727641106E0
2.825740060E-1,1.103726983E0,-1.051054597E0,9.730035782E0
2.845897000E-1,1.079784989E0,-1.051054597E0,9.746794701E0
2.865719340E-1,1.070208192E0,-1.031900883E0,9.744400978E0
2.885863980E-1,1.072602391E0,-1.029506683E0,9.753977776E0
2.905707090E-1,1.074996591E0,-1.046266198E0,9.753977776E0
2.925836350E-1,1.070208192E0,-1.034295082E0,9.751583099E0
2.945676370E-1,1.046266198E0,-1.039083481E0,9.737217903E0
2.965820250E-1,1.048660398E0,-1.043871999E0,9.744400978E0
2.985664120E-1,1.043871999E0,-1.039083481E0,9.749189377E0
3.005796460E-1,1.065419793E0,-1.053448796E0,9.734824181E0
3.025638800E-1,1.060631394E0,-1.063025594E0,9.734824181E0
3.045768830E-1,1.055842996E0,-1.060631394E0,9.737217903E0
3.065611930E-1,1.072602391E0,-1.063025594E0,9.746794701E0
3.085762730E-1,1.065419793E0,-1.063025594E0,9.737217903E0
3.105894290E-1,1.058237195E0,-1.055842996E0,9.732429504E0
3.125738170E-1,1.055842996E0,-1.063025594E0,9.732429504E0
3.145866660E-1,1.051054597E0,-1.065419793E0,9.725247383E0
3.165709770E-1,1.055842996E0,-1.065419793E0,9.722852707E0
3.185852100E-1,1.065419793E0,-1.065419793E0,9.713275909E0
3.205685970E-1,1.072602391E0,-1.063025594E0,9.713275909E0
3.225827540E-1,1.074996591E0,-1.074996591E0,9.722852707E0
3.245664490E-1,1.074996591E0,-1.065419793E0,9.722852707E0
3.265808370E-1,1.070208192E0,-1.060631394E0,9.722852707E0
3.285639170E-1,1.072602391E0,-1.063025594E0,9.713275909E0
3.305793810E-1,1.079784989E0,-1.067813993E0,9.718064308E0
3.325620760E-1,1.074996591E0,-1.067813993E0,9.715670586E0
3.345768480E-1,1.067813993E0,-1.051054597E0,9.710882187E0
3.365593130E-1,1.074996591E0,-1.055842996E0,9.713275909E0
3.385737770E-1,1.074996591E0,-1.055842996E0,9.715670586E0
3.405880110E-1,1.063025594E0,-1.041477680E0,9.710882187E0
3.425723210E-1,1.070208192E0,-1.034295082E0,9.715670586E0
3.445852470E-1,1.077390790E0,-1.034295082E0,9.718064308E0
3.465697880E-1,1.077390790E0,-1.031900883E0,9.722852707E0
3.485839450E-1,1.067813993E0,-1.039083481E0,9.722852707E0
3.505686400E-1,1.074996591E0,-1.041477680E0,9.718064308E0
3.525817970E-1,1.074996591E0,-1.034295082E0,9.722852707E0
3.545651840E-1,1.077390790E0,-1.027112484E0,9.725247383E0
3.565796480E-1,1.086967587E0,-1.022324085E0,9.732429504E0
3.585634210E-1,1.103726983E0,-1.036689281E0,9.737217903E0
3.605775010E-1,1.094150186E0,-1.041477680E0,9.734824181E0
3.625608880E-1,1.079784989E0,-1.031900883E0,9.732429504E0
3.645760440E-1,1.077390790E0,-1.029506683E0,9.725247383E0
3.665895090E-1,1.067813993E0,-1.027112484E0,9.725247383E0
3.685732040E-1,1.053448796E0,-1.031900883E0,9.727641106E0
3.705880530E-1,1.070208192E0,-1.043871999E0,9.737217903E0
3.725711330E-1,1.077390790E0,-1.048660398E0,9.744400978E0
3.745846740E-1,1.074996591E0,-1.053448796E0,9.746794701E0
3.765686000E-1,1.065419793E0,-1.036689281E0,9.744400978E0
3.785825260E-1,1.053448796E0,-1.039083481E0,9.734824181E0
3.805658360E-1,1.060631394E0,-1.031900883E0,9.751583099E0
3.825803010E-1,1.067813993E0,-1.046266198E0,9.763554573E0
3.845636880E-1,1.070208192E0,-1.041477680E0,9.758766174E0
3.865790760E-1,1.084573388E0,-1.041477680E0,9.742006302E0
3.885628470E-1,1.084573388E0,-1.055842996E0,9.734824181E0
3.905754660E-1,1.086967587E0,-1.053448796E0,9.739612579E0
3.925902380E-1,1.065419793E0,-1.051054597E0,9.749189377E0
3.945735490E-1,1.058237195E0,-1.063025594E0,9.756371498E0
3.965883210E-1,1.060631394E0,-1.079784989E0,9.744400978E0
3.985717850E-1,1.041477680E0,-1.072602391E0,9.737217903E0
4.005856340E-1,1.043871999E0,-1.074996591E0,9.742006302E0
4.025702520E-1,1.027112484E0,-1.079784989E0,9.742006302E0
4.045837930E-1,1.017535686E0,-1.077390790E0,9.727641106E0
4.065665660E-1,1.017535686E0,-1.072602391E0,9.720458984E0
4.085815690E-1,1.010353088E0,-1.060631394E0,9.734824181E0
4.105662640E-1,1.003170490E0,-1.065419793E0,9.732429504E0
4.125791120E-1,1.003170490E0,-1.072602391E0,9.727641106E0
4.145631150E-1,1.000776291E0,-1.058237195E0,9.737217903E0
4.165764260E-1,9.959878922E-1,-1.070208192E0,9.749189377E0
4.185915060E-1,9.983820915E-1,-1.072602391E0,9.746794701E0
4.205745090E-1,9.959878922E-1,-1.060631394E0,9.737217903E0
4.225887430E-1,9.983820915E-1,-1.072602391E0,9.730035782E0
4.245718210E-1,1.015141487E0,-1.077390790E0,9.732429504E0
4.265869010E-1,1.029506683E0,-1.089361787E0,9.727641106E0
4.285702120E-1,1.039083481E0,-1.091755986E0,9.722852707E0
4.305862150E-1,1.048660398E0,-1.096544385E0,9.708487511E0
4.325687570E-1,1.063025594E0,-1.086967587E0,9.706093788E0
4.345825290E-1,1.070208192E0,-1.086967587E0,9.713275909E0
4.365665310E-1,1.074996591E0,-1.084573388E0,9.710882187E0
4.385801490E-1,1.098938584E0,-1.094150186E0,9.708487511E0
4.405638450E-1,1.110909581E0,-1.084573388E0,9.708487511E0
4.425783090E-1,1.101332784E0,-1.070208192E0,9.698910713E0
4.445625430E-1,1.108515382E0,-1.055842996E0,9.701305389E0
4.465761600E-1,1.101332784E0,-1.055842996E0,9.708487511E0
4.485903170E-1,1.118092179E0,-1.070208192E0,9.708487511E0
4.505746280E-1,1.130063176E0,-1.063025594E0,9.703699112E0
4.525881690E-1,1.132457376E0,-1.051054597E0,9.701305389E0
4.545712490E-1,1.139639974E0,-1.031900883E0,9.715670586E0
4.565860210E-1,1.149216771E0,-1.024718285E0,9.713275909E0
4.585697160E-1,1.134851575E0,-1.003170490E0,9.708487511E0
4.605844880E-1,1.115697980E0,-1.007958889E0,9.703699112E0
4.625671830E-1,1.110909581E0,-1.017535686E0,9.698910713E0
4.645811090E-1,1.108515382E0,-9.888052940E-1,9.708487511E0
4.665651120E-1,1.103726983E0,-9.816226959E-1,9.746794701E0
4.685795770E-1,1.086967587E0,-9.840168953E-1,9.756371498E0
4.705628870E-1,1.096544385E0,-9.840168953E-1,9.773131371E0
4.725776590E-1,1.067813993E0,-9.959878922E-1,9.777919769E0
4.745602000E-1,1.063025594E0,-9.935936928E-1,9.775525093E0
4.765746650E-1,1.058237195E0,-9.864110947E-1,9.797073364E0
4.785887450E-1,1.043871999E0,-9.911994934E-1,9.811438560E0
4.805727480E-1,1.036689281E0,-9.935936928E-1,9.813833237E0
4.825872880E-1,1.031900883E0,-1.019929886E0,9.832986832E0
4.845705990E-1,1.015141487E0,-1.043871999E0,9.832986832E0
4.865841400E-1,1.000776291E0,-1.046266198E0,9.842563629E0
4.885690660E-1,9.768342972E-1,-1.060631394E0,9.859322548E0
4.905829930E-1,9.672574997E-1,-1.063025594E0,9.859322548E0
4.925663800E-1,9.624691010E-1,-1.063025594E0,9.844957352E0
4.945801510E-1,9.528923035E-1,-1.086967587E0,9.840168953E0
4.965641540E-1,9.457096457E-1,-1.096544385E0,9.844957352E0
4.985768500E-1,9.361328483E-1,-1.115697980E0,9.844957352E0
5.005611600E-1,9.241618514E-1,-1.125274777E0,9.844957352E0
5.025756250E-1,9.217676520E-1,-1.137245774E0,9.849745750E0
5.045891660E-1,9.313444495E-1,-1.151610970E0,9.830592155E0
5.065730920E-1,9.337386489E-1,-1.151610970E0,9.823410034E0
5.085875560E-1,9.217676520E-1,-1.149216771E0,9.818621635E0
5.105722510E-1,9.481038451E-1,-1.165976286E0,9.813833237E0
5.125857930E-1,9.624691010E-1,-1.173158884E0,9.792284966E0
5.145691040E-1,9.648633003E-1,-1.165976286E0,9.780313492E0
5.165832590E-1,9.672574997E-1,-1.165976286E0,9.777919769E0
5.185669550E-1,9.648633003E-1,-1.177947283E0,9.770736694E0
5.205817270E-1,9.959878922E-1,-1.168370485E0,9.742006302E0
5.225642680E-1,9.911994934E-1,-1.163581967E0,9.710882187E0
5.245801940E-1,9.911994934E-1,-1.168370485E0,9.696516991E0
5.265630440E-1,1.005564690E0,-1.146822572E0,9.694122314E0
5.285762760E-1,1.019929886E0,-1.146822572E0,9.672574997E0
5.305918950E-1,1.029506683E0,-1.120486379E0,9.665391922E0
5.325746670E-1,1.039083481E0,-1.082179189E0,9.651026726E0
5.345889010E-1,1.055842996E0,-1.079784989E0,9.631873131E0
5.365725960E-1,1.070208192E0,-1.082179189E0,9.619902611E0
5.385860610E-1,1.096544385E0,-1.077390790E0,9.610325813E0
5.405698320E-1,1.110909581E0,-1.072602391E0,9.615114212E0
5.425849120E-1,1.101332784E0,-1.074996591E0,9.612719536E0
5.445682990E-1,1.122880578E0,-1.065419793E0,9.586383820E0
5.465839180E-1,1.139639974E0,-1.053448796E0,9.586383820E0
5.485660750E-1,1.149216771E0,-1.058237195E0,9.595960617E0
5.505793850E-1,1.144428372E0,-1.072602391E0,9.600749016E0
5.525646180E-1,1.142034173E0,-1.079784989E0,9.603142738E0
5.545772370E-1,1.154005170E0,-1.074996591E0,9.600749016E0
5.565612400E-1,1.170764685E0,-1.074996591E0,9.603142738E0
5.585753190E-1,1.173158884E0,-1.065419793E0,9.607931137E0
5.605897840E-1,1.170764685E0,-1.058237195E0,9.615114212E0
5.625725560E-1,1.175553083E0,-1.060631394E0,9.631873131E0
5.645886350E-1,1.173158884E0,-1.077390790E0,9.643844604E0
5.665722540E-1,1.149216771E0,-1.079784989E0,9.651026726E0
5.685854870E-1,1.154005170E0,-1.063025594E0,9.674968719E0
5.705695670E-1,1.156399369E0,-1.067813993E0,9.674968719E0
5.725833400E-1,1.146822572E0,-1.084573388E0,9.684545517E0
5.745670340E-1,1.120486379E0,-1.091755986E0,9.701305389E0
5.765806520E-1,1.127668977E0,-1.096544385E0,9.706093788E0
5.785646550E-1,1.127668977E0,-1.115697980E0,9.708487511E0
5.805790430E-1,1.094150186E0,-1.108515382E0,9.720458984E0
5.825622000E-1,1.089361787E0,-1.120486379E0,9.734824181E0
5.845760490E-1,1.084573388E0,-1.118092179E0,9.742006302E0
5.865910520E-1,1.082179189E0,-1.125274777E0,9.751583099E0
5.885741310E-1,1.084573388E0,-1.132457376E0,9.768342972E0
5.905895180E-1,1.082179189E0,-1.156399369E0,9.770736694E0
5.925732140E-1,1.072602391E0,-1.158793569E0,9.782708168E0
5.945876780E-1,1.072602391E0,-1.161187768E0,9.785101891E0
5.965696040E-1,1.070208192E0,-1.163581967E0,9.785101891E0
5.985849140E-1,1.065419793E0,-1.158793569E0,9.787496567E0
6.005680710E-1,1.079784989E0,-1.137245774E0,9.794678688E0
6.025822280E-1,1.089361787E0,-1.149216771E0,9.799467087E0
6.045656150E-1,1.094150186E0,-1.156399369E0,9.804255486E0
6.065803110E-1,1.086967587E0,-1.151610970E0,9.816226959E0
6.085637750E-1,1.103726983E0,-1.151610970E0,9.806650162E0
6.105784700E-1,1.103726983E0,-1.161187768E0,9.809044838E0
6.125619340E-1,1.094150186E0,-1.158793569E0,9.804255486E0
6.145757060E-1,1.094150186E0,-1.142034173E0,9.787496567E0
6.165899400E-1,1.089361787E0,-1.142034173E0,9.787496567E0
6.185730200E-1,1.084573388E0,-1.144428372E0,9.794678688E0
6.205874080E-1,1.094150186E0,-1.139639974E0,9.787496567E0
6.225704870E-1,1.094150186E0,-1.149216771E0,9.777919769E0
6.245846430E-1,1.072602391E0,-1.118092179E0,9.758766174E0
6.265695690E-1,1.067813993E0,-1.113303781E0,9.753977776E0
6.285841110E-1,1.063025594E0,-1.122880578E0,9.756371498E0
6.305668060E-1,1.051054597E0,-1.108515382E0,9.756371498E0
6.325813480E-1,1.048660398E0,-1.098938584E0,9.749189377E0
6.345638110E-1,1.031900883E0,-1.089361787E0,9.725247383E0
6.365791220E-1,1.027112484E0,-1.074996591E0,9.694122314E0
6.385622790E-1,1.027112484E0,-1.070208192E0,9.689333916E0
6.405761280E-1,1.019929886E0,-1.086967587E0,9.686940193E0
6.425902080E-1,1.043871999E0,-1.063025594E0,9.691728592E0
6.445749030E-1,1.039083481E0,-1.055842996E0,9.691728592E0
6.465884440E-1,1.039083481E0,-1.060631394E0,9.672574997E0
6.485721390E-1,1.046266198E0,-1.067813993E0,9.670180321E0
6.505872190E-1,1.048660398E0,-1.065419793E0,9.672574997E0
6.525696830E-1,1.043871999E0,-1.063025594E0,9.670180321E0
6.545838400E-1,1.039083481E0,-1.070208192E0,9.667786598E0
6.565671500E-1,1.029506683E0,-1.074996591E0,9.660603523E0
6.585822300E-1,1.046266198E0,-1.067813993E0,9.646238327E0
6.605656180E-1,1.041477680E0,-1.077390790E0,9.648633003E0
6.625795440E-1,1.041477680E0,-1.096544385E0,9.646238327E0
6.645625470E-1,1.039083481E0,-1.094150186E0,9.648633003E0
6.665770880E-1,1.036689281E0,-1.096544385E0,9.658209801E0
6.685610130E-1,1.041477680E0,-1.098938584E0,9.674968719E0
6.705764780E-1,1.031900883E0,-1.101332784E0,9.677363396E0
6.725899420E-1,1.039083481E0,-1.101332784E0,9.674968719E0
6.745733300E-1,1.055842996E0,-1.127668977E0,9.691728592E0
6.765868710E-1,1.065419793E0,-1.139639974E0,9.710882187E0
6.785705670E-1,1.079784989E0,-1.134851575E0,9.718064308E0
6.805856460E-1,1.079784989E0,-1.144428372E0,9.725247383E0
6.825684950E-1,1.089361787E0,-1.158793569E0,9.720458984E0
6.845834980E-1,1.108515382E0,-1.154005170E0,9.730035782E0
6.865665780E-1,1.103726983E0,-1.154005170E0,9.742006302E0
6.885810420E-1,1.103726983E0,-1.168370485E0,9.753977776E0
6.905647380E-1,1.122880578E0,-1.163581967E0,9.758766174E0
6.925779700E-1,1.118092179E0,-1.161187768E0,9.751583099E0
6.945619730E-1,1.120486379E0,-1.163581967E0,9.753977776E0
6.965764380E-1,1.122880578E0,-1.158793569E0,9.765948296E0
6.985912100E-1,1.122880578E0,-1.161187768E0,9.770736694E0
7.005745980E-1,1.132457376E0,-1.142034173E0,9.758766174E0
7.025885240E-1,1.137245774E0,-1.137245774E0,9.758766174E0
7.045709870E-1,1.132457376E0,-1.127668977E0,9.770736694E0
7.065862980E-1,1.122880578E0,-1.139639974E0,9.777919769E0
7.085706090E-1,1.127668977E0,-1.144428372E0,9.775525093E0
7.105833040E-1,1.125274777E0,-1.149216771E0,9.770736694E0
7.125678460E-1,1.120486379E0,-1.144428372E0,9.768342972E0
7.145813870E-1,1.142034173E0,-1.149216771E0,9.768342972E0
7.165660040E-1,1.139639974E0,-1.142034173E0,9.763554573E0
7.185796230E-1,1.142034173E0,-1.142034173E0,9.758766174E0
7.205636260E-1,1.139639974E0,-1.146822572E0,9.758766174E0
7.225774750E-1,1.139639974E0,-1.149216771E0,9.761159897E0
7.245614780E-1,1.134851575E0,-1.149216771E0,9.744400978E0
7.265755570E-1,1.137245774E0,-1.149216771E0,9.744400978E0
7.285891750E-1,1.139639974E0,-1.139639974E0,9.746794701E0
7.305737170E-1,1.156399369E0,-1.130063176E0,9.725247383E0
7.325882580E-1,1.165976286E0,-1.130063176E0,9.718064308E0
7.345706460E-1,1.170764685E0,-1.139639974E0,9.710882187E0
7.365851870E-1,1.173158884E0,-1.139639974E0,9.703699112E0
7.385679590E-1,1.163581967E0,-1.122880578E0,9.708487511E0
7.405826540E-1,1.170764685E0,-1.130063176E0,9.708487511E0
7.425663490E-1,1.165976286E0,-1.142034173E0,9.691728592E0
7.445798910E-1,1.170764685E0,-1.134851575E0,9.691728592E0
7.465642010E-1,1.170764685E0,-1.132457376E0,9.682151794E0
7.485786660E-1,1.165976286E0,-1.118092179E0,9.672574997E0
7.505627450E-1,1.173158884E0,-1.115697980E0,9.665391922E0
7.525762860E-1,1.163581967E0,-1.108515382E0,9.646238327E0
7.545901350E-1,1.170764685E0,-1.115697980E0,9.648633003E0
7.565740610E-1,1.165976286E0,-1.120486379E0,9.639056206E0
7.585879110E-1,1.175553083E0,-1.127668977E0,9.629479408E0
7.605716830E-1,1.177947283E0,-1.134851575E0,9.629479408E0
7.625860700E-1,1.177947283E0,-1.142034173E0,9.627084732E0
7.645695340E-1,1.182735682E0,-1.144428372E0,9.631873131E0
7.665836910E-1,1.177947283E0,-1.144428372E0,9.629479408E0
7.685673860E-1,1.182735682E0,-1.146822572E0,9.639056206E0
7.705826970E-1,1.216254473E0,-1.156399369E0,9.651026726E0
7.725652380E-1,1.223437071E0,-1.170764685E0,9.662998199E0
7.745790870E-1,1.216254473E0,-1.177947283E0,9.660603523E0
7.765630900E-1,1.206677675E0,-1.180341482E0,9.655815125E0
7.785771690E-1,1.206677675E0,-1.177947283E0,9.658209801E0
7.805612490E-1,1.225831270E0,-1.175553083E0,9.660603523E0
7.825744830E-1,1.230619669E0,-1.165976286E0,9.655815125E0
7.845885630E-1,1.221042871E0,-1.163581967E0,9.658209801E0
7.865744110E-1,1.242590666E0,-1.170764685E0,9.665391922E0
7.885867990E-1,1.244984865E0,-1.161187768E0,9.670180321E0
7.905704170E-1,1.244984865E0,-1.158793569E0,9.674968719E0
7.925854970E-1,1.256955862E0,-1.161187768E0,9.684545517E0
7.945674230E-1,1.237802267E0,-1.158793569E0,9.698910713E0
7.965821180E-1,1.247379065E0,-1.154005170E0,9.701305389E0
7.985658900E-1,1.261744261E0,-1.137245774E0,9.701305389E0
8.005808930E-1,1.249773264E0,-1.134851575E0,9.691728592E0
8.025642800E-1,1.233013868E0,-1.142034173E0,9.689333916E0
8.045781300E-1,1.230619669E0,-1.139639974E0,9.684545517E0
8.065622100E-1,1.235408068E0,-1.144428372E0,9.696516991E0
8.085759810E-1,1.235408068E0,-1.132457376E0,9.703699112E0
8.105895990E-1,1.221042871E0,-1.120486379E0,9.698910713E0
8.125741410E-1,1.218648672E0,-1.113303781E0,9.682151794E0
8.145880670E-1,1.201889277E0,-1.120486379E0,9.686940193E0
8.165720700E-1,1.189918280E0,-1.113303781E0,9.694122314E0
8.185856110E-1,1.185129881E0,-1.108515382E0,9.698910713E0
8.205689210E-1,1.177947283E0,-1.091755986E0,9.708487511E0
8.225831550E-1,1.158793569E0,-1.103726983E0,9.725247383E0
8.245665420E-1,1.154005170E0,-1.115697980E0,9.734824181E0
8.265809300E-1,1.149216771E0,-1.113303781E0,9.753977776E0
8.285659330E-1,1.130063176E0,-1.113303781E0,9.758766174E0
8.305809360E-1,1.120486379E0,-1.115697980E0,9.765948296E0
8.325633990E-1,1.110909581E0,-1.137245774E0,9.768342972E0
8.345773260E-1,1.079784989E0,-1.125274777E0,9.749189377E0
8.365603290E-1,1.072602391E0,-1.125274777E0,9.746794701E0
8.385751780E-1,1.065419793E0,-1.132457376E0,9.739612579E0
8.405881040E-1,1.036689281E0,-1.146822572E0,9.727641106E0
8.425723380E-1,1.024718285E0,-1.149216771E0,9.725247383E0
8.445871860E-1,9.983820915E-1,-1.154005170E0,9.732429504E0
8.465708040E-1,9.888052940E-1,-1.173158884E0,9.727641106E0
8.485846530E-1,9.696516991E-1,-1.175553083E0,9.708487511E0
8.505695790E-1,9.935936928E-1,-1.158793569E0,9.686940193E0
8.525834280E-1,9.911994934E-1,-1.144428372E0,9.677363396E0
8.545659700E-1,9.768342972E-1,-1.142034173E0,9.677363396E0
8.565797410E-1,9.672574997E-1,-1.144428372E0,9.667786598E0
8.585638210E-1,9.528923035E-1,-1.142034173E0,9.672574997E0
8.605782090E-1,9.217676520E-1,-1.146822572E0,9.686940193E0
8.625615960E-1,9.217676520E-1,-1.130063176E0,9.694122314E0
8.645754460E-1,9.121908545E-1,-1.134851575E0,9.703699112E0
8.665906020E-1,9.074024558E-1,-1.146822572E0,9.725247383E0
8.685739120E-1,9.145850539E-1,-1.149216771E0,9.746794701E0
8.705872230E-1,9.193734527E-1,-1.139639974E0,9.744400978E0
8.725709180E-1,9.385270476E-1,-1.134851575E0,9.753977776E0
8.745850750E-1,9.193734527E-1,-1.144428372E0,9.758766174E0
8.765690780E-1,9.097966552E-1,-1.134851575E0,9.765948296E0
8.785831570E-1,9.193734527E-1,-1.120486379E0,9.768342972E0
8.805674680E-1,9.241618514E-1,-1.122880578E0,9.761159897E0
8.825816240E-1,9.409212470E-1,-1.108515382E0,9.753977776E0
8.845653200E-1,9.241618514E-1,-1.101332784E0,9.753977776E0
8.865797840E-1,9.217676520E-1,-1.103726983E0,9.765948296E0
8.885637870E-1,9.337386489E-1,-1.089361787E0,9.775525093E0
8.905780200E-1,9.265560508E-1,-1.094150186E0,9.756371498E0
8.925607920E-1,9.265560508E-1,-1.077390790E0,9.756371498E0
8.945748720E-1,9.265560508E-1,-1.065419793E0,9.763554573E0
8.965884910E-1,9.289502501E-1,-1.070208192E0,9.768342972E0
8.985728010E-1,9.337386489E-1,-1.058237195E0,9.765948296E0
9.005862660E-1,9.433154464E-1,-1.039083481E0,9.763554573E0
9.025699600E-1,9.481038451E-1,-1.024718285E0,9.775525093E0
9.045835790E-1,9.504981041E-1,-1.027112484E0,9.777919769E0
9.065681970E-1,9.600749016E-1,-1.017535686E0,9.789890289E0
9.085826610E-1,9.864110947E-1,-1.041477680E0,9.777919769E0
9.105669720E-1,1.000776291E0,-1.039083481E0,9.775525093E0
9.125801290E-1,1.015141487E0,-1.036689281E0,9.777919769E0
9.145638230E-1,1.019929886E0,-1.027112484E0,9.773131371E0
9.165780570E-1,1.055842996E0,-1.029506683E0,9.761159897E0
9.185614450E-1,1.084573388E0,-1.024718285E0,9.749189377E0
9.205756020E-1,1.103726983E0,-1.024718285E0,9.744400978E0
9.225903740E-1,1.120486379E0,-1.024718285E0,9.746794701E0
9.245740690E-1,1.163581967E0,-1.031900883E0,9.732429504E0
9.265881480E-1,1.180341482E0,-1.036689281E0,9.730035782E0
9.285719200E-1,1.201889277E0,-1.041477680E0,9.746794701E0
9.305863080E-1,1.223437071E0,-1.046266198E0,9.732429504E0
9.325688490E-1,1.237802267E0,-1.041477680E0,9.725247383E0
9.345829290E-1,1.283292055E0,-1.024718285E0,9.715670586E0
9.365663930E-1,1.312022567E0,-1.048660398E0,9.725247383E0
9.385805500E-1,1.326387763E0,-1.063025594E0,9.713275909E0
9.405648600E-1,1.350329757E0,-1.060631394E0,9.698910713E0
9.425789400E-1,1.364694953E0,-1.058237195E0,9.694122314E0
9.445620200E-1,1.381454349E0,-1.060631394E0,9.698910713E0
9.465767920E-1,1.405396342E0,-1.084573388E0,9.691728592E0
9.485915640E-1,1.426944256E0,-1.070208192E0,9.689333916E0
9.505737980E-1,1.441309452E0,-1.046266198E0,9.686940193E0
9.525891080E-1,1.455674648E0,-1.058237195E0,9.672574997E0
9.545728040E-1,1.458068848E0,-1.067813993E0,9.674968719E0
9.565858070E-1,1.477222443E0,-1.074996591E0,9.682151794E0
9.585698100E-1,1.486799240E0,-1.089361787E0,9.689333916E0
9.605851190E-1,1.489193439E0,-1.079784989E0,9.674968719E0
9.625679680E-1,1.510741234E0,-1.065419793E0,9.677363396E0
9.645829710E-1,1.544260144E0,-1.070208192E0,9.672574997E0
9.665658210E-1,1.553836942E0,-1.070208192E0,9.665391922E0
9.685802850E-1,1.561019540E0,-1.074996591E0,9.677363396E0
9.705642110E-1,1.558625340E0,-1.053448796E0,9.682151794E0
9.725784440E-1,1.556231141E0,-1.060631394E0,9.679757118E0
9.745617550E-1,1.558625340E0,-1.074996591E0,9.667786598E0
9.765750650E-1,1.570596337E0,-1.053448796E0,9.660603523E0
9.785895300E-1,1.580173135E0,-1.041477680E0,9.658209801E0
9.805740710E-1,1.568202138E0,-1.034295082E0,9.627084732E0
9.825873820E-1,1.551442742E0,-1.031900883E0,9.622296333E0
9.845703840E-1,1.541865945E0,-1.034295082E0,9.615114212E0
9.865855410E-1,1.515529633E0,-1.036689281E0,9.593565941E0
9.885686210E-1,1.493981838E0,-1.039083481E0,9.579200745E0
9.905837010E-1,1.465251446E0,-1.041477680E0,9.581595421E0
9.925677040E-1,1.441309452E0,-1.039083481E0,9.581595421E0
9.945814760E-1,1.431732655E0,-1.034295082E0,9.576807022E0
9.965642470E-1,1.431732655E0,-1.036689281E0,9.576807022E0
9.985784810E-1,1.383848548E0,-1.034295082E0,9.598354340E0
1.000562176E0,1.374271750E0,-1.034295082E0,9.617507935E0
1.002576564E0,1.386242747E0,-1.031900883E0,9.643844604E0
1.004591105E0,1.383848548E0,-1.051054597E0,9.694122314E0
1.006574492E0,1.376665950E0,-1.058237195E0,9.720458984E0
1.008588649E0,1.369483352E0,-1.065419793E0,9.751583099E0
1.010572960E0,1.369483352E0,-1.060631394E0,9.761159897E0
1.012586809E0,1.352723956E0,-1.055842996E0,9.763554573E0
1.014569504E0,1.335964561E0,-1.055842996E0,9.753977776E0
1.016583969E0,1.328781962E0,-1.048660398E0,9.746794701E0
1.018568048E0,1.309628367E0,-1.053448796E0,9.727641106E0
1.020581512E0,1.285686255E0,-1.046266198E0,9.703699112E0
1.022566130E0,1.273715258E0,-1.041477680E0,9.698910713E0
1.024579133E0,1.235408068E0,-1.031900883E0,9.686940193E0
1.026564906E0,1.187524080E0,-1.024718285E0,9.682151794E0
1.028578139E0,1.165976286E0,-1.031900883E0,9.682151794E0
1.030560603E0,1.120486379E0,-1.005564690E0,9.686940193E0
1.032576068E0,1.074996591E0,-9.959878922E-1,9.694122314E0
1.034590224E0,1.067813993E0,-1.010353088E0,9.708487511E0
1.036572689E0,1.048660398E0,-1.029506683E0,9.727641106E0
1.038587077E0,1.048660398E0,-1.036689281E0,9.749189377E0
1.040571464E0,1.058237195E0,-1.051054597E0,9.751583099E0
1.042584928E0,1.074996591E0,-1.053448796E0,9.758766174E0
1.044569315E0,1.079784989E0,-1.053448796E0,9.763554573E0
1.046583164E0,1.098938584E0,-1.055842996E0,9.775525093E0
1.048566860E0,1.103726983E0,-1.053448796E0,9.782708168E0
1.050581863E0,1.108515382E0,-1.055842996E0,9.770736694E0
1.052565250E0,1.118092179E0,-1.039083481E0,9.756371498E0
1.054578560E0,1.137245774E0,-1.031900883E0,9.744400978E0
1.056561948E0,1.144428372E0,-1.034295082E0,9.742006302E0
1.058576335E0,1.144428372E0,-1.029506683E0,9.718064308E0
1.060591185E0,1.137245774E0,-1.027112484E0,9.718064308E0
1.062573649E0,1.132457376E0,-1.012747288E0,9.710882187E0
1.064587806E0,1.125274777E0,-1.010353088E0,9.694122314E0
1.066571808E0,1.132457376E0,-1.017535686E0,9.694122314E0
1.068587119E0,1.127668977E0,-1.022324085E0,9.694122314E0
1.070570891E0,1.118092179E0,-1.027112484E0,9.708487511E0
1.072584432E0,1.110909581E0,-1.043871999E0,9.713275909E0
1.074567820E0,1.096544385E0,-1.046266198E0,9.710882187E0
1.076581669E0,1.091755986E0,-1.067813993E0,9.725247383E0
1.078565286E0,1.094150186E0,-1.074996591E0,9.730035782E0
1.080579136E0,1.118092179E0,-1.070208192E0,9.720458984E0
1.082563446E0,1.127668977E0,-1.074996591E0,9.734824181E0
1.084577988E0,1.130063176E0,-1.084573388E0,9.730035782E0
1.086560683E0,1.180341482E0,-1.077390790E0,9.725247383E0
1.088575531E0,1.185129881E0,-1.043871999E0,9.718064308E0
1.090590919E0,1.199495077E0,-1.043871999E0,9.708487511E0
1.092573383E0,1.209071875E0,-1.051054597E0,9.696516991E0
1.094586848E0,1.223437071E0,-1.063025594E0,9.689333916E0
1.096570313E0,1.228225470E0,-1.067813993E0,9.682151794E0
1.098584469E0,1.254561663E0,-1.046266198E0,9.679757118E0
1.100568394E0,1.261744261E0,-1.077390790E0,9.672574997E0
1.102582321E0,1.266532660E0,-1.082179189E0,9.672574997E0
1.104566247E0,1.285686255E0,-1.077390790E0,9.679757118E0
1.106581019E0,1.292868972E0,-1.060631394E0,9.679757118E0
1.108564791E0,1.302445769E0,-1.060631394E0,9.674968719E0
1.110577717E0,1.297657371E0,-1.086967587E0,9.679757118E0
1.112562335E0,1.309628367E0,-1.096544385E0,9.686940193E0
1.114576107E0,1.333570361E0,-1.110909581E0,9.694122314E0
1.116590264E0,1.343147159E0,-1.098938584E0,9.694122314E0
1.118573651E0,1.352723956E0,-1.091755986E0,9.703699112E0
1.120587577E0,1.369483352E0,-1.094150186E0,9.718064308E0
1.122571503E0,1.393425345E0,-1.098938584E0,9.737217903E0
1.124586890E0,1.400607944E0,-1.096544385E0,9.742006302E0
1.126570278E0,1.398213744E0,-1.086967587E0,9.737217903E0
1.128584127E0,1.417367458E0,-1.058237195E0,9.737217903E0
1.130568207E0,1.424550056E0,-1.048660398E0,9.732429504E0
1.132581748E0,1.424550056E0,-1.039083481E0,9.727641106E0
1.134565444E0,1.405396342E0,-1.022324085E0,9.720458984E0
1.136579599E0,1.398213744E0,-1.015141487E0,9.710882187E0
1.138562987E0,1.362300754E0,-1.019929886E0,9.694122314E0
1.140577452E0,1.359906554E0,-1.007958889E0,9.686940193E0
1.142591224E0,1.350329757E0,-1.007958889E0,9.677363396E0
1.144574611E0,1.338358760E0,-1.010353088E0,9.686940193E0
1.146588461E0,1.326387763E0,-1.000776291E0,9.698910713E0
1.148573770E0,1.309628367E0,-1.005564690E0,9.706093788E0
1.150588235E0,1.295263171E0,-9.911994934E-1,9.720458984E0
1.152571315E0,1.288080573E0,-9.911994934E-1,9.732429504E0
1.154585702E0,1.283292055E0,-9.935936928E-1,9.742006302E0
1.156568244E0,1.302445769E0,-9.959878922E-1,9.756371498E0
1.158583246E0,1.295263171E0,-9.935936928E-1,9.761159897E0
1.160566710E0,1.285686255E0,-9.911994934E-1,9.782708168E0
1.162581098E0,1.290474772E0,-9.935936928E-1,9.782708168E0
1.164564793E0,1.288080573E0,-1.005564690E0,9.797073364E0
1.166578950E0,1.285686255E0,-1.017535686E0,9.809044838E0
1.168561492E0,1.285686255E0,-1.012747288E0,9.806650162E0
1.170576494E0,1.283292055E0,-1.007958889E0,9.809044838E0
1.172590727E0,1.244984865E0,-9.935936928E-1,9.804255486E0
1.174574038E0,1.235408068E0,-9.864110947E-1,9.816226959E0
1.176587887E0,1.235408068E0,-1.010353088E0,9.804255486E0
1.178571583E0,1.199495077E0,-1.012747288E0,9.785101891E0
1.180586047E0,1.187524080E0,-1.007958889E0,9.773131371E0
1.182569818E0,1.163581967E0,-1.010353088E0,9.763554573E0
1.184583283E0,1.139639974E0,-1.003170490E0,9.761159897E0
1.186567901E0,1.125274777E0,-1.003170490E0,9.765948296E0
1.188581750E0,1.122880578E0,-1.017535686E0,9.770736694E0
1.190564292E0,1.115697980E0,-1.010353088E0,9.746794701E0
1.192578987E0,1.108515382E0,-1.005564690E0,9.744400978E0
1.194563297E0,1.086967587E0,-1.019929886E0,9.746794701E0
1.196577146E0,1.082179189E0,-1.041477680E0,9.749189377E0
1.198591303E0,1.074996591E0,-1.046266198E0,9.744400978E0
1.200574998E0,1.077390790E0,-1.053448796E0,9.737217903E0
1.202589155E0,1.074996591E0,-1.041477680E0,9.730035782E0
1.204572927E0,1.070208192E0,-1.029506683E0,9.725247383E0
1.206587699E0,1.072602391E0,-1.027112484E0,9.710882187E0
1.208570779E0,1.077390790E0,-1.022324085E0,9.708487511E0
1.210585858E0,1.082179189E0,-1.022324085E0,9.689333916E0
1.212568554E0,1.103726983E0,-1.005564690E0,9.686940193E0
1.214582711E0,1.098938584E0,-1.007958889E0,9.684545517E0
1.216565790E0,1.084573388E0,-1.015141487E0,9.674968719E0
1.218580639E0,1.072602391E0,-9.935936928E-1,9.674968719E0
1.220563642E0,1.072602391E0,-9.816226959E-1,9.674968719E0
1.222578491E0,1.065419793E0,-9.888052940E-1,9.662998199E0
1.224561263E0,1.051054597E0,-9.959878922E-1,9.660603523E0
1.226575651E0,1.053448796E0,-9.935936928E-1,9.662998199E0
1.228590191E0,1.055842996E0,-9.983820915E-1,9.677363396E0
1.230574425E0,1.055842996E0,-1.010353088E0,9.691728592E0
1.232588351E0,1.058237195E0,-1.010353088E0,9.701305389E0
1.234571046E0,1.070208192E0,-1.007958889E0,9.689333916E0
1.236585588E0,1.063025594E0,-1.000776291E0,9.682151794E0
1.238568975E0,1.065419793E0,-1.010353088E0,9.682151794E0
1.240583362E0,1.091755986E0,-1.017535686E0,9.686940193E0
1.242566442E0,1.098938584E0,-1.015141487E0,9.689333916E0
1.244581599E0,1.084573388E0,-1.010353088E0,9.694122314E0
1.246565217E0,1.089361787E0,-1.005564690E0,9.706093788E0
1.248579066E0,1.077390790E0,-1.015141487E0,9.708487511E0
1.250563685E0,1.070208192E0,-1.007958889E0,9.710882187E0
1.252577225E0,1.082179189E0,-9.911994934E-1,9.715670586E0
1.254590844E0,1.084573388E0,-9.935936928E-1,9.713275909E0
1.256574539E0,1.074996591E0,-9.935936928E-1,9.710882187E0
1.258589311E0,1.070208192E0,-1.015141487E0,9.713275909E0
1.260572391E0,1.067813993E0,-1.007958889E0,9.715670586E0
1.262586163E0,1.072602391E0,-1.005564690E0,9.727641106E0
1.264570781E0,1.060631394E0,-1.007958889E0,9.727641106E0
1.266584399E0,1.065419793E0,-1.007958889E0,9.725247383E0
1.268568094E0,1.072602391E0,-1.022324085E0,9.727641106E0
1.270581867E0,1.079784989E0,-1.036689281E0,9.732429504E0
1.272565947E0,1.074996591E0,-1.039083481E0,9.730035782E0
1.274580411E0,1.094150186E0,-1.043871999E0,9.734824181E0
1.276563413E0,1.101332784E0,-1.041477680E0,9.737217903E0
1.278577647E0,1.118092179E0,-1.046266198E0,9.737217903E0
1.280591804E0,1.127668977E0,-1.036689281E0,9.742006302E0
1.282576038E0,1.132457376E0,-1.043871999E0,9.739612579E0
1.284590579E0,1.149216771E0,-1.048660398E0,9.749189377E0
1.286573582E0,1.175553083E0,-1.077390790E0,9.739612579E0
1.288587507E0,1.187524080E0,-1.084573388E0,9.737217903E0
1.290572125E0,1.194706678E0,-1.079784989E0,9.732429504E0
1.292585282E0,1.197100878E0,-1.096544385E0,9.720458984E0
1.294568978E0,1.206677675E0,-1.096544385E0,9.722852707E0
1.296582904E0,1.225831270E0,-1.067813993E0,9.727641106E0
1.298567213E0,1.216254473E0,-1.065419793E0,9.727641106E0
1.300581601E0,1.223437071E0,-1.067813993E0,9.725247383E0
1.302564681E0,1.235408068E0,-1.067813993E0,9.708487511E0
1.304578530E0,1.235408068E0,-1.072602391E0,9.710882187E0
1.306563149E0,1.233013868E0,-1.072602391E0,9.718064308E0
1.308577382E0,1.254561663E0,-1.067813993E0,9.718064308E0
1.310591461E0,1.247379065E0,-1.067813993E0,9.718064308E0
1.312574849E0,1.268926859E0,-1.043871999E0,9.715670586E0
1.314589006E0,1.297657371E0,-1.019929886E0,9.715670586E0
1.316572086E0,1.304839969E0,-1.022324085E0,9.722852707E0
1.318586550E0,1.302445769E0,-1.029506683E0,9.708487511E0
1.320570015E0,1.285686255E0,-1.031900883E0,9.703699112E0
1.322584709E0,1.290474772E0,-1.024718285E0,9.706093788E0
1.324569327E0,1.292868972E0,-1.024718285E0,9.708487511E0
1.326582330E0,1.268926859E0,-1.041477680E0,9.713275909E0
1.328565949E0,1.268926859E0,-1.036689281E0,9.720458984E0
1.330580721E0,1.273715258E0,-1.036689281E0,9.725247383E0
1.332564109E0,1.276109457E0,-1.058237195E0,9.727641106E0
1.334577957E0,1.283292055E0,-1.055842996E0,9.732429504E0
1.336592191E0,1.271321058E0,-1.060631394E0,9.765948296E0
1.338576117E0,1.261744261E0,-1.060631394E0,9.780313492E0
1.340590350E0,1.261744261E0,-1.067813993E0,9.797073364E0
1.342573123E0,1.273715258E0,-1.077390790E0,9.804255486E0
1.344586895E0,1.280897856E0,-1.070208192E0,9.811438560E0
1.346571589E0,1.271321058E0,-1.048660398E0,9.825803757E0
1.348585438E0,1.259350061E0,-1.043871999E0,9.809044838E0
1.350568441E0,1.261744261E0,-1.043871999E0,9.797073364E0
1.352583291E0,1.268926859E0,-1.036689281E0,9.789890289E0
1.354567294E0,1.266532660E0,-1.036689281E0,9.773131371E0
1.356581143E0,1.254561663E0,-1.036689281E0,9.773131371E0
1.358563914E0,1.230619669E0,-1.024718285E0,9.744400978E0
1.360578994E0,1.189918280E0,-1.019929886E0,9.722852707E0
1.362562305E0,1.173158884E0,-1.017535686E0,9.710882187E0
1.364576769E0,1.161187768E0,-1.027112484E0,9.708487511E0
1.366591311E0,1.144428372E0,-1.027112484E0,9.730035782E0
1.368575543E0,1.113303781E0,-1.019929886E0,9.734824181E0
1.370589393E0,1.103726983E0,-1.019929886E0,9.737217903E0
1.372571934E0,1.106121182E0,-1.012747288E0,9.737217903E0
1.374586399E0,1.106121182E0,-1.012747288E0,9.744400978E0
1.376570402E0,1.091755986E0,-1.019929886E0,9.753977776E0
1.378584251E0,1.096544385E0,-1.024718285E0,9.758766174E0
1.380567253E0,1.094150186E0,-1.027112484E0,9.763554573E0
1.382582410E0,1.118092179E0,-1.043871999E0,9.761159897E0
1.384565182E0,1.118092179E0,-1.048660398E0,9.763554573E0
1.386579262E0,1.096544385E0,-1.039083481E0,9.758766174E0
1.388563572E0,1.096544385E0,-1.019929886E0,9.742006302E0
1.390578345E0,1.086967587E0,-1.017535686E0,9.739612579E0
1.392561808E0,1.070208192E0,-1.015141487E0,9.722852707E0
1.394575042E0,1.070208192E0,-1.007958889E0,9.706093788E0
1.396589737E0,1.060631394E0,-1.007958889E0,9.698910713E0
1.398572817E0,1.043871999E0,-1.010353088E0,9.698910713E0
1.400587897E0,1.041477680E0,-1.000776291E0,9.698910713E0
1.402571592E0,1.003170490E0,-9.959878922E-1,9.706093788E0
1.404585748E0,1.010353088E0,-9.911994934E-1,9.701305389E0
1.406569751E0,1.012747288E0,-9.983820915E-1,9.701305389E0
1.408583293E0,1.003170490E0,-9.983820915E-1,9.703699112E0
1.410567680E0,1.005564690E0,-9.792284966E-1,9.710882187E0
1.412580837E0,1.010353088E0,-9.935936928E-1,9.710882187E0
1.414565148E0,1.017535686E0,-1.003170490E0,9.708487511E0
1.416578765E0,1.029506683E0,-1.022324085E0,9.722852707E0
1.418562384E0,1.034295082E0,-1.029506683E0,9.727641106E0
1.420575694E0,1.051054597E0,-1.031900883E0,9.732429504E0
1.422590390E0,1.065419793E0,-1.046266198E0,9.742006302E0
1.424573470E0,1.065419793E0,-1.048660398E0,9.737217903E0
1.426589242E0,1.063025594E0,-1.053448796E0,9.722852707E0
1.428572244E0,1.065419793E0,-1.055842996E0,9.715670586E0
1.430585247E0,1.065419793E0,-1.065419793E0,9.718064308E0
1.432569788E0,1.077390790E0,-1.070208192E0,9.727641106E0
1.434583714E0,1.091755986E0,-1.082179189E0,9.732429504E0
1.436567410E0,1.084573388E0,-1.091755986E0,9.739612579E0
1.438582412E0,1.065419793E0,-1.094150186E0,9.739612579E0
1.440564876E0,1.065419793E0,-1.096544385E0,9.737217903E0
1.442579649E0,1.065419793E0,-1.103726983E0,9.734824181E0
1.444564267E0,1.082179189E0,-1.101332784E0,9.742006302E0
1.446577270E0,1.084573388E0,-1.094150186E0,9.756371498E0
1.448591658E0,1.103726983E0,-1.106121182E0,9.744400978E0
1.450575736E0,1.122880578E0,-1.089361787E0,9.739612579E0
1.452589201E0,1.125274777E0,-1.074996591E0,9.737217903E0
1.454572358E0,1.132457376E0,-1.060631394E0,9.727641106E0
1.456587361E0,1.154005170E0,-1.065419793E0,9.722852707E0
1.458570133E0,1.161187768E0,-1.058237195E0,9.715670586E0
1.460584905E0,1.173158884E0,-1.063025594E0,9.701305389E0
1.462568907E0,1.177947283E0,-1.067813993E0,9.710882187E0
1.464581910E0,1.189918280E0,-1.077390790E0,9.713275909E0
1.466567760E0,1.206677675E0,-1.072602391E0,9.706093788E0
1.468581224E0,1.213860273E0,-1.065419793E0,9.703699112E0
1.470565227E0,1.230619669E0,-1.065419793E0,9.703699112E0
1.472578153E0,1.235408068E0,-1.058237195E0,9.718064308E0
1.474560924E0,1.244984865E0,-1.063025594E0,9.715670586E0
1.476576081E0,1.266532660E0,-1.048660398E0,9.713275909E0
1.478589623E0,1.249773264E0,-1.048660398E0,9.720458984E0
1.480574472E0,1.273715258E0,-1.046266198E0,9.720458984E0
1.482587783E0,1.295263171E0,-1.031900883E0,9.720458984E0
1.484572324E0,1.292868972E0,-1.024718285E0,9.706093788E0
1.486586864E0,1.295263171E0,-1.024718285E0,9.703699112E0
1.488569867E0,1.297657371E0,-1.017535686E0,9.715670586E0
1.490584409E0,1.276109457E0,-1.019929886E0,9.708487511E0
1.492568104E0,1.278503656E0,-1.012747288E0,9.710882187E0
1.494581338E0,1.288080573E0,-1.007958889E0,9.708487511E0
1.496565648E0,1.271321058E0,-1.012747288E0,9.701305389E0
1.498579420E0,1.247379065E0,-1.019929886E0,9.691728592E0
1.500562808E0,1.223437071E0,-1.010353088E0,9.686940193E0
1.502576964E0,1.223437071E0,-1.010353088E0,9.686940193E0
1.504590814E0,1.211466074E0,-1.031900883E0,9.698910713E0
1.506576047E0,1.187524080E0,-1.034295082E0,9.710882187E0
1.508589589E0,1.180341482E0,-1.039083481E0,9.710882187E0
1.510572437E0,1.151610970E0,-1.041477680E0,9.713275909E0
1.512588055E0,1.149216771E0,-1.043871999E0,9.725247383E0
1.514570520E0,1.139639974E0,-1.051054597E0,9.730035782E0
1.516585600E0,1.134851575E0,-1.055842996E0,9.720458984E0
1.518568680E0,1.151610970E0,-1.060631394E0,9.722852707E0
1.520582528E0,1.149216771E0,-1.058237195E0,9.715670586E0
1.522566531E0,1.132457376E0,-1.034295082E0,9.732429504E0
1.524581995E0,1.127668977E0,-1.029506683E0,9.727641106E0
1.526564383E0,1.130063176E0,-1.039083481E0,9.722852707E0
1.528577925E0,1.120486379E0,-1.043871999E0,9.718064308E0
1.530592466E0,1.118092179E0,-1.041477680E0,9.727641106E0
1.532576083E0,1.120486379E0,-1.043871999E0,9.722852707E0
1.534590625E0,1.106121182E0,-1.039083481E0,9.708487511E0
1.536573936E0,1.108515382E0,-1.043871999E0,9.703699112E0
1.538587785E0,1.110909581E0,-1.043871999E0,9.715670586E0
1.540571557E0,1.096544385E0,-1.039083481E0,9.730035782E0
1.542586022E0,1.094150186E0,-1.043871999E0,9.732429504E0
1.544568408E0,1.074996591E0,-1.046266198E0,9.730035782E0
1.546583180E0,1.084573388E0,-1.046266198E0,9.725247383E0
1.548566953E0,1.086967587E0,-1.039083481E0,9.734824181E0
1.550581956E0,1.094150186E0,-1.058237195E0,9.739612579E0
1.552564497E0,1.084573388E0,-1.043871999E0,9.739612579E0
1.554579269E0,1.094150186E0,-1.051054597E0,9.737217903E0
1.556563194E0,1.086967587E0,-1.043871999E0,9.746794701E0
1.558576120E0,1.101332784E0,-1.046266198E0,9.737217903E0
1.560591508E0,1.106121182E0,-1.041477680E0,9.732429504E0
1.562574357E0,1.110909581E0,-1.048660398E0,9.737217903E0
1.564589053E0,1.106121182E0,-1.046266198E0,9.732429504E0
1.566573133E0,1.122880578E0,-1.043871999E0,9.725247383E0
1.568587211E0,1.103726983E0,-1.041477680E0,9.710882187E0
1.570570984E0,1.098938584E0,-1.058237195E0,9.713275909E0
1.572584756E0,1.108515382E0,-1.055842996E0,9.727641106E0
1.574567913E0,1.113303781E0,-1.046266198E0,9.722852707E0
1.576583300E0,1.110909581E0,-1.039083481E0,9.727641106E0
1.578566072E0,1.108515382E0,-1.039083481E0,9.715670586E0
1.580580228E0,1.120486379E0,-1.031900883E0,9.708487511E0
1.582563847E0,1.122880578E0,-1.024718285E0,9.710882187E0
1.584578004E0,1.118092179E0,-1.034295082E0,9.732429504E0
1.586592468E0,1.134851575E0,-1.043871999E0,9.725247383E0
1.588576164E0,1.132457376E0,-1.034295082E0,9.730035782E0
1.590589473E0,1.161187768E0,-1.024718285E0,9.715670586E0
1.592573399E0,1.154005170E0,-1.043871999E0,9.734824181E0
1.594587941E0,1.158793569E0,-1.046266198E0,9.739612579E0
1.596571252E0,1.144428372E0,-1.027112484E0,9.737217903E0
1.598585793E0,1.149216771E0,-1.036689281E0,9.734824181E0
1.600569104E0,1.158793569E0,-1.029506683E0,9.720458984E0
1.602583029E0,1.168370485E0,-1.027112484E0,9.708487511E0
1.604568263E0,1.165976286E0,-1.039083481E0,9.713275909E0
1.606582035E0,1.154005170E0,-1.027112484E0,9.722852707E0
1.608565807E0,1.146822572E0,-1.027112484E0,9.715670586E0
1.610581118E0,1.139639974E0,-1.031900883E0,9.713275909E0
1.612563044E0,1.151610970E0,-1.022324085E0,9.722852707E0
1.614576815E0,1.144428372E0,-1.048660398E0,9.710882187E0
1.616591049E0,1.137245774E0,-1.046266198E0,9.715670586E0
1.618575283E0,1.132457376E0,-1.022324085E0,9.722852707E0
1.620589516E0,1.142034173E0,-1.024718285E0,9.718064308E0
1.622572289E0,1.142034173E0,-1.031900883E0,9.722852707E0
1.624586061E0,1.151610970E0,-1.043871999E0,9.746794701E0
1.626570678E0,1.158793569E0,-1.039083481E0,9.739612579E0
1.628584604E0,1.137245774E0,-1.043871999E0,9.734824181E0
1.630569838E0,1.132457376E0,-1.034295082E0,9.727641106E0
1.632582687E0,1.122880578E0,-1.031900883E0,9.732429504E0
1.634566459E0,1.118092179E0,-1.046266198E0,9.734824181E0
1.636579924E0,1.115697980E0,-1.051054597E0,9.725247383E0
1.638563311E0,1.110909581E0,-1.048660398E0,9.725247383E0
1.640578467E0,1.110909581E0,-1.031900883E0,9.722852707E0
1.642561163E0,1.106121182E0,-1.063025594E0,9.739612579E0
1.644576550E0,1.101332784E0,-1.048660398E0,9.742006302E0
1.646589476E0,1.096544385E0,-1.039083481E0,9.737217903E0
1.648572940E0,1.113303781E0,-1.055842996E0,9.742006302E0
1.650588020E0,1.110909581E0,-1.053448796E0,9.732429504E0
1.652571946E0,1.120486379E0,-1.058237195E0,9.739612579E0
1.654585872E0,1.130063176E0,-1.043871999E0,9.742006302E0
1.656569798E0,1.132457376E0,-1.034295082E0,9.739612579E0
1.658583032E0,1.115697980E0,-1.043871999E0,9.737217903E0
1.660566496E0,1.113303781E0,-1.041477680E0,9.737217903E0
1.662581191E0,1.122880578E0,-1.043871999E0,9.744400978E0
1.664564271E0,1.134851575E0,-1.039083481E0,9.734824181E0
1.666579658E0,1.125274777E0,-1.029506683E0,9.744400978E0
1.668562200E0,1.115697980E0,-1.036689281E0,9.744400978E0
1.670575972E0,1.122880578E0,-1.039083481E0,9.732429504E0
1.672590205E0,1.122880578E0,-1.031900883E0,9.727641106E0
1.674574439E0,1.118092179E0,-1.027112484E0,9.720458984E0
1.676588672E0,1.127668977E0,-1.041477680E0,9.720458984E0
1.678572675E0,1.118092179E0,-1.029506683E0,9.722852707E0
1.680586832E0,1.127668977E0,-1.017535686E0,9.720458984E0
1.682569835E0,1.122880578E0,-1.010353088E0,9.732429504E0
1.684585530E0,1.130063176E0,-9.983820915E-1,9.727641106E0
1.686568071E0,1.142034173E0,-1.005564690E0,9.720458984E0
1.688582843E0,1.137245774E0,-1.027112484E0,9.715670586E0
1.690565539E0,1.127668977E0,-1.036689281E0,9.706093788E0
1.692580080E0,1.134851575E0,-1.031900883E0,9.720458984E0
1.694563775E0,1.137245774E0,-1.029506683E0,9.732429504E0
1.696577547E0,1.144428372E0,-1.012747288E0,9.722852707E0
1.698592011E0,1.161187768E0,-1.010353088E0,9.725247383E0
1.700575168E0,1.165976286E0,-1.003170490E0,9.732429504E0
1.702589633E0,1.165976286E0,-1.003170490E0,9.742006302E0
1.704572943E0,1.170764685E0,-1.015141487E0,9.727641106E0
1.706587408E0,1.163581967E0,-1.017535686E0,9.720458984E0
1.708570794E0,1.168370485E0,-9.935936928E-1,9.725247383E0
1.710586182E0,1.180341482E0,-9.983820915E-1,9.720458984E0
1.712568954E0,1.187524080E0,-1.000776291E0,9.718064308E0
1.714583111E0,1.204283476E0,-9.911994934E-1,9.722852707E0
1.716566499E0,1.206677675E0,-9.983820915E-1,9.742006302E0
1.718580731E0,1.209071875E0,-1.007958889E0,9.749189377E0
1.720565581E0,1.221042871E0,-1.024718285E0,9.756371498E0
1.722579507E0,1.252167463E0,-1.010353088E0,9.746794701E0
1.724563433E0,1.256955862E0,-1.010353088E0,9.744400978E0
1.726577282E0,1.261744261E0,-1.022324085E0,9.765948296E0
1.728590593E0,1.273715258E0,-1.019929886E0,9.765948296E0
1.730575518E0,1.285686255E0,-1.024718285E0,9.763554573E0
1.732588367E0,1.312022567E0,-1.027112484E0,9.761159897E0
1.734572139E0,1.323993564E0,-1.029506683E0,9.761159897E0
1.736586834E0,1.347935557E0,-1.036689281E0,9.773131371E0
1.738569914E0,1.362300754E0,-1.024718285E0,9.758766174E0
1.740584456E0,1.369483352E0,-1.031900883E0,9.756371498E0
1.742567458E0,1.379060149E0,-1.034295082E0,9.742006302E0
1.744581615E0,1.386242747E0,-1.041477680E0,9.734824181E0
1.746566541E0,1.395819545E0,-1.036689281E0,9.727641106E0
1.748580159E0,1.410184860E0,-1.034295082E0,9.720458984E0
1.750563162E0,1.417367458E0,-1.041477680E0,9.730035782E0
1.752578857E0,1.422155857E0,-1.043871999E0,9.725247383E0
1.754561321E0,1.434126854E0,-1.039083481E0,9.720458984E0
1.756576093E0,1.438915253E0,-1.039083481E0,9.706093788E0
1.758590019E0,1.450886250E0,-1.058237195E0,9.696516991E0
1.760573715E0,1.467645645E0,-1.067813993E0,9.696516991E0
1.762587179E0,1.465251446E0,-1.065419793E0,9.696516991E0
1.764571490E0,1.474828243E0,-1.065419793E0,9.677363396E0
1.766585338E0,1.465251446E0,-1.074996591E0,9.686940193E0
1.768569110E0,1.474828243E0,-1.077390790E0,9.684545517E0
1.770583190E0,1.479616642E0,-1.055842996E0,9.677363396E0
1.772566962E0,1.482010841E0,-1.048660398E0,9.674968719E0
1.774580812E0,1.484405041E0,-1.058237195E0,9.679757118E0
1.776564815E0,1.474828243E0,-1.051054597E0,9.665391922E0
1.778578663E0,1.467645645E0,-1.043871999E0,9.665391922E0
1.780562050E0,1.460463047E0,-1.043871999E0,9.655815125E0
1.782576746E0,1.441309452E0,-1.041477680E0,9.629479408E0
1.784591210E0,1.436521053E0,-1.041477680E0,9.629479408E0
1.786573444E0,1.436521053E0,-1.039083481E0,9.627084732E0
1.788588139E0,1.422155857E0,-1.046266198E0,9.627084732E0
1.790572757E0,1.414973259E0,-1.024718285E0,9.622296333E0
1.792586683E0,1.391031146E0,-1.024718285E0,9.622296333E0
1.794570070E0,1.379060149E0,-1.017535686E0,9.627084732E0
1.796584458E0,1.364694953E0,-1.005564690E0,9.636661530E0
1.798567538E0,1.340752959E0,-1.010353088E0,9.641449928E0
1.800581463E0,1.345541358E0,-1.019929886E0,9.641449928E0
1.802565466E0,1.340752959E0,-1.017535686E0,9.653421402E0
1.804580854E0,1.312022567E0,-1.012747288E0,9.662998199E0
1.806563011E0,1.280897856E0,-1.005564690E0,9.655815125E0
1.808577167E0,1.276109457E0,-9.935936928E-1,9.653421402E0
1.810591632E0,1.268926859E0,-1.012747288E0,9.658209801E0
1.812575557E0,1.244984865E0,-1.000776291E0,9.658209801E0
1.814589483E0,1.223437071E0,-9.959878922E-1,9.658209801E0
1.816573409E0,1.211466074E0,-9.768342972E-1,9.665391922E0
1.818586951E0,1.197100878E0,-9.911994934E-1,9.682151794E0
1.820571031E0,1.182735682E0,-9.983820915E-1,9.684545517E0
1.822585111E0,1.175553083E0,-9.983820915E-1,9.703699112E0
1.824567959E0,1.173158884E0,-9.911994934E-1,9.713275909E0
1.826583885E0,1.168370485E0,-9.792284966E-1,9.722852707E0
1.828566734E0,1.146822572E0,-9.935936928E-1,9.734824181E0
1.830580583E0,1.142034173E0,-9.864110947E-1,9.739612579E0
1.832564509E0,1.137245774E0,-9.983820915E-1,9.753977776E0
1.834578358E0,1.115697980E0,-1.000776291E0,9.753977776E0
1.836592514E0,1.110909581E0,-9.935936928E-1,9.758766174E0
1.838576209E0,1.108515382E0,-9.840168953E-1,9.758766174E0
1.840590136E0,1.089361787E0,-9.888052940E-1,9.768342972E0
1.842573523E0,1.084573388E0,-9.935936928E-1,9.773131371E0
1.844589218E0,1.089361787E0,-1.007958889E0,9.785101891E0
1.846571606E0,1.103726983E0,-1.005564690E0,9.787496567E0
1.848586377E0,1.103726983E0,-1.017535686E0,9.782708168E0
1.850570457E0,1.096544385E0,-1.012747288E0,9.773131371E0
1.852583614E0,1.101332784E0,-1.003170490E0,9.770736694E0
1.854567079E0,1.098938584E0,-9.983820915E-1,9.773131371E0
1.856582082E0,1.077390790E0,-9.888052940E-1,9.775525093E0
1.858565238E0,1.084573388E0,-9.864110947E-1,9.775525093E0
1.860579933E0,1.091755986E0,-9.911994934E-1,9.773131371E0
1.862563090E0,1.086967587E0,-9.840168953E-1,9.785101891E0
1.864576554E0,1.098938584E0,-9.816226959E-1,9.775525093E0
1.866591326E0,1.108515382E0,-9.935936928E-1,9.749189377E0
1.868575329E0,1.098938584E0,-9.983820915E-1,9.756371498E0
1.870590408E0,1.096544385E0,-9.959878922E-1,9.751583099E0
1.872573258E0,1.089361787E0,-9.840168953E-1,9.744400978E0
1.874587414E0,1.106121182E0,-9.696516991E-1,9.737217903E0
1.876570187E0,1.103726983E0,-9.816226959E-1,9.734824181E0
1.878584651E0,1.096544385E0,-9.768342972E-1,9.742006302E0
1.880568654E0,1.096544385E0,-9.744400978E-1,9.734824181E0
1.882582502E0,1.091755986E0,-9.720458984E-1,9.727641106E0
1.884567044E0,1.115697980E0,-9.983820915E-1,9.725247383E0
1.886580662E0,1.130063176E0,-1.005564690E0,9.734824181E0
1.888564281E0,1.122880578E0,-1.000776291E0,9.730035782E0
1.890579437E0,1.120486379E0,-9.816226959E-1,9.727641106E0
1.892561902E0,1.120486379E0,-9.816226959E-1,9.720458984E0
1.894576366E0,1.125274777E0,-9.911994934E-1,9.720458984E0
1.896590522E0,1.137245774E0,-1.000776291E0,9.713275909E0
1.898573833E0,1.142034173E0,-9.983820915E-1,9.708487511E0
1.900588298E0,1.154005170E0,-1.015141487E0,9.696516991E0
1.902571147E0,1.154005170E0,-1.005564690E0,9.708487511E0
1.904585611E0,1.151610970E0,-1.003170490E0,9.713275909E0
1.906571075E0,1.142034173E0,-1.003170490E0,9.706093788E0
1.908584616E0,1.156399369E0,-1.010353088E0,9.698910713E0
1.910566850E0,1.165976286E0,-1.010353088E0,9.703699112E0
1.912581315E0,1.161187768E0,-1.000776291E0,9.718064308E0
1.914564702E0,1.189918280E0,-1.005564690E0,9.713275909E0
1.916579398E0,1.197100878E0,-1.007958889E0,9.720458984E0
1.918562553E0,1.197100878E0,-1.005564690E0,9.720458984E0
1.920577556E0,1.197100878E0,-9.983820915E-1,9.722852707E0
1.922590867E0,1.177947283E0,-9.983820915E-1,9.722852707E0
1.924575486E0,1.201889277E0,-1.007958889E0,9.727641106E0
1.926589335E0,1.199495077E0,-1.000776291E0,9.734824181E0
1.928572721E0,1.204283476E0,-1.010353088E0,9.734824181E0
1.930587109E0,1.218648672E0,-1.003170490E0,9.734824181E0
1.932570804E0,1.221042871E0,-1.003170490E0,9.737217903E0
1.934585346E0,1.225831270E0,-1.005564690E0,9.749189377E0
1.936568733E0,1.228225470E0,-1.005564690E0,9.756371498E0
1.938582813E0,1.230619669E0,-1.003170490E0,9.753977776E0
1.940566200E0,1.225831270E0,-1.024718285E0,9.744400978E0
1.942580357E0,1.230619669E0,-1.027112484E0,9.742006302E0
1.944563514E0,1.235408068E0,-1.019929886E0,9.744400978E0
1.946576747E0,1.247379065E0,-1.024718285E0,9.751583099E0
1.948592135E0,1.249773264E0,-1.027112484E0,9.753977776E0
1.950577292E0,1.249773264E0,-1.027112484E0,9.761159897E0
1.952590294E0,1.240196466E0,-1.007958889E0,9.761159897E0
1.954573681E0,1.244984865E0,-1.015141487E0,9.761159897E0
1.956587838E0,1.249773264E0,-1.015141487E0,9.763554573E0
1.958571841E0,1.244984865E0,-1.017535686E0,9.768342972E0
1.960586306E0,1.252167463E0,-1.022324085E0,9.765948296E0
1.962569617E0,1.268926859E0,-1.024718285E0,9.763554573E0
1.964584388E0,1.273715258E0,-1.005564690E0,9.756371498E0
1.966567237E0,1.273715258E0,-9.983820915E-1,9.761159897E0
1.968581701E0,1.283292055E0,-1.024718285E0,9.746794701E0
1.970565628E0,1.290474772E0,-1.005564690E0,9.756371498E0
1.972578938E0,1.297657371E0,-1.000776291E0,9.749189377E0
1.974562634E0,1.300051570E0,-9.983820915E-1,9.734824181E0
1.976577020E0,1.295263171E0,-1.007958889E0,9.734824181E0
1.978590869E0,1.295263171E0,-1.010353088E0,9.732429504E0
1.980574949E0,1.302445769E0,-1.005564690E0,9.730035782E0
1.982588798E0,1.316810966E0,-1.007958889E0,9.718064308E0
1.984572186E0,1.321599364E0,-1.022324085E0,9.710882187E0
1.986587189E0,1.326387763E0,-1.046266198E0,9.708487511E0
1.988570653E0,1.323993564E0,-1.039083481E0,9.706093788E0
1.990583886E0,1.323993564E0,-1.007958889E0,9.694122314E0
1.992569043E0,1.319205165E0,-1.019929886E0,9.701305389E0
1.994582585E0,1.331176162E0,-1.010353088E0,9.701305389E0
1.996566280E0,1.333570361E0,-1.000776291E0,9.696516991E0
1.998579898E0,1.321599364E0,-1.012747288E0,9.701305389E0
2.000563593E0,1.319205165E0,-9.983820915E-1,9.703699112E0
2.002577365E0,1.321599364E0,-9.935936928E-1,9.689333916E0
2.004593368E0,1.338358760E0,-1.003170490E0,9.665391922E0
2.006575525E0,1.338358760E0,-1.000776291E0,9.670180321E0
2.008589682E0,1.333570361E0,-9.768342972E-1,9.677363396E0
2.010574068E0,1.335964561E0,-9.792284966E-1,9.670180321E0
2.012588456E0,1.331176162E0,-9.864110947E-1,9.674968719E0
2.014571536E0,1.323993564E0,-9.864110947E-1,9.674968719E0
2.016586693E0,1.323993564E0,-9.983820915E-1,9.684545517E0
2.018569080E0,1.323993564E0,-9.840168953E-1,9.677363396E0
2.020582699E0,1.309628367E0,-9.864110947E-1,9.672574997E0
2.022567316E0,1.307234168E0,-9.959878922E-1,9.667786598E0
2.024580242E0,1.295263171E0,-9.864110947E-1,9.672574997E0
2.026564861E0,1.276109457E0,-9.864110947E-1,9.679757118E0
2.028579633E0,1.273715258E0,-9.816226959E-1,9.682151794E0
2.030563636E0,1.254561663E0,-9.959878922E-1,9.684545517E0
2.032577408E0,1.254561663E0,-9.983820915E-1,9.696516991E0
2.034591333E0,1.249773264E0,-9.959878922E-1,9.698910713E0
2.036574336E0,1.242590666E0,-9.840168953E-1,9.694122314E0
2.038588493E0,1.244984865E0,-1.003170490E0,9.696516991E0
2.040572496E0,1.235408068E0,-1.005564690E0,9.694122314E0
2.042586345E0,1.242590666E0,-1.000776291E0,9.694122314E0
2.044570425E0,1.247379065E0,-9.935936928E-1,9.696516991E0
2.046584889E0,1.237802267E0,-9.911994934E-1,9.691728592E0
2.048568199E0,1.228225470E0,-1.010353088E0,9.708487511E0
2.050583048E0,1.221042871E0,-1.022324085E0,9.713275909E0
2.052566128E0,1.228225470E0,-1.024718285E0,9.725247383E0
2.054579670E0,1.209071875E0,-1.010353088E0,9.718064308E0
2.056563365E0,1.206677675E0,-1.000776291E0,9.715670586E0
2.058577444E0,1.204283476E0,-9.959878922E-1,9.725247383E0
2.060592601E0,1.204283476E0,-9.983820915E-1,9.732429504E0
2.062575373E0,1.197100878E0,-1.005564690E0,9.732429504E0
2.064589222E0,1.189918280E0,-1.005564690E0,9.727641106E0
2.066574148E0,1.165976286E0,-1.015141487E0,9.737217903E0
2.068587998E0,1.165976286E0,-1.012747288E0,9.734824181E0
2.070570692E0,1.165976286E0,-9.864110947E-1,9.739612579E0
2.072585849E0,1.158793569E0,-9.888052940E-1,9.744400978E0
2.074568929E0,1.151610970E0,-9.911994934E-1,9.742006302E0
2.076583085E0,1.163581967E0,-9.888052940E-1,9.734824181E0
2.078566473E0,1.165976286E0,-1.000776291E0,9.732429504E0
2.080580629E0,1.156399369E0,-9.935936928E-1,9.727641106E0
2.082564863E0,1.165976286E0,-9.983820915E-1,9.720458984E0
2.084579020E0,1.158793569E0,-1.007958889E0,9.720458984E0
2.086593176E0,1.149216771E0,-1.005564690E0,9.718064308E0
2.088577179E0,1.151610970E0,-1.010353088E0,9.722852707E0
2.090591413E0,1.151610970E0,-1.010353088E0,9.725247383E0
2.092574800E0,1.165976286E0,-1.003170490E0,9.727641106E0
2.094589264E0,1.168370485E0,-1.003170490E0,9.722852707E0
2.096572037E0,1.170764685E0,-1.003170490E0,9.720458984E0
2.098586117E0,1.180341482E0,-1.015141487E0,9.710882187E0
2.100570504E0,1.185129881E0,-9.983820915E-1,9.720458984E0
2.102584046E0,1.189918280E0,-1.000776291E0,9.727641106E0
2.104566817E0,1.194706678E0,-1.000776291E0,9.722852707E0
2.106581281E0,1.209071875E0,-9.983820915E-1,9.710882187E0
2.108565900E0,1.211466074E0,-9.911994934E-1,9.698910713E0
2.110579980E0,1.221042871E0,-9.744400978E-1,9.710882187E0
2.112563367E0,1.221042871E0,-9.672574997E-1,9.706093788E0
2.114577601E0,1.221042871E0,-9.624691010E-1,9.710882187E0
2.116591757E0,1.216254473E0,-9.744400978E-1,9.725247383E0
2.118574760E0,1.211466074E0,-9.983820915E-1,9.720458984E0
2.120588994E0,1.225831270E0,-9.983820915E-1,9.715670586E0
2.122573304E0,1.235408068E0,-9.768342972E-1,9.703699112E0
2.124588307E0,1.247379065E0,-9.648633003E-1,9.710882187E0
2.126571464E0,1.249773264E0,-9.576807022E-1,9.713275909E0
2.128585543E0,1.252167463E0,-9.840168953E-1,9.710882187E0
2.130569315E0,1.261744261E0,-9.840168953E-1,9.720458984E0
2.132583472E0,1.264138460E0,-9.720458984E-1,9.710882187E0
2.134566475E0,1.242590666E0,-9.648633003E-1,9.718064308E0
2.136580094E0,1.237802267E0,-9.720458984E-1,9.734824181E0
2.138564634E0,1.249773264E0,-9.840168953E-1,9.734824181E0
2.140578483E0,1.233013868E0,-9.864110947E-1,9.732429504E0
2.142592717E0,1.233013868E0,-9.840168953E-1,9.732429504E0
2.144576643E0,1.240196466E0,-9.840168953E-1,9.737217903E0
2.146590877E0,1.249773264E0,-9.959878922E-1,9.737217903E0
2.148574880E0,1.259350061E0,-9.959878922E-1,9.730035782E0
2.150588113E0,1.261744261E0,-9.935936928E-1,9.734824181E0
2.152572039E0,1.259350061E0,-9.935936928E-1,9.744400978E0
2.154586273E0,1.247379065E0,-1.010353088E0,9.749189377E0
2.156569583E0,1.256955862E0,-1.003170490E0,9.749189377E0
2.158584125E0,1.252167463E0,-1.007958889E0,9.746794701E0
2.160567512E0,1.233013868E0,-9.983820915E-1,9.742006302E0
2.162581899E0,1.247379065E0,-9.864110947E-1,9.742006302E0
2.164566287E0,1.244984865E0,-9.816226959E-1,9.739612579E0
2.166580367E0,1.247379065E0,-9.983820915E-1,9.734824181E0
2.168562831E0,1.259350061E0,-1.005564690E0,9.744400978E0
2.170577988E0,1.268926859E0,-1.000776291E0,9.749189377E0
2.172592376E0,1.271321058E0,-1.000776291E0,9.739612579E0
2.174575454E0,1.280897856E0,-9.864110947E-1,9.737217903E0
2.176588996E0,1.271321058E0,-9.935936928E-1,9.739612579E0
2.178573076E0,1.276109457E0,-9.935936928E-1,9.753977776E0
2.180587464E0,1.290474772E0,-1.000776291E0,9.746794701E0
2.182570928E0,1.285686255E0,-1.005564690E0,9.749189377E0
2.184584700E0,1.285686255E0,-1.012747288E0,9.753977776E0
2.186569318E0,1.285686255E0,-1.010353088E0,9.746794701E0
2.188582628E0,1.278503656E0,-9.840168953E-1,9.725247383E0
2.190567247E0,1.271321058E0,-9.768342972E-1,9.722852707E0
2.192581019E0,1.264138460E0,-9.792284966E-1,9.722852707E0
2.194564484E0,1.268926859E0,-9.840168953E-1,9.722852707E0
2.196578333E0,1.271321058E0,-9.935936928E-1,9.722852707E0
2.198592489E0,1.268926859E0,-9.840168953E-1,9.720458984E0
2.200576492E0,1.273715258E0,-9.792284966E-1,9.727641106E0
2.202590264E0,1.271321058E0,-9.840168953E-1,9.722852707E0
2.204575190E0,1.259350061E0,-9.840168953E-1,9.720458984E0
2.206588731E0,1.256955862E0,-9.792284966E-1,9.720458984E0
2.208571888E0,1.256955862E0,-9.744400978E-1,9.713275909E0
2.210586967E0,1.252167463E0,-9.624691010E-1,9.706093788E0
2.212569970E0,1.247379065E0,-9.504981041E-1,9.713275909E0
2.214583281E0,1.247379065E0,-9.481038451E-1,9.713275909E0
2.216568438E0,1.266532660E0,-9.552865028E-1,9.708487511E0
2.218581979E0,1.259350061E0,-9.720458984E-1,9.708487511E0
2.220565135E0,1.256955862E0,-9.816226959E-1,9.713275909E0
2.222579523E0,1.237802267E0,-9.864110947E-1,9.713275909E0
2.224563526E0,1.240196466E0,-9.888052940E-1,9.706093788E0
2.226577682E0,1.240196466E0,-9.792284966E-1,9.708487511E0
2.228591609E0,1.240196466E0,-9.672574997E-1,9.715670586E0
2.230574381E0,1.233013868E0,-9.840168953E-1,9.722852707E0
2.232589383E0,1.228225470E0,-9.983820915E-1,9.718064308E0
2.234572540E0,1.228225470E0,-1.007958889E0,9.720458984E0
2.236586389E0,1.223437071E0,-9.816226959E-1,9.727641106E0
2.238571007E0,1.223437071E0,-9.816226959E-1,9.730035782E0
2.240585395E0,1.240196466E0,-9.911994934E-1,9.715670586E0
2.242568859E0,1.223437071E0,-9.959878922E-1,9.708487511E0
2.244583938E0,1.223437071E0,-9.983820915E-1,9.713275909E0
2.246566403E0,1.225831270E0,-9.911994934E-1,9.715670586E0
2.248580175E0,1.230619669E0,-1.007958889E0,9.710882187E0
2.250565101E0,1.225831270E0,-1.017535686E0,9.708487511E0
2.252578950E0,1.211466074E0,-9.911994934E-1,9.706093788E0
2.254592569E0,1.216254473E0,-9.911994934E-1,9.698910713E0
2.256576263E0,1.235408068E0,-9.864110947E-1,9.701305389E0
2.258590035E0,1.252167463E0,-9.911994934E-1,9.703699112E0
2.260573423E0,1.237802267E0,-9.983820915E-1,9.706093788E0
2.262588503E0,1.218648672E0,-1.015141487E0,9.708487511E0
2.264571275E0,1.233013868E0,-1.010353088E0,9.710882187E0
2.266585509E0,1.233013868E0,-1.005564690E0,9.706093788E0
2.268569511E0,1.244984865E0,-9.959878922E-1,9.718064308E0
2.270584283E0,1.240196466E0,-9.864110947E-1,9.710882187E0
2.272567363E0,1.240196466E0,-9.888052940E-1,9.715670586E0
2.274581520E0,1.259350061E0,-9.840168953E-1,9.718064308E0
2.276565215E0,1.237802267E0,-9.983820915E-1,9.715670586E0
2.278578757E0,1.242590666E0,-9.959878922E-1,9.718064308E0
2.280593759E0,1.249773264E0,-9.840168953E-1,9.718064308E0
2.282577223E0,1.244984865E0,-9.768342972E-1,9.715670586E0
2.284591688E0,1.249773264E0,-9.744400978E-1,9.725247383E0
2.286575691E0,1.266532660E0,-9.744400978E-1,9.710882187E0
2.288589155E0,1.266532660E0,-9.816226959E-1,9.706093788E0
2.290573465E0,1.244984865E0,-9.744400978E-1,9.713275909E0
2.292586776E0,1.249773264E0,-9.816226959E-1,9.710882187E0
2.294570471E0,1.252167463E0,-9.768342972E-1,9.710882187E0
2.296584935E0,1.249773264E0,-9.888052940E-1,9.727641106E0
2.298568015E0,1.244984865E0,-9.816226959E-1,9.730035782E0
2.300582403E0,1.242590666E0,-9.816226959E-1,9.725247383E0
2.302565867E0,1.247379065E0,-9.768342972E-1,9.708487511E0
2.304579716E0,1.252167463E0,-9.792284966E-1,9.713275909E0
2.306564873E0,1.256955862E0,-9.911994934E-1,9.710882187E0
2.308579029E0,1.242590666E0,-9.840168953E-1,9.698910713E0
2.310592340E0,1.256955862E0,-9.720458984E-1,9.694122314E0
2.312576343E0,1.256955862E0,-9.768342972E-1,9.698910713E0
2.314590499E0,1.233013868E0,-9.816226959E-1,9.701305389E0
2.316573810E0,1.230619669E0,-9.864110947E-1,9.703699112E0
2.318587967E0,1.237802267E0,-9.983820915E-1,9.706093788E0
2.320571662E0,1.240196466E0,-9.864110947E-1,9.696516991E0
2.322585819E0,1.242590666E0,-9.792284966E-1,9.703699112E0
2.324570129E0,1.247379065E0,-9.792284966E-1,9.710882187E0
2.326583670E0,1.244984865E0,-9.768342972E-1,9.708487511E0
2.328567673E0,1.230619669E0,-9.792284966E-1,9.710882187E0
2.330581599E0,1.233013868E0,-9.959878922E-1,9.706093788E0
2.332564371E0,1.221042871E0,-9.983820915E-1,9.708487511E0
2.334579451E0,1.221042871E0,-1.003170490E0,9.708487511E0
2.336563146E0,1.235408068E0,-9.959878922E-1,9.710882187E0
2.338577610E0,1.244984865E0,-9.792284966E-1,9.713275909E0
2.340591075E0,1.244984865E0,-9.840168953E-1,9.720458984E0
2.342574770E0,1.237802267E0,-9.959878922E-1,9.706093788E0
2.344588004E0,1.235408068E0,-1.005564690E0,9.708487511E0
2.346573314E0,1.230619669E0,-1.000776291E0,9.713275909E0
2.348587394E0,1.237802267E0,-1.000776291E0,9.725247383E0
2.350571089E0,1.233013868E0,-9.935936928E-1,9.732429504E0
2.352584707E0,1.228225470E0,-9.959878922E-1,9.727641106E0
2.354568095E0,1.240196466E0,-9.959878922E-1,9.722852707E0
2.356582559E0,1.230619669E0,-9.911994934E-1,9.725247383E0
2.358566254E0,1.223437071E0,-9.888052940E-1,9.722852707E0
2.360579795E0,1.228225470E0,-9.792284966E-1,9.715670586E0
2.362564106E0,1.230619669E0,-9.816226959E-1,9.715670586E0
2.364577955E0,1.237802267E0,-9.888052940E-1,9.720458984E0
2.366592035E0,1.252167463E0,-1.000776291E0,9.727641106E0
2.368575730E0,1.254561663E0,-9.983820915E-1,9.718064308E0
2.370591118E0,1.252167463E0,-9.983820915E-1,9.715670586E0
2.372573889E0,1.244984865E0,-1.005564690E0,9.718064308E0
2.374588353E0,1.254561663E0,-1.000776291E0,9.710882187E0
2.376571126E0,1.254561663E0,-9.792284966E-1,9.710882187E0
2.378585667E0,1.254561663E0,-9.768342972E-1,9.722852707E0
2.380568439E0,1.278503656E0,-9.816226959E-1,9.727641106E0
2.382583442E0,1.290474772E0,-9.864110947E-1,9.720458984E0
2.384566290E0,1.283292055E0,-9.935936928E-1,9.708487511E0
2.386581986E0,1.268926859E0,-9.935936928E-1,9.710882187E0
2.388565296E0,1.252167463E0,-9.840168953E-1,9.713275909E0
2.390578530E0,1.252167463E0,-9.816226959E-1,9.715670586E0
2.392593302E0,1.259350061E0,-9.672574997E-1,9.706093788E0
2.394576998E0,1.261744261E0,-9.576807022E-1,9.708487511E0
2.396590923E0,1.273715258E0,-9.600749016E-1,9.706093788E0
2.398574003E0,1.254561663E0,-9.672574997E-1,9.710882187E0
2.400589390E0,1.244984865E0,-9.576807022E-1,9.715670586E0
2.402572163E0,1.242590666E0,-9.624691010E-1,9.710882187E0
2.404587858E0,1.249773264E0,-9.744400978E-1,9.715670586E0
2.406570861E0,1.256955862E0,-9.888052940E-1,9.718064308E0
2.408584171E0,1.252167463E0,-9.888052940E-1,9.710882187E0
2.410569097E0,1.242590666E0,-9.744400978E-1,9.710882187E0
2.412582869E0,1.242590666E0,-9.911994934E-1,9.713275909E0
2.414565410E0,1.240196466E0,-9.864110947E-1,9.713275909E0
2.416580413E0,1.223437071E0,-9.768342972E-1,9.713275909E0
2.418563185E0,1.221042871E0,-9.768342972E-1,9.710882187E0
2.420577418E0,1.221042871E0,-9.744400978E-1,9.706093788E0
2.422592114E0,1.211466074E0,-9.768342972E-1,9.708487511E0
2.424575271E0,1.216254473E0,-9.720458984E-1,9.713275909E0
2.426589043E0,1.206677675E0,-9.768342972E-1,9.730035782E0
2.428574277E0,1.216254473E0,-9.816226959E-1,9.730035782E0
2.430589049E0,1.218648672E0,-9.911994934E-1,9.722852707E0
2.432571820E0,1.216254473E0,-9.911994934E-1,9.722852707E0
2.434585669E0,1.230619669E0,-9.840168953E-1,9.734824181E0
2.436569057E0,1.230619669E0,-9.888052940E-1,9.739612579E0
2.438583521E0,1.244984865E0,-9.864110947E-1,9.737217903E0
2.440566909E0,1.244984865E0,-9.864110947E-1,9.730035782E0
2.442581142E0,1.242590666E0,-9.864110947E-1,9.734824181E0
2.444565376E0,1.230619669E0,-1.003170490E0,9.734824181E0
2.446578917E0,1.225831270E0,-1.003170490E0,9.730035782E0
2.448593074E0,1.230619669E0,-1.003170490E0,9.720458984E0
2.450578000E0,1.233013868E0,-9.959878922E-1,9.722852707E0
2.452591234E0,1.223437071E0,-9.840168953E-1,9.722852707E0
2.454574697E0,1.223437071E0,-9.864110947E-1,9.737217903E0
2.456588162E0,1.252167463E0,-9.959878922E-1,9.730035782E0
2.458572165E0,1.256955862E0,-1.003170490E0,9.737217903E0
2.460586937E0,1.261744261E0,-1.007958889E0,9.749189377E0
2.462570325E0,1.252167463E0,-9.840168953E-1,9.739612579E0
2.464583635E0,1.244984865E0,-9.959878922E-1,9.734824181E0
2.466569176E0,1.252167463E0,-9.959878922E-1,9.734824181E0
2.468582333E0,1.256955862E0,-9.792284966E-1,9.725247383E0
2.470565720E0,1.247379065E0,-9.959878922E-1,9.713275909E0
2.472580185E0,1.242590666E0,-9.888052940E-1,9.708487511E0
2.474563957E0,1.259350061E0,-9.720458984E-1,9.718064308E0
2.476577806E0,1.254561663E0,-9.720458984E-1,9.725247383E0
2.478591654E0,1.259350061E0,-9.696516991E-1,9.732429504E0
2.480575581E0,1.264138460E0,-9.744400978E-1,9.720458984E0
2.482589737E0,1.254561663E0,-9.744400978E-1,9.720458984E0
2.484574356E0,1.237802267E0,-9.888052940E-1,9.715670586E0
2.486587666E0,1.244984865E0,-9.816226959E-1,9.720458984E0
2.488570977E0,1.235408068E0,-9.696516991E-1,9.708487511E0
2.490585441E0,1.235408068E0,-9.864110947E-1,9.727641106E0
2.492568905E0,1.247379065E0,-9.864110947E-1,9.720458984E0
2.494582985E0,1.264138460E0,-9.744400978E-1,9.715670586E0
2.496566680E0,1.259350061E0,-9.864110947E-1,9.708487511E0
2.498580299E0,1.259350061E0,-9.888052940E-1,9.710882187E0
2.500564609E0,1.266532660E0,-9.864110947E-1,9.720458984E0
2.502578150E0,1.252167463E0,-9.840168953E-1,9.713275909E0
2.504592230E0,1.244984865E0,-9.672574997E-1,9.710882187E0
2.506577233E0,1.237802267E0,-9.768342972E-1,9.701305389E0
2.508590698E0,1.235408068E0,-9.648633003E-1,9.718064308E0
2.510575085E0,1.235408068E0,-9.576807022E-1,9.722852707E0
2.512588856E0,1.230619669E0,-9.648633003E-1,9.720458984E0
2.514572244E0,1.228225470E0,-9.552865028E-1,9.718064308E0
2.516586170E0,1.225831270E0,-9.576807022E-1,9.718064308E0
2.518570173E0,1.213860273E0,-9.624691010E-1,9.718064308E0
2.520584022E0,1.216254473E0,-9.648633003E-1,9.720458984E0
2.522567948E0,1.221042871E0,-9.840168953E-1,9.727641106E0
2.524582489E0,1.225831270E0,-9.864110947E-1,9.720458984E0
2.526565799E0,1.223437071E0,-9.792284966E-1,9.727641106E0
2.528579726E0,1.206677675E0,-9.840168953E-1,9.732429504E0
2.530564575E0,1.218648672E0,-9.816226959E-1,9.727641106E0
2.532577578E0,1.218648672E0,-9.792284966E-1,9.730035782E0
2.534591427E0,1.218648672E0,-9.744400978E-1,9.739612579E0
2.536575737E0,1.213860273E0,-9.840168953E-1,9.734824181E0
2.538589586E0,1.211466074E0,-9.888052940E-1,9.732429504E0
2.540572896E0,1.225831270E0,-9.864110947E-1,9.732429504E0
2.542587053E0,1.225831270E0,-1.000776291E0,9.737217903E0
2.544571133E0,1.230619669E0,-9.864110947E-1,9.732429504E0
2.546585598E0,1.221042871E0,-9.816226959E-1,9.732429504E0
2.548569831E0,1.225831270E0,-9.744400978E-1,9.734824181E0
2.550582834E0,1.230619669E0,-9.888052940E-1,9.742006302E0
2.552567452E0,1.249773264E0,-9.888052940E-1,9.737217903E0
2.554580993E0,1.237802267E0,-9.888052940E-1,9.730035782E0
2.556563996E0,1.221042871E0,-9.840168953E-1,9.732429504E0
2.558578230E0,1.237802267E0,-9.888052940E-1,9.727641106E0
2.560593001E0,1.233013868E0,-9.911994934E-1,9.727641106E0
2.562577004E0,1.240196466E0,-1.003170490E0,9.732429504E0
2.564591469E0,1.242590666E0,-9.959878922E-1,9.722852707E0
2.566573857E0,1.237802267E0,-9.935936928E-1,9.718064308E0
2.568588706E0,1.252167463E0,-9.888052940E-1,9.713275909E0
2.570572939E0,1.249773264E0,-9.983820915E-1,9.720458984E0
2.572586788E0,1.249773264E0,-9.911994934E-1,9.718064308E0
2.574569637E0,1.261744261E0,-9.864110947E-1,9.710882187E0
2.576584101E0,1.271321058E0,-9.816226959E-1,9.715670586E0
2.578567412E0,1.271321058E0,-9.816226959E-1,9.718064308E0
2.580581261E0,1.271321058E0,-9.744400978E-1,9.713275909E0
2.582565263E0,1.271321058E0,-9.696516991E-1,9.708487511E0
2.584579497E0,1.276109457E0,-9.768342972E-1,9.696516991E0
2.586593654E0,1.264138460E0,-9.768342972E-1,9.698910713E0
2.588578195E0,1.254561663E0,-9.840168953E-1,9.696516991E0
2.590592044E0,1.249773264E0,-9.840168953E-1,9.691728592E0
2.592576124E0,1.259350061E0,-9.816226959E-1,9.701305389E0
2.594589280E0,1.252167463E0,-9.840168953E-1,9.710882187E0
2.596572668E0,1.252167463E0,-9.840168953E-1,9.710882187E0
2.598586902E0,1.247379065E0,-9.888052940E-1,9.706093788E0
2.600570520E0,1.254561663E0,-9.935936928E-1,9.703699112E0
2.602585062E0,1.259350061E0,-1.003170490E0,9.708487511E0
2.604569372E0,1.254561663E0,-9.911994934E-1,9.708487511E0
2.606583143E0,1.256955862E0,-9.911994934E-1,9.715670586E0
2.608566223E0,1.264138460E0,-9.816226959E-1,9.710882187E0
2.610580996E0,1.261744261E0,-9.744400978E-1,9.708487511E0
2.612563845E0,1.247379065E0,-9.816226959E-1,9.710882187E0
2.614577309E0,1.264138460E0,-9.840168953E-1,9.701305389E0
2.616592466E0,1.266532660E0,-9.768342972E-1,9.701305389E0
2.618575853E0,1.254561663E0,-9.744400978E-1,9.718064308E0
2.620590933E0,1.252167463E0,-9.744400978E-1,9.706093788E0
2.622573936E0,1.256955862E0,-9.744400978E-1,9.698910713E0
2.624587477E0,1.259350061E0,-9.792284966E-1,9.706093788E0
2.626572403E0,1.266532660E0,-9.816226959E-1,9.715670586E0
2.628586252E0,1.261744261E0,-9.864110947E-1,9.718064308E0
2.630568793E0,1.256955862E0,-9.888052940E-1,9.715670586E0
2.632583796E0,1.264138460E0,-9.840168953E-1,9.725247383E0
2.634567491E0,1.273715258E0,-9.864110947E-1,9.725247383E0
2.636581725E0,1.259350061E0,-9.959878922E-1,9.708487511E0
2.638564420E0,1.252167463E0,-9.911994934E-1,9.713275909E0
2.640580116E0,1.254561663E0,-9.720458984E-1,9.718064308E0
2.642562887E0,1.266532660E0,-9.720458984E-1,9.730035782E0
2.644577121E0,1.276109457E0,-9.744400978E-1,9.727641106E0
2.646591201E0,1.252167463E0,-9.744400978E-1,9.720458984E0
2.648575280E0,1.252167463E0,-9.840168953E-1,9.715670586E0
2.650589745E0,1.240196466E0,-9.816226959E-1,9.722852707E0
2.652573055E0,1.235408068E0,-9.720458984E-1,9.725247383E0
2.654587519E0,1.247379065E0,-9.672574997E-1,9.720458984E0
2.656570368E0,1.242590666E0,-9.696516991E-1,9.720458984E0
2.658585064E0,1.218648672E0,-9.744400978E-1,9.710882187E0
2.660568221E0,1.223437071E0,-9.816226959E-1,9.718064308E0
2.662582916E0,1.216254473E0,-9.840168953E-1,9.713275909E0
2.664565687E0,1.206677675E0,-9.864110947E-1,9.715670586E0
2.666580459E0,1.199495077E0,-9.720458984E-1,9.710882187E0
2.668564770E0,1.199495077E0,-9.768342972E-1,9.710882187E0
2.670579619E0,1.213860273E0,-9.816226959E-1,9.722852707E0
2.672592776E0,1.213860273E0,-9.648633003E-1,9.722852707E0
2.674575933E0,1.216254473E0,-9.648633003E-1,9.727641106E0
2.676590396E0,1.211466074E0,-9.600749016E-1,9.732429504E0
2.678573707E0,1.216254473E0,-9.768342972E-1,9.725247383E0
2.680587941E0,1.230619669E0,-9.840168953E-1,9.722852707E0
2.682571329E0,1.249773264E0,-9.911994934E-1,9.722852707E0
2.684586639E0,1.249773264E0,-9.888052940E-1,9.715670586E0
2.686570027E0,1.254561663E0,-9.624691010E-1,9.713275909E0
2.688583644E0,1.256955862E0,-9.600749016E-1,9.718064308E0
2.690567647E0,1.254561663E0,-9.696516991E-1,9.720458984E0
2.692581420E0,1.256955862E0,-9.864110947E-1,9.715670586E0
2.694565423E0,1.261744261E0,-9.983820915E-1,9.725247383E0
2.696578733E0,1.264138460E0,-1.003170490E0,9.722852707E0
2.698593121E0,1.266532660E0,-9.911994934E-1,9.725247383E0
2.700577123E0,1.268926859E0,-9.983820915E-1,9.730035782E0
2.702591357E0,1.268926859E0,-9.911994934E-1,9.734824181E0
2.704574744E0,1.261744261E0,-9.864110947E-1,9.730035782E0
2.706589516E0,1.266532660E0,-9.864110947E-1,9.727641106E0
2.708572827E0,1.266532660E0,-9.888052940E-1,9.718064308E0
2.710586369E0,1.266532660E0,-9.888052940E-1,9.727641106E0
2.712570371E0,1.271321058E0,-9.911994934E-1,9.730035782E0
2.714584835E0,1.264138460E0,-9.911994934E-1,9.725247383E0
2.716568300E0,1.244984865E0,-9.840168953E-1,9.720458984E0
2.718581764E0,1.247379065E0,-9.768342972E-1,9.718064308E0
2.720566383E0,1.242590666E0,-9.768342972E-1,9.715670586E0
2.722579308E0,1.240196466E0,-9.864110947E-1,9.722852707E0
2.724594772E0,1.235408068E0,-9.744400978E-1,9.710882187E0
2.726577852E0,1.230619669E0,-9.768342972E-1,9.710882187E0
2.728591932E0,1.233013868E0,-9.600749016E-1,9.713275909E0
2.730576858E0,1.225831270E0,-9.552865028E-1,9.713275909E0
2.732589784E0,1.223437071E0,-9.696516991E-1,9.718064308E0
2.734573479E0,1.221042871E0,-9.720458984E-1,9.720458984E0
2.736587635E0,1.221042871E0,-9.792284966E-1,9.715670586E0
2.738571023E0,1.221042871E0,-9.792284966E-1,9.706093788E0
2.740585872E0,1.233013868E0,-9.720458984E-1,9.708487511E0
2.742568952E0,1.218648672E0,-9.768342972E-1,9.713275909E0
2.744582494E0,1.216254473E0,-9.816226959E-1,9.730035782E0
2.746566803E0,1.221042871E0,-9.888052940E-1,9.737217903E0
2.748581268E0,1.221042871E0,-9.864110947E-1,9.734824181E0
2.750566502E0,1.221042871E0,-9.911994934E-1,9.734824181E0
2.752579428E0,1.225831270E0,-9.888052940E-1,9.734824181E0
2.754593277E0,1.209071875E0,-9.768342972E-1,9.730035782E0
2.756576972E0,1.225831270E0,-9.816226959E-1,9.734824181E0
2.758591128E0,1.225831270E0,-9.911994934E-1,9.734824181E0
2.760574516E0,1.233013868E0,-9.911994934E-1,9.751583099E0
2.762588365E0,1.228225470E0,-9.744400978E-1,9.730035782E0
2.764573829E0,1.223437071E0,-9.720458984E-1,9.727641106E0
2.766586755E0,1.213860273E0,-9.792284966E-1,9.734824181E0
2.768569605E0,1.213860273E0,-9.840168953E-1,9.749189377E0
2.770584991E0,1.206677675E0,-9.720458984E-1,9.737217903E0
2.772568302E0,1.228225470E0,-9.648633003E-1,9.737217903E0
2.774581613E0,1.240196466E0,-9.744400978E-1,9.749189377E0
2.776565846E0,1.259350061E0,-9.888052940E-1,9.727641106E0
2.778580388E0,1.242590666E0,-9.864110947E-1,9.727641106E0
2.780563774E0,1.235408068E0,-9.792284966E-1,9.734824181E0
2.782577547E0,1.240196466E0,-9.744400978E-1,9.713275909E0
2.784592627E0,1.252167463E0,-9.648633003E-1,9.722852707E0
2.786576091E0,1.252167463E0,-9.552865028E-1,9.722852707E0
2.788590556E0,1.233013868E0,-9.672574997E-1,9.725247383E0
2.790573020E0,1.235408068E0,-9.672574997E-1,9.720458984E0
2.792588330E0,1.235408068E0,-9.648633003E-1,9.713275909E0
2.794571102E0,1.233013868E0,-9.576807022E-1,9.713275909E0
2.796585259E0,1.242590666E0,-9.600749016E-1,9.710882187E0
2.798569262E0,1.242590666E0,-9.528923035E-1,9.708487511E0
2.800582804E0,1.249773264E0,-9.768342972E-1,9.713275909E0
2.802566576E0,1.242590666E0,-9.840168953E-1,9.715670586E0
2.804582578E0,1.249773264E0,-9.696516991E-1,9.703699112E0
2.806564965E0,1.256955862E0,-9.672574997E-1,9.703699112E0
2.808580045E0,1.244984865E0,-9.672574997E-1,9.703699112E0
2.810594202E0,1.233013868E0,-9.672574997E-1,9.718064308E0
2.812576051E0,1.244984865E0,-9.720458984E-1,9.718064308E0
2.814590900E0,1.244984865E0,-9.744400978E-1,9.715670586E0
2.816574518E0,1.237802267E0,-9.792284966E-1,9.706093788E0
2.818588444E0,1.244984865E0,-9.840168953E-1,9.720458984E0
2.820572447E0,1.242590666E0,-9.935936928E-1,9.725247383E0
2.822585912E0,1.254561663E0,-9.888052940E-1,9.730035782E0
2.824569684E0,1.264138460E0,-9.792284966E-1,9.730035782E0
2.826583764E0,1.259350061E0,-9.816226959E-1,9.732429504E0
2.828567766E0,1.247379065E0,-9.696516991E-1,9.715670586E0
2.830583153E0,1.256955862E0,-9.624691010E-1,9.720458984E0
2.832566541E0,1.259350061E0,-9.576807022E-1,9.722852707E0
2.834579544E0,1.273715258E0,-9.624691010E-1,9.720458984E0
2.836593624E0,1.278503656E0,-9.768342972E-1,9.722852707E0
2.838577627E0,1.268926859E0,-1.000776291E0,9.725247383E0
2.840591783E0,1.264138460E0,-9.888052940E-1,9.722852707E0
2.842574632E0,1.261744261E0,-9.768342972E-1,9.718064308E0
2.844590635E0,1.249773264E0,-9.768342972E-1,9.722852707E0
2.846573715E0,1.249773264E0,-9.696516991E-1,9.718064308E0
2.848588102E0,1.249773264E0,-9.696516991E-1,9.713275909E0
2.850571566E0,1.266532660E0,-9.864110947E-1,9.730035782E0
2.852585723E0,1.247379065E0,-9.816226959E-1,9.720458984E0
2.854568110E0,1.235408068E0,-9.744400978E-1,9.722852707E0
2.856583267E0,1.237802267E0,-9.768342972E-1,9.734824181E0
2.858567193E0,1.237802267E0,-9.768342972E-1,9.725247383E0
2.860580735E0,1.247379065E0,-9.864110947E-1,9.722852707E0
2.862564737E0,1.247379065E0,-9.935936928E-1,9.725247383E0
2.864578048E0,1.235408068E0,-9.959878922E-1,9.734824181E0
2.866594051E0,1.237802267E0,-9.768342972E-1,9.737217903E0
2.868575900E0,1.233013868E0,-9.840168953E-1,9.720458984E0
2.870590057E0,1.233013868E0,-9.911994934E-1,9.725247383E0
2.872574598E0,1.242590666E0,-9.864110947E-1,9.725247383E0
2.874588446E0,1.244984865E0,-9.552865028E-1,9.720458984E0
2.876572449E0,1.247379065E0,-9.504981041E-1,9.722852707E0
2.878586914E0,1.237802267E0,-9.672574997E-1,9.720458984E0
2.880569994E0,1.223437071E0,-9.840168953E-1,9.725247383E0
2.882583843E0,1.221042871E0,-9.840168953E-1,9.718064308E0
2.884568769E0,1.216254473E0,-9.888052940E-1,9.720458984E0
2.886582002E0,1.218648672E0,-9.600749016E-1,9.722852707E0
2.888565389E0,1.225831270E0,-9.576807022E-1,9.722852707E0
2.890580238E0,1.230619669E0,-9.576807022E-1,9.706093788E0
2.892563934E0,1.233013868E0,-9.385270476E-1,9.713275909E0
2.894576783E0,1.223437071E0,-9.481038451E-1,9.708487511E0
2.896591632E0,1.221042871E0,-9.624691010E-1,9.713275909E0
2.898575249E0,1.221042871E0,-9.720458984E-1,9.718064308E0
2.900589099E0,1.225831270E0,-9.744400978E-1,9.713275909E0
2.902573409E0,1.233013868E0,-9.648633003E-1,9.713275909E0
2.904586643E0,1.235408068E0,-9.672574997E-1,9.713275909E0
2.906570723E0,1.233013868E0,-9.792284966E-1,9.722852707E0
2.908585188E0,1.247379065E0,-9.864110947E-1,9.727641106E0
2.910570343E0,1.244984865E0,-9.911994934E-1,9.722852707E0
2.912583039E0,1.242590666E0,-9.864110947E-1,9.730035782E0
2.914566349E0,1.240196466E0,-9.816226959E-1,9.730035782E0
2.916580583E0,1.240196466E0,-9.816226959E-1,9.722852707E0
2.918564279E0,1.235408068E0,-9.864110947E-1,9.722852707E0
2.920578358E0,1.237802267E0,-9.816226959E-1,9.722852707E0
2.922592514E0,1.242590666E0,-9.768342972E-1,9.722852707E0
2.924577440E0,1.254561663E0,-9.648633003E-1,9.727641106E0
2.926590366E0,1.259350061E0,-9.481038451E-1,9.720458984E0
2.928574677E0,1.264138460E0,-9.504981041E-1,9.718064308E0
2.930589219E0,1.254561663E0,-9.433154464E-1,9.710882187E0
2.932571682E0,1.247379065E0,-9.576807022E-1,9.715670586E0
2.934586070E0,1.252167463E0,-9.624691010E-1,9.715670586E0
2.936569765E0,1.261744261E0,-9.720458984E-1,9.708487511E0
2.938583614E0,1.261744261E0,-9.935936928E-1,9.703699112E0
2.940568233E0,1.256955862E0,-9.935936928E-1,9.718064308E0
2.942581774E0,1.264138460E0,-9.840168953E-1,9.706093788E0
2.944564930E0,1.278503656E0,-9.840168953E-1,9.701305389E0
2.946579702E0,1.273715258E0,-9.911994934E-1,9.708487511E0
2.948594397E0,1.252167463E0,-9.816226959E-1,9.703699112E0
2.950577247E0,1.247379065E0,-9.911994934E-1,9.701305389E0
2.952591942E0,1.256955862E0,-9.864110947E-1,9.706093788E0
2.954575330E0,1.264138460E0,-9.792284966E-1,9.703699112E0
2.956589562E0,1.273715258E0,-9.816226959E-1,9.710882187E0
2.958572873E0,1.264138460E0,-9.840168953E-1,9.710882187E0
2.960587645E0,1.264138460E0,-9.672574997E-1,9.720458984E0
2.962571033E0,1.252167463E0,-9.720458984E-1,9.715670586E0
2.964585882E0,1.256955862E0,-9.696516991E-1,9.720458984E0
2.966569500E0,1.259350061E0,-9.720458984E-1,9.722852707E0
2.968582733E0,1.280897856E0,-9.696516991E-1,9.722852707E0
2.970567429E0,1.266532660E0,-9.600749016E-1,9.725247383E0
2.972580047E0,1.259350061E0,-9.624691010E-1,9.732429504E0
2.974595050E0,1.264138460E0,-9.744400978E-1,9.751583099E0
2.976578514E0,1.259350061E0,-9.624691010E-1,9.749189377E0
2.978592671E0,1.249773264E0,-9.696516991E-1,9.749189377E0
2.980576289E0,1.252167463E0,-9.792284966E-1,9.739612579E0
2.982590215E0,1.249773264E0,-9.672574997E-1,9.737217903E0
2.984573295E0,1.261744261E0,-9.696516991E-1,9.744400978E0
2.986587990E0,1.259350061E0,-9.864110947E-1,9.753977776E0
2.988571762E0,1.268926859E0,-9.768342972E-1,9.749189377E0
2.990586458E0,1.256955862E0,-9.648633003E-1,9.739612579E0
2.992570152E0,1.256955862E0,-9.504981041E-1,9.751583099E0
2.994583463E0,1.252167463E0,-9.600749016E-1,9.756371498E0
2.996567081E0,1.256955862E0,-9.744400978E-1,9.756371498E0
2.998581930E0,1.254561663E0,-9.648633003E-1,9.737217903E0
3.000564702E0,1.247379065E0,-9.600749016E-1,9.737217903E0
3.002579166E0,1.254561663E0,-9.744400978E-1,9.739612579E0
3.004594169E0,1.235408068E0,-9.840168953E-1,9.720458984E0
3.006577633E0,1.223437071E0,-9.840168953E-1,9.727641106E0
3.008592098E0,1.237802267E0,-9.864110947E-1,9.730035782E0
3.010575486E0,1.242590666E0,-9.672574997E-1,9.720458984E0
3.012589566E0,1.237802267E0,-9.696516991E-1,9.720458984E0
3.014572414E0,1.233013868E0,-9.696516991E-1,9.727641106E0
3.016587417E0,1.244984865E0,-9.672574997E-1,9.722852707E0
3.018570497E0,1.247379065E0,-9.552865028E-1,9.720458984E0
3.020584961E0,1.237802267E0,-9.576807022E-1,9.713275909E0
3.022568657E0,1.244984865E0,-9.672574997E-1,9.718064308E0
3.024581967E0,1.244984865E0,-9.720458984E-1,9.718064308E0
3.026566815E0,1.235408068E0,-9.816226959E-1,9.725247383E0
3.028581588E0,1.233013868E0,-9.720458984E-1,9.732429504E0
3.030563206E0,1.230619669E0,-9.744400978E-1,9.737217903E0
3.032578824E0,1.223437071E0,-9.576807022E-1,9.742006302E0
3.034592443E0,1.225831270E0,-9.672574997E-1,9.746794701E0
3.036576061E0,1.244984865E0,-9.648633003E-1,9.730035782E0
3.038589909E0,1.228225470E0,-9.648633003E-1,9.737217903E0
3.040573989E0,1.233013868E0,-9.552865028E-1,9.746794701E0
3.042588454E0,1.233013868E0,-9.528923035E-1,9.739612579E0
3.044572149E0,1.235408068E0,-9.481038451E-1,9.744400978E0
3.046586537E0,1.244984865E0,-9.528923035E-1,9.739612579E0
3.048570001E0,1.235408068E0,-9.504981041E-1,9.708487511E0
3.050585003E0,1.233013868E0,-9.576807022E-1,9.715670586E0
3.052568083E0,1.233013868E0,-9.624691010E-1,9.715670586E0
3.054581394E0,1.233013868E0,-9.576807022E-1,9.734824181E0
3.056565012E0,1.261744261E0,-9.672574997E-1,9.734824181E0
3.058579554E0,1.261744261E0,-9.744400978E-1,9.727641106E0
3.060593018E0,1.254561663E0,-9.672574997E-1,9.720458984E0
3.062577097E0,1.247379065E0,-9.696516991E-1,9.720458984E0
3.064590639E0,1.249773264E0,-9.696516991E-1,9.722852707E0
3.066574872E0,1.256955862E0,-9.792284966E-1,9.725247383E0
3.068589414E0,1.249773264E0,-9.816226959E-1,9.727641106E0
3.070574263E0,1.242590666E0,-9.911994934E-1,9.725247383E0
3.072587574E0,1.244984865E0,-9.864110947E-1,9.713275909E0
3.074570960E0,1.242590666E0,-9.864110947E-1,9.718064308E0
3.076585117E0,1.240196466E0,-9.696516991E-1,9.727641106E0
3.078568120E0,1.230619669E0,-9.624691010E-1,9.703699112E0
3.080581969E0,1.228225470E0,-9.624691010E-1,9.703699112E0
3.082565972E0,1.230619669E0,-9.696516991E-1,9.706093788E0
3.084581051E0,1.211466074E0,-9.816226959E-1,9.710882187E0
3.086563824E0,1.218648672E0,-9.911994934E-1,9.710882187E0
3.088577673E0,1.225831270E0,-9.792284966E-1,9.713275909E0
3.090592137E0,1.240196466E0,-9.840168953E-1,9.722852707E0
3.092576448E0,1.252167463E0,-9.816226959E-1,9.722852707E0
3.094589989E0,1.247379065E0,-9.792284966E-1,9.720458984E0
3.096573376E0,1.242590666E0,-9.888052940E-1,9.715670586E0
3.098588148E0,1.244984865E0,-9.983820915E-1,9.701305389E0
3.100571921E0,1.256955862E0,-9.959878922E-1,9.715670586E0
3.102585462E0,1.264138460E0,-9.911994934E-1,9.718064308E0
3.104569080E0,1.259350061E0,-9.888052940E-1,9.715670586E0
3.106584468E0,1.276109457E0,-9.983820915E-1,9.689333916E0
3.108567239E0,1.283292055E0,-9.959878922E-1,9.691728592E0
3.110580781E0,1.259350061E0,-9.816226959E-1,9.708487511E0
3.112564245E0,1.266532660E0,-9.888052940E-1,9.708487511E0
3.114579248E0,1.268926859E0,-9.792284966E-1,9.708487511E0
3.116593790E0,1.276109457E0,-9.768342972E-1,9.715670586E0
3.118576254E0,1.276109457E0,-9.744400978E-1,9.718064308E0
3.120591026E0,1.285686255E0,-9.720458984E-1,9.720458984E0
3.122574336E0,1.295263171E0,-9.696516991E-1,9.734824181E0
3.124589108E0,1.276109457E0,-9.672574997E-1,9.713275909E0
3.126572881E0,1.276109457E0,-9.840168953E-1,9.713275909E0
3.128586653E0,1.285686255E0,-9.816226959E-1,9.710882187E0
3.130571041E0,1.278503656E0,-9.840168953E-1,9.710882187E0
3.132585119E0,1.268926859E0,-9.768342972E-1,9.708487511E0
3.134567969E0,1.288080573E0,-9.768342972E-1,9.713275909E0
3.136582433E0,1.290474772E0,-9.768342972E-1,9.713275909E0
3.138566359E0,1.295263171E0,-9.744400978E-1,9.698910713E0
3.140579978E0,1.283292055E0,-9.744400978E-1,9.708487511E0
3.142594673E0,1.283292055E0,-9.768342972E-1,9.713275909E0
3.144577137E0,1.278503656E0,-9.720458984E-1,9.727641106E0
3.146591063E0,1.285686255E0,-9.768342972E-1,9.732429504E0
3.148575681E0,1.276109457E0,-9.648633003E-1,9.739612579E0
3.150590376E0,1.261744261E0,-9.672574997E-1,9.744400978E0
3.152573456E0,1.254561663E0,-9.696516991E-1,9.739612579E0
3.154587612E0,1.264138460E0,-9.696516991E-1,9.737217903E0
3.156571077E0,1.264138460E0,-9.696516991E-1,9.718064308E0
3.158585464E0,1.256955862E0,-9.792284966E-1,9.710882187E0
3.160569160E0,1.256955862E0,-9.792284966E-1,9.713275909E0
3.162583086E0,1.261744261E0,-9.648633003E-1,9.710882187E0
3.164568012E0,1.264138460E0,-9.600749016E-1,9.715670586E0
3.166581552E0,1.264138460E0,-9.552865028E-1,9.713275909E0
3.168564863E0,1.254561663E0,-9.528923035E-1,9.718064308E0
3.170579943E0,1.256955862E0,-9.504981041E-1,9.713275909E0
3.172592869E0,1.254561663E0,-9.696516991E-1,9.706093788E0
3.174576256E0,1.259350061E0,-9.792284966E-1,9.713275909E0
3.176590106E0,1.244984865E0,-9.864110947E-1,9.713275909E0
3.178574415E0,1.237802267E0,-9.983820915E-1,9.706093788E0
3.180588880E0,1.244984865E0,-9.888052940E-1,9.715670586E0
3.182572575E0,1.247379065E0,-9.864110947E-1,9.718064308E0
3.184586117E0,1.252167463E0,-9.792284966E-1,9.708487511E0
3.186571350E0,1.247379065E0,-9.888052940E-1,9.701305389E0
3.188584584E0,1.256955862E0,-9.935936928E-1,9.710882187E0
3.190567048E0,1.249773264E0,-9.888052940E-1,9.722852707E0
3.192581897E0,1.256955862E0,-9.959878922E-1,9.720458984E0
3.194566438E0,1.264138460E0,-9.935936928E-1,9.715670586E0
3.196580057E0,1.273715258E0,-9.720458984E-1,9.718064308E0
3.198594444E0,1.271321058E0,-9.744400978E-1,9.713275909E0
3.200577601E0,1.273715258E0,-9.792284966E-1,9.713275909E0
3.202591988E0,1.278503656E0,-9.959878922E-1,9.703699112E0
3.204575760E0,1.273715258E0,-9.888052940E-1,9.698910713E0
3.206589917E0,1.273715258E0,-9.720458984E-1,9.708487511E0
3.208573228E0,1.285686255E0,-9.935936928E-1,9.703699112E0
3.210587385E0,1.292868972E0,-9.983820915E-1,9.698910713E0
3.212571387E0,1.292868972E0,-1.000776291E0,9.703699112E0
3.214585543E0,1.292868972E0,-9.720458984E-1,9.713275909E0
3.216569008E0,1.285686255E0,-9.792284966E-1,9.708487511E0
3.218583472E0,1.283292055E0,-9.720458984E-1,9.698910713E0
3.220566783E0,1.302445769E0,-9.624691010E-1,9.706093788E0
3.222580940E0,1.309628367E0,-9.624691010E-1,9.701305389E0
3.224564019E0,1.304839969E0,-9.576807022E-1,9.696516991E0
3.226578253E0,1.309628367E0,-9.528923035E-1,9.694122314E0
3.228592102E0,1.302445769E0,-9.600749016E-1,9.706093788E0
3.230578259E0,1.288080573E0,-9.648633003E-1,9.708487511E0
3.232590800E0,1.280897856E0,-9.696516991E-1,9.710882187E0
3.234574495E0,1.268926859E0,-9.600749016E-1,9.696516991E0
3.236588728E0,1.259350061E0,-9.672574997E-1,9.708487511E0
3.238571808E0,1.264138460E0,-9.648633003E-1,9.703699112E0
3.240586196E0,1.261744261E0,-9.600749016E-1,9.710882187E0
3.242570199E0,1.256955862E0,-9.552865028E-1,9.706093788E0
3.244584433E0,1.240196466E0,-9.648633003E-1,9.710882187E0
3.246567436E0,1.237802267E0,-9.624691010E-1,9.706093788E0
3.248581899E0,1.235408068E0,-9.648633003E-1,9.713275909E0
3.250566902E0,1.233013868E0,-9.648633003E-1,9.720458984E0
3.252580367E0,1.230619669E0,-9.744400978E-1,9.722852707E0
3.254593908E0,1.228225470E0,-9.600749016E-1,9.727641106E0
3.256577680E0,1.223437071E0,-9.672574997E-1,9.722852707E0
3.258592145E0,1.230619669E0,-9.696516991E-1,9.737217903E0
3.260575224E0,1.233013868E0,-9.720458984E-1,9.734824181E0
3.262589381E0,1.225831270E0,-9.672574997E-1,9.730035782E0
3.264571845E0,1.213860273E0,-9.600749016E-1,9.732429504E0
3.266587848E0,1.218648672E0,-9.624691010E-1,9.734824181E0
3.268571544E0,1.230619669E0,-9.720458984E-1,9.737217903E0
3.270584470E0,1.223437071E0,-9.696516991E-1,9.737217903E0
3.272569318E0,1.221042871E0,-9.744400978E-1,9.734824181E0
3.274582552E0,1.240196466E0,-9.864110947E-1,9.749189377E0
3.276566555E0,1.247379065E0,-9.840168953E-1,9.744400978E0
3.278580711E0,1.244984865E0,-9.792284966E-1,9.746794701E0
3.280594638E0,1.235408068E0,-9.864110947E-1,9.737217903E0
3.282578870E0,1.237802267E0,-9.840168953E-1,9.739612579E0
3.284593335E0,1.228225470E0,-9.792284966E-1,9.739612579E0
3.286576415E0,1.242590666E0,-9.792284966E-1,9.737217903E0
3.288590956E0,1.266532660E0,-9.768342972E-1,9.725247383E0
3.290575267E0,1.264138460E0,-9.696516991E-1,9.718064308E0
3.292588501E0,1.252167463E0,-9.792284966E-1,9.718064308E0
3.294571810E0,1.242590666E0,-9.768342972E-1,9.720458984E0
3.296586890E0,1.261744261E0,-9.648633003E-1,9.715670586E0
3.298569970E0,1.268926859E0,-9.648633003E-1,9.727641106E0
3.300583589E0,1.268926859E0,-9.720458984E-1,9.725247383E0
3.302567899E0,1.278503656E0,-9.720458984E-1,9.720458984E0
3.304581364E0,1.271321058E0,-9.720458984E-1,9.720458984E0
3.306565443E0,1.276109457E0,-9.648633003E-1,9.720458984E0
3.308579292E0,1.283292055E0,-9.696516991E-1,9.727641106E0
3.310595218E0,1.283292055E0,-9.864110947E-1,9.725247383E0
3.312577452E0,1.285686255E0,-9.840168953E-1,9.718064308E0
3.314591301E0,1.290474772E0,-9.768342972E-1,9.710882187E0
3.316575535E0,1.288080573E0,-9.672574997E-1,9.720458984E0
3.318589152E0,1.280897856E0,-9.600749016E-1,9.727641106E0
3.320573386E0,1.285686255E0,-9.600749016E-1,9.715670586E0
3.322587620E0,1.288080573E0,-9.744400978E-1,9.708487511E0
3.324571007E0,1.283292055E0,-9.720458984E-1,9.703699112E0
3.326584780E0,1.278503656E0,-9.720458984E-1,9.689333916E0
3.328568167E0,1.276109457E0,-9.864110947E-1,9.691728592E0
3.330583246E0,1.280897856E0,-9.768342972E-1,9.686940193E0
3.332566711E0,1.266532660E0,-9.648633003E-1,9.684545517E0
3.334580483E0,1.271321058E0,-9.600749016E-1,9.689333916E0
3.336594409E0,1.268926859E0,-9.504981041E-1,9.706093788E0
3.338578335E0,1.254561663E0,-9.409212470E-1,9.710882187E0
3.340593107E0,1.249773264E0,-9.457096457E-1,9.706093788E0
3.342576263E0,1.261744261E0,-9.528923035E-1,9.713275909E0
3.344589497E0,1.256955862E0,-9.552865028E-1,9.706093788E0
3.346574115E0,1.252167463E0,-9.433154464E-1,9.706093788E0
3.348587580E0,1.240196466E0,-9.528923035E-1,9.715670586E0
3.350571352E0,1.247379065E0,-9.672574997E-1,9.718064308E0
3.352586047E0,1.247379065E0,-9.720458984E-1,9.720458984E0
3.354569434E0,1.259350061E0,-9.744400978E-1,9.718064308E0
3.356583591E0,1.266532660E0,-9.672574997E-1,9.725247383E0
3.358567055E0,1.268926859E0,-9.720458984E-1,9.722852707E0
3.360580905E0,1.256955862E0,-9.720458984E-1,9.727641106E0
3.362565138E0,1.249773264E0,-9.672574997E-1,9.730035782E0
3.364579602E0,1.242590666E0,-9.672574997E-1,9.727641106E0
3.366593836E0,1.249773264E0,-9.720458984E-1,9.737217903E0
3.368577223E0,1.259350061E0,-9.696516991E-1,9.749189377E0
3.370591611E0,1.254561663E0,-9.768342972E-1,9.746794701E0
3.372574768E0,1.249773264E0,-9.648633003E-1,9.739612579E0
3.374588925E0,1.242590666E0,-9.696516991E-1,9.742006302E0
3.376572234E0,1.254561663E0,-9.816226959E-1,9.746794701E0
3.378586699E0,1.264138460E0,-9.840168953E-1,9.749189377E0
3.380570394E0,1.259350061E0,-9.864110947E-1,9.746794701E0
3.382584320E0,1.254561663E0,-9.959878922E-1,9.746794701E0
3.384568246E0,1.254561663E0,-9.888052940E-1,9.732429504E0
3.386582172E0,1.254561663E0,-9.911994934E-1,9.725247383E0
3.388566097E0,1.264138460E0,-9.720458984E-1,9.727641106E0
3.390581562E0,1.271321058E0,-9.744400978E-1,9.730035782E0
3.392563719E0,1.266532660E0,-9.840168953E-1,9.732429504E0
3.394578183E0,1.264138460E0,-9.840168953E-1,9.732429504E0
3.396592033E0,1.268926859E0,-9.864110947E-1,9.727641106E0
3.398575728E0,1.266532660E0,-9.911994934E-1,9.722852707E0
3.400590422E0,1.273715258E0,-9.792284966E-1,9.730035782E0
3.402573502E0,1.268926859E0,-9.768342972E-1,9.715670586E0
3.404588659E0,1.273715258E0,-9.720458984E-1,9.715670586E0
3.406571739E0,1.276109457E0,-9.720458984E-1,9.720458984E0
3.408586434E0,1.285686255E0,-9.792284966E-1,9.720458984E0
3.410570437E0,1.300051570E0,-9.911994934E-1,9.720458984E0
3.412583132E0,1.295263171E0,-9.888052940E-1,9.715670586E0
3.414567442E0,1.288080573E0,-9.840168953E-1,9.708487511E0
3.416581599E0,1.295263171E0,-9.911994934E-1,9.698910713E0
3.418564679E0,1.290474772E0,-9.816226959E-1,9.691728592E0
3.420579144E0,1.290474772E0,-9.816226959E-1,9.694122314E0
3.422593839E0,1.290474772E0,-9.768342972E-1,9.682151794E0
3.424576918E0,1.295263171E0,-9.768342972E-1,9.682151794E0
3.426592998E0,1.280897856E0,-9.696516991E-1,9.682151794E0
3.428576001E0,1.283292055E0,-9.720458984E-1,9.689333916E0
3.430588388E0,1.285686255E0,-9.696516991E-1,9.691728592E0
3.432572622E0,1.285686255E0,-9.792284966E-1,9.684545517E0
3.434587163E0,1.309628367E0,-9.792284966E-1,9.694122314E0
3.436569858E0,1.295263171E0,-9.744400978E-1,9.691728592E0
3.438584630E0,1.295263171E0,-9.696516991E-1,9.701305389E0
3.440567479E0,1.300051570E0,-9.816226959E-1,9.689333916E0
3.442582790E0,1.297657371E0,-9.864110947E-1,9.689333916E0
3.444567178E0,1.283292055E0,-9.792284966E-1,9.691728592E0
3.446580641E0,1.290474772E0,-9.720458984E-1,9.682151794E0
3.448594798E0,1.292868972E0,-9.696516991E-1,9.694122314E0
3.450578493E0,1.285686255E0,-9.720458984E-1,9.706093788E0
3.452592035E0,1.276109457E0,-9.840168953E-1,9.710882187E0
3.454575422E0,1.283292055E0,-9.816226959E-1,9.715670586E0
3.456590272E0,1.271321058E0,-9.720458984E-1,9.718064308E0
3.458573658E0,1.271321058E0,-9.672574997E-1,9.718064308E0
3.460587507E0,1.266532660E0,-9.888052940E-1,9.715670586E0
3.462571126E0,1.264138460E0,-9.792284966E-1,9.720458984E0
3.464585590E0,1.259350061E0,-9.744400978E-1,9.725247383E0
3.466568670E0,1.268926859E0,-9.744400978E-1,9.722852707E0
3.468583750E0,1.264138460E0,-9.696516991E-1,9.720458984E0
3.470568444E0,1.259350061E0,-9.648633003E-1,9.725247383E0
3.472581294E0,1.247379065E0,-9.744400978E-1,9.720458984E0
3.474565374E0,1.256955862E0,-9.720458984E-1,9.727641106E0
3.476579453E0,1.256955862E0,-9.696516991E-1,9.725247383E0
3.478593303E0,1.249773264E0,-9.648633003E-1,9.730035782E0
3.480576459E0,1.235408068E0,-9.744400978E-1,9.732429504E0
3.482590615E0,1.233013868E0,-9.768342972E-1,9.734824181E0
3.484575541E0,1.237802267E0,-9.696516991E-1,9.715670586E0
3.486589006E0,1.252167463E0,-9.457096457E-1,9.722852707E0
3.488572394E0,1.242590666E0,-9.433154464E-1,9.722852707E0
3.490586550E0,1.235408068E0,-9.481038451E-1,9.725247383E0
3.492570552E0,1.230619669E0,-9.504981041E-1,9.727641106E0
3.494584709E0,1.233013868E0,-9.768342972E-1,9.715670586E0
3.496568481E0,1.237802267E0,-9.648633003E-1,9.713275909E0
3.498581408E0,1.244984865E0,-9.696516991E-1,9.718064308E0
3.500566026E0,1.247379065E0,-9.696516991E-1,9.734824181E0
3.502579875E0,1.261744261E0,-9.744400978E-1,9.730035782E0
3.504594031E0,1.264138460E0,-9.792284966E-1,9.730035782E0
3.506578880E0,1.266532660E0,-9.840168953E-1,9.720458984E0
3.508593345E0,1.264138460E0,-9.792284966E-1,9.727641106E0
3.510575271E0,1.268926859E0,-9.744400978E-1,9.725247383E0
3.512590274E0,1.292868972E0,-9.720458984E-1,9.715670586E0
3.514573738E0,1.280897856E0,-9.792284966E-1,9.710882187E0
3.516587586E0,1.276109457E0,-9.792284966E-1,9.715670586E0
3.518571205E0,1.273715258E0,-9.720458984E-1,9.703699112E0
3.520585977E0,1.283292055E0,-9.768342972E-1,9.703699112E0
3.522568749E0,1.295263171E0,-9.744400978E-1,9.725247383E0
3.524583522E0,1.285686255E0,-9.768342972E-1,9.718064308E0
3.526566986E0,1.276109457E0,-9.768342972E-1,9.720458984E0
3.528581142E0,1.278503656E0,-9.864110947E-1,9.718064308E0
3.530565145E0,1.292868972E0,-9.744400978E-1,9.722852707E0
3.532579225E0,1.295263171E0,-9.720458984E-1,9.727641106E0
3.534593074E0,1.288080573E0,-9.768342972E-1,9.718064308E0
3.536577077E0,1.276109457E0,-9.744400978E-1,9.706093788E0
3.538591234E0,1.276109457E0,-9.840168953E-1,9.713275909E0
3.540574621E0,1.268926859E0,-9.888052940E-1,9.710882187E0
3.542587854E0,1.280897856E0,-9.768342972E-1,9.715670586E0
3.544571242E0,1.295263171E0,-9.864110947E-1,9.708487511E0
3.546585476E0,1.285686255E0,-9.935936928E-1,9.701305389E0
3.548570633E0,1.268926859E0,-9.744400978E-1,9.708487511E0
3.550586020E0,1.271321058E0,-9.696516991E-1,9.703699112E0
3.552567945E0,1.271321058E0,-9.624691010E-1,9.708487511E0
3.554582025E0,1.271321058E0,-9.648633003E-1,9.706093788E0
3.556565490E0,1.273715258E0,-9.840168953E-1,9.706093788E0
3.558579954E0,1.280897856E0,-9.840168953E-1,9.701305389E0
3.560593803E0,1.278503656E0,-9.816226959E-1,9.698910713E0
3.562577806E0,1.266532660E0,-9.768342972E-1,9.698910713E0
3.564592270E0,1.249773264E0,-9.648633003E-1,9.713275909E0
3.566575658E0,1.256955862E0,-9.648633003E-1,9.710882187E0
3.568590353E0,1.256955862E0,-9.744400978E-1,9.722852707E0
3.570574125E0,1.264138460E0,-9.840168953E-1,9.720458984E0
3.572588282E0,1.268926859E0,-9.864110947E-1,9.715670586E0
3.574571053E0,1.276109457E0,-9.672574997E-1,9.713275909E0
3.576585825E0,1.280897856E0,-9.696516991E-1,9.718064308E0
3.578569444E0,1.288080573E0,-9.624691010E-1,9.718064308E0
3.580582985E0,1.300051570E0,-9.768342972E-1,9.718064308E0
3.582566758E0,1.297657371E0,-9.840168953E-1,9.713275909E0
3.584580607E0,1.297657371E0,-9.911994934E-1,9.713275909E0
3.586595301E0,1.292868972E0,-9.959878922E-1,9.708487511E0
3.588579381E0,1.290474772E0,-9.792284966E-1,9.710882187E0
3.590592230E0,1.280897856E0,-9.504981041E-1,9.725247383E0
3.592577156E0,1.276109457E0,-9.672574997E-1,9.727641106E0
3.594590698E0,1.283292055E0,-9.672574997E-1,9.722852707E0
3.596574085E0,1.283292055E0,-9.552865028E-1,9.718064308E0
3.598588626E0,1.276109457E0,-9.600749016E-1,9.706093788E0
3.600572244E0,1.280897856E0,-9.768342972E-1,9.706093788E0
3.602585786E0,1.283292055E0,-9.816226959E-1,9.718064308E0
3.604571096E0,1.273715258E0,-9.720458984E-1,9.706093788E0
3.606584022E0,1.264138460E0,-9.600749016E-1,9.706093788E0
3.608568025E0,1.278503656E0,-9.576807022E-1,9.720458984E0
3.610582489E0,1.288080573E0,-9.576807022E-1,9.722852707E0
3.612566184E0,1.285686255E0,-9.528923035E-1,9.710882187E0
3.614580033E0,1.276109457E0,-9.552865028E-1,9.725247383E0
3.616594421E0,1.266532660E0,-9.672574997E-1,9.734824181E0
3.618577193E0,1.264138460E0,-9.816226959E-1,9.734824181E0
3.620591658E0,1.276109457E0,-9.864110947E-1,9.739612579E0
3.622575044E0,1.285686255E0,-9.983820915E-1,9.737217903E0
3.624588970E0,1.273715258E0,-9.888052940E-1,9.718064308E0
3.626573589E0,1.283292055E0,-9.840168953E-1,9.722852707E0
3.628587130E0,1.288080573E0,-9.816226959E-1,9.722852707E0
3.630572287E0,1.295263171E0,-9.840168953E-1,9.737217903E0
3.632584598E0,1.290474772E0,-9.840168953E-1,9.727641106E0
3.634568908E0,1.278503656E0,-9.720458984E-1,9.718064308E0
3.636582449E0,1.252167463E0,-9.672574997E-1,9.715670586E0
3.638567144E0,1.273715258E0,-9.744400978E-1,9.715670586E0
3.640580378E0,1.283292055E0,-9.720458984E-1,9.718064308E0
3.642595073E0,1.276109457E0,-9.959878922E-1,9.718064308E0
3.644579691E0,1.290474772E0,-9.840168953E-1,9.720458984E0
3.646593232E0,1.290474772E0,-9.816226959E-1,9.713275909E0
3.648576389E0,1.278503656E0,-9.720458984E-1,9.722852707E0
3.650592008E0,1.278503656E0,-9.720458984E-1,9.715670586E0
3.652574164E0,1.283292055E0,-9.744400978E-1,9.715670586E0
3.654588629E0,1.278503656E0,-9.552865028E-1,9.713275909E0
3.656572016E0,1.268926859E0,-9.648633003E-1,9.710882187E0
3.658586249E0,1.278503656E0,-9.696516991E-1,9.703699112E0
3.660570560E0,1.266532660E0,-9.768342972E-1,9.710882187E0
3.662584332E0,1.268926859E0,-9.816226959E-1,9.713275909E0
3.664567181E0,1.288080573E0,-9.840168953E-1,9.715670586E0
3.666582184E0,1.285686255E0,-9.792284966E-1,9.701305389E0
3.668565033E0,1.278503656E0,-9.744400978E-1,9.698910713E0
3.670579113E0,1.285686255E0,-9.672574997E-1,9.694122314E0
3.672594885E0,1.278503656E0,-9.744400978E-1,9.696516991E0
3.674577272E0,1.271321058E0,-9.768342972E-1,9.696516991E0
3.676591506E0,1.256955862E0,-9.696516991E-1,9.706093788E0
3.678575432E0,1.268926859E0,-9.624691010E-1,9.691728592E0
3.680589357E0,1.278503656E0,-9.696516991E-1,9.698910713E0
3.682572437E0,1.266532660E0,-9.744400978E-1,9.703699112E0
3.684588363E0,1.268926859E0,-9.576807022E-1,9.701305389E0
3.686570828E0,1.256955862E0,-9.481038451E-1,9.701305389E0
3.688585062E0,1.259350061E0,-9.600749016E-1,9.703699112E0
3.690569603E0,1.259350061E0,-9.672574997E-1,9.703699112E0
3.692582836E0,1.254561663E0,-9.816226959E-1,9.710882187E0
3.694566300E0,1.252167463E0,-9.840168953E-1,9.703699112E0
3.696580380E0,1.252167463E0,-9.840168953E-1,9.706093788E0
3.698594845E0,1.252167463E0,-9.768342972E-1,9.710882187E0
3.700578925E0,1.244984865E0,-9.552865028E-1,9.722852707E0
3.702592389E0,1.247379065E0,-9.624691010E-1,9.718064308E0
3.704576084E0,1.264138460E0,-9.959878922E-1,9.720458984E0
3.706589394E0,1.264138460E0,-9.911994934E-1,9.725247383E0
3.708574244E0,1.261744261E0,-9.911994934E-1,9.722852707E0
3.710589323E0,1.273715258E0,-9.864110947E-1,9.718064308E0
3.712572788E0,1.285686255E0,-1.005564690E0,9.722852707E0
3.714585713E0,1.297657371E0,-9.959878922E-1,9.722852707E0
3.716569101E0,1.300051570E0,-9.935936928E-1,9.737217903E0
3.718583873E0,1.295263171E0,-9.959878922E-1,9.739612579E0
3.720567261E0,1.297657371E0,-9.888052940E-1,9.739612579E0
3.722582264E0,1.307234168E0,-9.911994934E-1,9.732429504E0
3.724565728E0,1.309628367E0,-9.959878922E-1,9.722852707E0
3.726579499E0,1.304839969E0,-9.696516991E-1,9.730035782E0
3.728593425E0,1.280897856E0,-9.624691010E-1,9.720458984E0
3.730577967E0,1.285686255E0,-9.648633003E-1,9.722852707E0
3.732591893E0,1.297657371E0,-9.672574997E-1,9.725247383E0
3.734574588E0,1.302445769E0,-9.840168953E-1,9.713275909E0
3.736589668E0,1.302445769E0,-9.935936928E-1,9.713275909E0
3.738572747E0,1.283292055E0,-9.792284966E-1,9.727641106E0
3.740586981E0,1.283292055E0,-9.648633003E-1,9.718064308E0
3.742570676E0,1.283292055E0,-9.648633003E-1,9.718064308E0
3.744584525E0,1.278503656E0,-9.648633003E-1,9.708487511E0
3.746569990E0,1.276109457E0,-9.792284966E-1,9.708487511E0
3.748582993E0,1.290474772E0,-9.816226959E-1,9.713275909E0
3.750565995E0,1.280897856E0,-9.816226959E-1,9.722852707E0
3.752580536E0,1.283292055E0,-9.792284966E-1,9.715670586E0
3.754594693E0,1.278503656E0,-9.648633003E-1,9.708487511E0
3.756578619E0,1.276109457E0,-9.457096457E-1,9.725247383E0
3.758591930E0,1.283292055E0,-9.552865028E-1,9.725247383E0
3.760575856E0,1.288080573E0,-9.648633003E-1,9.715670586E0
3.762590089E0,1.271321058E0,-9.792284966E-1,9.720458984E0
3.764574938E0,1.264138460E0,-9.624691010E-1,9.730035782E0
3.766588172E0,1.256955862E0,-9.552865028E-1,9.720458984E0
3.768571867E0,1.268926859E0,-9.672574997E-1,9.710882187E0
3.770586332E0,1.271321058E0,-9.672574997E-1,9.710882187E0
3.772569489E0,1.264138460E0,-9.840168953E-1,9.706093788E0
3.774583952E0,1.259350061E0,-9.720458984E-1,9.694122314E0
3.776567263E0,1.261744261E0,-9.624691010E-1,9.694122314E0
3.778581497E0,1.264138460E0,-9.792284966E-1,9.698910713E0
3.780565115E0,1.256955862E0,-9.935936928E-1,9.708487511E0
3.782579272E0,1.261744261E0,-9.864110947E-1,9.713275909E0
3.784592506E0,1.259350061E0,-9.792284966E-1,9.691728592E0
3.786577431E0,1.259350061E0,-9.840168953E-1,9.686940193E0
3.788591049E0,1.264138460E0,-9.768342972E-1,9.684545517E0
3.790575667E0,1.247379065E0,-9.840168953E-1,9.686940193E0
3.792589517E0,1.266532660E0,-9.720458984E-1,9.689333916E0
3.794572212E0,1.264138460E0,-9.744400978E-1,9.696516991E0
3.796587368E0,1.237802267E0,-9.648633003E-1,9.701305389E0
3.798570755E0,1.237802267E0,-9.720458984E-1,9.703699112E0
3.800584220E0,1.259350061E0,-9.696516991E-1,9.696516991E0
3.802567992E0,1.261744261E0,-9.720458984E-1,9.703699112E0
3.804583611E0,1.261744261E0,-9.792284966E-1,9.701305389E0
3.806566152E0,1.283292055E0,-9.816226959E-1,9.701305389E0
3.808579692E0,1.266532660E0,-9.935936928E-1,9.701305389E0
3.810595926E0,1.268926859E0,-1.000776291E0,9.703699112E0
3.812578391E0,1.283292055E0,-9.864110947E-1,9.706093788E0
3.814592317E0,1.280897856E0,-9.840168953E-1,9.708487511E0
3.816576243E0,1.290474772E0,-9.840168953E-1,9.708487511E0
3.818590707E0,1.288080573E0,-9.935936928E-1,9.720458984E0
3.820573786E0,1.278503656E0,-9.935936928E-1,9.720458984E0
3.822588020E0,1.304839969E0,-9.792284966E-1,9.725247383E0
3.824570792E0,1.307234168E0,-9.696516991E-1,9.739612579E0
3.826586411E0,1.312022567E0,-9.696516991E-1,9.732429504E0
3.828569568E0,1.290474772E0,-9.792284966E-1,9.737217903E0
3.830583725E0,1.288080573E0,-9.983820915E-1,9.742006302E0
3.832567727E0,1.302445769E0,-1.000776291E0,9.734824181E0
3.834581576E0,1.309628367E0,-1.012747288E0,9.751583099E0
3.836564886E0,1.319205165E0,-1.010353088E0,9.746794701E0
3.838579120E0,1.316810966E0,-1.003170490E0,9.751583099E0
3.840593815E0,1.321599364E0,-9.864110947E-1,9.751583099E0
3.842576280E0,1.328781962E0,-9.983820915E-1,9.749189377E0
3.844591974E0,1.326387763E0,-1.000776291E0,9.751583099E0
3.846575977E0,1.333570361E0,-9.888052940E-1,9.749189377E0
3.848589211E0,1.335964561E0,-9.888052940E-1,9.746794701E0
3.850573599E0,1.355118155E0,-9.864110947E-1,9.730035782E0
3.852587140E0,1.340752959E0,-9.840168953E-1,9.718064308E0
3.854570450E0,1.326387763E0,-9.840168953E-1,9.722852707E0
3.856584068E0,1.312022567E0,-9.911994934E-1,9.732429504E0
3.858568302E0,1.302445769E0,-9.720458984E-1,9.720458984E0
3.860581920E0,1.295263171E0,-9.744400978E-1,9.713275909E0
3.862566539E0,1.288080573E0,-9.672574997E-1,9.710882187E0
3.864579388E0,1.278503656E0,-9.552865028E-1,9.718064308E0
3.866594852E0,1.276109457E0,-9.552865028E-1,9.708487511E0
3.868577855E0,1.278503656E0,-9.528923035E-1,9.708487511E0
3.870592704E0,1.271321058E0,-9.433154464E-1,9.696516991E0
3.872575091E0,1.271321058E0,-9.552865028E-1,9.698910713E0
3.874590171E0,1.276109457E0,-9.504981041E-1,9.706093788E0
3.876574174E0,1.276109457E0,-9.504981041E-1,9.698910713E0
3.878588099E0,1.268926859E0,-9.457096457E-1,9.696516991E0
3.880571487E0,1.271321058E0,-9.576807022E-1,9.691728592E0
3.882585259E0,1.273715258E0,-9.648633003E-1,9.694122314E0
3.884569878E0,1.266532660E0,-9.648633003E-1,9.708487511E0
3.886583419E0,1.261744261E0,-9.720458984E-1,9.703699112E0
3.888566576E0,1.259350061E0,-9.696516991E-1,9.701305389E0
3.890581655E0,1.261744261E0,-9.840168953E-1,9.703699112E0
3.892594581E0,1.259350061E0,-9.864110947E-1,9.703699112E0
3.894579738E0,1.252167463E0,-9.792284966E-1,9.696516991E0
3.896592741E0,1.240196466E0,-9.720458984E-1,9.715670586E0
3.898576667E0,1.264138460E0,-9.672574997E-1,9.722852707E0
3.900590593E0,1.264138460E0,-9.648633003E-1,9.718064308E0
3.902574903E0,1.249773264E0,-9.600749016E-1,9.715670586E0
3.904588059E0,1.261744261E0,-9.624691010E-1,9.722852707E0
3.906573062E0,1.259350061E0,-9.600749016E-1,9.727641106E0
3.908586835E0,1.264138460E0,-9.720458984E-1,9.713275909E0
3.910569376E0,1.271321058E0,-9.744400978E-1,9.710882187E0
3.912584764E0,1.273715258E0,-9.744400978E-1,9.710882187E0
3.914567843E0,1.283292055E0,-9.600749016E-1,9.710882187E0
3.916582538E0,1.278503656E0,-9.576807022E-1,9.720458984E0
3.918565310E0,1.280897856E0,-9.744400978E-1,9.732429504E0
3.920580390E0,1.266532660E0,-9.552865028E-1,9.727641106E0
3.922594855E0,1.264138460E0,-9.600749016E-1,9.722852707E0
3.924578241E0,1.278503656E0,-9.600749016E-1,9.720458984E0
3.926592091E0,1.278503656E0,-9.720458984E-1,9.730035782E0
3.928575478E0,1.276109457E0,-9.696516991E-1,9.730035782E0
3.930590327E0,1.300051570E0,-9.720458984E-1,9.722852707E0
3.932574023E0,1.300051570E0,-9.935936928E-1,9.715670586E0
3.934587256E0,1.304839969E0,-9.888052940E-1,9.713275909E0
3.936571489E0,1.302445769E0,-9.720458984E-1,9.722852707E0
3.938585415E0,1.304839969E0,-9.888052940E-1,9.730035782E0
3.940569649E0,1.300051570E0,-9.864110947E-1,9.727641106E0
3.942582652E0,1.297657371E0,-9.720458984E-1,9.739612579E0
3.944566270E0,1.292868972E0,-9.672574997E-1,9.732429504E0
3.946580196E0,1.295263171E0,-9.696516991E-1,9.734824181E0
3.948595275E0,1.309628367E0,-9.768342972E-1,9.739612579E0
3.950579278E0,1.314416766E0,-9.744400978E-1,9.727641106E0
3.952593743E0,1.321599364E0,-9.792284966E-1,9.725247383E0
3.954576746E0,1.314416766E0,-9.768342972E-1,9.718064308E0
3.956590057E0,1.312022567E0,-9.696516991E-1,9.718064308E0
3.958574060E0,1.314416766E0,-9.672574997E-1,9.718064308E0
3.960588831E0,1.309628367E0,-9.816226959E-1,9.722852707E0
3.962571834E0,1.314416766E0,-9.720458984E-1,9.718064308E0
3.964586914E0,1.302445769E0,-9.528923035E-1,9.713275909E0
3.966570301E0,1.295263171E0,-9.600749016E-1,9.703699112E0
3.968584151E0,1.304839969E0,-9.696516991E-1,9.698910713E0
3.970569077E0,1.319205165E0,-9.624691010E-1,9.701305389E0
3.972582309E0,1.323993564E0,-9.648633003E-1,9.691728592E0
3.974566620E0,1.323993564E0,-9.696516991E-1,9.689333916E0
3.976579854E0,1.309628367E0,-9.768342972E-1,9.701305389E0
3.978594318E0,1.300051570E0,-9.840168953E-1,9.706093788E0
3.980577398E0,1.302445769E0,-9.840168953E-1,9.701305389E0
3.982592171E0,1.302445769E0,-9.935936928E-1,9.701305389E0
3.984575250E0,1.300051570E0,-9.911994934E-1,9.708487511E0
3.986589483E0,1.307234168E0,-9.768342972E-1,9.696516991E0
3.988574025E0,1.295263171E0,-9.816226959E-1,9.684545517E0
3.990586951E0,1.297657371E0,-9.840168953E-1,9.689333916E0
3.992571646E0,1.295263171E0,-9.840168953E-1,9.698910713E0
3.994584803E0,1.295263171E0,-1.000776291E0,9.691728592E0
3.996568497E0,1.297657371E0,-1.005564690E0,9.689333916E0
3.998582731E0,1.307234168E0,-9.959878922E-1,9.686940193E0
4.000566350E0,1.304839969E0,-9.959878922E-1,9.701305389E0
4.002580506E0,1.302445769E0,-9.888052940E-1,9.696516991E0
4.004594971E0,1.300051570E0,-9.935936928E-1,9.710882187E0
4.006579358E0,1.304839969E0,-9.888052940E-1,9.708487511E0
4.008593207E0,1.312022567E0,-9.768342972E-1,9.708487511E0
4.010578133E0,1.295263171E0,-9.792284966E-1,9.713275909E0
4.012591290E0,1.290474772E0,-9.816226959E-1,9.710882187E0
4.014574446E0,1.285686255E0,-9.696516991E-1,9.708487511E0
4.016588911E0,1.283292055E0,-9.888052940E-1,9.720458984E0
4.018571990E0,1.283292055E0,-9.911994934E-1,9.727641106E0
4.020586378E0,1.290474772E0,-9.720458984E-1,9.734824181E0
4.022569458E0,1.280897856E0,-9.816226959E-1,9.734824181E0
4.024583076E0,1.276109457E0,-9.840168953E-1,9.734824181E0
4.026567925E0,1.297657371E0,-9.935936928E-1,9.732429504E0
4.028581543E0,1.288080573E0,-9.816226959E-1,9.730035782E0
4.030566161E0,1.283292055E0,-9.792284966E-1,9.727641106E0
4.032579933E0,1.288080573E0,-9.720458984E-1,9.732429504E0
4.034593782E0,1.278503656E0,-9.840168953E-1,9.732429504E0
4.036577170E0,1.273715258E0,-9.864110947E-1,9.730035782E0
4.038590481E0,1.280897856E0,-9.720458984E-1,9.746794701E0
4.040575407E0,1.283292055E0,-9.911994934E-1,9.737217903E0
4.042589178E0,1.278503656E0,-9.959878922E-1,9.722852707E0
4.044574104E0,1.268926859E0,-9.840168953E-1,9.718064308E0
4.046586799E0,1.256955862E0,-9.792284966E-1,9.722852707E0
4.048570725E0,1.256955862E0,-9.624691010E-1,9.722852707E0
4.050585267E0,1.273715258E0,-9.720458984E-1,9.730035782E0
4.052568578E0,1.285686255E0,-9.792284966E-1,9.722852707E0
4.054582195E0,1.288080573E0,-9.864110947E-1,9.725247383E0
4.056567121E0,1.264138460E0,-9.720458984E-1,9.730035782E0
4.058580662E0,1.268926859E0,-9.768342972E-1,9.720458984E0
4.060594819E0,1.278503656E0,-9.720458984E-1,9.701305389E0
4.062578515E0,1.283292055E0,-9.720458984E-1,9.710882187E0
4.064592287E0,1.290474772E0,-9.744400978E-1,9.713275909E0
4.066576981E0,1.288080573E0,-9.672574997E-1,9.706093788E0
4.068590446E0,1.300051570E0,-9.648633003E-1,9.710882187E0
4.070574141E0,1.297657371E0,-9.504981041E-1,9.706093788E0
4.072588375E0,1.288080573E0,-9.648633003E-1,9.696516991E0
4.074572070E0,1.295263171E0,-9.672574997E-1,9.689333916E0
4.076585841E0,1.288080573E0,-9.672574997E-1,9.679757118E0
4.078570152E0,1.309628367E0,-9.720458984E-1,9.694122314E0
4.080584001E0,1.323993564E0,-9.648633003E-1,9.696516991E0
4.082567697E0,1.307234168E0,-9.624691010E-1,9.679757118E0
4.084581853E0,1.321599364E0,-9.552865028E-1,9.694122314E0
4.086596395E0,1.326387763E0,-9.696516991E-1,9.703699112E0
4.088579474E0,1.328781962E0,-9.768342972E-1,9.696516991E0
4.090593861E0,1.333570361E0,-9.792284966E-1,9.684545517E0
4.092577557E0,1.333570361E0,-9.768342972E-1,9.682151794E0
4.094590560E0,1.333570361E0,-9.648633003E-1,9.689333916E0
4.096575178E0,1.319205165E0,-9.768342972E-1,9.696516991E0
4.098589335E0,1.321599364E0,-9.840168953E-1,9.698910713E0
4.100573029E0,1.333570361E0,-9.792284966E-1,9.689333916E0
4.102586801E0,1.335964561E0,-9.720458984E-1,9.703699112E0
4.104570189E0,1.331176162E0,-9.696516991E-1,9.703699112E0
4.106584115E0,1.323993564E0,-9.696516991E-1,9.691728592E0
4.108568426E0,1.316810966E0,-9.600749016E-1,9.694122314E0
4.110583506E0,1.316810966E0,-9.576807022E-1,9.703699112E0
4.112565969E0,1.319205165E0,-9.481038451E-1,9.698910713E0
4.114579819E0,1.314416766E0,-9.457096457E-1,9.696516991E0
4.116594591E0,1.297657371E0,-9.672574997E-1,9.706093788E0
4.118578594E0,1.297657371E0,-9.672574997E-1,9.701305389E0
4.120591828E0,1.292868972E0,-9.744400978E-1,9.708487511E0
4.122576369E0,1.278503656E0,-9.911994934E-1,9.710882187E0
4.124590909E0,1.280897856E0,-9.816226959E-1,9.720458984E0
4.126574297E0,1.280897856E0,-9.816226959E-1,9.720458984E0
4.128587762E0,1.283292055E0,-9.959878922E-1,9.715670586E0
4.130572688E0,1.283292055E0,-9.840168953E-1,9.708487511E0
4.132585921E0,1.285686255E0,-9.864110947E-1,9.715670586E0
4.134569077E0,1.292868972E0,-9.840168953E-1,9.722852707E0
4.136583850E0,1.300051570E0,-9.935936928E-1,9.734824181E0
4.138567545E0,1.290474772E0,-9.888052940E-1,9.725247383E0
4.140581086E0,1.278503656E0,-9.935936928E-1,9.715670586E0
4.142595551E0,1.276109457E0,-9.911994934E-1,9.720458984E0
4.144578939E0,1.288080573E0,-9.840168953E-1,9.732429504E0
4.146594325E0,1.288080573E0,-9.816226959E-1,9.722852707E0
4.148577713E0,1.292868972E0,-9.792284966E-1,9.722852707E0
4.150590639E0,1.285686255E0,-9.816226959E-1,9.715670586E0
