"Time (s)","Acceleration x (m/s^2)","Acceleration y (m/s^2)","Acceleration z (m/s^2)"
8.235245000E-3,2.710236311E0,-5.875370979E0,6.607996464E0
1.027616200E-2,2.652775526E0,-5.877765179E0,6.569689274E0
1.238654100E-2,2.628833532E0,-5.877765179E0,6.569689274E0
1.436969000E-2,2.588132143E0,-5.865794182E0,6.574477673E0
1.638353000E-2,2.552218914E0,-5.832275391E0,6.572083473E0
1.836714000E-2,2.535459518E0,-5.803544998E0,6.576871872E0
2.038044200E-2,2.523488522E0,-5.762843609E0,6.555324078E0
2.236466800E-2,2.504334927E0,-5.724536419E0,6.550535679E0
2.437943100E-2,2.477998734E0,-5.707777023E0,6.536170483E0
2.636165700E-2,2.442085743E0,-5.664681435E0,6.526593685E0
2.837672900E-2,2.410961151E0,-5.635950565E0,6.531382084E0
3.036103000E-2,2.398990154E0,-5.626373768E0,6.548141479E0
3.237479500E-2,2.389413357E0,-5.647922039E0,6.533776283E0
3.435855800E-2,2.382230759E0,-5.650316238E0,6.497863293E0
3.637355300E-2,2.394201756E0,-5.657498837E0,6.483498096E0
3.838654700E-2,2.389413357E0,-5.683835030E0,6.469132900E0
4.037077300E-2,2.384624958E0,-5.691017628E0,6.461950302E0
4.238469000E-2,2.377442360E0,-5.700594425E0,6.423643112E0
4.436768500E-2,2.379836559E0,-5.705382824E0,6.416460514E0
4.638244800E-2,2.372653961E0,-5.714959621E0,6.394912720E0
4.836559700E-2,2.365471363E0,-5.731719017E0,6.378153324E0
5.037997500E-2,2.351106167E0,-5.731719017E0,6.361393929E0
5.236404700E-2,2.339135170E0,-5.719748020E0,6.351817131E0
5.437727200E-2,2.324769735E0,-5.707777023E0,6.344634533E0
5.636242100E-2,2.286462545E0,-5.698200226E0,6.315904140E0
5.837533900E-2,2.281674147E0,-5.693411827E0,6.299144745E0
6.035787100E-2,2.252943754E0,-5.674258232E0,6.256049156E0
6.237325100E-2,2.212242365E0,-5.652710438E0,6.210559368E0
6.438678400E-2,2.195482969E0,-5.633556366E0,6.186617374E0
6.637070200E-2,2.159569979E0,-5.597643375E0,6.141127586E0
6.838546500E-2,2.147598982E0,-5.578489780E0,6.088454723E0
7.036915200E-2,2.140416384E0,-5.568912983E0,6.064512730E0
7.238337700E-2,2.130839586E0,-5.532999992E0,6.004657745E0
7.436675700E-2,2.111685991E0,-5.504269600E0,5.985504150E0
7.638082700E-2,2.090138197E0,-5.473145008E0,5.968744755E0
7.836459200E-2,2.075772762E0,-5.475539207E0,5.975927353E0
8.037897000E-2,2.066195965E0,-5.458779812E0,5.973533154E0
8.236273500E-2,2.042253971E0,-5.458779812E0,5.951985359E0
8.437649800E-2,2.042253971E0,-5.427655220E0,5.923254967E0
8.635995400E-2,2.032677174E0,-5.422866821E0,5.904101372E0
8.837410300E-2,2.023100376E0,-5.422866821E0,5.880159378E0
9.035802000E-2,2.039859772E0,-5.406107426E0,5.858611584E0
9.237247700E-2,2.044648170E0,-5.401319027E0,5.839457989E0
9.438662500E-2,2.018311977E0,-5.379771233E0,5.817910194E0
9.637031200E-2,2.018311977E0,-5.374982834E0,5.796362400E0
9.838361400E-2,2.013523579E0,-5.377377033E0,5.779603004E0
1.003675320E-1,1.996764183E0,-5.374982834E0,5.758055210E0
1.023826030E-1,1.984793186E0,-5.360617638E0,5.734113216E0
1.043659820E-1,1.965639591E0,-5.353435040E0,5.726930618E0
1.063788990E-1,1.958456993E0,-5.339069843E0,5.712565422E0
1.083628940E-1,1.956062794E0,-5.324704647E0,5.710171223E0
1.103767350E-1,1.956062794E0,-5.300762653E0,5.710171223E0
1.123608060E-1,1.960851192E0,-5.267243862E0,5.719748020E0
1.143751850E-1,1.963245392E0,-5.274426460E0,5.722142220E0
1.163594880E-1,1.963245392E0,-5.250484467E0,5.691017628E0
1.183730200E-1,1.972822189E0,-5.212177277E0,5.647922039E0
1.203875540E-1,1.980004787E0,-5.207388878E0,5.612008572E0
1.223706260E-1,1.999158382E0,-5.224148273E0,5.549759388E0
1.243850040E-1,2.032677174E0,-5.216965675E0,5.485116005E0
1.263683840E-1,2.039859772E0,-5.224148273E0,5.463568211E0
1.283826090E-1,2.085349798E0,-5.240907669E0,5.401319027E0
1.303659880E-1,2.109291792E0,-5.255272865E0,5.386953831E0
1.323807520E-1,2.121262789E0,-5.281609058E0,5.384559631E0
1.343650540E-1,2.164358377E0,-5.331887245E0,5.379771233E0
1.363797410E-1,2.193088770E0,-5.398924828E0,5.384559631E0
1.383619660E-1,2.257732153E0,-5.415684223E0,5.379771233E0
1.403751140E-1,2.317587137E0,-5.461174011E0,5.413290024E0
1.423591090E-1,2.355894566E0,-5.497087002E0,5.444414616E0
1.443738720E-1,2.427720547E0,-5.583278179E0,5.497087002E0
1.463569440E-1,2.487575531E0,-5.657498837E0,5.528211594E0
1.483720150E-1,2.521094322E0,-5.691017628E0,5.542576790E0
1.503859330E-1,2.588132143E0,-5.741295815E0,5.573701382E0
1.523693130E-1,2.657563925E0,-5.796362400E0,5.623979568E0
1.543831530E-1,2.674323320E0,-5.822698593E0,5.638344765E0
1.563676870E-1,2.715024710E0,-5.877765179E0,5.664681435E0
1.583815270E-1,2.748543501E0,-5.940014362E0,5.726930618E0
1.603655220E-1,2.758120298E0,-5.971138954E0,5.748478413E0
1.623790540E-1,2.784456491E0,-6.026205540E0,5.793968201E0
1.643618950E-1,2.801215887E0,-6.083666325E0,5.849034786E0
1.663760430E-1,2.803610086E0,-6.102819920E0,5.861005783E0
1.683603460E-1,2.817975283E0,-6.150704384E0,5.904101372E0
1.703744940E-1,2.827552319E0,-6.203376770E0,5.923254967E0
1.723581810E-1,2.817975283E0,-6.232107162E0,5.937620163E0
1.743722520E-1,2.808398485E0,-6.268020153E0,5.961562157E0
1.763876320E-1,2.810792685E0,-6.296750546E0,5.985504150E0
1.783704720E-1,2.803610086E0,-6.335057735E0,6.019022942E0
1.803842360E-1,2.817975283E0,-6.380547523E0,6.054935932E0
1.823691540E-1,2.827552319E0,-6.404489517E0,6.074089527E0
1.843827630E-1,2.839523315E0,-6.442796707E0,6.095637321E0
1.863654510E-1,2.853888512E0,-6.464344501E0,6.136339188E0
1.883799830E-1,2.865859509E0,-6.490680695E0,6.150704384E0
1.903642090E-1,2.911349297E0,-6.567295074E0,6.210559368E0
1.923775110E-1,2.952050686E0,-6.596025467E0,6.229712963E0
1.943623520E-1,2.980781078E0,-6.624756336E0,6.236895561E0
1.963765770E-1,3.019088268E0,-6.672640324E0,6.227318764E0
1.983595720E-1,3.066972494E0,-6.706159115E0,6.189011574E0
2.003737200E-1,3.086126089E0,-6.722918510E0,6.174646378E0
2.023567910E-1,3.129221678E0,-6.725312710E0,6.119579315E0
2.043713240E-1,3.145981073E0,-6.734889507E0,6.100425720E0
2.063854730E-1,3.162740469E0,-6.768408298E0,6.083666325E0
2.083685440E-1,3.179499865E0,-6.792350292E0,6.054935932E0
2.103836160E-1,3.198653460E0,-6.801927090E0,6.052541733E0
2.123673020E-1,3.222595453E0,-6.837840080E0,6.038176537E0
2.143810660E-1,3.244143248E0,-6.876147270E0,6.038176537E0
2.163651380E-1,3.260902643E0,-6.892906666E0,6.042964935E0
2.183792090E-1,3.318363667E0,-6.940790653E0,6.038176537E0
2.203614350E-1,3.366247654E0,-7.005434036E0,6.047753334E0
2.223758130E-1,3.383007050E0,-7.024587631E0,6.045359135E0
2.243601160E-1,3.442862034E0,-7.077260017E0,6.038176537E0
2.263748790E-1,3.485957623E0,-7.125144482E0,6.009446144E0
2.283576440E-1,3.507505417E0,-7.158663273E0,5.999869347E0
2.303720990E-1,3.521870613E0,-7.206547260E0,6.009446144E0
2.323860170E-1,3.557783842E0,-7.266402245E0,6.026205540E0
2.343697040E-1,3.579331636E0,-7.297526836E0,6.021417141E0
2.363843910E-1,3.603273630E0,-7.340622425E0,6.016628742E0
2.383671540E-1,3.617638826E0,-7.362170219E0,6.004657745E0
2.403823030E-1,3.634398222E0,-7.400477409E0,5.985504150E0
2.423656820E-1,3.653551817E0,-7.438784599E0,5.944802761E0
2.443801380E-1,3.660734415E0,-7.453149796E0,5.930437565E0
2.463638250E-1,3.687070608E0,-7.481880188E0,5.920860767E0
2.483770500E-1,3.718195200E0,-7.503427982E0,5.940014362E0
2.503612760E-1,3.737348795E0,-7.529764175E0,5.949591160E0
2.523748850E-1,3.785232782E0,-7.568071365E0,5.963956356E0
2.543591110E-1,3.849876404E0,-7.603984833E0,5.963956356E0
2.563733360E-1,3.873818398E0,-7.637503624E0,5.975927353E0
2.583561000E-1,3.926490784E0,-7.702147007E0,6.007051945E0
2.603702480E-1,3.974374771E0,-7.735665798E0,6.009446144E0
2.623853200E-1,3.991134167E0,-7.764396191E0,5.997475147E0
2.643689290E-1,4.048594952E0,-7.829039574E0,5.999869347E0
2.663816170E-1,4.072536945E0,-7.903259754E0,6.045359135E0
2.683664570E-1,4.115632534E0,-7.936778545E0,6.071695328E0
2.703806830E-1,4.149151325E0,-7.989450932E0,6.098031521E0
2.723643690E-1,4.170699596E0,-8.015787125E0,6.124367714E0
2.743782100E-1,4.187458992E0,-8.073247910E0,6.169857979E0
2.763636660E-1,4.211400986E0,-8.137891769E0,6.179434776E0
2.783765840E-1,4.218583584E0,-8.166622162E0,6.191405773E0
2.803608860E-1,4.232948780E0,-8.214506149E0,6.246472359E0
2.823734960E-1,4.242525578E0,-8.267178535E0,6.299144745E0
2.843578750E-1,4.235342979E0,-8.295908928E0,6.313509941E0
2.863716390E-1,4.220977783E0,-8.315062523E0,6.349422932E0
2.883854800E-1,4.216189384E0,-8.317456245E0,6.394912720E0
2.903698580E-1,4.206612587E0,-8.317456245E0,6.406883717E0
2.923839300E-1,4.192247391E0,-8.341399193E0,6.411672115E0
2.943670780E-1,4.177882195E0,-8.334216118E0,6.430825710E0
2.963818420E-1,4.168305397E0,-8.331821442E0,6.433219910E0
2.983646060E-1,4.141968727E0,-8.312667847E0,6.409277916E0
3.003783700E-1,4.132391930E0,-8.293514252E0,6.390124321E0
3.023626720E-1,4.110844135E0,-8.286332130E0,6.375759125E0
3.043765900E-1,4.072536945E0,-8.267178535E0,6.342240334E0
3.063605840E-1,4.060565948E0,-8.259995461E0,6.318298340E0
3.083749630E-1,4.043806553E0,-8.252813339E0,6.282385349E0
3.103578040E-1,3.983951569E0,-8.250418663E0,6.246472359E0
3.123728750E-1,3.955221176E0,-8.245630264E0,6.232107162E0
3.143561780E-1,3.928884983E0,-8.240841866E0,6.215347767E0
3.163709410E-1,3.881000996E0,-8.233659744E0,6.196194172E0
3.183851670E-1,3.869029999E0,-8.233659744E0,6.179434776E0
3.203685460E-1,3.821146011E0,-8.245630264E0,6.136339188E0
3.223823870E-1,3.804386616E0,-8.252813339E0,6.112396717E0
3.243657650E-1,3.790021181E0,-8.248024940E0,6.100425720E0
3.263799140E-1,3.739742994E0,-8.271966934E0,6.066906929E0
3.283635240E-1,3.730166197E0,-8.286332130E0,6.033388138E0
3.303777490E-1,3.722983599E0,-8.286332130E0,6.023811340E0
3.323613590E-1,3.718195200E0,-8.281543732E0,6.021417141E0
3.343758920E-1,3.699041605E0,-8.291120529E0,6.009446144E0
3.363601940E-1,3.667917013E0,-8.295908928E0,5.983109951E0
3.383736510E-1,3.655946016E0,-8.300697327E0,5.971138954E0
3.403564150E-1,3.646369219E0,-8.295908928E0,5.971138954E0
3.423721010E-1,3.610456228E0,-8.315062523E0,5.959167957E0
3.443862490E-1,3.581725836E0,-8.300697327E0,5.942408562E0
3.463680900E-1,3.574543238E0,-8.310274124E0,5.923254967E0
3.483826240E-1,3.538630009E0,-8.295908928E0,5.880159378E0
3.503663100E-1,3.505111217E0,-8.307879448E0,5.861005783E0
3.523804590E-1,3.502717018E0,-8.317456245E0,5.853823185E0
3.543646840E-1,3.478775024E0,-8.315062523E0,5.841852188E0
3.563791400E-1,3.457227230E0,-8.312667847E0,5.832275391E0
3.583622110E-1,3.447650433E0,-8.303091049E0,5.829881191E0
3.603778980E-1,3.438073635E0,-8.303091049E0,5.834669590E0
3.623606620E-1,3.426102638E0,-8.291120529E0,5.858611584E0
3.643745030E-1,3.452438831E0,-8.291120529E0,5.868188381E0
3.663575740E-1,3.471592426E0,-8.279149055E0,5.865794182E0
3.683717990E-1,3.485957623E0,-8.274360657E0,5.863399982E0
3.703874860E-1,3.531447411E0,-8.279149055E0,5.853823185E0
3.723701730E-1,3.567360640E0,-8.271966934E0,5.834669590E0
3.743850130E-1,3.593696833E0,-8.250418663E0,5.808333397E0
3.763687000E-1,3.620033026E0,-8.224082947E0,5.774814606E0
3.783821570E-1,3.658340216E0,-8.219294548E0,5.738901615E0
3.803652280E-1,3.675099611E0,-8.204929352E0,5.734113216E0
3.823784540E-1,3.722983599E0,-8.185775757E0,5.726930618E0
3.843633710E-1,3.758896589E0,-8.171410561E0,5.741295815E0
3.863775970E-1,3.790021181E0,-8.164227486E0,5.736507416E0
3.883605910E-1,3.835511208E0,-8.142680168E0,5.724536419E0
3.903756630E-1,3.878606796E0,-8.123526573E0,5.683835030E0
3.923585030E-1,3.902548790E0,-8.106766701E0,5.638344765E0
3.943729590E-1,3.955221176E0,-8.085219383E0,5.561730385E0
3.963563380E-1,3.983951569E0,-8.061277390E0,5.509057999E0
3.983713330E-1,4.036623955E0,-8.046912193E0,5.477933407E0
4.003855580E-1,4.082113743E0,-8.015787125E0,5.432443619E0
4.023686300E-1,4.089296341E0,-8.008605003E0,5.415684223E0
4.043833930E-1,4.118026733E0,-7.982268333E0,5.377377033E0
4.063664650E-1,4.158728123E0,-7.977479935E0,5.360617638E0
4.083803060E-1,4.168305397E0,-7.965508938E0,5.348646641E0
4.103645310E-1,4.189853191E0,-7.946355343E0,5.329493046E0
4.123786790E-1,4.206612587E0,-7.946355343E0,5.281609058E0
4.143620580E-1,4.199429989E0,-7.946355343E0,5.267243862E0
4.163771300E-1,4.185064793E0,-7.934384346E0,5.243301868E0
4.183602010E-1,4.170699596E0,-7.929595947E0,5.209783077E0
4.203737340E-1,4.156333923E0,-7.929595947E0,5.195417881E0
4.223583440E-1,4.120420933E0,-7.929595947E0,5.185841084E0
4.243718770E-1,4.084507942E0,-7.929595947E0,5.140350819E0
4.263851790E-1,4.067748547E0,-7.917624950E0,5.109226227E0
4.283697890E-1,4.031835556E0,-7.903259754E0,5.054159641E0
4.303836300E-1,4.012681961E0,-7.891288757E0,5.013458252E0
4.323672400E-1,3.957615376E0,-7.888894558E0,4.987122059E0
4.343813880E-1,3.904942989E0,-7.876923561E0,4.946420670E0
4.363663060E-1,3.890577793E0,-7.869740963E0,4.929661274E0
4.383796080E-1,3.837905407E0,-7.845798969E0,4.900930882E0
4.403639100E-1,3.787626982E0,-7.829039574E0,4.879383087E0
4.423776740E-1,3.768473387E0,-7.812280178E0,4.865017891E0
4.443608220E-1,3.730166197E0,-7.800309181E0,4.824316502E0
4.463746630E-1,3.684676409E0,-7.781155586E0,4.790797710E0
4.483588880E-1,3.665522814E0,-7.773972988E0,4.771644115E0
4.503730370E-1,3.634398222E0,-7.762001991E0,4.766855717E0
4.523570310E-1,3.610456228E0,-7.759607792E0,4.771644115E0
4.543709490E-1,3.598485231E0,-7.759607792E0,4.778826714E0
4.563856360E-1,3.569754839E0,-7.773972988E0,4.786009312E0
4.583678610E-1,3.543418407E0,-7.759607792E0,4.778826714E0
4.603795480E-1,3.536235809E0,-7.757213593E0,4.759673119E0
4.623653120E-1,3.507505417E0,-7.752425194E0,4.730942726E0
4.643803830E-1,3.500322819E0,-7.745242596E0,4.726154327E0
4.663637620E-1,3.500322819E0,-7.742848396E0,4.709394932E0
4.683776030E-1,3.471592426E0,-7.738059998E0,4.685452938E0
4.703612900E-1,3.447650433E0,-7.738059998E0,4.683058739E0
4.723761310E-1,3.428496838E0,-7.733271599E0,4.666299343E0
4.743592020E-1,3.392583847E0,-7.723694801E0,4.656722069E0
4.763745050E-1,3.383007050E0,-7.733271599E0,4.651933670E0
4.783575760E-1,3.380612850E0,-7.742848396E0,4.649539471E0
4.803723400E-1,3.359065056E0,-7.742848396E0,4.630385876E0
4.823861800E-1,3.344699860E0,-7.735665798E0,4.623203278E0
4.843687130E-1,3.339911461E0,-7.752425194E0,4.606443882E0
4.863830920E-1,3.306392431E0,-7.747636795E0,4.572925091E0
4.883670870E-1,3.303998232E0,-7.752425194E0,4.560954094E0
4.903809270E-1,3.287238836E0,-7.747636795E0,4.534617901E0
4.923649220E-1,3.275267839E0,-7.773972988E0,4.517858505E0
4.943788390E-1,3.275267839E0,-7.781155586E0,4.510675907E0
4.963636800E-1,3.251325846E0,-7.778761387E0,4.484339714E0
4.983769050E-1,3.248931646E0,-7.790732384E0,4.481945515E0
5.003597460E-1,3.241749048E0,-7.783549786E0,4.455609322E0
5.023753570E-1,3.246537447E0,-7.773972988E0,4.455609322E0
5.043581970E-1,3.244143248E0,-7.788338184E0,4.453215122E0
5.063717300E-1,3.253720045E0,-7.824251175E0,4.426878929E0
5.083867240E-1,3.256114244E0,-7.831433773E0,4.362235546E0
5.103707960E-1,3.258508444E0,-7.826645374E0,4.333505154E0
5.123840210E-1,3.268085241E0,-7.848193169E0,4.266467571E0
5.143673240E-1,3.253720045E0,-7.848193169E0,4.201824188E0
5.163836260E-1,3.244143248E0,-7.855375767E0,4.170699596E0
5.183658510E-1,3.227383852E0,-7.869740963E0,4.113238335E0
5.203808450E-1,3.220201254E0,-7.864952564E0,4.053383350E0
5.223633790E-1,3.213018656E0,-7.862558365E0,4.017470360E0
5.243780650E-1,3.205836058E0,-7.876923561E0,3.957615376E0
5.263611370E-1,3.208230257E0,-7.888894558E0,3.895366192E0
5.283755930E-1,3.198653460E0,-7.888894558E0,3.864241600E0
5.303595880E-1,3.189076662E0,-7.908048153E0,3.811569214E0
5.323728890E-1,3.184288263E0,-7.910442352E0,3.787626982E0
5.343568840E-1,3.196259260E0,-7.920019150E0,3.739742994E0
5.363721870E-1,3.203441858E0,-7.924807549E0,3.699041605E0
5.383844890E-1,3.208230257E0,-7.931990147E0,3.672705412E0
5.403687910E-1,3.227383852E0,-7.927201748E0,3.622427225E0
5.423820930E-1,3.229778051E0,-7.924807549E0,3.586514235E0
5.443669340E-1,3.239354849E0,-7.915230751E0,3.567360640E0
5.463807740E-1,3.248931646E0,-7.908048153E0,3.536235809E0
5.483638460E-1,3.263296843E0,-7.908048153E0,3.500322819E0
5.503792250E-1,3.280056238E0,-7.908048153E0,3.483563423E0
5.523623740E-1,3.282450438E0,-7.922413349E0,3.452438831E0
5.543768290E-1,3.289633036E0,-7.939172745E0,3.404554844E0
5.563610550E-1,3.284844637E0,-7.936778545E0,3.373430252E0
5.583745880E-1,3.299209833E0,-7.946355343E0,3.332728863E0
5.603586590E-1,3.296815634E0,-7.970297337E0,3.323152065E0
5.623715770E-1,3.275267839E0,-7.984662533E0,3.315969467E0
5.643860330E-1,3.280056238E0,-7.984662533E0,3.282450438E0
5.663696430E-1,3.284844637E0,-7.984662533E0,3.280056238E0
5.683838680E-1,3.277662039E0,-8.003816605E0,3.263296843E0
5.703672480E-1,3.263296843E0,-7.994239330E0,3.236960649E0
5.723813960E-1,3.268085241E0,-7.991845131E0,3.217807055E0
5.743656980E-1,3.277662039E0,-8.008605003E0,3.184288263E0
5.763804620E-1,3.282450438E0,-8.013393402E0,3.155557871E0
5.783637640E-1,3.280056238E0,-8.018181801E0,3.134010077E0
5.803766810E-1,3.270479441E0,-8.015787125E0,3.090914488E0
5.823616000E-1,3.260902643E0,-8.008605003E0,3.083731890E0
5.843754400E-1,3.253720045E0,-8.018181801E0,3.081337690E0
5.863576650E-1,3.244143248E0,-8.037335396E0,3.074155092E0
5.883732750E-1,3.232172251E0,-8.020575523E0,3.057395458E0
5.903564240E-1,3.220201254E0,-8.015787125E0,3.040636063E0
5.923705720E-1,3.193865061E0,-8.034940720E0,3.033453465E0
5.943852590E-1,3.189076662E0,-8.025363922E0,3.026270866E0
5.963687150E-1,3.189076662E0,-8.015787125E0,3.019088268E0
5.983824790E-1,3.179499865E0,-8.025363922E0,2.987963676E0
6.003670890E-1,3.162740469E0,-8.022970200E0,2.978386879E0
6.023810060E-1,3.126827478E0,-8.020575523E0,2.961627483E0
6.043636930E-1,3.129221678E0,-8.044517517E0,2.918531895E0
6.063775340E-1,3.129221678E0,-8.049305916E0,2.892195702E0
6.083627590E-1,3.112462282E0,-8.063671112E0,2.846705914E0
6.103769070E-1,3.083731890E0,-8.075642586E0,2.822763920E0
6.123594410E-1,3.069366693E0,-8.082824707E0,2.813186884E0
6.143738960E-1,3.064578056E0,-8.106766701E0,2.796427488E0
6.163590450E-1,3.078943491E0,-8.137891769E0,2.796427488E0
6.183714240E-1,3.076549292E0,-8.142680168E0,2.801215887E0
6.203851880E-1,3.069366693E0,-8.149862289E0,2.796427488E0
6.223682590E-1,3.059789658E0,-8.145073891E0,2.791639090E0
6.243837150E-1,3.062183857E0,-8.145073891E0,2.798821688E0
6.263667090E-1,3.064578056E0,-8.159439087E0,2.803610086E0
6.283811660E-1,3.071760893E0,-8.173804283E0,2.803610086E0
6.303654690E-1,3.081337690E0,-8.188169479E0,2.774879694E0
6.323783860E-1,3.107673883E0,-8.195352554E0,2.726995707E0
6.343626880E-1,3.122039080E0,-8.195352554E0,2.715024710E0
6.363777590E-1,3.162740469E0,-8.219294548E0,2.686294317E0
6.383608310E-1,3.205836058E0,-8.240841866E0,2.645592928E0
6.403752870E-1,3.236960649E0,-8.240841866E0,2.626439333E0
6.423583590E-1,3.272873640E0,-8.243236542E0,2.595314741E0
6.443728140E-1,3.330334663E0,-8.252813339E0,2.592920542E0
6.463562710E-1,3.354276657E0,-8.259995461E0,2.590526342E0
6.483697260E-1,3.404554844E0,-8.267178535E0,2.604891539E0
6.503844910E-1,3.447650433E0,-8.271966934E0,2.604891539E0
6.523676380E-1,3.464409828E0,-8.279149055E0,2.595314741E0
6.543820180E-1,3.507505417E0,-8.291120529E0,2.561795712E0
6.563669350E-1,3.560178041E0,-8.303091049E0,2.518700123E0
6.583799300E-1,3.588908434E0,-8.305485725E0,2.489969730E0
6.603636170E-1,3.641580820E0,-8.283937454E0,2.439691544E0
6.623779960E-1,3.665522814E0,-8.281543732E0,2.408566952E0
6.643614530E-1,3.711012602E0,-8.286332130E0,2.353500366E0
6.663749080E-1,3.773261786E0,-8.300697327E0,2.308010340E0
6.683592110E-1,3.797203779E0,-8.312667847E0,2.284068346E0
6.703737430E-1,3.835511208E0,-8.310274124E0,2.269703150E0
6.723567380E-1,3.869029999E0,-8.336610794E0,2.252943754E0
6.743709630E-1,3.885789394E0,-8.334216118E0,2.255337954E0
6.763860350E-1,3.928884983E0,-8.324639320E0,2.240972757E0
6.783697210E-1,3.962403774E0,-8.331821442E0,2.233790159E0
6.803837930E-1,3.976768970E0,-8.341399193E0,2.226607561E0
6.823666330E-1,4.005499363E0,-8.355764389E0,2.231395960E0
6.843813210E-1,4.031835556E0,-8.370129585E0,2.236184359E0
6.863647760E-1,4.048594952E0,-8.389283180E0,2.245761156E0
6.883786170E-1,4.084507942E0,-8.418013573E0,2.284068346E0
6.903623040E-1,4.103661537E0,-8.420407295E0,2.327163935E0
6.923764530E-1,4.141968727E0,-8.418013573E0,2.339135170E0
6.943597550E-1,4.163516521E0,-8.437167168E0,2.365471363E0
6.963751340E-1,4.175487995E0,-8.439560890E0,2.384624958E0
6.983578980E-1,4.189853191E0,-8.446743965E0,2.410961151E0
7.003720460E-1,4.228160381E0,-8.456320763E0,2.420537949E0
7.023548870E-1,4.240131378E0,-8.475474358E0,2.425326347E0
7.043708040E-1,4.247313976E0,-8.511386871E0,2.444479942E0
7.063837990E-1,4.249708176E0,-8.528146744E0,2.451662540E0
7.083680240E-1,4.252102375E0,-8.535328865E0,2.458845139E0
7.103818650E-1,4.268861771E0,-8.549694061E0,2.492363930E0
7.123650130E-1,4.280832767E0,-8.578424454E0,2.501940727E0
7.143794700E-1,4.290409565E0,-8.599972725E0,2.499546528E0
7.163640790E-1,4.316745758E0,-8.614337921E0,2.509123325E0
7.183779200E-1,4.331110954E0,-8.640673637E0,2.513911724E0
7.203612990E-1,4.331110954E0,-8.650250435E0,2.521094322E0
7.223754480E-1,4.345476151E0,-8.683769226E0,2.533065319E0
7.243584430E-1,4.350264549E0,-8.729259491E0,2.523488522E0
7.263732830E-1,4.362235546E0,-8.743624687E0,2.516305923E0
7.283565850E-1,4.374206543E0,-8.750806808E0,2.523488522E0
7.303711180E-1,4.371812344E0,-8.760383606E0,2.528276920E0
7.323848820E-1,4.374206543E0,-8.779537201E0,2.509123325E0
7.343685680E-1,4.364629745E0,-8.755595207E0,2.506729126E0
7.363827940E-1,4.359841347E0,-8.765172005E0,2.511517525E0
7.383670190E-1,4.350264549E0,-8.753201485E0,2.504334927E0
7.403799370E-1,4.345476151E0,-8.753201485E0,2.506729126E0
7.423646230E-1,4.338293552E0,-8.748413086E0,2.499546528E0
7.443787720E-1,4.328716755E0,-8.736441612E0,2.506729126E0
7.463615360E-1,4.319139957E0,-8.714894295E0,2.499546528E0
7.483766070E-1,4.309563160E0,-8.710105896E0,2.501940727E0
7.503599860E-1,4.307168961E0,-8.705317497E0,2.509123325E0
7.523740580E-1,4.288015366E0,-8.686163902E0,2.521094322E0
7.543577450E-1,4.285621166E0,-8.676587105E0,2.521094322E0
7.563722780E-1,4.280832767E0,-8.638279915E0,2.530671120E0
7.583552730E-1,4.288015366E0,-8.640673637E0,2.537853718E0
7.603697280E-1,4.285621166E0,-8.616731644E0,2.537853718E0
7.623832620E-1,4.288015366E0,-8.599972725E0,2.552218914E0
7.643670250E-1,4.288015366E0,-8.583212852E0,2.564189911E0
7.663808660E-1,4.278438568E0,-8.556877136E0,2.580949545E0
7.683644760E-1,4.268861771E0,-8.540117264E0,2.600103140E0
7.703798550E-1,4.266467571E0,-8.544905663E0,2.609679937E0
7.723623880E-1,4.302380562E0,-8.571242332E0,2.633621931E0
7.743770750E-1,4.314351559E0,-8.564059258E0,2.669534922E0
7.763623000E-1,4.326322556E0,-8.561665535E0,2.683900118E0
7.783746020E-1,4.378994942E0,-8.554482460E0,2.688688517E0
7.803577500E-1,4.410119534E0,-8.595184326E0,2.695871115E0
7.823725150E-1,4.424484730E0,-8.602366447E0,2.695871115E0
7.843558930E-1,4.436455727E0,-8.611943245E0,2.693476915E0
7.863703500E-1,4.477157116E0,-8.650250435E0,2.693476915E0
7.883841900E-1,4.503493309E0,-8.667010307E0,2.693476915E0
7.903681850E-1,4.532223701E0,-8.702922821E0,2.700659513E0
7.923820260E-1,4.544194698E0,-8.724471092E0,2.700659513E0
7.943660200E-1,4.565742493E0,-8.762778282E0,2.693476915E0
7.963800920E-1,4.575319290E0,-8.805873871E0,2.688688517E0
7.983641630E-1,4.577713490E0,-8.820239067E0,2.691082716E0
8.003791580E-1,4.584896088E0,-8.844181061E0,2.691082716E0
8.023613830E-1,4.604049683E0,-8.877699852E0,2.671929121E0
8.043754550E-1,4.601655483E0,-8.894459724E0,2.676717520E0
8.063589100E-1,4.592078686E0,-8.920795441E0,2.671929121E0
8.083735970E-1,4.584896088E0,-8.951920509E0,2.645592928E0
8.103570530E-1,4.582501888E0,-8.963891029E0,2.640804529E0
8.123712020E-1,4.563348293E0,-9.002198219E0,2.640804529E0
8.143850420E-1,4.529829502E0,-9.004592896E0,2.633621931E0
8.163701910E-1,4.515464306E0,-9.004592896E0,2.626439333E0
8.183828770E-1,4.525041103E0,-9.018958092E0,2.614468336E0
8.203664880E-1,4.508281708E0,-9.021351814E0,2.592920542E0
8.223813290E-1,4.460397720E0,-9.026140213E0,2.576161146E0
8.243658610E-1,4.426878929E0,-9.026140213E0,2.552218914E0
8.263778560E-1,4.422090530E0,-9.026140213E0,2.554613113E0
8.283630810E-1,4.407725334E0,-9.014169693E0,2.537853718E0
8.303769220E-1,4.362235546E0,-9.023746490E0,2.518700123E0
8.323594550E-1,4.355052948E0,-9.016563416E0,2.509123325E0
8.343745270E-1,4.347870350E0,-8.992621422E0,2.489969730E0
8.363590590E-1,4.326322556E0,-8.980650902E0,2.473210335E0
8.383725920E-1,4.319139957E0,-8.978256226E0,2.461239338E0
8.403559710E-1,4.302380562E0,-8.995016098E0,2.449268341E0
8.423704280E-1,4.252102375E0,-8.980650902E0,2.425326347E0
8.443839600E-1,4.235342979E0,-8.971074104E0,2.422932148E0
8.463680320E-1,4.209006786E0,-8.951920509E0,2.413355350E0
8.483817950E-1,4.170699596E0,-8.937555313E0,2.401384354E0
8.503652520E-1,4.149151325E0,-8.935160637E0,2.391807556E0
8.523790920E-1,4.118026733E0,-8.923190117E0,2.379836559E0
8.543639330E-1,4.101267338E0,-8.916007042E0,2.360682964E0
8.563781590E-1,4.084507942E0,-8.913613319E0,2.348711967E0
8.583612300E-1,4.058171749E0,-8.913613319E0,2.324769735E0
8.603744560E-1,4.041412354E0,-8.911218643E0,2.322375536E0
8.623575260E-1,4.015076160E0,-8.906430244E0,2.281674147E0
8.643729060E-1,4.003105164E0,-8.923190117E0,2.257732153E0
8.663565920E-1,3.986345768E0,-8.932766914E0,2.240972757E0
8.683709720E-1,3.926490784E0,-8.949525833E0,2.212242365E0
8.703848120E-1,3.897760391E0,-8.968679428E0,2.183511972E0
8.723688840E-1,3.883395195E0,-8.987833023E0,2.173935175E0
8.743830320E-1,3.845088005E0,-9.023746490E0,2.157175779E0
8.763670270E-1,3.813963413E0,-9.057265282E0,2.126051188E0
8.783805590E-1,3.792415380E0,-9.078812599E0,2.111685991E0
8.803642470E-1,3.737348795E0,-9.131484985E0,2.099714994E0
8.823780870E-1,3.715801001E0,-9.186552048E0,2.080561161E0
8.843620820E-1,3.699041605E0,-9.215282440E0,2.073378563E0
8.863761540E-1,3.658340216E0,-9.263166428E0,2.056619167E0
8.883598400E-1,3.641580820E0,-9.289502144E0,2.049436569E0
8.903739890E-1,3.600879431E0,-9.349357605E0,2.042253971E0
8.923574450E-1,3.584120035E0,-9.404424667E0,2.030282974E0
8.943715160E-1,3.581725836E0,-9.428366661E0,2.032677174E0
8.963562030E-1,3.552995205E0,-9.476250648E0,2.032677174E0
8.983697360E-1,3.517082214E0,-9.519346237E0,2.035071373E0
9.003831920E-1,3.505111217E0,-9.533711433E0,2.037465572E0
9.023681100E-1,3.490746021E0,-9.562441826E0,2.035071373E0
9.043819500E-1,3.490746021E0,-9.572018623E0,2.049436569E0
9.063640990E-1,3.485957623E0,-9.593565941E0,2.044648170E0
9.083791700E-1,3.481169224E0,-9.622296333E0,2.039859772E0
9.103632420E-1,3.454833031E0,-9.624691010E0,2.056619167E0
9.123770050E-1,3.454833031E0,-9.619902611E0,2.061407566E0
9.143610770E-1,3.452438831E0,-9.639056206E0,2.075772762E0
9.163757640E-1,3.438073635E0,-9.648633003E0,2.092532396E0
9.183585270E-1,3.442862034E0,-9.648633003E0,2.097320795E0
9.203730610E-1,3.445256233E0,-9.624691010E0,2.094926596E0
9.223561320E-1,3.438073635E0,-9.617507935E0,2.114080191E0
9.243705880E-1,3.438073635E0,-9.588777542E0,2.123656988E0
9.263840440E-1,3.430891037E0,-9.595960617E0,2.133233786E0
9.283680390E-1,3.428496838E0,-9.595960617E0,2.130839586E0
9.303822640E-1,3.421314240E0,-9.574412346E0,2.118868589E0
9.323656430E-1,3.414131641E0,-9.552865028E0,2.128445387E0
9.343806370E-1,3.409343243E0,-9.545681953E0,2.130839586E0
9.363649400E-1,3.406949043E0,-9.545681953E0,2.149993181E0
9.383776260E-1,3.392583847E0,-9.555258751E0,2.169146776E0
9.403606210E-1,3.378218651E0,-9.540893555E0,2.185906172E0
9.423750770E-1,3.366247654E0,-9.521739960E0,2.205059767E0
9.443594570E-1,3.347094059E0,-9.528923035E0,2.202665567E0
9.463732970E-1,3.332728863E0,-9.538499832E0,2.185906172E0
9.483569840E-1,3.306392431E0,-9.524134636E0,2.157175779E0
9.503708250E-1,3.289633036E0,-9.528923035E0,2.135627985E0
9.523855110E-1,3.280056238E0,-9.545681953E0,2.128445387E0
9.543689680E-1,3.239354849E0,-9.540893555E0,2.104503393E0
9.563842700E-1,3.215412855E0,-9.545681953E0,2.087743998E0
9.583664950E-1,3.177105665E0,-9.545681953E0,2.066195965E0
9.603818740E-1,3.131615877E0,-9.550470352E0,2.059013367E0
9.623642540E-1,3.112462282E0,-9.550470352E0,2.054224968E0
9.643787860E-1,3.066972494E0,-9.564835548E0,2.025494576E0
9.663627810E-1,3.009511471E0,-9.562441826E0,2.001552582E0
9.683763140E-1,2.980781078E0,-9.550470352E0,1.987187386E0
9.703596930E-1,2.937685490E0,-9.550470352E0,1.946485996E0
9.723747640E-1,2.877830505E0,-9.572018623E0,1.920149803E0
9.743583750E-1,2.861071110E0,-9.586383820E0,1.896207690E0
9.763729070E-1,2.832340717E0,-9.588777542E0,1.845929503E0
9.783562870E-1,2.772485495E0,-9.593565941E0,1.819593310E0
9.803688200E-1,2.755726099E0,-9.610325813E0,1.800439715E0
9.823845060E-1,2.724601507E0,-9.593565941E0,1.742978811E0
9.843682710E-1,2.705447912E0,-9.593565941E0,1.685518026E0
9.863820340E-1,2.659958124E0,-9.598354340E0,1.659181833E0
9.883664140E-1,2.626439333E0,-9.576807022E0,1.606509328E0
9.903801770E-1,2.616862535E0,-9.567230225E0,1.572990537E0
9.923630180E-1,2.568978310E0,-9.574412346E0,1.541865945E0
9.943773970E-1,2.528276920E0,-9.576807022E0,1.508347034E0
9.963620070E-1,2.511517525E0,-9.572018623E0,1.493981838E0
9.983749240E-1,2.501940727E0,-9.555258751E0,1.479616642E0
1.000360227E0,2.494758129E0,-9.545681953E0,1.460463047E0
1.002373144E0,2.497152328E0,-9.545681953E0,1.453280449E0
1.004357062E0,2.487575531E0,-9.538499832E0,1.414973259E0
1.006370671E0,2.487575531E0,-9.531316757E0,1.381454349E0
1.008385359E0,2.492363930E0,-9.519346237E0,1.357512355E0
1.010368430E0,2.499546528E0,-9.521739960E0,1.316810966E0
1.012383194E0,2.494758129E0,-9.531316757E0,1.304839969E0
1.014366266E0,2.497152328E0,-9.526528358E0,1.297657371E0
1.016381721E0,2.485181332E0,-9.512163162E0,1.300051570E0
1.018364485E0,2.482787132E0,-9.512163162E0,1.304839969E0
1.020377633E0,2.516305923E0,-9.512163162E0,1.292868972E0
1.022361705E0,2.521094322E0,-9.495404243E0,1.288080573E0
1.024376084E0,2.525882721E0,-9.497797966E0,1.285686255E0
1.026359540E0,2.549824715E0,-9.500192642E0,1.280897856E0
1.028373919E0,2.561795712E0,-9.488221169E0,1.271321058E0
1.030358222E0,2.580949545E0,-9.500192642E0,1.268926859E0
1.032372139E0,2.602497339E0,-9.504981041E0,1.268926859E0
1.034354903E0,2.619256735E0,-9.493009567E0,1.264138460E0
1.036369897E0,2.626439333E0,-9.481039047E0,1.259350061E0
1.038384123E0,2.640804529E0,-9.476250648E0,1.273715258E0
1.040368040E0,2.676717520E0,-9.461885452E0,1.283292055E0
1.042381958E0,2.691082716E0,-9.457097054E0,1.285686255E0
1.044365645E0,2.703053713E0,-9.452308655E0,1.276109457E0
1.046379716E0,2.736572504E0,-9.452308655E0,1.266532660E0
1.048362557E0,2.743755102E0,-9.442731857E0,1.268926859E0
1.050377628E0,2.724601507E0,-9.437943459E0,1.276109457E0
1.052360085E0,2.724601507E0,-9.435548782E0,1.280897856E0
1.054374540E0,2.758120298E0,-9.421183586E0,1.307234168E0
1.056359997E0,2.765302896E0,-9.411606789E0,1.316810966E0
1.058372376E0,2.779668093E0,-9.416395187E0,1.326387763E0
1.060355755E0,2.803610086E0,-9.423578262E0,1.355118155E0
1.062371057E0,2.791639090E0,-9.416395187E0,1.379060149E0
1.064354513E0,2.791639090E0,-9.411606789E0,1.381454349E0
1.066367969E0,2.798821688E0,-9.397241592E0,1.391031146E0
1.068382733E0,2.810792685E0,-9.423578262E0,1.379060149E0
1.070366112E0,2.817975283E0,-9.411606789E0,1.371877551E0
1.072380338E0,2.822763920E0,-9.409213066E0,1.340752959E0
1.074363948E0,2.810792685E0,-9.414001465E0,1.309628367E0
1.076379019E0,2.803610086E0,-9.416395187E0,1.302445769E0
1.078361552E0,2.796427488E0,-9.425971985E0,1.304839969E0
1.080376546E0,2.794033289E0,-9.447520256E0,1.297657371E0
1.082359311E0,2.791639090E0,-9.437943459E0,1.297657371E0
1.084373535E0,2.767697096E0,-9.425971985E0,1.285686255E0
1.086357453E0,2.760514498E0,-9.430760384E0,1.285686255E0
1.088371063E0,2.748543501E0,-9.428366661E0,1.307234168E0
1.090354981E0,2.722207308E0,-9.430760384E0,1.328781962E0
1.092368821E0,2.712630510E0,-9.418789864E0,1.333570361E0
1.094383970E0,2.695871115E0,-9.425971985E0,1.340752959E0
1.096368195E0,2.683900118E0,-9.416395187E0,1.343147159E0
1.098381728E0,2.667140722E0,-9.421183586E0,1.343147159E0
1.100364876E0,2.636016130E0,-9.399636269E0,1.328781962E0
1.102378102E0,2.628833532E0,-9.390059471E0,1.288080573E0
1.104362634E0,2.621650934E0,-9.387664795E0,1.273715258E0
1.106375937E0,2.607285738E0,-9.397241592E0,1.249773264E0
1.108360547E0,2.592920542E0,-9.382876396E0,1.223437071E0
1.110375311E0,2.585737944E0,-9.382876396E0,1.216254473E0
1.112358383E0,2.561795712E0,-9.390059471E0,1.204283476E0
1.114372223E0,2.552218914E0,-9.368511200E0,1.182735682E0
1.116357372E0,2.525882721E0,-9.370905876E0,1.175553083E0
1.118369750E0,2.499546528E0,-9.354146004E0,1.168370485E0
1.120384822E0,2.494758129E0,-9.346963882E0,1.151610970E0
1.122367816E0,2.504334927E0,-9.330204010E0,1.127668977E0
1.124381427E0,2.482787132E0,-9.320627213E0,1.127668977E0
1.126366344E0,2.477998734E0,-9.320627213E0,1.120486379E0
1.128379877E0,2.466027737E0,-9.311050415E0,1.118092179E0
1.130364102E0,2.458845139E0,-9.301473618E0,1.108515382E0
1.132377943E0,2.456450939E0,-9.299078941E0,1.110909581E0
1.134361629E0,2.451662540E0,-9.294290543E0,1.103726983E0
1.136376086E0,2.473210335E0,-9.308655739E0,1.106121182E0
1.138359235E0,2.477998734E0,-9.311050415E0,1.108515382E0
1.140372998E0,2.487575531E0,-9.303867340E0,1.118092179E0
1.142357608E0,2.482787132E0,-9.301473618E0,1.137245774E0
1.144371756E0,2.487575531E0,-9.299078941E0,1.132457376E0
1.146353905E0,2.504334927E0,-9.323021889E0,1.134851575E0
1.148369591E0,2.516305923E0,-9.320627213E0,1.149216771E0
1.150383432E0,2.559401512E0,-9.311050415E0,1.165976286E0
1.152366580E0,2.561795712E0,-9.296685219E0,1.177947283E0
1.154380729E0,2.573766708E0,-9.303867340E0,1.187524080E0
1.156364415E0,2.578555346E0,-9.323021889E0,1.225831270E0
1.158378564E0,2.600103140E0,-9.303867340E0,1.259350061E0
1.160362481E0,2.607285738E0,-9.296685219E0,1.268926859E0
1.162376400E0,2.626439333E0,-9.296685219E0,1.292868972E0
1.164360701E0,2.657563925E0,-9.308655739E0,1.304839969E0
1.166373927E0,2.662352324E0,-9.306262016E0,1.321599364E0
1.168357307E0,2.652775526E0,-9.287108421E0,1.357512355E0
1.170371993E0,2.638410330E0,-9.284713745E0,1.364694953E0
1.172355680E0,2.647987127E0,-9.270348549E0,1.362300754E0
1.174369828E0,2.650381327E0,-9.258378029E0,1.357512355E0
1.176384669E0,2.659958124E0,-9.263166428E0,1.386242747E0
1.178367971E0,2.664746523E0,-9.241618156E0,1.395819545E0
1.180380889E0,2.655169725E0,-9.210494041E0,1.403002143E0
1.182364268E0,2.647987127E0,-9.198522568E0,1.412579060E0
1.184380032E0,2.643198729E0,-9.181763649E0,1.400607944E0
1.186363410E0,2.628833532E0,-9.162610054E0,1.405396342E0
1.188377482E0,2.628833532E0,-9.148244858E0,1.414973259E0
1.190361246E0,2.609679937E0,-9.136273384E0,1.431732655E0
1.192375087E0,2.590526342E0,-9.129091263E0,1.434126854E0
1.194358389E0,2.580949545E0,-9.121908188E0,1.431732655E0
1.196373537E0,2.557007313E0,-9.129091263E0,1.417367458E0
1.198357147E0,2.549824715E0,-9.131484985E0,1.417367458E0
1.200371065E0,2.535459518E0,-9.133879662E0,1.419761658E0
1.202354675E0,2.509123325E0,-9.119514465E0,1.417367458E0
1.204368208E0,2.501940727E0,-9.129091263E0,1.412579060E0
1.206382433E0,2.487575531E0,-9.141061783E0,1.405396342E0
1.208365504E0,2.468421936E0,-9.150638580E0,1.400607944E0
1.210381192E0,2.458845139E0,-9.143456459E0,1.414973259E0
1.212364186E0,2.456450939E0,-9.148244858E0,1.414973259E0
1.214378411E0,2.437297344E0,-9.172186852E0,1.405396342E0
1.216362405E0,2.439691544E0,-9.179368973E0,1.410184860E0
1.218376554E0,2.444479942E0,-9.205705643E0,1.405396342E0
1.220359241E0,2.451662540E0,-9.241618156E0,1.405396342E0
1.222373697E0,2.449268341E0,-9.244012833E0,1.405396342E0
1.224357460E0,2.444479942E0,-9.267954826E0,1.410184860E0
1.226370609E0,2.446874142E0,-9.272743225E0,1.431732655E0
1.228355296E0,2.456450939E0,-9.275136948E0,1.453280449E0
1.230369368E0,2.466027737E0,-9.289502144E0,1.513135433E0
1.232384208E0,2.487575531E0,-9.299078941E0,1.584961534E0
1.234367203E0,2.494758129E0,-9.294290543E0,1.613691926E0
1.236382582E0,2.511517525E0,-9.313444138E0,1.656787634E0
1.238364807E0,2.545036316E0,-9.342175484E0,1.680729628E0
1.240379264E0,2.561795712E0,-9.349357605E0,1.680729628E0
1.242362950E0,2.583343744E0,-9.346963882E0,1.678335428E0
1.244376791E0,2.612074137E0,-9.358934402E0,1.690306425E0
1.246360093E0,2.619256735E0,-9.363722801E0,1.690306425E0
1.248374626E0,2.664746523E0,-9.366117477E0,1.695094824E0
1.250358313E0,2.688688517E0,-9.361329079E0,1.707065821E0
1.252373308E0,2.712630510E0,-9.346963882E0,1.731007814E0
1.254355455E0,2.731784105E0,-9.351752281E0,1.759738207E0
1.256371758E0,2.726995707E0,-9.346963882E0,1.764526606E0
1.258353983E0,2.729389906E0,-9.334992409E0,1.774103403E0
1.260367516E0,2.760514498E0,-9.320627213E0,1.762132406E0
1.262381357E0,2.772485495E0,-9.311050415E0,1.776497602E0
1.264365967E0,2.772485495E0,-9.313444138E0,1.783680320E0
1.266380115E0,2.772485495E0,-9.323021889E0,1.805228114E0
1.268362879E0,2.772485495E0,-9.318233490E0,1.807622313E0
1.270378182E0,2.762908697E0,-9.318233490E0,1.810016513E0
1.272361637E0,2.750937700E0,-9.337387085E0,1.798045516E0
1.274375786E0,2.748543501E0,-9.344569206E0,1.783680320E0
1.276359395E0,2.743755102E0,-9.334992409E0,1.752555609E0
1.278374160E0,2.731784105E0,-9.349357605E0,1.740584612E0
1.280358154E0,2.712630510E0,-9.375694275E0,1.728613615E0
1.282371072E0,2.698265314E0,-9.399636269E0,1.692700624E0
1.284354758E0,2.686294317E0,-9.404424667E0,1.685518026E0
1.286368369E0,2.676717520E0,-9.423578262E0,1.659181833E0
1.288383055E0,2.659958124E0,-9.442731857E0,1.642422318E0
1.290366819E0,2.667140722E0,-9.461885452E0,1.632845521E0
1.292381275E0,2.674323320E0,-9.476250648E0,1.620874524E0
1.294364039E0,2.664746523E0,-9.495404243E0,1.589749932E0
1.296378802E0,2.667140722E0,-9.507374763E0,1.584961534E0
1.298362182E0,2.662352324E0,-9.533711433E0,1.558625340E0
1.300375638E0,2.650381327E0,-9.552865028E0,1.551442742E0
1.302360863E0,2.636016130E0,-9.550470352E0,1.541865945E0
1.304373858E0,2.631227732E0,-9.574412346E0,1.508347034E0
1.306356852E0,2.628833532E0,-9.562441826E0,1.498770237E0
1.308371385E0,2.616862535E0,-9.564835548E0,1.496376038E0
1.310355379E0,2.612074137E0,-9.579200745E0,1.479616642E0
1.312369451E0,2.609679937E0,-9.617507935E0,1.479616642E0
1.314384215E0,2.619256735E0,-9.615114212E0,1.482010841E0
1.316368210E0,2.624045134E0,-9.624691010E0,1.484405041E0
1.318382127E0,2.621650934E0,-9.629479408E0,1.484405041E0
1.320366353E0,2.619256735E0,-9.622296333E0,1.479616642E0
1.322380193E0,2.602497339E0,-9.639056206E0,1.489193439E0
1.324363342E0,2.612074137E0,-9.648633003E0,1.493981838E0
1.326377182E0,2.647987127E0,-9.655815125E0,1.493981838E0
1.328361100E0,2.643198729E0,-9.672574997E0,1.491587639E0
1.330375555E0,2.631227732E0,-9.682151794E0,1.484405041E0
1.332358935E0,2.652775526E0,-9.667786598E0,1.486799240E0
1.334373084E0,2.664746523E0,-9.674968719E0,1.486799240E0
1.336357770E0,2.664746523E0,-9.670180321E0,1.486799240E0
1.338370919E0,2.679111719E0,-9.674968719E0,1.486799240E0
1.340353682E0,2.707842112E0,-9.665391922E0,1.493981838E0
1.342367523E0,2.710236311E0,-9.667786598E0,1.484405041E0
1.344382671E0,2.710236311E0,-9.655815125E0,1.482010841E0
1.346365743E0,2.717418909E0,-9.648633003E0,1.482010841E0
1.348381045E0,2.734178305E0,-9.641449928E0,1.472434044E0
1.350364117E0,2.741360903E0,-9.636661530E0,1.458068848E0
1.352378572E0,2.746149302E0,-9.629479408E0,1.458068848E0
1.354362260E0,2.741360903E0,-9.622296333E0,1.455674648E0
1.356376715E0,2.743755102E0,-9.619902611E0,1.441309452E0
1.358359556E0,2.760514498E0,-9.615114212E0,1.441309452E0
1.360374627E0,2.786850691E0,-9.598354340E0,1.453280449E0
1.362357084E0,2.758120298E0,-9.595960617E0,1.453280449E0
1.364371848E0,2.758120298E0,-9.598354340E0,1.448492050E0
1.366355227E0,2.750937700E0,-9.600749016E0,1.450886250E0
1.368369683E0,2.753331900E0,-9.576807022E0,1.431732655E0
1.370383831E0,2.767697096E0,-9.569623947E0,1.429338455E0
1.372366595E0,2.760514498E0,-9.560047150E0,1.422155857E0
1.374381358E0,2.731784105E0,-9.543288231E0,1.405396342E0
1.376365277E0,2.731784105E0,-9.548076630E0,1.405396342E0
1.378378886E0,2.722207308E0,-9.536105156E0,1.400607944E0
1.380362189E0,2.722207308E0,-9.536105156E0,1.412579060E0
1.382377875E0,2.712630510E0,-9.540893555E0,1.395819545E0
1.384360947E0,2.700659513E0,-9.536105156E0,1.379060149E0
1.386374556E0,2.695871115E0,-9.533711433E0,1.369483352E0
1.388358244E0,2.683900118E0,-9.514557838E0,1.369483352E0
1.390372622E0,2.652775526E0,-9.524134636E0,1.352723956E0
1.392356694E0,2.650381327E0,-9.524134636E0,1.345541358E0
1.394370151E0,2.645592928E0,-9.509769440E0,1.352723956E0
1.396354760E0,2.626439333E0,-9.512163162E0,1.352723956E0
1.398368986E0,2.619256735E0,-9.509769440E0,1.350329757E0
1.400382518E0,2.592920542E0,-9.512163162E0,1.333570361E0
1.402366129E0,2.573766708E0,-9.493009567E0,1.331176162E0
1.404379661E0,2.566584110E0,-9.500192642E0,1.326387763E0
1.406363118E0,2.552218914E0,-9.485827446E0,1.316810966E0
1.408377804E0,2.545036316E0,-9.493009567E0,1.307234168E0
1.410361261E0,2.530671120E0,-9.481039047E0,1.304839969E0
1.412376255E0,2.513911724E0,-9.464279175E0,1.300051570E0
1.414359326E0,2.513911724E0,-9.452308655E0,1.290474772E0
1.416374474E0,2.504334927E0,-9.447520256E0,1.283292055E0
1.418358085E0,2.501940727E0,-9.425971985E0,1.292868972E0
1.420371002E0,2.497152328E0,-9.423578262E0,1.297657371E0
1.422354381E0,2.492363930E0,-9.411606789E0,1.328781962E0
1.424368914E0,2.477998734E0,-9.404424667E0,1.338358760E0
1.426383601E0,2.485181332E0,-9.414001465E0,1.335964561E0
1.428366365E0,2.501940727E0,-9.404424667E0,1.321599364E0
1.430381436E0,2.497152328E0,-9.399636269E0,1.302445769E0
1.432365201E0,2.497152328E0,-9.392453194E0,1.292868972E0
1.434378656E0,2.509123325E0,-9.390059471E0,1.264138460E0
1.436363267E0,2.499546528E0,-9.378087997E0,1.244984865E0
1.438376568E0,2.506729126E0,-9.378087997E0,1.235408068E0
1.440360794E0,2.533065319E0,-9.363722801E0,1.201889277E0
1.442374096E0,2.545036316E0,-9.356540680E0,1.168370485E0
1.444358398E0,2.554613113E0,-9.344569206E0,1.154005170E0
1.446371854E0,2.547430515E0,-9.344569206E0,1.185129881E0
1.448355618E0,2.547430515E0,-9.339780807E0,1.211466074E0
1.450369997E0,2.535459518E0,-9.337387085E0,1.254561663E0
1.452353453E0,2.537853718E0,-9.320627213E0,1.252167463E0
1.454367832E0,2.542642117E0,-9.318233490E0,1.237802267E0
1.456382365E0,2.552218914E0,-9.315838814E0,1.197100878E0
1.458365976E0,2.557007313E0,-9.318233490E0,1.156399369E0
1.460378970E0,2.564189911E0,-9.318233490E0,1.130063176E0
1.462363273E0,2.588132143E0,-9.303867340E0,1.091755986E0
1.464377343E0,2.554613113E0,-9.299078941E0,1.091755986E0
1.466360800E0,2.542642117E0,-9.299078941E0,1.106121182E0
1.468375486E0,2.542642117E0,-9.315838814E0,1.139639974E0
1.470358635E0,2.528276920E0,-9.301473618E0,1.173158884E0
1.472373014E0,2.535459518E0,-9.299078941E0,1.175553083E0
1.474356470E0,2.566584110E0,-9.289502144E0,1.158793569E0
1.476372387E0,2.564189911E0,-9.275136948E0,1.156399369E0
1.478354613E0,2.554613113E0,-9.279925346E0,1.142034173E0
1.480369300E0,2.557007313E0,-9.282320023E0,1.146822572E0
1.482382910E0,2.557007313E0,-9.279925346E0,1.151610970E0
1.484366596E0,2.545036316E0,-9.258378029E0,1.173158884E0
1.486380130E0,2.535459518E0,-9.255983353E0,1.201889277E0
1.488364355E0,2.540247917E0,-9.258378029E0,1.211466074E0
1.490379119E0,2.537853718E0,-9.244012833E0,1.233013868E0
1.492362498E0,2.554613113E0,-9.205705643E0,1.221042871E0
1.494376031E0,2.542642117E0,-9.212887764E0,1.211466074E0
1.496360718E0,2.547430515E0,-9.210494041E0,1.206677675E0
1.498373943E0,2.554613113E0,-9.210494041E0,1.175553083E0
1.500357015E0,2.559401512E0,-9.215282440E0,1.165976286E0
1.502371086E0,2.564189911E0,-9.229647636E0,1.180341482E0
1.504355465E0,2.568978310E0,-9.227252960E0,1.185129881E0
1.506369536E0,2.576161146E0,-9.224859238E0,1.177947283E0
1.508383685E0,2.573766708E0,-9.212887764E0,1.173158884E0
1.510367064E0,2.571372509E0,-9.212887764E0,1.185129881E0
1.512381597E0,2.557007313E0,-9.215282440E0,1.194706678E0
1.514364668E0,2.552218914E0,-9.244012833E0,1.209071875E0
1.516380048E0,2.547430515E0,-9.248801231E0,1.211466074E0
1.518363349E0,2.545036316E0,-9.279925346E0,1.209071875E0
1.520377575E0,2.537853718E0,-9.306262016E0,1.192312479E0
1.522361493E0,2.533065319E0,-9.320627213E0,1.185129881E0
1.524374795E0,2.530671120E0,-9.318233490E0,1.182735682E0
1.526358405E0,2.518700123E0,-9.342175484E0,1.201889277E0
1.528372322E0,2.521094322E0,-9.356540680E0,1.216254473E0
1.530356317E0,2.509123325E0,-9.366117477E0,1.249773264E0
1.532370158E0,2.509123325E0,-9.382876396E0,1.285686255E0
1.534354691E0,2.509123325E0,-9.387664795E0,1.280897856E0
1.536369454E0,2.516305923E0,-9.390059471E0,1.295263171E0
1.538382142E0,2.521094322E0,-9.402029991E0,1.319205165E0
1.540365520E0,2.518700123E0,-9.399636269E0,1.326387763E0
1.542380592E0,2.523488522E0,-9.380482674E0,1.345541358E0
1.544364202E0,2.525882721E0,-9.366117477E0,1.359906554E0
1.546377197E0,2.530671120E0,-9.358934402E0,1.364694953E0
1.548361729E0,2.537853718E0,-9.349357605E0,1.350329757E0
1.550375955E0,2.547430515E0,-9.337387085E0,1.338358760E0
1.552359873E0,2.528276920E0,-9.318233490E0,1.335964561E0
1.554373098E0,2.518700123E0,-9.287108421E0,1.335964561E0
1.556357785E0,2.518700123E0,-9.272743225E0,1.331176162E0
1.558371317E0,2.489969730E0,-9.265560150E0,1.314416766E0
1.560355312E0,2.461239338E0,-9.270348549E0,1.335964561E0
1.562368845E0,2.461239338E0,-9.277531624E0,1.343147159E0
1.564383301E0,2.446874142E0,-9.279925346E0,1.374271750E0
1.566366603E0,2.442085743E0,-9.311050415E0,1.395819545E0
1.568380829E0,2.442085743E0,-9.318233490E0,1.393425345E0
1.570364746E0,2.427720547E0,-9.346963882E0,1.374271750E0
1.572379279E0,2.406172752E0,-9.351752281E0,1.381454349E0
1.574362966E0,2.408566952E0,-9.356540680E0,1.388636947E0
1.576377961E0,2.370259762E0,-9.375694275E0,1.379060149E0
1.578360493E0,2.358288765E0,-9.385271072E0,1.374271750E0
1.580374334E0,2.300827742E0,-9.380482674E0,1.364694953E0
1.582356791E0,2.260126352E0,-9.399636269E0,1.371877551E0
1.584372400E0,2.238578558E0,-9.406818390E0,1.369483352E0
1.586356780E0,2.185906172E0,-9.409213066E0,1.374271750E0
1.588370005E0,2.154781580E0,-9.402029991E0,1.398213744E0
1.590353615E0,2.145204782E0,-9.390059471E0,1.400607944E0
1.592367148E0,2.106897593E0,-9.366117477E0,1.400607944E0
1.594381989E0,2.085349798E0,-9.373299599E0,1.400607944E0
1.596366521E0,2.073378563E0,-9.368511200E0,1.410184860E0
1.598379824E0,2.049436569E0,-9.370905876E0,1.407790542E0
1.600364049E0,2.059013367E0,-9.382876396E0,1.434126854E0
1.602377659E0,2.056619167E0,-9.390059471E0,1.441309452E0
1.604361576E0,2.070984364E0,-9.397241592E0,1.455674648E0
1.606375725E0,2.080561161E0,-9.392453194E0,1.465251446E0
1.608359181E0,2.082955360E0,-9.385271072E0,1.493981838E0
1.610373560E0,2.092532396E0,-9.368511200E0,1.489193439E0
1.612356631E0,2.099714994E0,-9.373299599E0,1.491587639E0
1.614371088E0,2.099714994E0,-9.404424667E0,1.498770237E0
1.616355390E0,2.111685991E0,-9.406818390E0,1.489193439E0
1.618368692E0,2.111685991E0,-9.404424667E0,1.479616642E0
1.620382456E0,2.109291792E0,-9.406818390E0,1.465251446E0
1.622367143E0,2.114080191E0,-9.392453194E0,1.465251446E0
1.624380984E0,2.118868589E0,-9.397241592E0,1.474828243E0
1.626363132E0,2.126051188E0,-9.399636269E0,1.493981838E0
1.628378819E0,2.130839586E0,-9.411606789E0,1.489193439E0
1.630362428E0,2.142810583E0,-9.416395187E0,1.489193439E0
1.632376039E0,2.157175779E0,-9.425971985E0,1.489193439E0
1.634360033E0,2.166752577E0,-9.423578262E0,1.479616642E0
1.636375105E0,2.166752577E0,-9.428366661E0,1.479616642E0
1.638357560E0,2.200271368E0,-9.435548782E0,1.460463047E0
1.640372017E0,2.217030764E0,-9.433155060E0,1.458068848E0
1.642355088E0,2.226607561E0,-9.423578262E0,1.441309452E0
1.644369237E0,2.240972757E0,-9.416395187E0,1.431732655E0
1.646353539E0,2.250549555E0,-9.402029991E0,1.429338455E0
1.648367302E0,2.272097349E0,-9.387664795E0,1.419761658E0
1.650382143E0,2.284068346E0,-9.390059471E0,1.407790542E0
1.652365215E0,2.300827742E0,-9.385271072E0,1.400607944E0
1.654379363E0,2.336740971E0,-9.361329079E0,1.414973259E0
1.656363665E0,2.343923569E0,-9.346963882E0,1.422155857E0
1.658377122E0,2.355894566E0,-9.339780807E0,1.426944256E0
1.660359577E0,2.370259762E0,-9.323021889E0,1.429338455E0
1.662374418E0,2.382230759E0,-9.327810287E0,1.448492050E0
1.664358951E0,2.384624958E0,-9.318233490E0,1.434126854E0
1.666373100E0,2.403778553E0,-9.291896820E0,1.410184860E0
1.668355863E0,2.403778553E0,-9.315838814E0,1.391031146E0
1.670370396E0,2.403778553E0,-9.308655739E0,1.376665950E0
1.672353698E0,2.391807556E0,-9.306262016E0,1.362300754E0
1.674368462E0,2.384624958E0,-9.311050415E0,1.352723956E0
1.676383226E0,2.401384354E0,-9.318233490E0,1.335964561E0
1.678366605E0,2.403778553E0,-9.323021889E0,1.316810966E0
1.680380522E0,2.406172752E0,-9.339780807E0,1.319205165E0
1.682363902E0,2.403778553E0,-9.351752281E0,1.331176162E0
1.684377435E0,2.396595955E0,-9.373299599E0,1.319205165E0
1.686361968E0,2.396595955E0,-9.380482674E0,1.304839969E0
1.688375809E0,2.398990154E0,-9.380482674E0,1.295263171E0
1.690359880E0,2.406172752E0,-9.394847870E0,1.307234168E0
1.692373336E0,2.394201756E0,-9.414001465E0,1.307234168E0
1.694357330E0,2.401384354E0,-9.428366661E0,1.302445769E0
1.696372479E0,2.394201756E0,-9.449913979E0,1.295263171E0
1.698355473E0,2.391807556E0,-9.457097054E0,1.297657371E0
1.700368468E0,2.401384354E0,-9.454702377E0,1.321599364E0
1.702384462E0,2.396595955E0,-9.476250648E0,1.338358760E0
1.704367842E0,2.389413357E0,-9.485827446E0,1.345541358E0
1.706380759E0,2.389413357E0,-9.469067574E0,1.335964561E0
1.708365600E0,2.398990154E0,-9.473855972E0,1.331176162E0
1.710378902E0,2.396595955E0,-9.493009567E0,1.326387763E0
1.712362512E0,2.382230759E0,-9.507374763E0,1.352723956E0
1.714376661E0,2.375048161E0,-9.509769440E0,1.350329757E0
1.716361655E0,2.375048161E0,-9.512163162E0,1.362300754E0
1.718373881E0,2.353500366E0,-9.495404243E0,1.359906554E0
1.720358875E0,2.343923569E0,-9.490615845E0,1.359906554E0
1.722372639E0,2.339135170E0,-9.495404243E0,1.347935557E0
1.724355787E0,2.334346771E0,-9.512163162E0,1.345541358E0
1.726370243E0,2.327163935E0,-9.519346237E0,1.355118155E0
1.728353314E0,2.317587137E0,-9.514557838E0,1.355118155E0
1.730368079E0,2.308010340E0,-9.521739960E0,1.331176162E0
1.732381842E0,2.312798738E0,-9.512163162E0,1.328781962E0
1.734365837E0,2.296039343E0,-9.507374763E0,1.335964561E0
1.736380677E0,2.291250944E0,-9.497797966E0,1.328781962E0
1.738364057E0,2.284068346E0,-9.490615845E0,1.319205165E0
1.740377205E0,2.281674147E0,-9.485827446E0,1.312022567E0
1.742360969E0,2.284068346E0,-9.490615845E0,1.309628367E0
1.744375347E0,2.281674147E0,-9.485827446E0,1.316810966E0
1.746359035E0,2.298433542E0,-9.493009567E0,1.331176162E0
1.748373568E0,2.296039343E0,-9.497797966E0,1.323993564E0
1.750356562E0,2.291250944E0,-9.483432770E0,1.321599364E0
1.752371019E0,2.274491549E0,-9.483432770E0,1.319205165E0
1.754354705E0,2.276885748E0,-9.483432770E0,1.312022567E0
1.756369777E0,2.288856745E0,-9.483432770E0,1.326387763E0
1.758352540E0,2.279279947E0,-9.478644371E0,1.314416766E0
1.760366766E0,2.267308950E0,-9.461885452E0,1.314416766E0
1.762380221E0,2.250549555E0,-9.459490776E0,1.321599364E0
1.764364216E0,2.255337954E0,-9.476250648E0,1.314416766E0
1.766378672E0,2.240972757E0,-9.469067574E0,1.307234168E0
1.768361821E0,2.219424963E0,-9.471462250E0,1.309628367E0
1.770376815E0,2.224213362E0,-9.485827446E0,1.309628367E0
1.772360502E0,2.217030764E0,-9.488221169E0,1.297657371E0
1.774374342E0,2.214636564E0,-9.488221169E0,1.268926859E0
1.776358645E0,2.221819162E0,-9.478644371E0,1.254561663E0
1.778372179E0,2.219424963E0,-9.466673851E0,1.244984865E0
1.780355557E0,2.214636564E0,-9.461885452E0,1.225831270E0
1.782370091E0,2.207453966E0,-9.461885452E0,1.211466074E0
1.784354008E0,2.185906172E0,-9.478644371E0,1.213860273E0
1.786366310E0,2.178723574E0,-9.466673851E0,1.221042871E0
1.788381689E0,2.171540976E0,-9.461885452E0,1.230619669E0
1.790366299E0,2.149993181E0,-9.447520256E0,1.261744261E0
1.792379601E0,2.135627985E0,-9.452308655E0,1.252167463E0
1.794363519E0,2.133233786E0,-9.454702377E0,1.252167463E0
1.796378052E0,2.102109194E0,-9.464279175E0,1.266532660E0
1.798360816E0,2.114080191E0,-9.459490776E0,1.280897856E0
1.800375271E0,2.104503393E0,-9.461885452E0,1.276109457E0
1.802358574E0,2.085349798E0,-9.476250648E0,1.266532660E0
1.804372799E0,2.070984364E0,-9.476250648E0,1.259350061E0
1.806356486E0,2.075772762E0,-9.476250648E0,1.268926859E0
1.808370635E0,2.106897593E0,-9.485827446E0,1.273715258E0
1.810354321E0,2.106897593E0,-9.483432770E0,1.276109457E0
1.812367855E0,2.118868589E0,-9.485827446E0,1.276109457E0
1.814382849E0,2.130839586E0,-9.490615845E0,1.273715258E0
1.816367228E0,2.135627985E0,-9.478644371E0,1.278503656E0
1.818380453E0,2.138022184E0,-9.473855972E0,1.290474772E0
1.820363448E0,2.152387381E0,-9.483432770E0,1.309628367E0
1.822376750E0,2.157175779E0,-9.485827446E0,1.312022567E0
1.824361360E0,2.166752577E0,-9.461885452E0,1.319205165E0
1.826376047E0,2.178723574E0,-9.461885452E0,1.328781962E0
1.828359503E0,2.185906172E0,-9.461885452E0,1.328781962E0
1.830373343E0,2.173935175E0,-9.461885452E0,1.343147159E0
1.832357646E0,2.176329374E0,-9.461885452E0,1.357512355E0
1.834372102E0,2.202665567E0,-9.454702377E0,1.357512355E0
1.836355789E0,2.209848166E0,-9.469067574E0,1.355118155E0
1.838369937E0,2.221819162E0,-9.471462250E0,1.347935557E0
1.840354163E0,2.217030764E0,-9.473855972E0,1.345541358E0
1.842367465E0,2.197877169E0,-9.466673851E0,1.331176162E0
1.844381305E0,2.193088770E0,-9.471462250E0,1.326387763E0
1.846364608E0,2.207453966E0,-9.476250648E0,1.316810966E0
1.848378448E0,2.217030764E0,-9.464279175E0,1.314416766E0
1.850363059E0,2.212242365E0,-9.464279175E0,1.307234168E0
1.852377283E0,2.207453966E0,-9.464279175E0,1.283292055E0
1.854360663E0,2.207453966E0,-9.452308655E0,1.264138460E0
1.856375119E0,2.219424963E0,-9.459490776E0,1.252167463E0
1.858358729E0,2.243366957E0,-9.457097054E0,1.244984865E0
1.860372338E0,2.229001760E0,-9.457097054E0,1.264138460E0
1.862356872E0,2.214636564E0,-9.447520256E0,1.256955862E0
1.864371097E0,2.219424963E0,-9.445125580E0,1.261744261E0
1.866352938E0,2.207453966E0,-9.442731857E0,1.261744261E0
1.868368009E0,2.200271368E0,-9.418789864E0,1.252167463E0
1.870382773E0,2.197877169E0,-9.390059471E0,1.271321058E0
1.872365537E0,2.190694571E0,-9.392453194E0,1.273715258E0
1.874380531E0,2.188300371E0,-9.390059471E0,1.283292055E0
1.876364295E0,2.212242365E0,-9.385271072E0,1.290474772E0
1.878378751E0,2.231395960E0,-9.382876396E0,1.297657371E0
1.880362669E0,2.252943754E0,-9.378087997E0,1.307234168E0
1.882375894E0,2.267308950E0,-9.378087997E0,1.319205165E0
1.884359658E0,2.291250944E0,-9.380482674E0,1.321599364E0
1.886372883E0,2.322375536E0,-9.397241592E0,1.326387763E0
1.888357416E0,2.360682964E0,-9.402029991E0,1.328781962E0
1.890372256E0,2.377442360E0,-9.411606789E0,1.323993564E0
1.892354713E0,2.389413357E0,-9.430760384E0,1.326387763E0
1.894369707E0,2.425326347E0,-9.428366661E0,1.326387763E0
1.896353779E0,2.446874142E0,-9.435548782E0,1.326387763E0
1.898367004E0,2.454056740E0,-9.433155060E0,1.347935557E0
1.900380537E0,2.458845139E0,-9.454702377E0,1.352723956E0
1.902363917E0,2.454056740E0,-9.457097054E0,1.352723956E0
1.904378065E0,2.444479942E0,-9.452308655E0,1.357512355E0
1.906362290E0,2.439691544E0,-9.459490776E0,1.357512355E0
1.908376438E0,2.422932148E0,-9.449913979E0,1.362300754E0
1.910360510E0,2.418143749E0,-9.461885452E0,1.367089152E0
1.912374889E0,2.413355350E0,-9.478644371E0,1.369483352E0
1.914358038E0,2.406172752E0,-9.464279175E0,1.374271750E0
1.916373032E0,2.403778553E0,-9.476250648E0,1.386242747E0
1.918356104E0,2.398990154E0,-9.488221169E0,1.393425345E0
1.920370559E0,2.403778553E0,-9.502586365E0,1.400607944E0
1.922352785E0,2.415749550E0,-9.500192642E0,1.410184860E0
1.924368163E0,2.413355350E0,-9.497797966E0,1.422155857E0
1.926382235E0,2.420537949E0,-9.497797966E0,1.455674648E0
1.928365306E0,2.432508945E0,-9.519346237E0,1.477222443E0
1.930379840E0,2.434903145E0,-9.512163162E0,1.493981838E0
1.932362526E0,2.430114746E0,-9.512163162E0,1.541865945E0
1.934376983E0,2.442085743E0,-9.516951561E0,1.558625340E0
1.936361593E0,2.482787132E0,-9.526528358E0,1.589749932E0
1.938376126E0,2.523488522E0,-9.545681953E0,1.637633920E0
1.940358582E0,2.537853718E0,-9.555258751E0,1.651999116E0
1.942373576E0,2.568978310E0,-9.576807022E0,1.685518026E0
1.944357340E0,2.612074137E0,-9.583989143E0,1.719036818E0
1.946369642E0,2.624045134E0,-9.603142738E0,1.726219416E0
1.948354791E0,2.676717520E0,-9.646238327E0,1.728613615E0
1.950369246E0,2.715024710E0,-9.660603523E0,1.738190413E0
1.952352318E0,2.726995707E0,-9.667786598E0,1.742978811E0
1.954366235E0,2.753331900E0,-9.689333916E0,1.757344007E0
1.956380692E0,2.791639090E0,-9.706093788E0,1.778891921E0
1.958364301E0,2.815581083E0,-9.715670586E0,1.790862918E0
1.960379373E0,2.868253708E0,-9.725247383E0,1.771709204E0
1.962361829E0,2.894589901E0,-9.751583099E0,1.781286120E0
1.964375439E0,2.961627483E0,-9.763554573E0,1.793257117E0
1.966359742E0,3.019088268E0,-9.785101891E0,1.805228114E0
1.968374505E0,3.033453465E0,-9.792284966E0,1.802833915E0
1.970357500E0,3.098097086E0,-9.809044838E0,1.821987510E0
1.972371725E0,3.172317266E0,-9.825803757E0,1.841141105E0
1.974355412E0,3.208230257E0,-9.830592155E0,1.841141105E0
1.976370175E0,3.287238836E0,-9.861717224E0,1.869871497E0
1.978353170E0,3.359065056E0,-9.861717224E0,1.905784607E0
1.980366703E0,3.402160645E0,-9.878476143E0,1.908178806E0
1.982380929E0,3.488351822E0,-9.919178009E0,1.915361404E0
1.984365153E0,3.576937437E0,-9.955090523E0,1.929726601E0
1.986379302E0,3.615244627E0,-9.981427193E0,1.927332401E0
1.988362066E0,3.732560396E0,-1.001255131E1,1.896207690E0
1.990377137E0,3.859453201E0,-1.006043530E1,1.819593310E0
1.992360285E0,3.921702385E0,-1.009395409E1,1.774103403E0
1.994374973E0,4.082113743E0,-1.016578007E1,1.707065821E0
1.996359582E0,4.165910721E0,-1.023042393E1,1.680729628E0
1.998372500E0,4.328716755E0,-1.025436592E1,1.671152830E0
2.000356803E0,4.510675907E0,-1.027591324E1,1.671152830E0
2.002370105E0,4.596867085E0,-1.030703831E1,1.678335428E0
2.004354407E0,4.769249916E0,-1.036928749E1,1.668758631E0
2.006368170E0,4.972756863E0,-1.040759468E1,1.642422318E0
2.008382012E0,5.068524837E0,-1.043153667E1,1.623268723E0
2.010365775E0,5.243301868E0,-1.046745014E1,1.575384736E0
2.012379924E0,5.410895824E0,-1.049618053E1,1.529894829E0
2.014364148E0,5.489904404E0,-1.051054573E1,1.520318031E0
2.016378990E0,5.619191170E0,-1.055364132E1,1.529894829E0
2.018361753E0,5.750872612E0,-1.059194851E1,1.558625340E0
2.020375594E0,5.808333397E0,-1.060152531E1,1.580173135E0
2.022360126E0,5.894524574E0,-1.064940929E1,1.630451322E0
2.024373121E0,5.980715752E0,-1.067095661E1,1.707065821E0
2.026355577E0,6.011840343E0,-1.069489861E1,1.750161409E0
2.028370957E0,6.050147533E0,-1.077151299E1,1.848323703E0
2.030354875E0,6.069301128E0,-1.085770512E1,1.898601890E0
2.032369715E0,6.069301128E0,-1.089361763E1,2.027888775E0
2.034351864E0,6.083666325E0,-1.095347309E1,2.154781580E0
2.036367473E0,6.071695328E0,-1.098938560E1,2.226607561E0
2.038381391E0,6.066906929E0,-1.108754826E1,2.346317768E0
2.040364770E0,6.102819920E0,-1.119768143E1,2.410961151E0
2.042378919E0,6.119579315E0,-1.123598862E1,2.432508945E0
2.044361990E0,6.126761913E0,-1.131499767E1,2.432508945E0
2.046376369E0,6.143521786E0,-1.137724686E1,2.396595955E0
2.048360056E0,6.148310184E0,-1.141555405E1,2.394201756E0
2.050375204E0,6.191405773E0,-1.147540855E1,2.413355350E0
2.052357660E0,6.232107162E0,-1.151371574E1,2.427720547E0
2.054373040E0,6.260837555E0,-1.154005241E1,2.427720547E0
2.056357034E0,6.327875137E0,-1.159272480E1,2.434903145E0
2.058369875E0,6.394912720E0,-1.162145519E1,2.446874142E0
2.060353024E0,6.447585106E0,-1.163342571E1,2.468421936E0
2.062366787E0,6.531382084E0,-1.164539719E1,2.430114746E0
2.064381935E0,6.572083473E0,-1.164779091E1,2.403778553E0
2.066365622E0,6.670246124E0,-1.165257931E1,2.317587137E0
2.068380079E0,6.777985096E0,-1.165736771E1,2.231395960E0
2.070363996E0,6.842628479E0,-1.166455078E1,2.176329374E0
2.072378144E0,6.974309444E0,-1.165018559E1,2.078166962E0
2.074360677E0,7.127538681E0,-1.161187840E1,1.965639591E0
2.076376057E0,7.201758862E0,-1.159751320E1,1.896207690E0
2.078358743E0,7.374141216E0,-1.154962921E1,1.704671621E0
2.080373507E0,7.529764175E0,-1.149935055E1,1.532289028E0
2.082357193E0,7.623138428E0,-1.147062016E1,1.474828243E0
2.084370419E0,7.805097580E0,-1.141555405E1,1.407790542E0
2.086353875E0,7.999027729E0,-1.135091019E1,1.340752959E0
2.088368639E0,8.101978302E0,-1.131499767E1,1.285686255E0
2.090352556E0,8.305485725E0,-1.125514221E1,1.134851575E0
2.092366474E0,8.568847656E0,-1.117373943E1,9.720458984E-1
2.094380314E0,8.681375504E0,-1.113782597E1,9.002198577E-1
2.096364925E0,8.868123055E0,-1.107797146E1,8.259995580E-1
2.098378150E0,8.975862503E0,-1.105402946E1,8.044517636E-1
2.100361529E0,9.167398453E0,-1.099656868E1,7.900865674E-1
2.102376293E0,9.349357605E0,-1.091516590E1,7.829039693E-1
2.104360287E0,9.430760384E0,-1.089122391E1,7.733271718E-1
2.106372590E0,9.591172218E0,-1.083376312E1,7.637503147E-1
2.108357738E0,9.722852707E0,-1.078108978E1,7.805097699E-1
2.110371579E0,9.782708168E0,-1.074757099E1,8.020575643E-1
2.112355342E0,9.856928825E0,-1.069011021E1,8.355764151E-1
2.114369491E0,9.950302124E0,-1.065419769E1,8.810662031E-1
2.116354408E0,1.000058079E1,-1.062786102E1,8.906430602E-1
2.118367865E0,1.004846478E1,-1.058716011E1,9.481038451E-1
2.120382320E0,1.007001209E1,-1.054166985E1,9.911994934E-1
2.122365084E0,1.007719517E1,-1.052012253E1,1.029506683E0
2.124378617E0,1.007001209E1,-1.046026707E1,1.084573388E0
2.126362920E0,1.006761837E1,-1.042674828E1,1.139639974E0
2.128376761E0,1.003409958E1,-1.040759468E1,1.175553083E0
2.130360216E0,1.000297451E1,-1.036210537E1,1.228225470E0
2.132374904E0,9.979032516E0,-1.035013390E1,1.259350061E0
2.134358898E0,9.916783333E0,-1.033098030E1,1.297657371E0
2.136374662E0,9.864110947E0,-1.032379818E1,1.367089152E0
2.138356810E0,9.835380554E0,-1.030224991E1,1.391031146E0
2.140369728E0,9.761159897E0,-1.027591324E1,1.465251446E0
2.142353337E0,9.639056206E0,-1.026873112E1,1.541865945E0
2.144367486E0,9.591172218E0,-1.025197124E1,1.577778935E0
2.146382249E0,9.500192642E0,-1.024718285E1,1.680729628E0
2.148366244E0,9.397241592E0,-1.023281765E1,1.754949808E0
2.150379854E0,9.342175484E0,-1.022563553E1,1.795651317E0
2.152364464E0,9.251194954E0,-1.022324085E1,1.843535304E0
2.154378304E0,9.179368973E0,-1.025197124E1,1.862688899E0
2.156362530E0,9.133879662E0,-1.024478912E1,1.865083098E0
2.158375832E0,9.057265282E0,-1.024478912E1,1.857900500E0
2.160360673E0,9.033323288E0,-1.023281765E1,1.850717902E0
2.162373899E0,9.009381294E0,-1.021605873E1,1.836352706E0
2.164356354E0,9.016563416E0,-1.019211674E1,1.819593310E0
2.166371503E0,9.016563416E0,-1.020648193E1,1.795651317E0
2.168355189E0,9.033323288E0,-1.017056847E1,1.747767210E0
2.170370261E0,9.059659004E0,-1.013704967E1,1.709460020E0
2.172353563E0,9.088389397E0,-1.012029076E1,1.695094824E0
2.174366250E0,9.148244858E0,-1.007001209E1,1.683123827E0
2.176382475E0,9.217676163E0,-1.000776291E1,1.714248419E0
2.178365009E0,9.260771751E0,-9.983820915E0,1.721431017E0
2.180378772E0,9.315838814E0,-9.935936928E0,1.699883223E0
2.182363074E0,9.402029991E0,-9.847352028E0,1.673547029E0
2.184377222E0,9.435548782E0,-9.813833237E0,1.649604917E0
2.186359679E0,9.509769440E0,-9.732429504E0,1.613691926E0
2.188374519E0,9.569623947E0,-9.643844604E0,1.589749932E0
2.190359053E0,9.591172218E0,-9.610325813E0,1.572990537E0
2.192372586E0,9.643844604E0,-9.521739960E0,1.565807939E0
2.194355734E0,9.667786598E0,-9.464279175E0,1.556231141E0
2.196371113E0,9.706093788E0,-9.363722801E0,1.541865945E0
2.198353261E0,9.765948296E0,-9.282320023E0,1.503558636E0
2.200368333E0,9.782708168E0,-9.239224434E0,1.493981838E0
2.202351327E0,9.811438560E0,-9.126696587E0,1.465251446E0
2.204365476E0,9.864110947E0,-9.054870605E0,1.431732655E0
2.206379624E0,9.888052940E0,-9.011775017E0,1.414973259E0
2.208363619E0,9.940725327E0,-8.920795441E0,1.362300754E0
2.210377536E0,9.995792389E0,-8.836998940E0,1.338358760E0
2.212361762E0,1.002212811E1,-8.803479195E0,1.335964561E0
2.214375602E0,1.007240677E1,-8.702922821E0,1.340752959E0
2.216359982E0,1.012268448E1,-8.607154846E0,1.369483352E0
2.218373129E0,1.015380955E1,-8.568847656E0,1.391031146E0
2.220355971E0,1.019690514E1,-8.475474358E0,1.412579060E0
2.222370043E0,1.024000072E1,-8.370129585E0,1.453280449E0
2.224354960E0,1.024478912E1,-8.324639320E0,1.484405041E0
2.226368878E0,1.024718285E1,-8.233659744E0,1.525106430E0
2.228352179E0,1.024718285E1,-8.166622162E0,1.544260144E0
2.230366636E0,1.024239445E1,-8.042123795E0,1.570596337E0
2.232380553E0,1.022084713E1,-7.924807549E0,1.580173135E0
2.234364471E0,1.020887566E1,-7.860164165E0,1.594538331E0
2.236379311E0,1.016338634E1,-7.733271599E0,1.604115129E0
2.238362306E0,1.011550236E1,-7.603984833E0,1.587355733E0
2.240376839E0,1.008677197E1,-7.536946774E0,1.594538331E0
2.242360449E0,1.003888798E1,-7.410054207E0,1.616086125E0
2.244374058E0,9.971850395E0,-7.297526836E0,1.644816518E0
2.246358361E0,9.943120003E0,-7.244854450E0,1.647210717E0
2.248371509E0,9.907206535E0,-7.108384609E0,1.647210717E0
2.250356119E0,9.885659218E0,-6.991068840E0,1.673547029E0
2.252369652E0,9.878476143E0,-6.947973251E0,1.692700624E0
2.254353647E0,9.883264542E0,-6.840234280E0,1.702277422E0
2.256368796E0,9.900024414E0,-6.718130112E0,1.714248419E0
2.258351559E0,9.959878922E0,-6.655880928E0,1.719036818E0
2.260365092E0,1.002212811E1,-6.548141479E0,1.683123827E0
2.262380086E0,1.004128170E1,-6.495469093E0,1.675941229E0
2.264363543E0,1.012029076E1,-6.394912720E0,1.642422318E0
2.266377075E0,1.019211674E1,-6.291962147E0,1.604115129E0
2.268360994E0,1.020648193E1,-6.232107162E0,1.594538331E0
2.270375449E0,1.025436592E1,-6.124367714E0,1.599326730E0
2.272358906E0,1.027112484E1,-6.014234543E0,1.572990537E0
2.274373053E0,1.027830791E1,-5.959167957E0,1.551442742E0
2.276356741E0,1.030224991E1,-5.849034786E0,1.501164436E0
2.278370504E0,1.031661510E1,-5.734113216E0,1.424550056E0
2.280355422E0,1.031422138E1,-5.679046631E0,1.403002143E0
2.282368416E0,1.029985619E1,-5.568912983E0,1.357512355E0
2.284351796E0,1.029506683E1,-5.465962410E0,1.321599364E0
2.286366560E0,1.028788471E1,-5.410895824E0,1.331176162E0
2.288380092E0,1.028788471E1,-5.334281445E0,1.364694953E0
2.290364395E0,1.029027843E1,-5.262455463E0,1.405396342E0
2.292378466E0,1.028788471E1,-5.219359875E0,1.438915253E0
2.294361538E0,1.028309631E1,-5.154716492E0,1.450886250E0
2.296376994E0,1.027591324E1,-5.125985622E0,1.431732655E0
2.298359450E0,1.029506683E1,-5.044582844E0,1.419761658E0
2.300372983E0,1.030224991E1,-4.977545261E0,1.417367458E0
2.302356978E0,1.031661510E1,-4.958391666E0,1.422155857E0
2.304372048E0,1.034295177E1,-4.910507679E0,1.458068848E0
2.306355428E0,1.036449909E1,-4.853046894E0,1.496376038E0
2.308368961E0,1.037168217E1,-4.824316502E0,1.510741234E0
2.310353186E0,1.038365269E1,-4.776432514E0,1.541865945E0
2.312367719E0,1.040280628E1,-4.726154327E0,1.551442742E0
2.314350714E0,1.040759468E1,-4.692635536E0,1.546654344E0
2.316365554E0,1.043153667E1,-4.649539471E0,1.515529633E0
2.318379318E0,1.045069027E1,-4.582501888E0,1.532289028E0
2.320363082E0,1.046266174E1,-4.553771496E0,1.544260144E0
2.322376230E0,1.051293945E1,-4.493916512E0,1.551442742E0
2.324360225E0,1.054166985E1,-4.424484730E0,1.546654344E0
2.326374758E0,1.061110210E1,-4.390965939E0,1.534683347E0
2.328358368E0,1.068292809E1,-4.309563160E0,1.496376038E0
2.330373131E0,1.070926380E1,-4.271255970E0,1.489193439E0
2.332355896E0,1.078348446E1,-4.197035789E0,1.477222443E0
2.334370428E0,1.086967564E1,-4.125209332E0,1.482010841E0
2.336354731E0,1.090798283E1,-4.079719543E0,1.484405041E0
2.338368186E0,1.099656868E1,-4.005499363E0,1.477222443E0
2.340351335E0,1.106839466E1,-3.912125587E0,1.448492050E0
2.342365483E0,1.109951878E1,-3.869029999E0,1.417367458E0
2.344380786E0,1.113782597E1,-3.797203779E0,1.345541358E0
2.346362934E0,1.118092155E1,-3.687070608E0,1.256955862E0
2.348377775E0,1.119049835E1,-3.624821424E0,1.201889277E0
2.350361462E0,1.118570995E1,-3.507505417E0,1.060631394E0
2.352375302E0,1.116176796E1,-3.383007050E0,8.930372596E-1
2.354358990E0,1.113303757E1,-3.306392431E0,8.092401624E-1
2.356373445E0,1.107318306E1,-3.143586874E0,6.512228847E-1
2.358357363E0,1.104924107E1,-3.081337690E0,5.793967843E-1
2.360371588E0,1.100614548E1,-2.925714493E0,4.022258818E-1
2.362355506E0,1.099417400E1,-2.779668093E0,2.561795712E-1
2.364369038E0,1.099417400E1,-2.695871115E0,1.939303428E-1
2.366352726E0,1.101093388E1,-2.566584110E0,5.506663769E-2
2.368366566E0,1.102051067E1,-2.425326347E0,-7.900865376E-2
2.370381407E0,1.104205799E1,-2.353500366E0,-1.532289088E-1
2.372365093E0,1.107078838E1,-2.264914751E0,-2.801215947E-1
2.374378627E0,1.106121159E1,-2.205059767E0,-4.979939461E-1
2.376364082E0,1.111627865E1,-2.114080191E0,-5.027823448E-1
2.378377077E0,1.116176796E1,-2.018311977E0,-4.381389022E-1
2.380359226E0,1.121444035E1,-1.934514999E0,-5.075707436E-1
2.382373605E0,1.123120022E1,-1.893813491E0,-6.057330370E-1
2.384357600E0,1.125514221E1,-1.814804912E0,-7.374141216E-1
2.386372671E0,1.123838234E1,-1.733402014E0,-7.924807668E-1
2.388355820E0,1.121922874E1,-1.690306425E0,-7.829039693E-1
2.390370275E0,1.115219116E1,-1.584961534E0,-7.613561153E-1
2.392353963E0,1.112824917E1,-1.537077546E0,-7.493851185E-1
2.394367726E0,1.107318306E1,-1.462857246E0,-7.374141216E-1
2.396352028E0,1.100135708E1,-1.371877551E0,-7.709329724E-1
2.398365330E0,1.097262669E1,-1.338358760E0,-7.948749661E-1
2.400380633E0,1.091516590E1,-1.252167463E0,-8.403648138E-1
2.402363396E0,1.077869606E1,-1.158793569E0,-8.930372596E-1
2.404377622E0,1.074996567E1,-1.127668977E0,-9.624691010E-1
2.406360924E0,1.065659142E1,-1.022324085E0,-9.313444495E-1
2.408375380E0,1.056082344E1,-9.241618514E-1,-8.643068075E-1
2.410358759E0,1.052251625E1,-8.858546019E-1,-8.451532125E-1
2.412372292E0,1.044590187E1,-7.757213712E-1,-8.595184088E-1
2.414356672E0,1.038604736E1,-6.703764796E-1,-9.313444495E-1
2.416370435E0,1.035971069E1,-6.200982332E-1,-9.720458984E-1
2.418355122E0,1.030703831E1,-5.051765442E-1,-1.019929886E0
2.420368270E0,1.027591324E1,-3.711012602E-1,-1.036689281E0
2.422352342E0,1.023281765E1,-2.944868207E-1,-1.036689281E0
2.424366721E0,1.016099167E1,-1.723825186E-1,-1.041477680E0
2.426380331E0,1.013465595E1,-1.125274822E-1,-1.034295082E0
2.428364556E0,1.011550236E1,2.394201607E-2,-1.024718285E0
2.430379320E0,1.007719517E1,1.628057212E-1,-1.053448796E0
2.432362083E0,1.005564690E1,2.154781520E-1,-1.065419793E0
2.434376001E0,1.000536919E1,3.303998411E-1,-1.089361787E0
2.436359611E0,9.962273598E0,4.261679053E-1,-1.101332784E0
2.438374144E0,9.938331604E0,4.860229492E-1,-1.101332784E0
2.440358446E0,9.892841339E0,5.793967843E-1,-1.118092179E0
2.442371672E0,9.856928825E0,6.631938815E-1,-1.130063176E0
2.444355359E0,9.847352028E0,6.895300746E-1,-1.120486379E0
2.446369738E0,9.792284966E0,7.445967197E-1,-1.086967587E0
2.448352887E0,9.730035782E0,8.044517636E-1,-1.012747288E0
2.450367265E0,9.691728592E0,8.188169599E-1,-9.864110947E-1
2.452350414E0,9.603142738E0,8.714894056E-1,-9.409212470E-1
2.454364870E0,9.543288231E0,9.385270476E-1,-9.217676520E-1
2.456379634E0,9.406818390E0,9.648633003E-1,-9.050082564E-1
2.458363320E0,9.258378029E0,1.007958889E0,-9.217676520E-1
2.460375931E0,9.181763649E0,1.046266198E0,-9.217676520E-1
2.462359309E0,9.038111687E0,1.113303781E0,-9.241618514E-1
2.464374920E0,8.896853447E0,1.173158884E0,-9.337386489E-1
2.466358990E0,8.827422142E0,1.206677675E0,-9.241618514E-1
2.468372755E0,8.683769226E0,1.278503656E0,-8.810662031E-1
2.470355826E0,8.508993149E0,1.331176162E0,-8.523358107E-1
2.472370898E0,8.418013573E0,1.374271750E0,-8.379706144E-1
2.474353431E0,8.212111473E0,1.458068848E0,-8.116343617E-1
2.476369656E0,7.977479935E0,1.522712231E0,-8.116343617E-1
2.478352805E0,7.867346764E0,1.549048543E0,-8.116343617E-1
2.480365953E0,7.666234016E0,1.630451322E0,-8.140285611E-1
2.482380486E0,7.455543995E0,1.687912226E0,-8.307880163E-1
2.484363788E0,7.347805023E0,1.721431017E0,-8.307880163E-1
2.486377321E0,7.149086475E0,1.833958507E0,-8.188169599E-1
2.488361084E0,7.038952827E0,1.865083098E0,-7.972691655E-1
2.490376464E0,6.830657482E0,1.946485996E0,-7.709329724E-1
2.492358920E0,6.612784863E0,2.011129379E0,-7.254431248E-1
2.494373068E0,6.507440090E0,2.059013367E0,-7.206547260E-1
2.496357678E0,6.294356346E0,2.118868589E0,-7.038952708E-1
2.498371442E0,6.076483727E0,2.212242365E0,-6.631938815E-1
2.500354513E0,5.968744755E0,2.250549555E0,-6.488286853E-1
2.502370200E0,5.779603004E0,2.327163935E0,-6.105214357E-1
2.504353271E0,5.590460777E0,2.394201756E0,-5.961562395E-1
2.506365651E0,5.497087002E0,2.427720547E0,-5.937620401E-1
2.508381337E0,5.346252441E0,2.494758129E0,-5.722141862E-1
2.510364640E0,5.207388878E0,2.571372509E0,-5.363011956E-1
2.512378558E0,5.130774021E0,2.607285738E0,-5.171475410E-1
2.514362552E0,5.003881454E0,2.669534922E0,-4.644751251E-1
2.516377239E0,4.905719280E0,2.736572504E0,-4.237737060E-1
2.518360002E0,4.836287498E0,2.777273893E0,-4.141969085E-1
2.520375074E0,4.752490520E0,2.853888512E0,-3.878606856E-1
2.522357607E0,4.738125324E0,2.880224705E0,-3.734954596E-1
2.524372294E0,4.663905144E0,2.940079689E0,-3.040636182E-1
2.526355134E0,4.608838081E0,3.004723072E0,-2.059013397E-1
2.528369822E0,4.570530891E0,3.033453465E0,-1.580173075E-1
2.530353893E0,4.493916512E0,3.100491285E0,-4.309562966E-2
2.532367118E0,4.402936935E0,3.177105665E0,1.244984865E-1
2.534352266E0,4.345476151E0,3.203441858E0,2.059013397E-1
2.536365877E0,4.216189384E0,3.277662039E0,3.567360640E-1
2.538380024E0,4.067748547E0,3.339911461E0,5.099649429E-1
2.540362481E0,3.979163170E0,3.359065056E0,5.698199868E-1
2.542376937E0,3.782838583E0,3.402160645E0,6.488286853E-1
2.544360932E0,3.591302633E0,3.495534420E0,7.230489254E-1
2.546374696E0,3.476380825E0,3.531447411E0,7.469909191E-1
2.548358690E0,3.256114244E0,3.615244627E0,7.709329724E-1
2.550373531E0,3.052607059E0,3.677493811E0,7.805097699E-1
2.552355986E0,2.971204281E0,3.722983599E0,7.709329724E-1
2.554370981E0,2.808398485E0,3.823540211E0,7.709329724E-1
2.556355668E0,2.743755102E0,3.854664803E0,7.637503147E-1
2.558369124E0,2.616862535E0,3.919308186E0,7.493851185E-1
2.560352503E0,2.518700123E0,3.983951569E0,7.852981687E-1
2.562366344E0,2.477998734E0,4.017470360E0,8.140285611E-1
2.564380261E0,2.384624958E0,4.067748547E0,8.523358107E-1
2.566364256E0,2.310404539E0,4.132391930E0,9.121908545E-1
2.568378942E0,2.281674147E0,4.173093796E0,9.552865028E-1
2.570362707E0,2.233790159E0,4.266467571E0,1.024718285E0
2.572375855E0,2.154781580E0,4.352658749E0,1.096544385E0
2.574359619E0,2.118868589E0,4.383783340E0,1.134851575E0
2.576375306E0,2.061407566E0,4.436455727E0,1.187524080E0
2.578357762E0,1.987187386E0,4.477157116E0,1.228225470E0
2.580371218E0,1.951274395E0,4.501099110E0,1.244984865E0
2.582356135E0,1.872265697E0,4.532223701E0,1.283292055E0
2.584369746E0,1.843535304E0,4.565742493E0,1.321599364E0
2.586352509E0,1.757344007E0,4.587290287E0,1.326387763E0
2.588366658E0,1.692700624E0,4.594472885E0,1.326387763E0
2.590350883E0,1.663970232E0,4.601655483E0,1.333570361E0
2.592365108E0,1.596932530E0,4.620809078E0,1.335964561E0
2.594379256E0,1.544260144E0,4.611232281E0,1.321599364E0
2.596363559E0,1.517923832E0,4.594472885E0,1.321599364E0
2.598377322E0,1.493981838E0,4.563348293E0,1.321599364E0
2.600361317E0,1.467645645E0,4.541800499E0,1.307234168E0
2.602375234E0,1.455674648E0,4.517858505E0,1.295263171E0
2.604358537E0,1.448492050E0,4.498704910E0,1.276109457E0
2.606372147E0,1.443703651E0,4.472368717E0,1.268926859E0
2.608356372E0,1.438915253E0,4.453215122E0,1.271321058E0
2.610371136E0,1.422155857E0,4.436455727E0,1.297657371E0
2.612354207E0,1.398213744E0,4.417302132E0,1.326387763E0
2.614368664E0,1.381454349E0,4.424484730E0,1.347935557E0
2.616352965E0,1.364694953E0,4.446032524E0,1.407790542E0
2.618365960E0,1.359906554E0,4.419696331E0,1.438915253E0
2.620379416E0,1.335964561E0,4.419696331E0,1.491587639E0
2.622363103E0,1.302445769E0,4.426878929E0,1.534683347E0
2.624377867E0,1.276109457E0,4.424484730E0,1.546654344E0
2.626362169E0,1.254561663E0,4.410119534E0,1.553836942E0
2.628375779E0,1.240196466E0,4.431667328E0,1.570596337E0
2.630360389E0,1.235408068E0,4.431667328E0,1.592144132E0
2.632373229E0,1.247379065E0,4.419696331E0,1.663970232E0
2.634357609E0,1.264138460E0,4.422090530E0,1.759738207E0
2.636372680E0,1.271321058E0,4.424484730E0,1.810016513E0
2.638355059E0,1.283292055E0,4.434061527E0,1.917755604E0
2.640369208E0,1.288080573E0,4.448426723E0,2.032677174E0
2.642352587E0,1.290474772E0,4.460397720E0,2.097320795E0
2.644367659E0,1.302445769E0,4.477157116E0,2.207453966E0
2.646350191E0,1.340752959E0,4.498704910E0,2.281674147E0
2.648364648E0,1.350329757E0,4.515464306E0,2.317587137E0
2.650379026E0,1.381454349E0,4.544194698E0,2.355894566E0
2.652362406E0,1.395819545E0,4.553771496E0,2.370259762E0
2.654376631E0,1.441309452E0,4.589684486E0,2.406172752E0
2.656360933E0,1.472434044E0,4.616020679E0,2.477998734E0
2.658375004E0,1.501164436E0,4.630385876E0,2.513911724E0
2.660357461E0,1.565807939E0,4.659116745E0,2.568978310E0
2.662372840E0,1.623268723E0,4.709394932E0,2.652775526E0
2.664356296E0,1.637633920E0,4.723760128E0,2.686294317E0
2.666369521E0,1.678335428E0,4.757278919E0,2.746149302E0
2.668353747E0,1.692700624E0,4.829104900E0,2.796427488E0
2.670367972E0,1.695094824E0,4.867412090E0,2.827552319E0
2.672351351E0,1.721431017E0,4.934449673E0,2.882618904E0
2.674365500E0,1.721431017E0,5.025429249E0,2.899378300E0
2.676380571E0,1.726219416E0,5.070919037E0,2.904166698E0
2.678363874E0,1.752555609E0,5.188235283E0,2.865859509E0
2.680378021E0,1.798045516E0,5.272032261E0,2.822763920E0
2.682361709E0,1.824381709E0,5.319916248E0,2.806004286E0
2.684375549E0,1.908178806E0,5.427655220E0,2.774879694E0
2.686358928E0,1.958456993E0,5.482721806E0,2.777273893E0
2.688373076E0,2.061407566E0,5.597643375E0,2.794033289E0
2.690357148E0,2.140416384E0,5.667075634E0,2.798821688E0
2.692370911E0,2.169146776E0,5.705382824E0,2.813186884E0
2.694354676E0,2.245761156E0,5.801150799E0,2.851494312E0
2.696369747E0,2.303221941E0,5.868188381E0,2.887407303E0
2.698351895E0,2.308010340E0,5.906495571E0,2.908955097E0
2.700367814E0,2.315192938E0,5.963956356E0,2.966415882E0
2.702349346E0,2.312798738E0,5.992686749E0,3.009511471E0
2.704364803E0,2.296039343E0,6.023811340E0,3.023876667E0
2.706378643E0,2.303221941E0,6.066906929E0,3.045424461E0
2.708362022E0,2.305616140E0,6.071695328E0,3.040636063E0
2.710376093E0,2.312798738E0,6.076483727E0,3.052607059E0
2.712360165E0,2.336740971E0,6.093243122E0,3.057395458E0
2.714374621E0,2.353500366E0,6.076483727E0,3.057395458E0
2.716358308E0,2.422932148E0,6.064512730E0,3.031059265E0
2.718372687E0,2.504334927E0,6.042964935E0,2.992752075E0
2.720356066E0,2.564189911E0,6.033388138E0,2.975992680E0
2.722369291E0,2.724601507E0,6.002263546E0,2.973598480E0
2.724352671E0,2.896984100E0,5.995080948E0,2.966415882E0
2.726367742E0,2.985569477E0,5.995080948E0,2.971204281E0
2.728351814E0,3.150769472E0,6.014234543E0,3.047818661E0
2.730365577E0,3.277662039E0,6.028599739E0,3.184288263E0
2.732379418E0,3.315969467E0,6.047753334E0,3.260902643E0
2.734363105E0,3.332728863E0,6.069301128E0,3.428496838E0
2.736377868E0,3.292027235E0,6.119579315E0,3.600879431E0
2.738361017E0,3.239354849E0,6.131550789E0,3.672705412E0
2.740374550E0,3.078943491E0,6.143521786E0,3.799597979E0
2.742359083E0,2.849100113E0,6.184223175E0,3.912125587E0
2.744373847E0,2.731784105E0,6.205770969E0,3.957615376E0
2.746356072E0,2.509123325E0,6.268020153E0,4.053383350E0
2.748370836E0,2.401384354E0,6.339846134E0,4.098873138E0
2.750354754E0,2.217030764E0,6.370970726E0,4.165910721E0
2.752368055E0,2.068590164E0,6.440402508E0,4.232948780E0
2.754351973E0,2.025494576E0,6.478709698E0,4.264073372E0
2.756367121E0,1.980004787E0,6.562506676E0,4.357447147E0
2.758349885E0,1.977610588E0,6.641515732E0,4.472368717E0
2.760364264E0,1.996764183E0,6.682217121E0,4.520252705E0
2.762377874E0,2.078166962E0,6.749254704E0,4.592078686E0
2.764361177E0,2.207453966E0,6.801927090E0,4.651933670E0
2.766376017E0,2.269703150E0,6.840234280E0,4.678270340E0
2.768359397E0,2.442085743E0,6.871358871E0,4.714183331E0
2.770373853E0,2.624045134E0,6.926425457E0,4.745307922E0
2.772357232E0,2.722207308E0,6.950367451E0,4.769249916E0
2.774372226E0,2.889801502E0,6.995857239E0,4.802768707E0
2.776356298E0,3.028665066E0,7.019799232E0,4.802768707E0
2.778369523E0,3.110068083E0,7.029376030E0,4.805162907E0
2.780352287E0,3.232172251E0,7.038952827E0,4.814739704E0
2.782366358E0,3.294421434E0,7.048529625E0,4.814739704E0
2.784350353E0,3.433285236E0,7.046135426E0,4.814739704E0
2.786364578E0,3.536235809E0,7.046135426E0,4.800374508E0
2.788378650E0,3.584120035E0,7.048529625E0,4.802768707E0
2.790362951E0,3.670311213E0,7.041347027E0,4.807557106E0
2.792376793E0,3.713406801E0,7.062894821E0,4.802768707E0
2.794360480E0,3.734954596E0,7.074865818E0,4.797980309E0
2.796375935E0,3.744531393E0,7.086836815E0,4.774038315E0
2.798357777E0,3.732560396E0,7.110779285E0,4.781220913E0
2.800372771E0,3.718195200E0,7.127538681E0,4.781220913E0
2.802355919E0,3.682282209E0,7.165845871E0,4.778826714E0
2.804370375E0,3.605667830E0,7.206547260E0,4.764461517E0
2.806353370E0,3.564966440E0,7.218518257E0,4.750096321E0
2.808367902E0,3.488351822E0,7.275979042E0,4.716577530E0
2.810351590E0,3.435679436E0,7.350199223E0,4.683058739E0
2.812365968E0,3.347094059E0,7.388506413E0,4.671087742E0
2.814379886E0,3.270479441E0,7.462726593E0,4.632780075E0
2.816364804E0,3.234566450E0,7.496245384E0,4.618414879E0
2.818378260E0,3.201047659E0,7.556100368E0,4.599261284E0
2.820360716E0,3.177105665E0,7.625532627E0,4.575319290E0
2.822376172E0,3.177105665E0,7.661445618E0,4.563348293E0
2.824359474E0,3.191470861E0,7.726089001E0,4.527435303E0
2.826372469E0,3.232172251E0,7.790732384E0,4.479551315E0
2.828357079E0,3.260902643E0,7.814674377E0,4.455609322E0
2.830370919E0,3.339911461E0,7.857769966E0,4.436455727E0
2.832354837E0,3.435679436E0,7.910442352E0,4.417302132E0
2.834368755E0,3.488351822E0,7.939172745E0,4.407725334E0
2.836353980E0,3.574543238E0,7.960720539E0,4.405331135E0
2.838366897E0,3.655946016E0,8.006210327E0,4.395754337E0
2.840350892E0,3.691859007E0,8.027758598E0,4.386177540E0
2.842364733E0,3.749319792E0,8.051700592E0,4.371812344E0
2.844378497E0,3.811569214E0,8.104372978E0,4.333505154E0
2.846362260E0,3.849876404E0,8.123526573E0,4.323928356E0
2.848376101E0,3.900154591E0,8.166622162E0,4.295197964E0
2.850360326E0,3.924096584E0,8.185775757E0,4.285621166E0
2.852373936E0,3.960009575E0,8.195352554E0,4.261679173E0
2.854357623E0,3.995922565E0,8.240841866E0,4.259284973E0
2.856372695E0,4.005499363E0,8.250418663E0,4.252102375E0
2.858355767E0,4.034229755E0,8.257601738E0,4.216189384E0
2.860369914E0,4.065354347E0,8.276755333E0,4.173093796E0
2.862352063E0,4.084507942E0,8.274360657E0,4.156333923E0
2.864367134E0,4.103661537E0,8.269572258E0,4.115632534E0
2.866351052E0,4.132391930E0,8.262390137E0,4.077325344E0
2.868364892E0,4.146757126E0,8.255207062E0,4.055777550E0
2.870379734E0,4.161122322E0,8.267178535E0,3.998316765E0
2.872363035E0,4.194641590E0,8.276755333E0,3.936067581E0
2.874377184E0,4.206612587E0,8.283937454E0,3.909731388E0
2.876361255E0,4.228160381E0,8.281543732E0,3.842693806E0
2.878375327E0,4.237737179E0,8.298302650E0,3.780444384E0
2.880359629E0,4.254496574E0,8.307879448E0,3.754108191E0
2.882372547E0,4.290409565E0,8.322244644E0,3.694253206E0
2.884356310E0,4.304774761E0,8.331821442E0,3.667917013E0
2.886370690E0,4.331110954E0,8.353369713E0,3.617638826E0
2.888354376E0,4.359841347E0,8.377311707E0,3.586514235E0
2.890368294E0,4.371812344E0,8.391676903E0,3.572149038E0
2.892352827E0,4.400542736E0,8.427590370E0,3.543418407E0
2.894366360E0,4.419696331E0,8.468291283E0,3.514688015E0
2.896350047E0,4.419696331E0,8.489839554E0,3.505111217E0
2.898364503E0,4.405331135E0,8.513781548E0,3.505111217E0
2.900377729E0,4.405331135E0,8.559270859E0,3.507505417E0
2.902362723E0,4.393360138E0,8.583212852E0,3.512293816E0
2.904376871E0,4.355052948E0,8.621520042E0,3.507505417E0
2.906358635E0,4.319139957E0,8.683769226E0,3.495534420E0
2.908374014E0,4.285621166E0,8.717288017E0,3.497928619E0
2.910356854E0,4.230554581E0,8.755595207E0,3.502717018E0
2.912371311E0,4.216189384E0,8.798690796E0,3.502717018E0
2.914355228E0,4.161122322E0,8.815450668E0,3.502717018E0
2.916370300E0,4.094084740E0,8.853757858E0,3.526659012E0
2.918353371E0,4.055777550E0,8.880094528E0,3.550601006E0
2.920367827E0,3.979163170E0,8.899248123E0,3.579331636E0
2.922350899E0,3.916913986E0,8.896853447E0,3.598485231E0
2.924364740E0,3.881000996E0,8.889671326E0,3.596091032E0
2.926379273E0,3.801992416E0,8.904036522E0,3.608062029E0
2.928362575E0,3.737348795E0,8.889671326E0,3.598485231E0
2.930376800E0,3.720589399E0,8.892065048E0,3.603273630E0
2.932360102E0,3.660734415E0,8.848969460E0,3.610456228E0
2.934374251E0,3.617638826E0,8.832210541E0,3.615244627E0
2.936359245E0,3.600879431E0,8.822632790E0,3.612850428E0
2.938373317E0,3.564966440E0,8.784325600E0,3.603273630E0
2.940355849E0,3.562572241E0,8.741230011E0,3.596091032E0
2.942369614E0,3.560178041E0,8.714894295E0,3.586514235E0
2.944353608E0,3.552995205E0,8.664615631E0,3.562572241E0
2.946367833E0,3.555389643E0,8.647856712E0,3.545812607E0
2.948351443E0,3.564966440E0,8.609549522E0,3.531447411E0
2.950366207E0,3.569754839E0,8.573636055E0,3.517082214E0
2.952349279E0,3.574543238E0,8.559270859E0,3.512293816E0
2.954363735E0,3.581725836E0,8.504204750E0,3.507505417E0
2.956379113E0,3.562572241E0,8.485051155E0,3.500322819E0
2.958361262E0,3.557783842E0,8.475474358E0,3.500322819E0
2.960376334E0,3.529053211E0,8.456320763E0,3.485957623E0
2.962359097E0,3.493140221E0,8.439560890E0,3.488351822E0
2.964374246E0,3.476380825E0,8.446743965E0,3.485957623E0
2.966356394E0,3.433285236E0,8.461109161E0,3.505111217E0
2.968371081E0,3.392583847E0,8.473079681E0,3.524264812E0
2.970355152E0,3.373430252E0,8.477868080E0,3.526659012E0
2.972368301E0,3.327940464E0,8.489839554E0,3.536235809E0
2.974352680E0,3.294421434E0,8.525752068E0,3.550601006E0
2.976368367E0,3.246537447E0,8.532935143E0,3.550601006E0
2.978350822E0,3.232172251E0,8.525752068E0,3.555389643E0
2.980364279E0,3.232172251E0,8.537723541E0,3.550601006E0
2.982379427E0,3.227383852E0,8.540117264E0,3.536235809E0
2.984362730E0,3.239354849E0,8.549694061E0,3.536235809E0
2.986375724E0,3.253720045E0,8.549694061E0,3.529053211E0
2.988360872E0,3.268085241E0,8.540117264E0,3.526659012E0
2.990374790E0,3.289633036E0,8.520963669E0,3.517082214E0
2.992358169E0,3.289633036E0,8.520963669E0,3.514688015E0
2.994372318E0,3.296815634E0,8.523358345E0,3.529053211E0
2.996356235E0,3.311181068E0,8.520963669E0,3.541024208E0
2.998369538E0,3.311181068E0,8.513781548E0,3.541024208E0
3.000354763E0,3.292027235E0,8.501810074E0,3.524264812E0
3.002368527E0,3.294421434E0,8.475474358E0,3.533841610E0
3.004351367E0,3.287238836E0,8.461109161E0,3.536235809E0
3.006365208E0,3.287238836E0,8.434772491E0,3.541024208E0
3.008379894E0,3.284844637E0,8.398859978E0,3.538630009E0
3.010362428E0,3.268085241E0,8.394071579E0,3.538630009E0
3.012377422E0,3.246537447E0,8.360552788E0,3.533841610E0
3.014361109E0,3.251325846E0,8.341399193E0,3.536235809E0
3.016376488E0,3.256114244E0,8.312667847E0,3.543418407E0
3.018360483E0,3.256114244E0,8.312667847E0,3.545812607E0
3.020371632E0,3.253720045E0,8.305485725E0,3.545812607E0
3.022356856E0,3.265691042E0,8.264783859E0,3.538630009E0
3.024371313E0,3.277662039E0,8.233659744E0,3.529053211E0
3.026354307E0,3.296815634E0,8.212111473E0,3.524264812E0
3.028368533E0,3.308786631E0,8.180987358E0,3.538630009E0
3.030352450E0,3.320757866E0,8.152256966E0,3.543418407E0
3.032366599E0,3.323152065E0,8.147468567E0,3.552995205E0
3.034349131E0,3.342305660E0,8.116343498E0,3.562572241E0
3.036364742E0,3.356670856E0,8.111555099E0,3.581725836E0
3.038378659E0,3.356670856E0,8.111555099E0,3.591302633E0
3.040362269E0,3.342305660E0,8.113949776E0,3.608062029E0
3.042376186E0,3.330334663E0,8.128314972E0,3.615244627E0
3.044359796E0,3.330334663E0,8.133103371E0,3.622427225E0
3.046373637E0,3.339911461E0,8.147468567E0,3.620033026E0
3.048357016E0,3.339911461E0,8.166622162E0,3.617638826E0
3.050372395E0,3.327940464E0,8.228871346E0,3.612850428E0
3.052355851E0,3.349488258E0,8.257601738E0,3.579331636E0
3.054369693E0,3.347094059E0,8.288725853E0,3.576937437E0
3.056353302E0,3.344699860E0,8.322244644E0,3.579331636E0
3.058367835E0,3.356670856E0,8.355764389E0,3.564966440E0
3.060351137E0,3.371036053E0,8.386888504E0,3.557783842E0
3.062366209E0,3.390189648E0,8.429984093E0,3.552995205E0
3.064349280E0,3.402160645E0,8.463502884E0,3.519476414E0
3.066362275E0,3.414131641E0,8.477868080E0,3.514688015E0
3.068376731E0,3.440467834E0,8.499416351E0,3.490746021E0
3.070360956E0,3.445256233E0,8.528146744E0,3.462015629E0
3.072374796E0,3.454833031E0,8.547300339E0,3.450044632E0
3.074358253E0,3.481169224E0,8.583212852E0,3.426102638E0
3.076373324E0,3.490746021E0,8.611943245E0,3.402160645E0
3.078356088E0,3.500322819E0,8.614337921E0,3.383007050E0
3.080371159E0,3.490746021E0,8.631096840E0,3.371036053E0
3.082354462E0,3.493140221E0,8.633491516E0,3.349488258E0
3.084368072E0,3.485957623E0,8.633491516E0,3.332728863E0
3.086351374E0,3.464409828E0,8.655038834E0,3.313575268E0
3.088365292E0,3.445256233E0,8.659827232E0,3.308786631E0
3.090350209E0,3.418920040E0,8.657433510E0,3.318363667E0
3.092363973E0,3.387795448E0,8.647856712E0,3.323152065E0
3.094377813E0,3.368641853E0,8.633491516E0,3.323152065E0
3.096362732E0,3.342305660E0,8.611943245E0,3.327940464E0
3.098375341E0,3.294421434E0,8.602366447E0,3.344699860E0
3.100358721E0,3.272873640E0,8.595184326E0,3.351882458E0
3.102372638E0,3.248931646E0,8.576030731E0,3.361459255E0
3.104357171E0,3.239354849E0,8.561665535E0,3.351882458E0
3.106370473E0,3.229778051E0,8.547300339E0,3.349488258E0
3.108354391E0,3.239354849E0,8.504204750E0,3.342305660E0
3.110369462E0,3.246537447E0,8.473079681E0,3.335123062E0
3.112352918E0,3.268085241E0,8.427590370E0,3.339911461E0
3.114366990E0,3.294421434E0,8.396465302E0,3.351882458E0
3.116351600E0,3.306392431E0,8.372523308E0,3.359065056E0
3.118364902E0,3.327940464E0,8.317456245E0,3.380612850E0
3.120378973E0,3.356670856E0,8.305485725E0,3.385401249E0
3.122362737E0,3.361459255E0,8.303091049E0,3.392583847E0
3.124376578E0,3.361459255E0,8.276755333E0,3.404554844E0
3.126360573E0,3.368641853E0,8.233659744E0,3.430891037E0
3.128374105E0,3.361459255E0,8.228871346E0,3.447650433E0
3.130358100E0,3.347094059E0,8.248024940E0,3.469198227E0
3.132372248E0,3.318363667E0,8.243236542E0,3.481169224E0
3.134355935E0,3.323152065E0,8.236053467E0,3.483563423E0
3.136371622E0,3.323152065E0,8.262390137E0,3.495534420E0
3.138353694E0,3.308786631E0,8.240841866E0,3.483563423E0
3.140367303E0,3.308786631E0,8.233659744E0,3.471592426E0
3.142353067E0,3.335123062E0,8.226476669E0,3.462015629E0
3.144366292E0,3.354276657E0,8.221688271E0,3.459621429E0
3.146348748E0,3.409343243E0,8.204929352E0,3.462015629E0
3.148363205E0,3.442862034E0,8.188169479E0,3.469198227E0
3.150378045E0,3.457227230E0,8.159439087E0,3.466804028E0
3.152360809E0,3.524264812E0,8.128314972E0,3.445256233E0
3.154374880E0,3.591302633E0,8.106766701E0,3.435679436E0
3.156359491E0,3.622427225E0,8.092401505E0,3.430891037E0
3.158373331E0,3.677493811E0,8.068459511E0,3.428496838E0
3.160357095E0,3.737348795E0,8.046912193E0,3.423708439E0
3.162371166E0,3.773261786E0,8.034940720E0,3.418920040E0
3.164354007E0,3.818751812E0,8.020575523E0,3.414131641E0
3.166369386E0,3.871424198E0,7.979874134E0,3.423708439E0
3.168352458E0,3.885789394E0,7.955932140E0,3.435679436E0
3.170366913E0,3.931279182E0,7.953537941E0,3.426102638E0
3.172349370E0,3.955221176E0,7.953537941E0,3.426102638E0
3.174364056E0,4.019864559E0,7.941566944E0,3.423708439E0
3.176379436E0,4.055777550E0,7.931990147E0,3.411737442E0
3.178362277E0,4.072536945E0,7.924807549E0,3.418920040E0
3.180373040E0,4.106055737E0,7.912836552E0,3.428496838E0
3.182359112E0,4.156333923E0,7.910442352E0,3.430891037E0
3.184373260E0,4.175487995E0,7.912836552E0,3.423708439E0
3.186357870E0,4.223371983E0,7.917624950E0,3.442862034E0
3.188371480E0,4.261679173E0,7.936778545E0,3.457227230E0
3.190356013E0,4.273650169E0,7.943961143E0,3.457227230E0
3.192369930E0,4.326322556E0,7.955932140E0,3.466804028E0
3.194353618E0,4.338293552E0,7.970297337E0,3.505111217E0
3.196367458E0,4.347870350E0,7.975085735E0,3.517082214E0
3.198351068E0,4.374206543E0,7.984662533E0,3.538630009E0
3.200365293E0,4.357447147E0,7.994239330E0,3.555389643E0
3.202348596E0,4.350264549E0,8.010998726E0,3.562572241E0
3.204363051E0,4.343081951E0,8.042123795E0,3.572149038E0
3.206376969E0,4.335899353E0,8.087613106E0,3.586514235E0
3.208360579E0,4.307168961E0,8.090007782E0,3.610456228E0
3.210375420E0,4.292803764E0,8.099584579E0,3.622427225E0
3.212358107E0,4.276044369E0,8.121131897E0,3.629609823E0
3.214372332E0,4.247313976E0,8.133103371E0,3.624821424E0
3.216357173E0,4.228160381E0,8.169015884E0,3.632004023E0
3.218370167E0,4.218583584E0,8.178592682E0,3.636792421E0
3.220353239E0,4.223371983E0,8.173804283E0,3.641580820E0
3.222369233E0,4.209006786E0,8.183381081E0,3.675099611E0
3.224353151E0,4.201824188E0,8.185775757E0,3.687070608E0
3.226365145E0,4.182670593E0,8.195352554E0,3.713406801E0
3.228349140E0,4.180276394E0,8.209717751E0,3.727771997E0
3.230363673E0,4.175487995E0,8.202534676E0,3.734954596E0
3.232377514E0,4.137180328E0,8.188169479E0,3.761290789E0
3.234362123E0,4.091690540E0,8.190564156E0,3.780444384E0
3.236377195E0,4.074931145E0,8.188169479E0,3.782838583E0
3.238359651E0,4.036623955E0,8.176198959E0,3.787626982E0
3.240374107E0,4.010287762E0,8.180987358E0,3.797203779E0
3.242358025E0,3.955221176E0,8.183381081E0,3.816357613E0
3.244371942E0,3.904942989E0,8.169015884E0,3.837905407E0
3.246355245E0,3.876212597E0,8.164227486E0,3.842693806E0
3.248369700E0,3.828328609E0,8.171410561E0,3.842693806E0
3.250353080E0,3.799597979E0,8.164227486E0,3.837905407E0
3.252367536E0,3.778050184E0,8.169015884E0,3.833117008E0
3.254351531E0,3.739742994E0,8.161833763E0,3.842693806E0
3.256365986E0,3.711012602E0,8.145073891E0,3.859453201E0
3.258348212E0,3.696647406E0,8.142680168E0,3.854664803E0
3.260361744E0,3.658340216E0,8.128314972E0,3.845088005E0
3.262376201E0,3.629609823E0,8.137891769E0,3.837905407E0
3.264361118E0,3.622427225E0,8.147468567E0,3.837905407E0
3.266374575E0,3.622427225E0,8.159439087E0,3.840299606E0
3.268358953E0,3.620033026E0,8.157045364E0,3.840299606E0
3.270372179E0,3.634398222E0,8.159439087E0,3.852270603E0
3.272355251E0,3.643975019E0,8.157045364E0,3.866635799E0
3.274370014E0,3.655946016E0,8.164227486E0,3.864241600E0
3.276354317E0,3.670311213E0,8.178592682E0,3.859453201E0
3.278367849E0,3.699041605E0,8.178592682E0,3.869029999E0
3.280351844E0,3.706224203E0,8.166622162E0,3.864241600E0
3.282365684E0,3.737348795E0,8.180987358E0,3.871424198E0
3.284349295E0,3.785232782E0,8.178592682E0,3.864241600E0
3.286363443E0,3.799597979E0,8.173804283E0,3.869029999E0
3.288377976E0,3.847482204E0,8.176198959E0,3.873818398E0
3.290361970E0,3.883395195E0,8.166622162E0,3.859453201E0
3.292374888E0,3.897760391E0,8.157045364E0,3.864241600E0
3.294359421E0,3.926490784E0,8.123526573E0,3.864241600E0
3.296374185E0,3.931279182E0,8.137891769E0,3.873818398E0
3.298356102E0,3.933673382E0,8.142680168E0,3.873818398E0
3.300370251E0,3.938461781E0,8.142680168E0,3.873818398E0
3.302355168E0,3.938461781E0,8.161833763E0,3.866635799E0
3.304368932E0,3.945644379E0,8.157045364E0,3.847482204E0
3.306351773E0,3.967192173E0,8.142680168E0,3.837905407E0
3.308366537E0,3.979163170E0,8.135497093E0,3.823540211E0
3.310350532E0,4.000710964E0,8.140285492E0,3.809175014E0
3.312364987E0,4.017470360E0,8.140285492E0,3.806780815E0
3.314347751E0,4.031835556E0,8.130708694E0,3.799597979E0
3.316362745E0,4.043806553E0,8.123526573E0,3.782838583E0
3.318376664E0,4.086902142E0,8.121131897E0,3.775655985E0
3.320360042E0,4.106055737E0,8.109161377E0,3.775655985E0
3.322374191E0,4.151545525E0,8.104372978E0,3.768473387E0
3.324357570E0,4.163516521E0,8.092401505E0,3.770867586E0
3.326371642E0,4.180276394E0,8.085219383E0,3.778050184E0
3.328355712E0,4.225766182E0,8.068459511E0,3.792415380E0
3.330370169E0,4.230554581E0,8.039729118E0,3.780444384E0
3.332353471E0,4.228160381E0,8.032546997E0,3.785232782E0
3.334367389E0,4.218583584E0,8.025363922E0,3.804386616E0
3.336351922E0,4.235342979E0,8.020575523E0,3.811569214E0
3.338365762E0,4.244919777E0,8.018181801E0,3.816357613E0
3.340347911E0,4.225766182E0,8.001421928E0,3.837905407E0
3.342362367E0,4.218583584E0,8.003816605E0,3.837905407E0
3.344378131E0,4.220977783E0,8.003816605E0,3.833117008E0
3.346360587E0,4.209006786E0,8.020575523E0,3.828328609E0
3.348375351E0,4.206612587E0,8.020575523E0,3.833117008E0
3.350358960E0,4.189853191E0,8.025363922E0,3.845088005E0
3.352372878E0,4.165910721E0,8.046912193E0,3.842693806E0
3.354356488E0,4.161122322E0,8.061277390E0,3.840299606E0
3.356370637E0,4.132391930E0,8.066065788E0,3.842693806E0
3.358354400E0,4.115632534E0,8.080430984E0,3.861847401E0
3.360369395E0,4.098873138E0,8.090007782E0,3.859453201E0
3.362352158E0,4.082113743E0,8.106766701E0,3.871424198E0
3.364365999E0,4.058171749E0,8.101978302E0,3.869029999E0
3.366349456E0,4.039018154E0,8.109161377E0,3.873818398E0
3.368363834E0,4.003105164E0,8.140285492E0,3.866635799E0
3.370378598E0,3.993528366E0,8.142680168E0,3.866635799E0
3.372361669E0,3.960009575E0,8.152256966E0,3.873818398E0
3.374375895E0,3.924096584E0,8.145073891E0,3.897760391E0
3.376361120E0,3.916913986E0,8.159439087E0,3.909731388E0
3.378373423E0,3.881000996E0,8.169015884E0,3.907337189E0
3.380356801E0,3.852270603E0,8.178592682E0,3.909731388E0
3.382372489E0,3.842693806E0,8.183381081E0,3.909731388E0
3.384355560E0,3.821146011E0,8.166622162E0,3.904942989E0
3.386368708E0,3.797203779E0,8.154650688E0,3.900154591E0
3.388352779E0,3.799597979E0,8.149862289E0,3.895366192E0
3.390366928E0,3.787626982E0,8.147468567E0,3.890577793E0
3.392351153E0,3.775655985E0,8.135497093E0,3.895366192E0
3.394364686E0,3.773261786E0,8.128314972E0,3.885789394E0
3.396349373E0,3.773261786E0,8.106766701E0,3.888183594E0
3.398362829E0,3.787626982E0,8.075642586E0,3.883395195E0
3.400376669E0,3.792415380E0,8.061277390E0,3.883395195E0
3.402360434E0,3.801992416E0,8.042123795E0,3.881000996E0
3.404374813E0,3.813963413E0,8.044517517E0,3.878606796E0
3.406358884E0,3.842693806E0,8.042123795E0,3.871424198E0
3.408372725E0,3.883395195E0,8.039729118E0,3.847482204E0
3.410356027E0,3.907337189E0,8.037335396E0,3.840299606E0
3.412370484E0,3.948038578E0,8.034940720E0,3.816357613E0
3.414353939E0,3.998316765E0,8.003816605E0,3.809175014E0
3.416369011E0,4.019864559E0,8.003816605E0,3.811569214E0
3.418351159E0,4.074931145E0,7.999027729E0,3.813963413E0
3.420364692E0,4.127603531E0,7.999027729E0,3.813963413E0
3.422348994E0,4.141968727E0,8.006210327E0,3.813963413E0
3.424363451E0,4.185064793E0,8.018181801E0,3.790021181E0
3.426377291E0,4.209006786E0,8.049305916E0,3.770867586E0
3.428361209E0,4.223371983E0,8.068459511E0,3.763684988E0
3.430376280E0,4.252102375E0,8.094796181E0,3.761290789E0
3.432359429E0,4.268861771E0,8.113949776E0,3.754108191E0
3.434373501E0,4.302380562E0,8.125920296E0,3.751713991E0
3.436357264E0,4.323928356E0,8.116343498E0,3.756502390E0
3.438371028E0,4.316745758E0,8.130708694E0,3.763684988E0
3.440356253E0,4.333505154E0,8.166622162E0,3.766079187E0
3.442368325E0,4.319139957E0,8.171410561E0,3.782838583E0
3.444353165E0,4.319139957E0,8.169015884E0,3.790021181E0
3.446366698E0,4.309563160E0,8.183381081E0,3.804386616E0
3.448350385E0,4.307168961E0,8.207323074E0,3.804386616E0
3.450364611E0,4.307168961E0,8.214506149E0,3.804386616E0
3.452348220E0,4.295197964E0,8.209717751E0,3.804386616E0
3.454362369E0,4.283226967E0,8.207323074E0,3.806780815E0
3.456377517E0,4.266467571E0,8.209717751E0,3.811569214E0
3.458359973E0,4.254496574E0,8.200140953E0,3.818751812E0
3.460373506E0,4.218583584E0,8.216899872E0,3.830722809E0
3.462357808E0,4.201824188E0,8.224082947E0,3.830722809E0
3.464372572E0,4.173093796E0,8.231265068E0,3.823540211E0
3.466355028E0,4.156333923E0,8.226476669E0,3.830722809E0
3.468370331E0,4.118026733E0,8.231265068E0,3.847482204E0
3.470353786E0,4.074931145E0,8.219294548E0,3.835511208E0
3.472367551E0,4.067748547E0,8.216899872E0,3.835511208E0
3.474351852E0,4.053383350E0,8.248024940E0,3.825934410E0
3.476365693E0,4.024652958E0,8.264783859E0,3.818751812E0
3.478349149E0,4.010287762E0,8.269572258E0,3.821146011E0
3.480363298E0,3.981557369E0,8.269572258E0,3.811569214E0
3.482377984E0,3.960009575E0,8.274360657E0,3.801992416E0
3.484361364E0,3.955221176E0,8.274360657E0,3.799597979E0
3.486374973E0,3.936067581E0,8.286332130E0,3.809175014E0
3.488358045E0,3.938461781E0,8.305485725E0,3.799597979E0
3.490373039E0,3.931279182E0,8.305485725E0,3.797203779E0
3.492356726E0,3.909731388E0,8.317456245E0,3.794809580E0
3.494371490E0,3.881000996E0,8.324639320E0,3.785232782E0
3.496355562E0,3.871424198E0,8.336610794E0,3.778050184E0
3.498368172E0,3.854664803E0,8.336610794E0,3.778050184E0
3.500351474E0,3.847482204E0,8.336610794E0,3.775655985E0
3.502365622E0,3.816357613E0,8.341399193E0,3.768473387E0
3.504350001E0,3.806780815E0,8.336610794E0,3.749319792E0
3.506364381E0,3.797203779E0,8.348581314E0,3.746925592E0
3.508347529E0,3.806780815E0,8.339004517E0,3.734954596E0
3.510362293E0,3.821146011E0,8.334216118E0,3.711012602E0
3.512376133E0,3.821146011E0,8.334216118E0,3.708618402E0
3.514359436E0,3.818751812E0,8.315062523E0,3.696647406E0
3.516374891E0,3.809175014E0,8.300697327E0,3.694253206E0
3.518358809E0,3.809175014E0,8.303091049E0,3.682282209E0
3.520372342E0,3.816357613E0,8.279149055E0,3.670311213E0
3.522355183E0,3.823540211E0,8.257601738E0,3.663128614E0
3.524369562E0,3.825934410E0,8.250418663E0,3.653551817E0
3.526352710E0,3.830722809E0,8.226476669E0,3.636792421E0
3.528367475E0,3.845088005E0,8.209717751E0,3.598485231E0
3.530350238E0,3.854664803E0,8.207323074E0,3.581725836E0
3.532365617E0,3.869029999E0,8.169015884E0,3.562572241E0
3.534348611E0,3.885789394E0,8.149862289E0,3.555389643E0
3.536363991E0,3.909731388E0,8.128314972E0,3.545812607E0
3.538376677E0,3.943250179E0,8.092401505E0,3.543418407E0
3.540360365E0,3.955221176E0,8.073247910E0,3.548206806E0
3.542375974E0,3.969586372E0,8.063671112E0,3.557783842E0
3.544358738E0,3.974374771E0,8.049305916E0,3.557783842E0
3.546372040E0,3.974374771E0,8.056488991E0,3.564966440E0
3.548356035E0,3.950432777E0,8.049305916E0,3.572149038E0
3.550371029E0,3.928884983E0,8.034940720E0,3.586514235E0
3.552355101E0,3.928884983E0,8.049305916E0,3.596091032E0
3.554367633E0,3.931279182E0,8.066065788E0,3.610456228E0
3.556352859E0,3.902548790E0,8.068459511E0,3.620033026E0
3.558366084E0,3.890577793E0,8.070854187E0,3.622427225E0
3.560350156E0,3.866635799E0,8.082824707E0,3.641580820E0
3.562363689E0,3.871424198E0,8.092401505E0,3.665522814E0
3.564377760E0,3.842693806E0,8.104372978E0,3.672705412E0
3.566361448E0,3.801992416E0,8.104372978E0,3.679888010E0
3.568375057E0,3.792415380E0,8.106766701E0,3.687070608E0
3.570359667E0,3.787626982E0,8.104372978E0,3.713406801E0
3.572373815E0,3.773261786E0,8.080430984E0,3.730166197E0
3.574357118E0,3.756502390E0,8.066065788E0,3.737348795E0
3.576372804E0,3.744531393E0,8.063671112E0,3.754108191E0
3.578354415E0,3.722983599E0,8.049305916E0,3.751713991E0
3.580367563E0,3.737348795E0,8.034940720E0,3.746925592E0
3.582351865E0,3.720589399E0,7.999027729E0,3.742137194E0
3.584367013E0,3.713406801E0,7.955932140E0,3.732560396E0
3.586350700E0,3.711012602E0,7.941566944E0,3.737348795E0
3.588364848E0,3.718195200E0,7.920019150E0,3.749319792E0
3.590348766E0,3.708618402E0,7.881711960E0,3.746925592E0
3.592362377E0,3.706224203E0,7.857769966E0,3.749319792E0
3.594376755E0,3.699041605E0,7.824251175E0,3.756502390E0
3.596361135E0,3.682282209E0,7.795520782E0,3.773261786E0
3.598374052E0,3.660734415E0,7.785943985E0,3.775655985E0
3.600357355E0,3.632004023E0,7.747636795E0,3.768473387E0
3.602371579E0,3.615244627E0,7.735665798E0,3.773261786E0
3.604355882E0,3.600879431E0,7.718906403E0,3.782838583E0
3.606370030E0,3.608062029E0,7.711723804E0,3.792415380E0
3.608353333E0,3.615244627E0,7.709329605E0,3.790021181E0
3.610368173E0,3.627215624E0,7.709329605E0,3.797203779E0
3.612351245E0,3.627215624E0,7.728483200E0,3.816357613E0
3.614365316E0,3.632004023E0,7.716512203E0,3.821146011E0
3.616350003E0,3.627215624E0,7.692570210E0,3.833117008E0
3.618364151E0,3.627215624E0,7.694964409E0,3.852270603E0
3.620346915E0,3.641580820E0,7.702147007E0,3.854664803E0
3.622361678E0,3.651157618E0,7.699752808E0,3.835511208E0
3.624375212E0,3.658340216E0,7.692570210E0,3.833117008E0
3.626358899E0,3.653551817E0,7.685387611E0,3.823540211E0
3.628373662E0,3.667917013E0,7.702147007E0,3.809175014E0
3.630357580E0,3.670311213E0,7.711723804E0,3.809175014E0
3.632371113E0,3.660734415E0,7.706935406E0,3.821146011E0
3.634354493E0,3.670311213E0,7.706935406E0,3.801992416E0
3.636369256E0,3.663128614E0,7.704541206E0,3.790021181E0
3.638352405E0,3.648763418E0,7.711723804E0,3.773261786E0
3.640367091E0,3.667917013E0,7.728483200E0,3.751713991E0
3.642349624E0,3.679888010E0,7.735665798E0,3.746925592E0
3.644364311E0,3.703830004E0,7.750030994E0,3.749319792E0
3.646347998E0,3.687070608E0,7.752425194E0,3.739742994E0
3.648362223E0,3.677493811E0,7.766790390E0,3.737348795E0
3.650376295E0,3.672705412E0,7.776367188E0,3.734954596E0
3.652360366E0,3.670311213E0,7.797914982E0,3.727771997E0
3.654373284E0,3.663128614E0,7.807491779E0,3.725377798E0
3.656358510E0,3.658340216E0,7.826645374E0,3.722983599E0
3.658372042E0,3.665522814E0,7.862558365E0,3.696647406E0
3.660354422E0,3.670311213E0,7.879317760E0,3.696647406E0
3.662368954E0,3.663128614E0,7.905653954E0,3.696647406E0
3.664352872E0,3.655946016E0,7.917624950E0,3.699041605E0
3.666367635E0,3.684676409E0,7.927201748E0,3.703830004E0
3.668350707E0,3.691859007E0,7.943961143E0,3.703830004E0
3.670365471E0,3.699041605E0,7.941566944E0,3.699041605E0
3.672348850E0,3.739742994E0,7.955932140E0,3.711012602E0
3.674362998E0,3.775655985E0,7.979874134E0,3.706224203E0
3.676377224E0,3.785232782E0,7.994239330E0,3.703830004E0
3.678360602E0,3.816357613E0,8.042123795E0,3.703830004E0
3.680375597E0,3.859453201E0,8.075642586E0,3.691859007E0
3.682358745E0,3.873818398E0,8.085219383E0,3.696647406E0
3.684372817E0,3.919308186E0,8.111555099E0,3.701435804E0
3.686355889E0,3.976768970E0,8.128314972E0,3.703830004E0
3.688370037E0,4.005499363E0,8.128314972E0,3.706224203E0
3.690354417E0,4.050989151E0,8.176198959E0,3.718195200E0
3.692368488E0,4.072536945E0,8.212111473E0,3.732560396E0
3.694351867E0,4.079719543E0,8.221688271E0,3.732560396E0
3.696366323E0,4.101267338E0,8.259995461E0,3.720589399E0
3.698350010E0,4.106055737E0,8.276755333E0,3.720589399E0
3.700363004E0,4.137180328E0,8.315062523E0,3.730166197E0
3.702377999E0,4.161122322E0,8.343792915E0,3.751713991E0
3.704361685E0,4.175487995E0,8.360552788E0,3.754108191E0
3.706375296E0,4.197035789E0,8.413225174E0,3.756502390E0
3.708359597E0,4.209006786E0,8.429984093E0,3.768473387E0
3.710373669E0,4.220977783E0,8.434772491E0,3.773261786E0
3.712357433E0,4.232948780E0,8.449137688E0,3.794809580E0
3.714371581E0,4.247313976E0,8.453926086E0,3.813963413E0
3.716355499E0,4.247313976E0,8.444349289E0,3.825934410E0
3.718368724E0,4.285621166E0,8.461109161E0,3.830722809E0
3.720353412E0,4.299986362E0,8.456320763E0,3.842693806E0
3.722367483E0,4.292803764E0,8.458714485E0,3.852270603E0
3.724350631E0,4.283226967E0,8.461109161E0,3.869029999E0
3.726364779E0,4.295197964E0,8.449137688E0,3.904942989E0
3.728348390E0,4.304774761E0,8.441955566E0,3.914519787E0
3.730362537E0,4.307168961E0,8.425195694E0,3.931279182E0
3.732376456E0,4.307168961E0,8.422801971E0,3.940855980E0
3.734360065E0,4.297592163E0,8.415618896E0,3.974374771E0
3.736374829E0,4.290409565E0,8.386888504E0,3.993528366E0
3.738358208E0,4.288015366E0,8.384494781E0,4.000710964E0
3.740372741E0,4.288015366E0,8.365341187E0,4.015076160E0
3.742354812E0,4.278438568E0,8.343792915E0,4.048594952E0
3.744370269E0,4.278438568E0,8.341399193E0,4.065354347E0
3.746353263E0,4.276044369E0,8.350975990E0,4.084507942E0
3.748367181E0,4.254496574E0,8.346187592E0,4.098873138E0
3.750351791E0,4.240131378E0,8.346187592E0,4.098873138E0
3.752365631E0,4.252102375E0,8.353369713E0,4.118026733E0
3.754349242E0,4.218583584E0,8.384494781E0,4.132391930E0
3.756364390E0,4.204218388E0,8.396465302E0,4.139574528E0
3.758346231E0,4.185064793E0,8.420407295E0,4.151545525E0
3.760361917E0,4.185064793E0,8.437167168E0,4.158728123E0
3.762375066E0,4.170699596E0,8.449137688E0,4.180276394E0
3.764358829E0,4.137180328E0,8.465897560E0,4.182670593E0
3.766373824E0,4.132391930E0,8.477868080E0,4.175487995E0
3.768356587E0,4.137180328E0,8.494627953E0,4.185064793E0
3.770371429E0,4.139574528E0,8.499416351E0,4.175487995E0
3.772354807E0,4.139574528E0,8.513781548E0,4.175487995E0
3.774368571E0,4.153939724E0,8.535328865E0,4.182670593E0
3.776353258E0,4.161122322E0,8.535328865E0,4.185064793E0
3.778366714E0,4.173093796E0,8.525752068E0,4.180276394E0
3.780349479E0,4.173093796E0,8.535328865E0,4.165910721E0
3.782364319E0,4.161122322E0,8.564059258E0,4.141968727E0
3.784348006E0,4.153939724E0,8.571242332E0,4.141968727E0
3.786361769E0,4.170699596E0,8.566453934E0,4.146757126E0
3.788376303E0,4.153939724E0,8.580819130E0,4.134786129E0
3.790359912E0,4.153939724E0,8.578424454E0,4.139574528E0
3.792374984E0,4.156333923E0,8.576030731E0,4.129997730E0
3.794357516E0,4.153939724E0,8.578424454E0,4.129997730E0
3.796372204E0,4.141968727E0,8.573636055E0,4.132391930E0
3.798355582E0,4.125209332E0,8.578424454E0,4.118026733E0
3.800370347E0,4.118026733E0,8.583212852E0,4.113238335E0
3.802354033E0,4.101267338E0,8.573636055E0,4.098873138E0
3.804367643E0,4.074931145E0,8.580819130E0,4.108449936E0
3.806351253E0,4.058171749E0,8.566453934E0,4.115632534E0
3.808364863E0,4.058171749E0,8.578424454E0,4.115632534E0
3.810349088E0,4.039018154E0,8.552088737E0,4.122815132E0
3.812363544E0,4.036623955E0,8.537723541E0,4.127603531E0
3.814346309E0,4.036623955E0,8.513781548E0,4.118026733E0
3.816361995E0,4.039018154E0,8.499416351E0,4.122815132E0
3.818374298E0,4.036623955E0,8.477868080E0,4.122815132E0
3.820358292E0,4.024652958E0,8.446743965E0,4.127603531E0
3.822372133E0,4.029441357E0,8.422801971E0,4.122815132E0
3.824355896E0,4.024652958E0,8.401253700E0,4.125209332E0
3.826370583E0,4.024652958E0,8.379706383E0,4.122815132E0
3.828354039E0,4.027047157E0,8.362946510E0,4.113238335E0
3.830369034E0,4.015076160E0,8.315062523E0,4.110844135E0
3.832352413E0,3.995922565E0,8.283937454E0,4.122815132E0
3.834365715E0,3.991134167E0,8.267178535E0,4.120420933E0
3.836351479E0,3.971980572E0,8.226476669E0,4.103661537E0
3.838364704E0,3.962403774E0,8.204929352E0,4.101267338E0
3.840348698E0,3.960009575E0,8.190564156E0,4.103661537E0
3.842361616E0,3.974374771E0,8.142680168E0,4.091690540E0
3.844376687E0,3.974374771E0,8.104372978E0,4.086902142E0
3.846359836E0,3.957615376E0,8.099584579E0,4.086902142E0
3.848373908E0,3.950432777E0,8.066065788E0,4.067748547E0
3.850357056E0,3.936067581E0,8.054094315E0,4.060565948E0
3.852371205E0,3.931279182E0,8.056488991E0,4.053383350E0
3.854355122E0,3.928884983E0,8.054094315E0,4.039018154E0
3.856369348E0,3.926490784E0,8.046912193E0,4.024652958E0
3.858353572E0,3.902548790E0,8.054094315E0,4.012681961E0
3.860366490E0,3.895366192E0,8.051700592E0,4.005499363E0
3.862351177E0,3.888183594E0,8.054094315E0,3.993528366E0
3.864365556E0,3.883395195E0,8.042123795E0,3.962403774E0
3.866348012E0,3.869029999E0,8.030152321E0,3.940855980E0
3.868362776E0,3.864241600E0,8.022970200E0,3.933673382E0
3.870376693E0,3.845088005E0,8.027758598E0,3.926490784E0
3.872360688E0,3.830722809E0,8.037335396E0,3.919308186E0
3.874374221E0,3.825934410E0,8.030152321E0,3.904942989E0
3.876359139E0,3.816357613E0,8.022970200E0,3.876212597E0
3.878372287E0,3.801992416E0,8.018181801E0,3.859453201E0
3.880356359E0,3.792415380E0,8.008605003E0,3.854664803E0
3.882370200E0,3.809175014E0,8.018181801E0,3.828328609E0
3.884353501E0,3.801992416E0,8.013393402E0,3.811569214E0
3.886368035E0,3.806780815E0,8.006210327E0,3.799597979E0
3.888351029E0,3.787626982E0,8.001421928E0,3.775655985E0
3.890365870E0,3.794809580E0,8.008605003E0,3.768473387E0
3.892349787E0,3.809175014E0,8.010998726E0,3.756502390E0
3.894363398E0,3.787626982E0,8.015787125E0,3.725377798E0
3.896347699E0,3.768473387E0,8.003816605E0,3.713406801E0
3.898361848E0,3.770867586E0,8.010998726E0,3.675099611E0
3.900371611E0,3.785232782E0,8.013393402E0,3.655946016E0
3.902358760E0,3.792415380E0,8.027758598E0,3.641580820E0
3.904372908E0,3.825934410E0,8.044517517E0,3.612850428E0
3.906356903E0,3.869029999E0,8.030152321E0,3.593696833E0
3.908370359E0,3.876212597E0,8.020575523E0,3.588908434E0
3.910354661E0,3.916913986E0,8.001421928E0,3.581725836E0
3.912369502E0,3.928884983E0,7.996633530E0,3.572149038E0
3.914352496E0,3.936067581E0,8.006210327E0,3.569754839E0
3.916367261E0,3.962403774E0,7.994239330E0,3.564966440E0
3.918350332E0,3.979163170E0,7.977479935E0,3.572149038E0
3.920365096E0,3.971980572E0,7.982268333E0,3.574543238E0
3.922347936E0,3.976768970E0,7.982268333E0,3.569754839E0
3.924362316E0,3.979163170E0,7.979874134E0,3.560178041E0
3.926376156E0,3.964797974E0,7.977479935E0,3.550601006E0
3.928360151E0,3.983951569E0,7.963114738E0,3.567360640E0
3.930374683E0,3.979163170E0,7.958326340E0,3.572149038E0
3.932357448E0,3.955221176E0,7.943961143E0,3.567360640E0
3.934371595E0,3.936067581E0,7.931990147E0,3.564966440E0
3.936356437E0,3.938461781E0,7.934384346E0,3.552995205E0
3.938369354E0,3.928884983E0,7.912836552E0,3.543418407E0
3.940353041E0,3.919308186E0,7.912836552E0,3.557783842E0
3.942368112E0,3.926490784E0,7.910442352E0,3.557783842E0
3.944351261E0,3.928884983E0,7.905653954E0,3.560178041E0
3.946364794E0,3.928884983E0,7.908048153E0,3.552995205E0
3.948349327E0,3.936067581E0,7.922413349E0,3.552995205E0
3.950362937E0,3.948038578E0,7.924807549E0,3.567360640E0
3.952346316E0,3.950432777E0,7.924807549E0,3.572149038E0
3.954360772E0,3.967192173E0,7.927201748E0,3.584120035E0
3.956375766E0,3.974374771E0,7.929595947E0,3.579331636E0
3.958358530E0,3.974374771E0,7.922413349E0,3.579331636E0
3.960373986E0,3.993528366E0,7.939172745E0,3.579331636E0
3.962356366E0,4.017470360E0,7.953537941E0,3.593696833E0
3.964370590E0,4.019864559E0,7.953537941E0,3.600879431E0
3.966354585E0,4.010287762E0,7.955932140E0,3.615244627E0
3.968368656E0,4.027047157E0,7.965508938E0,3.617638826E0
3.970352421E0,4.015076160E0,7.967903137E0,3.620033026E0
3.972366799E0,3.993528366E0,7.948749542E0,3.624821424E0
3.974350563E0,4.010287762E0,7.960720539E0,3.617638826E0
3.976365635E0,4.010287762E0,7.970297337E0,3.622427225E0
3.978348322E0,4.015076160E0,7.987056732E0,3.632004023E0
3.980360701E0,4.010287762E0,7.979874134E0,3.646369219E0
3.982375695E0,4.007893562E0,7.991845131E0,3.646369219E0
3.984359459E0,3.988739967E0,8.003816605E0,3.646369219E0
3.986373915E0,3.993528366E0,7.982268333E0,3.663128614E0
3.988357295E0,3.998316765E0,7.963114738E0,3.670311213E0
3.990371366E0,4.015076160E0,7.967903137E0,3.677493811E0
3.992355361E0,4.029441357E0,7.958326340E0,3.679888010E0
3.994369508E0,4.053383350E0,7.955932140E0,3.684676409E0
3.996353811E0,4.031835556E0,7.948749542E0,3.691859007E0
3.998367344E0,4.039018154E0,7.934384346E0,3.701435804E0
4.000351031E0,4.055777550E0,7.908048153E0,3.706224203E0
4.002365179E0,4.039018154E0,7.886500359E0,3.715801001E0
4.004348328E0,4.039018154E0,7.879317760E0,3.718195200E0
4.006362169E0,4.055777550E0,7.874529362E0,3.722983599E0
4.008376855E0,4.039018154E0,7.869740963E0,3.730166197E0
4.010360927E0,4.034229755E0,7.848193169E0,3.734954596E0
4.012374690E0,4.022258759E0,7.841010571E0,3.751713991E0
4.014358454E0,4.029441357E0,7.857769966E0,3.754108191E0
4.016373141E0,4.022258759E0,7.850587368E0,3.749319792E0
4.018356213E0,3.998316765E0,7.850587368E0,3.732560396E0
4.020369745E0,4.000710964E0,7.829039574E0,3.725377798E0
4.022354971E0,4.003105164E0,7.841010571E0,3.711012602E0
4.024368811E0,3.986345768E0,7.862558365E0,3.699041605E0
4.026350960E0,3.988739967E0,7.867346764E0,3.682282209E0
4.028366339E0,3.998316765E0,7.893682957E0,3.675099611E0
4.030348872E0,4.015076160E0,7.910442352E0,3.667917013E0
4.032363328E0,4.012681961E0,7.922413349E0,3.663128614E0
4.034347861E0,4.055777550E0,7.943961143E0,3.646369219E0
4.036362086E0,4.079719543E0,7.999027729E0,3.632004023E0
4.038376465E0,4.070142746E0,8.015787125E0,3.622427225E0
4.040360230E0,4.070142746E0,8.039729118E0,3.603273630E0
4.042373147E0,4.110844135E0,8.080430984E0,3.605667830E0
4.044357065E0,4.125209332E0,8.097189903E0,3.605667830E0
4.046370982E0,4.144362926E0,8.135497093E0,3.629609823E0
4.048354285E0,4.165910721E0,8.161833763E0,3.639186621E0
4.050369125E0,4.173093796E0,8.176198959E0,3.641580820E0
4.052352812E0,4.189853191E0,8.188169479E0,3.651157618E0
4.054366652E0,4.206612587E0,8.200140953E0,3.655946016E0
4.056352109E0,4.220977783E0,8.200140953E0,3.658340216E0
4.058364718E0,4.235342979E0,8.195352554E0,3.677493811E0
4.060347559E0,4.252102375E0,8.185775757E0,3.679888010E0
4.062362246E0,4.273650169E0,8.157045364E0,3.687070608E0
4.064376087E0,4.292803764E0,8.147468567E0,3.703830004E0
4.066360158E0,4.295197964E0,8.137891769E0,3.713406801E0
4.068374537E0,4.295197964E0,8.109161377E0,3.722983599E0
4.070358225E0,4.321534157E0,8.078036308E0,3.730166197E0
4.072372449E0,4.326322556E0,8.058882713E0,3.730166197E0
4.074355752E0,4.323928356E0,8.054094315E0,3.742137194E0
4.076370515E0,4.323928356E0,8.010998726E0,3.763684988E0
4.078352664E0,4.319139957E0,7.999027729E0,3.763684988E0
4.080368043E0,4.319139957E0,7.967903137E0,3.744531393E0
4.082351115E0,4.321534157E0,7.936778545E0,3.758896589E0
4.084365878E0,4.314351559E0,7.936778545E0,3.773261786E0
4.086348719E0,4.283226967E0,7.908048153E0,3.794809580E0
4.088362867E0,4.278438568E0,7.903259754E0,3.804386616E0
4.090347400E0,4.259284973E0,7.908048153E0,3.821146011E0
4.092360702E0,4.247313976E0,7.891288757E0,3.821146011E0
4.094375082E0,4.232948780E0,7.884106159E0,3.830722809E0
4.096359691E0,4.232948780E0,7.848193169E0,3.840299606E0
4.098373609E0,4.197035789E0,7.855375767E0,3.837905407E0
4.100356374E0,4.197035789E0,7.867346764E0,3.845088005E0
4.102371137E0,4.185064793E0,7.872135162E0,3.849876404E0
4.104354439E0,4.170699596E0,7.869740963E0,3.871424198E0
4.106367433E0,4.165910721E0,7.879317760E0,3.871424198E0
4.108351736E0,4.151545525E0,7.898471355E0,3.878606796E0
4.110365884E0,4.144362926E0,7.898471355E0,3.876212597E0
4.112349494E0,4.146757126E0,7.900865555E0,3.878606796E0
4.114364335E0,4.115632534E0,7.927201748E0,3.876212597E0
4.116348945E0,4.118026733E0,7.936778545E0,3.852270603E0
4.118362708E0,4.141968727E0,7.936778545E0,3.847482204E0
4.120346165E0,4.175487995E0,7.951143742E0,3.833117008E0
4.122359082E0,4.187458992E0,7.951143742E0,3.825934410E0
4.124373231E0,4.220977783E0,7.948749542E0,3.813963413E0
4.126357532E0,4.237737179E0,7.960720539E0,3.816357613E0
4.128371374E0,4.254496574E0,7.960720539E0,3.816357613E0
4.130355598E0,4.271255970E0,7.965508938E0,3.818751812E0
4.132370132E0,4.283226967E0,7.994239330E0,3.818751812E0
4.134353204E0,4.285621166E0,8.003816605E0,3.809175014E0
4.136368582E0,4.290409565E0,8.022970200E0,3.801992416E0
4.138350731E0,4.304774761E0,8.034940720E0,3.794809580E0
4.140365187E0,4.299986362E0,8.037335396E0,3.790021181E0
4.142348182E0,4.302380562E0,8.063671112E0,3.801992416E0
4.144362714E0,4.331110954E0,8.075642586E0,3.785232782E0
4.146346017E0,4.338293552E0,8.092401505E0,3.790021181E0
4.148360780E0,4.331110954E0,8.118738174E0,3.794809580E0
4.150374698E0,4.333505154E0,8.133103371E0,3.790021181E0
4.152358077E0,4.328716755E0,8.152256966E0,3.794809580E0
4.154372226E0,4.340687752E0,8.135497093E0,3.804386616E0
4.156357681E0,4.352658749E0,8.130708694E0,3.811569214E0
4.158371292E0,4.364629745E0,8.140285492E0,3.806780815E0
4.160355516E0,4.393360138E0,8.154650688E0,3.809175014E0
4.162368204E0,4.402936935E0,8.152256966E0,3.818751812E0
4.164351506E0,4.412513733E0,8.152256966E0,3.828328609E0
4.166366347E0,4.424484730E0,8.125920296E0,3.835511208E0
4.168349342E0,4.429273129E0,8.123526573E0,3.833117008E0
4.170364412E0,4.441244125E0,8.116343498E0,3.833117008E0
4.172348177E0,4.462791920E0,8.104372978E0,3.833117008E0
4.174361401E0,4.458003521E0,8.101978302E0,3.833117008E0
4.176376473E0,4.462791920E0,8.080430984E0,3.835511208E0
4.178359544E0,4.465186119E0,8.056488991E0,3.845088005E0
4.180373309E0,4.460397720E0,8.054094315E0,3.845088005E0
4.182357995E0,4.474762917E0,8.042123795E0,3.854664803E0
4.184372067E0,4.469974518E0,8.032546997E0,3.854664803E0
4.186353984E0,4.467580318E0,8.025363922E0,3.852270603E0
4.188369594E0,4.460397720E0,8.003816605E0,3.861847401E0
4.190353358E0,4.462791920E0,8.008605003E0,3.871424198E0
4.192367199E0,4.448426723E0,8.015787125E0,3.873818398E0
4.194350885E0,4.441244125E0,8.032546997E0,3.861847401E0
4.196365880E0,4.436455727E0,8.044517517E0,3.876212597E0
4.198348106E0,4.426878929E0,8.061277390E0,3.895366192E0
4.200363407E0,4.402936935E0,8.058882713E0,3.900154591E0
4.202346172E0,4.390965939E0,8.068459511E0,3.902548790E0
4.204360012E0,4.376600742E0,8.104372978E0,3.914519787E0
4.206374468E0,4.345476151E0,8.142680168E0,3.904942989E0
4.208358462E0,4.338293552E0,8.154650688E0,3.904942989E0
4.210372304E0,4.328716755E0,8.178592682E0,3.904942989E0
4.212355374E0,4.319139957E0,8.212111473E0,3.914519787E0
4.214371062E0,4.304774761E0,8.214506149E0,3.916913986E0
4.216354517E0,4.302380562E0,8.221688271E0,3.912125587E0
4.218368589E0,4.302380562E0,8.240841866E0,3.916913986E0
4.220350429E0,4.295197964E0,8.238448143E0,3.912125587E0
