"Time (s)","Gyroscope x (rad/s)","Gyroscope y (rad/s)","Gyroscope z (rad/s)"
1.027616200E-2,-3.909537569E-2,-2.602286041E-1,3.665191308E-2
1.238654100E-2,-3.909537569E-2,-2.602286041E-1,3.665191308E-2
1.436969000E-2,-3.909537569E-2,-2.602286041E-1,3.665191308E-2
1.638353000E-2,-3.909537569E-2,-2.602286041E-1,3.665191308E-2
1.836714000E-2,-3.909537569E-2,-2.602286041E-1,3.665191308E-2
2.038044200E-2,-3.909537569E-2,-2.602286041E-1,3.665191308E-2
2.236466800E-2,-3.909537569E-2,-2.602286041E-1,3.665191308E-2
2.437943100E-2,-3.909537569E-2,-2.602286041E-1,3.665191308E-2
2.636165700E-2,-3.909537569E-2,-2.602286041E-1,3.665191308E-2
2.837672900E-2,-3.909537569E-2,-2.602286041E-1,3.665191308E-2
3.036103000E-2,-3.909537569E-2,-2.602286041E-1,3.665191308E-2
3.237479500E-2,-3.909537569E-2,-2.602286041E-1,3.665191308E-2
3.435855800E-2,-3.909537569E-2,-2.602286041E-1,3.665191308E-2
3.637355300E-2,-3.909537569E-2,-2.602286041E-1,3.665191308E-2
3.838654700E-2,-3.909537569E-2,-2.602286041E-1,3.665191308E-2
4.037077300E-2,-3.909537569E-2,-2.602286041E-1,3.665191308E-2
4.238469000E-2,-3.909537569E-2,-2.602286041E-1,3.665191308E-2
4.436768500E-2,-3.909537569E-2,-2.602286041E-1,3.665191308E-2
4.638244800E-2,-3.909537569E-2,-2.602286041E-1,3.665191308E-2
4.836559700E-2,-3.909537569E-2,-2.602286041E-1,3.665191308E-2
5.037997500E-2,-3.909537569E-2,-2.602286041E-1,3.665191308E-2
5.236404700E-2,-3.909537569E-2,-2.602286041E-1,3.665191308E-2
5.437727200E-2,-3.909537569E-2,-2.602286041E-1,3.665191308E-2
5.636242100E-2,-3.909537569E-2,-2.602286041E-1,3.665191308E-2
5.837533900E-2,-3.909537569E-2,-2.602286041E-1,3.665191308E-2
6.035787100E-2,-3.909537569E-2,-2.602286041E-1,3.665191308E-2
6.237325100E-2,-3.909537569E-2,-2.602286041E-1,3.665191308E-2
6.438678400E-2,-3.909537569E-2,-2.602286041E-1,3.665191308E-2
6.637070200E-2,-3.909537569E-2,-2.602286041E-1,3.665191308E-2
6.838546500E-2,-3.909537569E-2,-2.602286041E-1,3.665191308E-2
7.036915200E-2,-3.909537569E-2,-2.602286041E-1,3.665191308E-2
7.238337700E-2,-3.909537569E-2,-2.602286041E-1,3.665191308E-2
7.436675700E-2,-1.154535338E-1,-5.235115290E-1,3.023782969E-1
7.638082700E-2,-1.252273768E-1,-5.436700583E-1,3.152064681E-1
7.836459200E-2,-1.343903542E-1,-5.687155724E-1,3.304781020E-1
8.037897000E-2,-1.398881376E-1,-5.772676468E-1,3.353650272E-1
8.236273500E-2,-1.496619880E-1,-5.998696685E-1,3.494149148E-1
8.437649800E-2,-1.600466967E-1,-6.218608022E-1,3.622430861E-1
8.635995400E-2,-1.667662114E-1,-6.316346526E-1,3.677408695E-1
8.837410300E-2,-1.783726513E-1,-6.517932415E-1,3.811798990E-1
9.035802000E-2,-1.912008226E-1,-6.688974500E-1,3.952298164E-1
9.237247700E-2,-1.948660165E-1,-6.780604124E-1,4.007275999E-1
9.438662500E-2,-2.076941878E-1,-6.939429045E-1,4.141666293E-1
9.637031200E-2,-2.223549485E-1,-7.092145681E-1,4.251621962E-1
9.838361400E-2,-2.278527319E-1,-7.153232098E-1,4.361577928E-1
1.003675320E-1,-2.431243658E-1,-7.299839854E-1,4.495968223E-1
1.023826030E-1,-2.565633953E-1,-7.452555895E-1,4.667010605E-1
1.043659820E-1,-2.675589919E-1,-7.495316267E-1,4.728097022E-1
1.063788990E-1,-2.797762752E-1,-7.629706860E-1,4.911356568E-1
1.083628940E-1,-2.840523422E-1,-7.696902156E-1,4.990769029E-1
1.103767350E-1,-3.005456924E-1,-7.800748944E-1,5.149593949E-1
1.123608060E-1,-3.145956099E-1,-7.947356701E-1,5.338962078E-1
1.143751850E-1,-3.219259977E-1,-8.008443117E-1,5.430592299E-1
1.163594880E-1,-3.347541690E-1,-8.100073338E-1,5.619960427E-1
1.183730200E-1,-3.506366611E-1,-8.203920126E-1,5.797111392E-1
1.203875540E-1,-3.591887653E-1,-8.252789378E-1,5.907067060E-1
1.223706260E-1,-3.744603992E-1,-8.307767510E-1,6.102544069E-1
1.243850040E-1,-3.933972120E-1,-8.344419003E-1,6.316346526E-1
1.263683840E-1,-4.013384581E-1,-8.368853927E-1,6.414085031E-1
1.283826090E-1,-4.166100919E-1,-8.350527883E-1,6.627888083E-1
1.303659880E-1,-4.294382632E-1,-8.332201838E-1,6.835582256E-1
1.323807520E-1,-4.404338300E-1,-8.301658630E-1,6.933320761E-1
1.343650540E-1,-4.514294267E-1,-8.295549750E-1,7.104362845E-1
1.363797410E-1,-4.654793143E-1,-8.240572214E-1,7.318165898E-1
1.383619660E-1,-4.691445231E-1,-8.222246170E-1,7.409795523E-1
1.403751140E-1,-4.831944108E-1,-8.148942590E-1,7.580837607E-1
1.423591090E-1,-4.905247986E-1,-8.130616546E-1,7.684684992E-1
1.443738720E-1,-4.990769029E-1,-8.069530129E-1,7.819074988E-1
1.463569440E-1,-5.106833577E-1,-8.008443117E-1,7.977899909E-1
1.483720150E-1,-5.143485069E-1,-8.008443117E-1,8.045095205E-1
1.503859330E-1,-5.235115290E-1,-7.965682745E-1,8.155050874E-1
1.523693130E-1,-5.326744914E-1,-7.904596329E-1,8.289441466E-1
1.543831530E-1,-5.375614166E-1,-7.892379165E-1,8.332201838E-1
1.563676870E-1,-5.467243791E-1,-7.880161405E-1,8.442157507E-1
1.583815270E-1,-5.528330207E-1,-7.825183868E-1,8.570439219E-1
1.603655220E-1,-5.552765131E-1,-7.806857824E-1,8.631525636E-1
1.623790540E-1,-5.626068711E-1,-7.776314616E-1,8.729264140E-1
1.643618950E-1,-5.650503635E-1,-7.745771408E-1,8.833111525E-1
1.663760430E-1,-5.699372888E-1,-7.727445364E-1,8.900306821E-1
1.683603460E-1,-5.729916096E-1,-7.727445364E-1,8.991936445E-1
1.703744940E-1,-5.760459304E-1,-7.715228200E-1,9.040805697E-1
1.723581810E-1,-5.815436840E-1,-7.703011036E-1,9.150761366E-1
1.743722520E-1,-5.852088928E-1,-7.703011036E-1,9.266825914E-1
1.763876320E-1,-5.894849896E-1,-7.672467232E-1,9.303477407E-1
1.783704720E-1,-5.931501389E-1,-7.690793276E-1,9.407324791E-1
1.803842360E-1,-5.937610269E-1,-7.727445364E-1,9.517280459E-1
1.823691540E-1,-5.980370641E-1,-7.715228200E-1,9.535606503E-1
1.843827630E-1,-5.986479521E-1,-7.776314616E-1,9.639453292E-1
1.863654510E-1,-6.041457057E-1,-7.867944241E-1,9.718865752E-1
1.883799830E-1,-6.047565937E-1,-7.904596329E-1,9.767735004E-1
1.903642090E-1,-6.053674817E-1,-8.014551997E-1,9.822713137E-1
1.923775110E-1,-6.090326309E-1,-8.155050874E-1,9.847147465E-1
1.943623520E-1,-6.072000265E-1,-8.271115422E-1,9.834930301E-1
1.963765770E-1,-6.108652353E-1,-8.411614299E-1,9.896016717E-1
1.983595720E-1,-6.145304441E-1,-8.600982428E-1,9.889908433E-1
2.003737200E-1,-6.163630486E-1,-8.674286604E-1,9.883799553E-1
2.023567910E-1,-6.169738770E-1,-8.833111525E-1,9.914342761E-1
2.043713240E-1,-6.212499738E-1,-8.912523985E-1,9.932668805E-1
2.063854730E-1,-6.236934066E-1,-9.083566070E-1,9.932668805E-1
2.083685440E-1,-6.279694438E-1,-9.205739498E-1,9.926560521E-1
2.103836160E-1,-6.261368990E-1,-9.260717034E-1,9.938777685E-1
2.123673020E-1,-6.291912198E-1,-9.358455539E-1,9.944885969E-1
2.143810660E-1,-6.304129362E-1,-9.492846131E-1,9.950994849E-1
2.163651380E-1,-6.298020482E-1,-9.547823668E-1,9.981538057E-1
2.183792090E-1,-6.298020482E-1,-9.633345008E-1,1.002429843E0
2.203614350E-1,-6.279694438E-1,-9.694431424E-1,1.006095052E0
2.223758130E-1,-6.291912198E-1,-9.706648588E-1,1.006095052E0
2.243601160E-1,-6.285803318E-1,-9.767735004E-1,1.007927656E0
2.263748790E-1,-6.249151230E-1,-9.786061049E-1,1.011592865E0
2.283576440E-1,-6.249151230E-1,-9.779952765E-1,1.015258074E0
2.303720990E-1,-6.230825782E-1,-9.773843884E-1,1.015868902E0
2.323860170E-1,-6.224716902E-1,-9.731083512E-1,1.018312335E0
2.343697040E-1,-6.194173694E-1,-9.724974632E-1,1.021366715E0
2.363843910E-1,-6.169738770E-1,-9.676105380E-1,1.025642753E0
2.383671540E-1,-6.163630486E-1,-9.633345008E-1,1.027475357E0
2.403823030E-1,-6.151412725E-1,-9.535606503E-1,1.029918790E0
2.423656820E-1,-6.145304441E-1,-9.437867999E-1,1.032362223E0
2.443801380E-1,-6.120869517E-1,-9.401215911E-1,1.033583999E0
2.463638250E-1,-6.108652353E-1,-9.224064946E-1,1.035416603E0
2.483770500E-1,-6.072000265E-1,-9.089674950E-1,1.038470864E0
2.503612760E-1,-6.041457057E-1,-9.016370773E-1,1.040303469E0
2.523748850E-1,-5.986479521E-1,-8.851437569E-1,1.043968678E0
2.543591110E-1,-5.937610269E-1,-8.655960560E-1,1.042747021E0
2.563733360E-1,-5.913175344E-1,-8.552113175E-1,1.043968678E0
2.583561000E-1,-5.852088928E-1,-8.362745047E-1,1.041525245E0
2.603702480E-1,-5.797111392E-1,-8.148942590E-1,1.037860036E0
2.623853200E-1,-5.748242140E-1,-8.051204085E-1,1.036027431E0
2.643689290E-1,-5.705481172E-1,-7.855727077E-1,1.030529618E0
2.663816170E-1,-5.607742667E-1,-7.666358948E-1,1.023810148E0
2.683664570E-1,-5.571091175E-1,-7.538077235E-1,1.019534111E0
2.703806830E-1,-5.461135507E-1,-7.336491346E-1,1.012203693E0
2.723643690E-1,-5.393940210E-1,-7.244861722E-1,1.007316828E0
2.743782100E-1,-5.283984542E-1,-7.086036801E-1,9.969320893E-1
2.763636660E-1,-5.186246037E-1,-6.896668673E-1,9.889908433E-1
2.783765840E-1,-5.100724697E-1,-6.811147332E-1,9.816604257E-1
2.803608860E-1,-4.990769029E-1,-6.658431292E-1,9.712757468E-1
2.823734960E-1,-4.874704778E-1,-6.517932415E-1,9.621127844E-1
2.843578750E-1,-4.807509482E-1,-6.426302195E-1,9.541715384E-1
2.863716390E-1,-4.691445231E-1,-6.298020482E-1,9.443976879E-1
2.883854800E-1,-4.593706727E-1,-6.181956530E-1,9.315695167E-1
2.903698580E-1,-4.526511431E-1,-6.145304441E-1,9.254608750E-1
2.923839300E-1,-4.410447180E-1,-6.041457057E-1,9.126327038E-1
2.943670780E-1,-4.269948006E-1,-5.955936313E-1,9.004153609E-1
2.963818420E-1,-4.239404798E-1,-5.931501389E-1,8.930850029E-1
2.983646060E-1,-4.105014503E-1,-5.864306092E-1,8.839219809E-1
3.003783700E-1,-4.007275999E-1,-5.827654600E-1,8.692612648E-1
3.023626720E-1,-3.946189582E-1,-5.778785348E-1,8.649851680E-1
3.043765900E-1,-3.842342496E-1,-5.760459304E-1,8.539896011E-1
3.063605840E-1,-3.756821156E-1,-5.729916096E-1,8.460483551E-1
3.083749630E-1,-3.683517575E-1,-5.711590052E-1,8.368853927E-1
3.103578040E-1,-3.579670191E-1,-5.687155724E-1,8.258898258E-1
3.123728750E-1,-3.518583775E-1,-5.717698932E-1,8.216137290E-1
3.143561780E-1,-3.420845270E-1,-5.705481172E-1,8.093964458E-1
3.163709410E-1,-3.304781020E-1,-5.760459304E-1,7.996225953E-1
3.183851670E-1,-3.237585723E-1,-5.772676468E-1,7.971791625E-1
3.203685460E-1,-3.121521473E-1,-5.858197808E-1,7.837401032E-1
3.223823870E-1,-3.011565804E-1,-5.943718553E-1,7.751879692E-1
3.243657650E-1,-2.944370508E-1,-6.035348773E-1,7.678576112E-1
3.263799140E-1,-2.822197378E-1,-6.163630486E-1,7.593054771E-1
3.283635240E-1,-2.736676335E-1,-6.322455406E-1,7.458664775E-1
3.303777490E-1,-2.669481039E-1,-6.414085031E-1,7.403686643E-1
3.323613590E-1,-2.590068579E-1,-6.633996367E-1,7.250970602E-1
3.343758920E-1,-2.547308207E-1,-6.731734872E-1,7.165449262E-1
3.363601940E-1,-2.449569702E-1,-7.000515461E-1,7.018841505E-1
3.383736510E-1,-2.388483137E-1,-7.269296646E-1,6.866125464E-1
3.403564150E-1,-2.339613885E-1,-7.428121567E-1,6.774495840E-1
3.423721010E-1,-2.247984111E-1,-7.715228200E-1,6.603453159E-1
3.443862490E-1,-2.150245607E-1,-8.087855577E-1,6.462954283E-1
3.463680900E-1,-2.131919712E-1,-8.234463334E-1,6.352998614E-1
3.483826240E-1,-2.034181207E-1,-8.582656980E-1,6.212499738E-1
3.503663100E-1,-1.985312104E-1,-8.961393237E-1,6.059783101E-1
3.523804590E-1,-1.948660165E-1,-9.126327038E-1,6.004805565E-1
3.543646840E-1,-1.893682331E-1,-9.486737251E-1,5.858197808E-1
3.563791400E-1,-1.832595766E-1,-9.902125597E-1,5.717698932E-1
3.583622110E-1,-1.783726513E-1,-1.008538485E0,5.656611919E-1
3.603778980E-1,-1.740965992E-1,-1.043968678E0,5.546656251E-1
3.623606620E-1,-1.661553532E-1,-1.083674908E0,5.461135507E-1
3.643745030E-1,-1.612684280E-1,-1.102611780E0,5.400048494E-1
3.663575740E-1,-1.545489132E-1,-1.137431145E0,5.296201706E-1
3.683717990E-1,-1.502728462E-1,-1.157589674E0,5.241223574E-1
3.703874860E-1,-1.417207420E-1,-1.191187263E0,5.149593949E-1
3.723701730E-1,-1.362229437E-1,-1.221119642E0,5.039638281E-1
3.743850130E-1,-1.313360333E-1,-1.238223910E0,4.996877611E-1
3.763687000E-1,-1.252273768E-1,-1.268767118E0,4.893030524E-1
3.783821570E-1,-1.166752651E-1,-1.293812633E0,4.807509482E-1
3.803652280E-1,-1.123992056E-1,-1.306640744E0,4.752531648E-1
3.823784540E-1,-1.026253626E-1,-1.330464482E0,4.654793143E-1
3.843633710E-1,-9.346238524E-2,-1.347568750E0,4.563163519E-1
3.863775970E-1,-8.735372871E-2,-1.355509996E0,4.502076805E-1
3.883605910E-1,-7.391469181E-2,-1.372003317E0,4.386012554E-1
3.903756630E-1,-6.352998316E-2,-1.386053205E0,4.288274050E-1
3.923585030E-1,-5.864306539E-2,-1.390940189E0,4.239404798E-1
3.943729590E-1,-4.642575979E-2,-1.397048831E0,4.159992337E-1
3.963563380E-1,-4.214970022E-2,-1.398881435E0,4.056145251E-1
3.983713330E-1,-3.420845419E-2,-1.401935697E0,4.025602043E-1
4.003855580E-1,-2.626720630E-2,-1.402546644E0,3.891211748E-1
4.023686300E-1,-2.321287990E-2,-1.397659659E0,3.848451078E-1
4.043833930E-1,-1.343903504E-2,-1.393383622E0,3.726277947E-1
4.063664650E-1,-6.108652335E-3,-1.387885809E0,3.652974069E-1
4.083803060E-1,-3.054326167E-3,-1.384831548E0,3.604104817E-1
4.103645310E-1,8.552113548E-3,-1.374446750E0,3.536909819E-1
4.123786790E-1,1.588249579E-2,-1.364062071E0,3.451388776E-1
4.143620580E-1,2.015855350E-2,-1.359175205E0,3.402519524E-1
4.163771300E-1,2.871066704E-2,-1.345125318E0,3.316998184E-1
4.183602010E-1,3.420845419E-2,-1.331075311E0,3.231477141E-1
4.203737340E-1,3.787364438E-2,-1.321912408E0,3.213151097E-1
4.223583440E-1,4.459316283E-2,-1.305419087E0,3.139847219E-1
4.243718770E-1,5.375614017E-2,-1.293201685E0,3.103195429E-1
4.263851790E-1,5.619960278E-2,-1.282817006E0,3.066543639E-1
4.283697890E-1,6.230825558E-2,-1.265101910E0,3.036000133E-1
4.303836300E-1,6.658431143E-2,-1.248608589E0,2.987131178E-1
4.323672400E-1,6.841690838E-2,-1.237612963E0,2.962696552E-1
4.343813880E-1,7.024950534E-2,-1.220508814E0,2.950479090E-1
4.363663060E-1,7.269296050E-2,-1.210124016E0,2.932153046E-1
4.383796080E-1,7.574728876E-2,-1.194852471E0,2.919935882E-1
4.403639100E-1,7.819075137E-2,-1.175915599E0,2.889392674E-1
4.423776740E-1,8.246681094E-2,-1.167974353E0,2.901609838E-1
4.443608220E-1,7.941248268E-2,-1.152091861E0,2.907718420E-1
4.463746630E-1,8.185594529E-2,-1.138041973E0,2.871066630E-1
4.483588880E-1,8.124507964E-2,-1.133765936E0,2.883284092E-1
4.503730370E-1,8.124507964E-2,-1.124602914E0,2.895501256E-1
4.523570310E-1,8.368854225E-2,-1.114829063E0,2.901609838E-1
4.543709490E-1,8.429940045E-2,-1.109331250E0,2.919935882E-1
4.563856360E-1,8.735372871E-2,-1.107498646E0,2.901609838E-1
4.583678610E-1,8.796459436E-2,-1.100168347E0,2.889392674E-1
4.603795480E-1,8.857546002E-2,-1.098335743E0,2.907718420E-1
4.623653120E-1,9.224065393E-2,-1.099557400E0,2.895501256E-1
4.643803830E-1,8.979719132E-2,-1.098946571E0,2.889392674E-1
4.663637620E-1,9.040805697E-2,-1.100168347E0,2.883284092E-1
4.683776030E-1,9.407325089E-2,-1.105666041E0,2.864958048E-1
4.703612900E-1,9.346238524E-2,-1.109331250E0,2.864958048E-1
4.723761310E-1,9.651670605E-2,-1.116050839E0,2.877175212E-1
4.743592020E-1,9.590584040E-2,-1.128268123E0,2.858849466E-1
4.763745050E-1,9.651670605E-2,-1.130100727E0,2.852740586E-1
4.783575760E-1,9.834930301E-2,-1.145983219E0,2.852740586E-1
4.803723400E-1,9.896016866E-2,-1.163087368E0,2.828305960E-1
4.823861800E-1,9.957103431E-2,-1.172250390E0,2.816088796E-1
4.843687130E-1,9.773843735E-2,-1.193630695E0,2.803871334E-1
4.863830920E-1,9.896016866E-2,-1.216232657E0,2.761110961E-1
4.883670870E-1,9.896016866E-2,-1.229671717E0,2.773328125E-1
4.903809270E-1,1.001819000E-1,-1.252884626E0,2.748893499E-1
4.923649220E-1,9.896016866E-2,-1.279151797E0,2.718350291E-1
4.943788390E-1,1.014036313E-1,-1.296256065E0,2.706133127E-1
4.963636800E-1,1.020144969E-1,-1.323134065E0,2.657263875E-1
4.983769050E-1,1.020144969E-1,-1.336573124E0,2.657263875E-1
5.003597460E-1,1.038470939E-1,-1.365894675E0,2.632829249E-1
5.023753570E-1,1.044579595E-1,-1.396438003E0,2.590068579E-1
5.043581970E-1,1.075122803E-1,-1.411098719E0,2.583959997E-1
5.063717300E-1,1.117883399E-1,-1.437976837E0,2.528982162E-1
5.083867240E-1,1.130100712E-1,-1.465465665E0,2.455678284E-1
5.103707960E-1,1.130100712E-1,-1.478904724E0,2.455678284E-1
5.123840210E-1,1.160643995E-1,-1.503950238E0,2.419026345E-1
5.143673240E-1,1.160643995E-1,-1.524719596E0,2.376265824E-1
5.163836260E-1,1.166752651E-1,-1.537547827E0,2.364048511E-1
5.183658510E-1,1.136209369E-1,-1.555262923E0,2.357939780E-1
5.203808450E-1,1.130100712E-1,-1.569923639E0,2.333505303E-1
5.223633790E-1,1.117883399E-1,-1.579086661E0,2.327396572E-1
5.243780650E-1,1.087340117E-1,-1.591303945E0,2.345722616E-1
5.263611370E-1,1.056796908E-1,-1.603521228E0,2.351831198E-1
5.283755930E-1,1.056796908E-1,-1.609019041E0,2.394591719E-1
5.303595880E-1,1.007927656E-1,-1.619403720E0,2.400700450E-1
5.323728890E-1,1.001819000E-1,-1.621847272E0,2.382374406E-1
5.343568840E-1,9.712757170E-2,-1.630399346E0,2.474004179E-1
5.363721870E-1,9.224065393E-2,-1.634675384E0,2.504547536E-1
5.383844890E-1,8.857546002E-2,-1.638340592E0,2.541199327E-1
5.403687910E-1,8.002334833E-2,-1.644449234E0,2.577851415E-1
5.423820930E-1,7.269296050E-2,-1.648114443E0,2.657263875E-1
5.443669340E-1,7.147123665E-2,-1.652390480E0,2.675589919E-1
5.463807740E-1,6.291911751E-2,-1.654223084E0,2.736676335E-1
5.483638460E-1,5.925392732E-2,-1.659720898E0,2.852740586E-1
5.503792250E-1,5.558873713E-2,-1.660331726E0,2.852740586E-1
5.523623740E-1,4.642575979E-2,-1.663386106E0,2.950479090E-1
5.543768290E-1,3.909537569E-2,-1.664607763E0,3.011565804E-1
5.563610550E-1,3.665191308E-2,-1.665829539E0,3.072652221E-1
5.583745880E-1,2.748893574E-2,-1.665829539E0,3.194825351E-1
5.603586590E-1,2.443460934E-2,-1.668272972E0,3.249803185E-1
5.623715770E-1,1.588249579E-2,-1.668883801E0,3.316998184E-1
5.643860330E-1,6.719517522E-3,-1.671327353E0,3.463605940E-1
5.663696430E-1,3.054326167E-3,-1.671938181E0,3.536909819E-1
5.683838680E-1,-4.276056774E-3,-1.673770785E0,3.671300113E-1
5.703672480E-1,-1.282817032E-2,-1.679268599E0,3.769038618E-1
5.723813960E-1,-1.527163107E-2,-1.681101203E0,3.854559660E-1
5.743656980E-1,-2.748893574E-2,-1.686598897E0,3.970624208E-1
5.763804620E-1,-3.726277873E-2,-1.693318486E0,4.056145251E-1
5.783637640E-1,-4.153883830E-2,-1.698816299E0,4.117231667E-1
5.803766810E-1,-4.764748737E-2,-1.709811807E0,4.239404798E-1
5.823616000E-1,-5.742133409E-2,-1.720196486E0,4.337143302E-1
5.843754400E-1,-6.352998316E-2,-1.728137732E0,4.379903674E-1
5.863576650E-1,-7.391469181E-2,-1.740965962E0,4.471533597E-1
5.883732750E-1,-8.124507964E-2,-1.758070230E0,4.563163519E-1
5.903564240E-1,-8.368854225E-2,-1.766622305E0,4.593706727E-1
5.923705720E-1,-9.162978828E-2,-1.789835215E0,4.673119187E-1
5.943852590E-1,-9.896016866E-2,-1.809382915E0,4.770857692E-1
5.963687150E-1,-1.020144969E-1,-1.822211027E0,4.813618064E-1
5.983824790E-1,-1.111774743E-1,-1.849699974E0,4.850270152E-1
6.003670890E-1,-1.142318025E-1,-1.860695481E0,4.899139404E-1
6.023810060E-1,-1.209513173E-1,-1.886351824E0,4.941899776E-1
6.043636930E-1,-1.282816976E-1,-1.915673375E0,4.996877611E-1
6.063775340E-1,-1.301143020E-1,-1.933388472E0,5.039638281E-1
6.083627590E-1,-1.398881376E-1,-1.962710023E0,5.088507533E-1
6.103769070E-1,-1.447750628E-1,-1.990809798E0,5.106833577E-1
6.123594410E-1,-1.459967941E-1,-2.007914066E0,5.155702829E-1
6.143738960E-1,-1.508837193E-1,-2.038457394E0,5.192354321E-1
6.163590450E-1,-1.582140923E-1,-2.068389654E0,5.210680366E-1
6.183714240E-1,-1.618792862E-1,-2.083050489E0,5.241223574E-1
6.203851880E-1,-1.637118906E-1,-2.111761093E0,5.265658498E-1
6.223682590E-1,-1.649336219E-1,-2.142304420E0,5.320636034E-1
6.243837150E-1,-1.667662114E-1,-2.155132532E0,5.326744914E-1
6.263667090E-1,-1.685988009E-1,-2.183232307E0,5.363397002E-1
6.283811660E-1,-1.679879427E-1,-2.196060658E0,5.369505286E-1
6.303654690E-1,-1.685988009E-1,-2.219273329E0,5.418374538E-1
6.323783860E-1,-1.698205322E-1,-2.243097067E0,5.393940210E-1
6.343626880E-1,-1.710422635E-1,-2.253481865E0,5.412266254E-1
6.363777590E-1,-1.722639948E-1,-2.273029566E0,5.448917747E-1
6.383608310E-1,-1.765400618E-1,-2.290133715E0,5.491678715E-1
6.403752870E-1,-1.759291887E-1,-2.296853304E0,5.491678715E-1
6.423583590E-1,-1.783726513E-1,-2.310903311E0,5.503895879E-1
6.443728140E-1,-1.802052408E-1,-2.321898699E0,5.522221923E-1
6.463562710E-1,-1.814269722E-1,-2.326174736E0,5.534439087E-1
6.483697260E-1,-1.820378453E-1,-2.335948706E0,5.583308339E-1
6.503844910E-1,-1.802052408E-1,-2.339003086E0,5.571091175E-1
6.523676380E-1,-1.808161139E-1,-2.338392258E0,5.601634383E-1
6.543820180E-1,-1.795943826E-1,-2.338392258E0,5.619960427E-1
6.563669350E-1,-1.820378453E-1,-2.335948706E0,5.656611919E-1
6.583799300E-1,-1.808161139E-1,-2.332894325E0,5.687155724E-1
6.603636170E-1,-1.826487035E-1,-2.323731422E0,5.736024380E-1
6.623779960E-1,-1.844813079E-1,-2.315179348E0,5.729916096E-1
6.643614530E-1,-1.857030392E-1,-2.299296856E0,5.791002512E-1
6.663749080E-1,-1.881465018E-1,-2.280359983E0,5.876523852E-1
6.683592110E-1,-1.912008226E-1,-2.265699148E0,5.894849896E-1
6.703737430E-1,-1.918116808E-1,-2.243708134E0,5.986479521E-1
6.723567380E-1,-1.960877478E-1,-2.214997292E0,6.065891981E-1
6.743709630E-1,-1.979203373E-1,-2.196060658E0,6.114761233E-1
6.763860350E-1,-1.997529417E-1,-2.165517330E0,6.224716902E-1
6.783697210E-1,-2.064724565E-1,-2.128865480E0,6.340781450E-1
6.803837930E-1,-2.070833147E-1,-2.109317780E0,6.389650702E-1
6.823666330E-1,-2.076941878E-1,-2.070222378E0,6.542366743E-1
6.843813210E-1,-2.095267773E-1,-2.030516148E0,6.670648456E-1
6.863647760E-1,-2.119702399E-1,-2.008524895E0,6.750060916E-1
6.883786170E-1,-2.113593817E-1,-1.966986060E0,6.890559793E-1
6.903623040E-1,-2.125810981E-1,-1.921782017E0,7.037167549E-1
6.923764530E-1,-2.131919712E-1,-1.899180055E0,7.110471725E-1
6.943597550E-1,-2.119702399E-1,-1.855808616E0,7.232644558E-1
6.963751340E-1,-2.113593817E-1,-1.833206654E0,7.336491346E-1
6.983578980E-1,-2.095267773E-1,-1.791056871E0,7.458664775E-1
7.003720460E-1,-2.089159191E-1,-1.747685432E0,7.617489696E-1
7.023548870E-1,-2.083050460E-1,-1.726305127E0,7.666358948E-1
7.043708040E-1,-2.058615834E-1,-1.682933807E0,7.812966704E-1
7.063837990E-1,-2.040289938E-1,-1.643838406E0,7.947356701E-1
7.083680240E-1,-2.040289938E-1,-1.624901533E0,8.020660877E-1
7.103818650E-1,-1.997529417E-1,-1.583362699E0,8.106181622E-1
7.123650130E-1,-1.979203373E-1,-1.547932506E0,8.216137290E-1
7.143794700E-1,-1.954768747E-1,-1.530217409E0,8.283332586E-1
7.163640790E-1,-1.942551434E-1,-1.499674201E0,8.362745047E-1
7.183779200E-1,-1.893682331E-1,-1.470963478E0,8.417723179E-1
7.203612990E-1,-1.893682331E-1,-1.456913590E0,8.442157507E-1
7.223754480E-1,-1.844813079E-1,-1.432479024E0,8.515461683E-1
7.243584430E-1,-1.844813079E-1,-1.417207360E0,8.582656980E-1
7.263732830E-1,-1.826487035E-1,-1.397659659E0,8.619308472E-1
7.283565850E-1,-1.789835095E-1,-1.381166339E0,8.619308472E-1
7.303711180E-1,-1.789835095E-1,-1.372003317E0,8.643743396E-1
7.323848820E-1,-1.771509200E-1,-1.359175205E0,8.668177724E-1
7.343685680E-1,-1.759291887E-1,-1.349401355E0,8.668177724E-1
7.363827940E-1,-1.759291887E-1,-1.344514370E0,8.680394888E-1
7.383670190E-1,-1.753183305E-1,-1.335962296E0,8.692612648E-1
7.403799370E-1,-1.753183305E-1,-1.329853654E0,8.710938692E-1
7.423646230E-1,-1.740965992E-1,-1.329242826E0,8.717046976E-1
7.443787720E-1,-1.740965992E-1,-1.324966669E0,8.735373020E-1
7.463615360E-1,-1.747074574E-1,-1.320690632E0,8.741481900E-1
7.483766070E-1,-1.753183305E-1,-1.320690632E0,8.747590184E-1
7.503599860E-1,-1.777617931E-1,-1.315803766E0,8.741481900E-1
7.523740580E-1,-1.777617931E-1,-1.313360333E0,8.753699064E-1
7.543577450E-1,-1.777617931E-1,-1.312138557E0,8.765916228E-1
7.563722780E-1,-1.814269722E-1,-1.307862520E0,8.790351152E-1
7.583552730E-1,-1.808161139E-1,-1.307251573E0,8.814785480E-1
7.603697280E-1,-1.814269722E-1,-1.299310327E0,8.820894361E-1
7.623832620E-1,-1.850921661E-1,-1.291369081E0,8.851437569E-1
7.643670250E-1,-1.875356287E-1,-1.287703991E0,8.881980777E-1
7.663808660E-1,-1.875356287E-1,-1.276708364E0,8.875871897E-1
7.683644760E-1,-1.918116808E-1,-1.266323686E0,8.888089061E-1
7.703798550E-1,-1.912008226E-1,-1.260825872E0,8.888089061E-1
7.723623880E-1,-1.905899495E-1,-1.244332552E0,8.924741149E-1
7.743770750E-1,-1.942551434E-1,-1.227839112E0,8.949176073E-1
7.763623000E-1,-1.942551434E-1,-1.217454433E0,8.930850029E-1
7.783746020E-1,-1.942551434E-1,-1.196684957E0,8.949176073E-1
7.803577500E-1,-1.936442852E-1,-1.172861218E0,8.936958313E-1
7.823725150E-1,-1.960877478E-1,-1.161254883E0,8.955284357E-1
7.843558930E-1,-1.942551434E-1,-1.133765936E0,8.936958313E-1
7.863703500E-1,-1.942551434E-1,-1.105055213E0,8.918632865E-1
7.883841900E-1,-1.936442852E-1,-1.089783549E0,8.924741149E-1
7.903681850E-1,-1.948660165E-1,-1.058018565E0,8.900306821E-1
7.923820260E-1,-1.930334121E-1,-1.040914416E0,8.881980777E-1
7.943660200E-1,-1.912008226E-1,-1.005484223E0,8.839219809E-1
7.963800920E-1,-1.905899495E-1,-9.718865752E-1,8.827002645E-1
7.983641630E-1,-1.899790913E-1,-9.529497623E-1,8.802568316E-1
8.003791580E-1,-1.875356287E-1,-9.175195694E-1,8.753699064E-1
8.023613830E-1,-1.857030392E-1,-8.796459436E-1,8.753699064E-1
8.043754550E-1,-1.838704348E-1,-8.600982428E-1,8.747590184E-1
8.063589100E-1,-1.826487035E-1,-8.222246170E-1,8.741481900E-1
8.083735970E-1,-1.814269722E-1,-7.837401032E-1,8.698720932E-1
8.103570530E-1,-1.802052408E-1,-7.678576112E-1,8.692612648E-1
8.123712020E-1,-1.759291887E-1,-7.318165898E-1,8.692612648E-1
8.143850420E-1,-1.722639948E-1,-6.951646209E-1,8.692612648E-1
8.163701910E-1,-1.704314053E-1,-6.768386960E-1,8.704829812E-1
8.183828770E-1,-1.698205322E-1,-6.389650702E-1,8.686503768E-1
8.203664880E-1,-1.661553532E-1,-6.041457057E-1,8.686503768E-1
8.223813290E-1,-1.643227488E-1,-5.907067060E-1,8.680394888E-1
8.243658610E-1,-1.612684280E-1,-5.552765131E-1,8.692612648E-1
8.263778560E-1,-1.624901593E-1,-5.406157374E-1,8.710938692E-1
8.283630810E-1,-1.588249654E-1,-5.057964325E-1,8.692612648E-1
8.303769220E-1,-1.545489132E-1,-4.740314186E-1,8.729264140E-1
8.323594550E-1,-1.527163088E-1,-4.618141353E-1,8.729264140E-1
8.343745270E-1,-1.490511149E-1,-4.331034720E-1,8.747590184E-1
8.363590590E-1,-1.447750628E-1,-4.031710625E-1,8.735373020E-1
8.383725920E-1,-1.441642046E-1,-3.891211748E-1,8.729264140E-1
8.403559710E-1,-1.429424733E-1,-3.646865487E-1,8.741481900E-1
8.423704280E-1,-1.386664063E-1,-3.402519524E-1,8.741481900E-1
8.443839600E-1,-1.368338168E-1,-3.286454976E-1,8.729264140E-1
8.463680320E-1,-1.337794960E-1,-3.048217595E-1,8.735373020E-1
8.483817950E-1,-1.319468915E-1,-2.846632004E-1,8.704829812E-1
8.503652520E-1,-1.301143020E-1,-2.748893499E-1,8.698720932E-1
8.523790920E-1,-1.270599663E-1,-2.577851415E-1,8.680394888E-1
8.543639330E-1,-1.227839142E-1,-2.406809032E-1,8.649851680E-1
8.563781590E-1,-1.246165112E-1,-2.333505303E-1,8.637634516E-1
8.583612300E-1,-1.191187203E-1,-2.168571651E-1,8.600982428E-1
8.603744560E-1,-1.197295859E-1,-2.107485086E-1,8.576548100E-1
8.623575260E-1,-1.203404516E-1,-1.979203373E-1,8.564330935E-1
8.643729060E-1,-1.197295859E-1,-1.850921661E-1,8.546004891E-1
8.663565920E-1,-1.185078546E-1,-1.783726513E-1,8.527678847E-1
8.683709720E-1,-1.178969890E-1,-1.673770845E-1,8.478809595E-1
8.703848120E-1,-1.160643995E-1,-1.576032341E-1,8.454375267E-1
8.723688840E-1,-1.148426682E-1,-1.533271819E-1,8.423831463E-1
8.743830320E-1,-1.136209369E-1,-1.429424733E-1,8.429940343E-1
8.763670270E-1,-1.148426682E-1,-1.337794960E-1,8.387179971E-1
8.783805590E-1,-1.154535338E-1,-1.282816976E-1,8.387179971E-1
8.803642470E-1,-1.154535338E-1,-1.215621829E-1,8.362745047E-1
8.823780870E-1,-1.123992056E-1,-1.154535338E-1,8.374962807E-1
8.843620820E-1,-1.148426682E-1,-1.111774743E-1,8.399397135E-1
8.863761540E-1,-1.154535338E-1,-1.014036313E-1,8.362745047E-1
8.883598400E-1,-1.136209369E-1,-1.001819000E-1,8.399397135E-1
8.903739890E-1,-1.130100712E-1,-9.101892263E-2,8.393288255E-1
8.923574450E-1,-1.130100712E-1,-8.552113175E-2,8.454375267E-1
8.943715160E-1,-1.111774743E-1,-8.307767659E-2,8.448266387E-1
8.963562030E-1,-1.105666086E-1,-7.574728876E-2,8.515461683E-1
8.983697360E-1,-1.111774743E-1,-7.330382615E-2,8.527678847E-1
9.003831920E-1,-1.069014147E-1,-7.024950534E-2,8.582656980E-1
9.023681100E-1,-1.044579595E-1,-6.536258012E-2,8.637634516E-1
9.043819500E-1,-1.026253626E-1,-6.414084882E-2,8.680394888E-1
9.063640990E-1,-1.001819000E-1,-6.291911751E-2,8.723155856E-1
9.083791700E-1,-9.712757170E-2,-5.986479297E-2,8.778133392E-1
9.103632420E-1,-9.407325089E-2,-5.497787148E-2,8.827002645E-1
9.123770050E-1,-9.224065393E-2,-5.497787148E-2,8.863654733E-1
9.143610770E-1,-8.857546002E-2,-5.314527452E-2,8.930850029E-1
9.163757640E-1,-8.063421398E-2,-5.375614017E-2,8.967501521E-1
9.183585270E-1,-8.002334833E-2,-5.192354694E-2,8.973610401E-1
9.203730610E-1,-7.635815442E-2,-5.192354694E-2,8.998045325E-1
9.223561320E-1,-7.147123665E-2,-5.497787148E-2,9.028588533E-1
9.243705880E-1,-6.719517708E-2,-5.497787148E-2,9.053022861E-1
9.263840440E-1,-6.108652428E-2,-5.558873713E-2,9.053022861E-1
9.283680390E-1,-6.108652428E-2,-5.619960278E-2,9.071348906E-1
9.303822640E-1,-5.192354694E-2,-5.742133409E-2,9.071348906E-1
9.323656430E-1,-4.886921868E-2,-5.986479297E-2,9.046914577E-1
9.343806370E-1,-4.276056588E-2,-5.864306539E-2,9.004153609E-1
9.363649400E-1,-3.787364438E-2,-6.230825558E-2,8.979719281E-1
9.383776260E-1,-3.176499158E-2,-6.536258012E-2,8.943067193E-1
9.403606210E-1,-2.626720630E-2,-7.086037099E-2,8.900306821E-1
9.423750770E-1,-1.832595654E-2,-7.269296050E-2,8.851437569E-1
9.443594570E-1,-7.941247895E-3,-7.880161703E-2,8.784242272E-1
9.463732970E-1,-5.497787148E-3,-8.307767659E-2,8.747590184E-1
9.483569840E-1,1.221730490E-3,-8.918632567E-2,8.643743396E-1
9.503708250E-1,1.099557430E-2,-1.007927656E-1,8.582656980E-1
9.523855110E-1,1.404990070E-2,-1.044579595E-1,8.539896011E-1
9.543689680E-1,2.199114859E-2,-1.160643995E-1,8.429940343E-1
9.563842700E-1,2.565634064E-2,-1.215621829E-1,8.399397135E-1
9.583664950E-1,3.359758854E-2,-1.368338168E-1,8.289441466E-1
9.603818740E-1,4.031710699E-2,-1.514945775E-1,8.197811842E-1
9.623642540E-1,4.337143153E-2,-1.606575549E-1,8.124507666E-1
9.643787860E-1,5.314527452E-2,-1.771509200E-1,8.020660877E-1
9.663627810E-1,5.864306539E-2,-1.979203373E-1,7.916813493E-1
9.683763140E-1,6.291911751E-2,-2.070833147E-1,7.880161405E-1
9.703596930E-1,6.719517708E-2,-2.309070677E-1,7.782423496E-1
9.723747640E-1,7.635815442E-2,-2.535090744E-1,7.678576112E-1
9.743583750E-1,7.880161703E-2,-2.657263875E-1,7.605272532E-1
9.763729070E-1,8.185594529E-2,-2.938261926E-1,7.544185519E-1
9.783562870E-1,8.735372871E-2,-3.188716471E-1,7.452555895E-1
9.803688200E-1,8.735372871E-2,-3.304781020E-1,7.415903807E-1
9.823845060E-1,9.224065393E-2,-3.604104817E-1,7.360926270E-1
9.843682710E-1,9.407325089E-2,-3.878994286E-1,7.299839854E-1
9.863820340E-1,9.651670605E-2,-4.031710625E-1,7.244861722E-1
9.883664140E-1,9.773843735E-2,-4.337143302E-1,7.189884186E-1
9.903801770E-1,9.773843735E-2,-4.465425014E-1,7.159340382E-1
9.923630180E-1,9.712757170E-2,-4.789183438E-1,7.104362845E-1
9.943773970E-1,9.590584040E-2,-5.106833577E-1,7.031059265E-1
9.963620070E-1,9.468411654E-2,-5.247332454E-1,6.994407177E-1
9.983749240E-1,9.712757170E-2,-5.583308339E-1,6.927211881E-1
1.000360227E0,9.590584040E-2,-5.882632136E-1,6.872233748E-1
1.002373144E0,9.285151958E-2,-6.029239893E-1,6.853908300E-1
1.004357062E0,9.407325089E-2,-6.322455406E-1,6.798930168E-1
1.006370671E0,9.040805697E-2,-6.609562039E-1,6.719517708E-1
1.008385359E0,8.857546002E-2,-6.750060916E-1,6.688974500E-1
1.010368430E0,8.491026610E-2,-7.006624341E-1,6.615670323E-1
1.012383194E0,8.307767659E-2,-7.275404930E-1,6.566801667E-1
1.014366266E0,8.307767659E-2,-7.397578359E-1,6.536257863E-1
1.016381721E0,7.880161703E-2,-7.635815740E-1,6.462954283E-1
1.018364485E0,7.696902007E-2,-7.837401032E-1,6.444628239E-1
1.020377633E0,7.574728876E-2,-7.922922373E-1,6.359107494E-1
1.022361705E0,7.086037099E-2,-8.124507666E-1,6.273586154E-1
1.024376084E0,7.024950534E-2,-8.197811842E-1,6.243042946E-1
1.026359540E0,6.475171447E-2,-8.381071091E-1,6.181956530E-1
1.028373919E0,6.291911751E-2,-8.515461683E-1,6.084218025E-1
1.030358222E0,6.169738993E-2,-8.564330935E-1,6.059783101E-1
1.032372139E0,5.803219974E-2,-8.704829812E-1,5.962044597E-1
1.034354903E0,5.558873713E-2,-8.796459436E-1,5.900958180E-1
1.036369897E0,5.497787148E-2,-8.845328689E-1,5.858197808E-1
1.038384123E0,5.375614017E-2,-8.918632865E-1,5.803219676E-1
1.040368040E0,4.886921868E-2,-8.973610401E-1,5.681046844E-1
1.042381958E0,4.642575979E-2,-8.998045325E-1,5.644394755E-1
1.044365645E0,4.459316283E-2,-9.040805697E-1,5.589417219E-1
1.046379716E0,4.214970022E-2,-9.059131742E-1,5.503895879E-1
1.048362557E0,3.970624134E-2,-9.065240026E-1,5.467243791E-1
1.050377628E0,3.909537569E-2,-9.083566070E-1,5.381723046E-1
1.052360085E0,3.909537569E-2,-9.077457786E-1,5.357288122E-1
1.054374540E0,3.848451003E-2,-9.083566070E-1,5.283984542E-1
1.056359997E0,3.787364438E-2,-9.059131742E-1,5.216789246E-1
1.058372376E0,3.726277873E-2,-9.053022861E-1,5.161811113E-1
1.060355755E0,3.909537569E-2,-9.034696817E-1,5.064072609E-1
1.062371057E0,4.031710699E-2,-9.010262489E-1,5.002986193E-1
1.064354513E0,4.214970022E-2,-9.004153609E-1,4.996877611E-1
1.066367969E0,4.337143153E-2,-8.973610401E-1,4.905247986E-1
1.068382733E0,4.398229718E-2,-8.936958313E-1,4.801400900E-1
1.070366112E0,4.520402849E-2,-8.900306821E-1,4.776966274E-1
1.072380338E0,5.009094998E-2,-8.857545853E-1,4.691445231E-1
1.074363948E0,4.825835302E-2,-8.808676600E-1,4.618141353E-1
1.076379019E0,4.703662544E-2,-8.778133392E-1,4.563163519E-1
1.078361552E0,5.009094998E-2,-8.747590184E-1,4.483750761E-1
1.080376546E0,5.009094998E-2,-8.692612648E-1,4.398229718E-1
1.082359311E0,5.192354694E-2,-8.686503768E-1,4.349360466E-1
1.084373535E0,5.436700583E-2,-8.643743396E-1,4.251621962E-1
1.086357453E0,5.681046844E-2,-8.649851680E-1,4.172209501E-1
1.088371063E0,5.558873713E-2,-8.631525636E-1,4.123340547E-1
1.090354981E0,5.803219974E-2,-8.655960560E-1,4.013384581E-1
1.092368821E0,6.047565863E-2,-8.649851680E-1,3.982841372E-1
1.094383970E0,6.597344577E-2,-8.674286604E-1,3.878994286E-1
1.096368195E0,6.780604273E-2,-8.723155856E-1,3.811798990E-1
1.098381728E0,6.841690838E-2,-8.741481900E-1,3.769038618E-1
1.100364876E0,7.330382615E-2,-8.796459436E-1,3.671300113E-1
1.102378102E0,7.452555746E-2,-8.833111525E-1,3.579670191E-1
1.104362634E0,7.330382615E-2,-8.875871897E-1,3.543018401E-1
1.106375937E0,7.513642311E-2,-8.924741149E-1,3.457497358E-1
1.108360547E0,7.635815442E-2,-9.004153609E-1,3.378084898E-1
1.110375311E0,7.757988572E-2,-9.028588533E-1,3.335324228E-1
1.112358383E0,7.452555746E-2,-9.095783234E-1,3.268128932E-1
1.114372223E0,7.513642311E-2,-9.181304574E-1,3.188716471E-1
1.116357372E0,7.574728876E-2,-9.224064946E-1,3.164281845E-1
1.118369750E0,7.452555746E-2,-9.297369123E-1,3.090978265E-1
1.120384822E0,7.269296050E-2,-9.340129495E-1,3.042109013E-1
1.122367816E0,7.147123665E-2,-9.413433671E-1,2.999348342E-1
1.124381427E0,7.147123665E-2,-9.498954415E-1,2.938261926E-1
1.126366344E0,6.902777404E-2,-9.511171579E-1,2.877175212E-1
1.128379877E0,6.780604273E-2,-9.602801800E-1,2.846632004E-1
1.130364102E0,6.597344577E-2,-9.633345008E-1,2.809980214E-1
1.132377943E0,6.414084882E-2,-9.694431424E-1,2.767219543E-1
1.134361629E0,6.291911751E-2,-9.706648588E-1,2.748893499E-1
1.136376086E0,6.047565863E-2,-9.731083512E-1,2.730567753E-1
1.138359235E0,6.047565863E-2,-9.767735004E-1,2.718350291E-1
1.140372998E0,5.925392732E-2,-9.779952765E-1,2.693915665E-1
1.142357608E0,5.497787148E-2,-9.749409556E-1,2.687807083E-1
1.144371756E0,5.681046844E-2,-9.737191796E-1,2.657263875E-1
1.146353905E0,5.314527452E-2,-9.712757468E-1,2.632829249E-1
1.148369591E0,5.497787148E-2,-9.657779336E-1,2.638937831E-1
1.150383432E0,5.192354694E-2,-9.621127844E-1,2.614503205E-1
1.152366580E0,4.948008433E-2,-9.523389339E-1,2.596177161E-1
1.154380729E0,4.948008433E-2,-9.492846131E-1,2.602286041E-1
1.156364415E0,5.070181563E-2,-9.382890463E-1,2.590068579E-1
1.158378564E0,5.131268129E-2,-9.236282706E-1,2.553416789E-1
1.160362481E0,5.375614017E-2,-9.169087410E-1,2.553416789E-1
1.162376400E0,5.497787148E-2,-9.028588533E-1,2.522873580E-1
1.164360701E0,5.803219974E-2,-8.900306821E-1,2.541199327E-1
1.166373927E0,5.864306539E-2,-8.820894361E-1,2.510656118E-1
1.168357307E0,6.230825558E-2,-8.662069440E-1,2.455678284E-1
1.170371993E0,6.352998316E-2,-8.515461683E-1,2.461786866E-1
1.172355680E0,6.291911751E-2,-8.429940343E-1,2.455678284E-1
1.174369828E0,6.597344577E-2,-8.289441466E-1,2.406809032E-1
1.176384669E0,6.841690838E-2,-8.148942590E-1,2.357939780E-1
1.178367971E0,6.841690838E-2,-8.093964458E-1,2.345722616E-1
1.180380889E0,6.780604273E-2,-7.971791625E-1,2.302961946E-1
1.182364268E0,7.086037099E-2,-7.880161405E-1,2.278527319E-1
1.184380032E0,7.330382615E-2,-7.800748944E-1,2.247984111E-1
1.186363410E0,7.330382615E-2,-7.733554244E-1,2.205223590E-1
1.188377482E0,7.330382615E-2,-7.696902156E-1,2.186897546E-1
1.190361246E0,7.391469181E-2,-7.623597980E-1,2.113593817E-1
1.192375087E0,7.635815442E-2,-7.611380816E-1,2.089159191E-1
1.194358389E0,7.574728876E-2,-7.586946487E-1,2.064724565E-1
1.196373537E0,7.696902007E-2,-7.574729323E-1,2.034181207E-1
1.198357147E0,7.513642311E-2,-7.593054771E-1,2.021963894E-1
1.200371065E0,7.635815442E-2,-7.580837607E-1,1.973094791E-1
1.202354675E0,7.574728876E-2,-7.605272532E-1,1.930334121E-1
1.204368208E0,7.452555746E-2,-7.635815740E-1,1.930334121E-1
1.206382433E0,7.269296050E-2,-7.654141784E-1,1.905899495E-1
1.208365504E0,7.208210230E-2,-7.660250068E-1,1.893682331E-1
1.210381192E0,7.208210230E-2,-7.721336484E-1,1.893682331E-1
1.212364186E0,7.147123665E-2,-7.739662528E-1,1.893682331E-1
1.214378411E0,6.841690838E-2,-7.782423496E-1,1.918116808E-1
1.216362405E0,6.719517708E-2,-7.800748944E-1,1.875356287E-1
1.218376554E0,6.475171447E-2,-7.837401032E-1,1.905899495E-1
1.220359241E0,6.230825558E-2,-7.861835957E-1,1.905899495E-1
1.222373697E0,6.352998316E-2,-7.867944241E-1,1.936442852E-1
1.224357460E0,5.986479297E-2,-7.892379165E-1,1.942551434E-1
1.226370609E0,5.742133409E-2,-7.855727077E-1,1.960877478E-1
1.228355296E0,5.681046844E-2,-7.861835957E-1,2.003637999E-1
1.230369368E0,5.619960278E-2,-7.849618196E-1,2.015855312E-1
1.232384208E0,5.681046844E-2,-7.794640660E-1,2.064724565E-1
1.234367203E0,5.619960278E-2,-7.782423496E-1,2.076941878E-1
1.236382582E0,6.108652428E-2,-7.727445364E-1,2.113593817E-1
1.238364807E0,6.230825558E-2,-7.648032904E-1,2.156354338E-1
1.240379264E0,6.352998316E-2,-7.599163651E-1,2.180788964E-1
1.242362950E0,6.719517708E-2,-7.507534027E-1,2.205223590E-1
1.244376791E0,7.086037099E-2,-7.379252315E-1,2.241875380E-1
1.246360093E0,7.086037099E-2,-7.324274182E-1,2.266310006E-1
1.248374626E0,6.963863969E-2,-7.177666426E-1,2.266310006E-1
1.250358313E0,7.391469181E-2,-7.134906054E-1,2.278527319E-1
1.252373308E0,7.574728876E-2,-7.018841505E-1,2.309070677E-1
1.254355455E0,7.819075137E-2,-6.890559793E-1,2.345722616E-1
1.256371758E0,7.880161703E-2,-6.835582256E-1,2.327396572E-1
1.258353983E0,8.246681094E-2,-6.701191664E-1,2.351831198E-1
1.260367516E0,8.429940045E-2,-6.609562039E-1,2.339613885E-1
1.262381357E0,8.613199741E-2,-6.560692787E-1,2.345722616E-1
1.264365967E0,9.285151958E-2,-6.438519955E-1,2.357939780E-1
1.266380115E0,9.590584040E-2,-6.346889734E-1,2.333505303E-1
1.268362879E0,9.468411654E-2,-6.322455406E-1,2.345722616E-1
1.270378182E0,9.651670605E-2,-6.206390858E-1,2.339613885E-1
1.272361637E0,1.001819000E-1,-6.108652353E-1,2.327396572E-1
1.274375786E0,9.957103431E-2,-6.065891981E-1,2.321287990E-1
1.276359395E0,1.026253626E-1,-6.010913849E-1,2.333505303E-1
1.278374160E0,1.050688252E-1,-5.962044597E-1,2.321287990E-1
1.280358154E0,1.056796908E-1,-5.925393105E-1,2.339613885E-1
1.282371072E0,1.075122803E-1,-5.888741016E-1,2.333505303E-1
1.284354758E0,1.056796908E-1,-5.852088928E-1,2.327396572E-1
1.286368369E0,1.099557430E-1,-5.827654600E-1,2.315179259E-1
1.288383055E0,1.105666086E-1,-5.797111392E-1,2.321287990E-1
1.290366819E0,1.099557430E-1,-5.778785348E-1,2.309070677E-1
1.292381275E0,1.099557430E-1,-5.791002512E-1,2.284636050E-1
1.294364039E0,1.111774743E-1,-5.791002512E-1,2.284636050E-1
1.296378802E0,1.123992056E-1,-5.791002512E-1,2.266310006E-1
1.298362182E0,1.123992056E-1,-5.815436840E-1,2.247984111E-1
1.300375638E0,1.117883399E-1,-5.809328556E-1,2.217440903E-1
1.302360863E0,1.117883399E-1,-5.809328556E-1,2.211332172E-1
1.304373858E0,1.099557430E-1,-5.815436840E-1,2.193006277E-1
1.306356852E0,1.087340117E-1,-5.821545720E-1,2.150245607E-1
1.308371385E0,1.099557430E-1,-5.833762884E-1,2.131919712E-1
1.310355379E0,1.075122803E-1,-5.827654600E-1,2.089159191E-1
1.312369451E0,1.075122803E-1,-5.833762884E-1,2.064724565E-1
1.314384215E0,1.075122803E-1,-5.852088928E-1,2.040289938E-1
1.316368210E0,1.069014147E-1,-5.833762884E-1,1.985312104E-1
1.318382127E0,1.087340117E-1,-5.845980644E-1,1.973094791E-1
1.320366353E0,1.050688252E-1,-5.815436840E-1,1.930334121E-1
1.322380193E0,1.050688252E-1,-5.821545720E-1,1.863138974E-1
1.324363342E0,1.050688252E-1,-5.797111392E-1,1.869247705E-1
1.326377182E0,1.044579595E-1,-5.760459304E-1,1.820378453E-1
1.328361100E0,1.044579595E-1,-5.754350424E-1,1.771509200E-1
1.330375555E0,1.001819000E-1,-5.729916096E-1,1.734857261E-1
1.332358935E0,1.014036313E-1,-5.687155724E-1,1.685988009E-1
1.334373084E0,1.001819000E-1,-5.656611919E-1,1.606575549E-1
1.336357770E0,9.834930301E-2,-5.632177591E-1,1.594358236E-1
1.338370919E0,9.957103431E-2,-5.583308339E-1,1.521054506E-1
1.340353682E0,9.834930301E-2,-5.552765131E-1,1.435533315E-1
1.342367523E0,9.834930301E-2,-5.516113043E-1,1.453859210E-1
1.344382671E0,9.590584040E-2,-5.448917747E-1,1.374446750E-1
1.346365743E0,9.590584040E-2,-5.442809463E-1,1.343903542E-1
1.348381045E0,9.468411654E-2,-5.363397002E-1,1.282816976E-1
1.350364117E0,9.224065393E-2,-5.290092826E-1,1.233947799E-1
1.352378572E0,9.224065393E-2,-5.259549618E-1,1.203404516E-1
1.354362260E0,8.979719132E-2,-5.186246037E-1,1.136209369E-1
1.356376715E0,8.857546002E-2,-5.112941861E-1,1.069014147E-1
1.358359556E0,8.918632567E-2,-5.051855445E-1,1.069014147E-1
1.360374627E0,8.857546002E-2,-4.984660447E-1,9.957103431E-2
1.362357084E0,8.552113175E-2,-4.880813360E-1,9.468411654E-2
1.364371848E0,8.552113175E-2,-4.850270152E-1,9.468411654E-2
1.366355227E0,8.429940045E-2,-4.752531648E-1,8.979719132E-2
1.368369683E0,8.368854225E-2,-4.654793143E-1,8.552113175E-2
1.370383831E0,8.368854225E-2,-4.605923891E-1,8.307767659E-2
1.372366595E0,8.185594529E-2,-4.526511431E-1,7.819075137E-2
1.374381358E0,8.002334833E-2,-4.440990388E-1,7.391469181E-2
1.376365277E0,7.819075137E-2,-4.379903674E-1,7.330382615E-2
1.378378886E0,7.574728876E-2,-4.282165468E-1,6.963863969E-2
1.380362189E0,7.574728876E-2,-4.251621962E-1,6.658431143E-2
1.382377875E0,7.574728876E-2,-4.184426963E-1,6.169738993E-2
1.384360947E0,7.513642311E-2,-4.135557711E-1,5.803219974E-2
1.386374556E0,7.086037099E-2,-4.056145251E-1,5.436700583E-2
1.388358244E0,6.963863969E-2,-4.013384581E-1,5.436700583E-2
1.390372622E0,6.902777404E-2,-3.952298164E-1,5.131268129E-2
1.392356694E0,6.780604273E-2,-3.933972120E-1,5.070181563E-2
1.394370151E0,6.475171447E-2,-3.878994286E-1,4.825835302E-2
1.396354760E0,6.291911751E-2,-3.854559660E-1,4.276056588E-2
1.398368986E0,6.230825558E-2,-3.811798990E-1,4.153883830E-2
1.400382518E0,6.230825558E-2,-3.787364662E-1,3.970624134E-2
1.402366129E0,5.803219974E-2,-3.781255782E-1,4.276056588E-2
1.404379661E0,5.803219974E-2,-3.769038618E-1,3.970624134E-2
1.406363118E0,5.619960278E-2,-3.750712574E-1,3.970624134E-2
1.408377804E0,5.375614017E-2,-3.744603992E-1,3.604105115E-2
1.410361261E0,5.253441259E-2,-3.732386529E-1,3.604105115E-2
1.412376255E0,4.764748737E-2,-3.732386529E-1,3.665191308E-2
1.414359326E0,4.764748737E-2,-3.726277947E-1,3.787364438E-2
1.416374474E0,4.581489414E-2,-3.744603992E-1,3.543018550E-2
1.418358085E0,4.398229718E-2,-3.762930036E-1,3.359758854E-2
1.420371002E0,4.276056588E-2,-3.756821156E-1,3.665191308E-2
1.422354381E0,4.153883830E-2,-3.775147200E-1,3.665191308E-2
1.424368914E0,3.970624134E-2,-3.781255782E-1,3.665191308E-2
1.426383601E0,3.909537569E-2,-3.762930036E-1,3.909537569E-2
1.428366365E0,3.787364438E-2,-3.769038618E-1,3.787364438E-2
1.430381436E0,3.848451003E-2,-3.775147200E-1,3.970624134E-2
1.432365201E0,3.543018550E-2,-3.775147200E-1,3.726277873E-2
1.434378656E0,3.543018550E-2,-3.750712574E-1,3.848451003E-2
1.436363267E0,3.481931984E-2,-3.714060783E-1,3.909537569E-2
1.438376568E0,3.237585723E-2,-3.714060783E-1,3.909537569E-2
1.440360794E0,2.748893574E-2,-3.683517575E-1,3.787364438E-2
1.442374096E0,2.382374369E-2,-3.652974069E-1,3.604105115E-2
1.444358398E0,2.015855350E-2,-3.616322279E-1,3.787364438E-2
1.446371854E0,2.076941915E-2,-3.604104817E-1,3.665191308E-2
1.448355618E0,1.832595654E-2,-3.591887653E-1,3.604105115E-2
1.450369997E0,1.832595654E-2,-3.536909819E-1,3.665191308E-2
1.452353453E0,1.771509275E-2,-3.475823104E-1,3.787364438E-2
1.454367832E0,1.649336144E-2,-3.451388776E-1,3.604105115E-2
1.456382365E0,1.588249579E-2,-3.402519524E-1,3.604105115E-2
1.458365976E0,1.099557430E-2,-3.316998184E-1,3.543018550E-2
1.460378970E0,9.162978269E-3,-3.274237812E-1,3.604105115E-2
1.462363273E0,6.108652335E-3,-3.225368559E-1,3.604105115E-2
1.464377343E0,1.832595794E-3,-3.121521473E-1,3.604105115E-2
1.466360800E0,-1.221730490E-3,-3.090978265E-1,3.726277873E-2
1.468375486E0,-1.832595794E-3,-2.999348342E-1,3.481931984E-2
1.470358635E0,-3.054326167E-3,-2.889392674E-1,3.543018550E-2
1.472373014E0,-4.886921961E-3,-2.852740586E-1,3.420845419E-2
1.474356470E0,-7.330383174E-3,-2.748893499E-1,3.665191308E-2
1.476372387E0,-8.552113548E-3,-2.712241709E-1,3.787364438E-2
1.478354613E0,-9.162978269E-3,-2.596177161E-1,3.543018550E-2
1.480369300E0,-1.466076635E-2,-2.480112910E-1,3.665191308E-2
1.482382910E0,-1.588249579E-2,-2.419026345E-1,3.604105115E-2
1.484366596E0,-1.710422710E-2,-2.296853364E-1,3.665191308E-2
1.486380130E0,-2.015855350E-2,-2.205223590E-1,3.481931984E-2
1.488364355E0,-2.321287990E-2,-2.101376504E-1,3.359758854E-2
1.490379119E0,-2.260201424E-2,-1.973094791E-1,3.481931984E-2
1.492362498E0,-2.076941915E-2,-1.838704348E-1,3.420845419E-2
1.494376031E0,-2.382374369E-2,-1.771509200E-1,3.420845419E-2
1.496360718E0,-2.565634064E-2,-1.643227488E-1,3.543018550E-2
1.498373943E0,-2.993239649E-2,-1.521054506E-1,3.054326214E-2
1.500357015E0,-2.932153270E-2,-1.429424733E-1,3.298672289E-2
1.502371086E0,-3.420845419E-2,-1.313360333E-1,3.115412779E-2
1.504355465E0,-3.481931984E-2,-1.172861308E-1,2.993239649E-2
1.506369536E0,-3.726277873E-2,-1.117883399E-1,2.993239649E-2
1.508383685E0,-4.092797264E-2,-9.896016866E-2,2.687807009E-2
1.510367064E0,-4.031710699E-2,-9.224065393E-2,2.748893574E-2
1.512381597E0,-4.153883830E-2,-8.124507964E-2,2.504547499E-2
1.514364668E0,-4.459316283E-2,-7.024950534E-2,2.443460934E-2
1.516380048E0,-4.642575979E-2,-6.536258012E-2,2.321287990E-2
1.518363349E0,-4.764748737E-2,-5.558873713E-2,2.321287990E-2
1.520377575E0,-4.703662544E-2,-4.398229718E-2,2.321287990E-2
1.522361493E0,-5.192354694E-2,-3.848451003E-2,2.382374369E-2
1.524374795E0,-4.825835302E-2,-3.176499158E-2,2.382374369E-2
1.526358405E0,-5.070181563E-2,-2.076941915E-2,2.565634064E-2
1.528372322E0,-5.192354694E-2,-1.649336144E-2,2.382374369E-2
1.530356317E0,-5.009094998E-2,-9.773843922E-3,2.321287990E-2
1.532370158E0,-5.009094998E-2,0.000000000E0,2.687807009E-2
1.534354691E0,-5.009094998E-2,3.054326167E-3,2.626720630E-2
1.536369454E0,-4.948008433E-2,7.330383174E-3,2.687807009E-2
1.538382142E0,-4.642575979E-2,1.466076635E-2,2.748893574E-2
1.540365520E0,-4.581489414E-2,2.076941915E-2,2.626720630E-2
1.542380592E0,-4.153883830E-2,2.260201424E-2,2.504547499E-2
1.544364202E0,-4.153883830E-2,2.809980139E-2,2.565634064E-2
1.546377197E0,-3.909537569E-2,3.298672289E-2,2.565634064E-2
1.548361729E0,-3.970624134E-2,3.970624134E-2,2.626720630E-2
1.550375955E0,-4.153883830E-2,4.092797264E-2,2.626720630E-2
1.552359873E0,-4.092797264E-2,4.886921868E-2,2.443460934E-2
1.554373098E0,-4.092797264E-2,5.497787148E-2,2.138028294E-2
1.556357785E0,-4.520402849E-2,5.986479297E-2,2.199114859E-2
1.558371317E0,-4.337143153E-2,6.902777404E-2,2.443460934E-2
1.560355312E0,-4.214970022E-2,7.880161703E-2,2.260201424E-2
1.562368845E0,-4.520402849E-2,8.552113175E-2,2.443460934E-2
1.564383301E0,-4.337143153E-2,9.651670605E-2,2.504547499E-2
1.566366603E0,-4.276056588E-2,1.087340117E-1,2.687807009E-2
1.568380829E0,-4.031710699E-2,1.136209369E-1,2.871066704E-2
1.570364746E0,-4.153883830E-2,1.233947799E-1,2.993239649E-2
1.572379279E0,-4.276056588E-2,1.337794960E-1,3.115412779E-2
1.574362966E0,-3.909537569E-2,1.337794960E-1,3.359758854E-2
1.576377961E0,-4.031710699E-2,1.411098689E-1,3.787364438E-2
1.578360493E0,-4.214970022E-2,1.441642046E-1,3.970624134E-2
1.580374334E0,-4.276056588E-2,1.472185254E-1,4.276056588E-2
1.582356791E0,-4.398229718E-2,1.496619880E-1,4.581489414E-2
1.584372400E0,-4.520402849E-2,1.514945775E-1,4.948008433E-2
1.586356780E0,-4.520402849E-2,1.484402567E-1,5.497787148E-2
1.588370005E0,-4.764748737E-2,1.484402567E-1,5.864306539E-2
1.590353615E0,-4.520402849E-2,1.478293836E-1,5.986479297E-2
1.592367148E0,-4.337143153E-2,1.459967941E-1,6.414084882E-2
1.594381989E0,-4.459316283E-2,1.392772794E-1,6.780604273E-2
1.596366521E0,-4.703662544E-2,1.343903542E-1,7.024950534E-2
1.598379824E0,-4.459316283E-2,1.246165112E-1,7.452555746E-2
1.600364049E0,-4.398229718E-2,1.123992056E-1,7.696902007E-2
1.602377659E0,-4.642575979E-2,1.056796908E-1,7.757988572E-2
1.604361576E0,-4.398229718E-2,8.918632567E-2,7.819075137E-2
1.606375725E0,-4.581489414E-2,8.124507964E-2,7.696902007E-2
1.608359181E0,-4.214970022E-2,6.414084882E-2,8.002334833E-2
1.610373560E0,-4.520402849E-2,4.031710699E-2,7.757988572E-2
1.612356631E0,-4.276056588E-2,3.237585723E-2,7.757988572E-2
1.614371088E0,-4.153883830E-2,9.773843922E-3,7.819075137E-2
1.616355390E0,-3.787364438E-2,-1.404990070E-2,7.941248268E-2
1.618368692E0,-3.848451003E-2,-2.565634064E-2,7.696902007E-2
1.620382456E0,-3.420845419E-2,-4.825835302E-2,7.635815442E-2
1.622367143E0,-3.115412779E-2,-7.086037099E-2,7.391469181E-2
1.624380984E0,-2.993239649E-2,-8.368854225E-2,7.330382615E-2
1.626363132E0,-2.687807009E-2,-1.069014147E-1,7.574728876E-2
1.628378819E0,-2.076941915E-2,-1.313360333E-1,7.086037099E-2
1.630362428E0,-1.893682219E-2,-1.411098689E-1,6.719517708E-2
1.632376039E0,-1.404990070E-2,-1.637118906E-1,6.780604273E-2
1.634360033E0,-1.038470957E-2,-1.850921661E-1,6.475171447E-2
1.636375105E0,-7.941247895E-3,-1.954768747E-1,6.475171447E-2
1.638357560E0,-6.719517522E-3,-2.125810981E-1,5.742133409E-2
1.640372017E0,-1.221730490E-3,-2.229658216E-1,5.864306539E-2
1.642355088E0,6.108652451E-4,-2.406809032E-1,5.253441259E-2
1.644369237E0,2.443460980E-3,-2.516764700E-1,4.948008433E-2
1.646353539E0,4.886921961E-3,-2.596177161E-1,4.520402849E-2
1.648367302E0,8.552113548E-3,-2.724458873E-1,4.520402849E-2
1.650382143E0,7.941247895E-3,-2.803871334E-1,4.276056588E-2
1.652365215E0,8.552113548E-3,-2.858849466E-1,3.970624134E-2
1.654379363E0,1.282817032E-2,-2.926044464E-1,3.848451003E-2
1.656363665E0,1.343903504E-2,-2.999348342E-1,3.543018550E-2
1.658377122E0,1.466076635E-2,-2.999348342E-1,3.420845419E-2
1.660359577E0,1.343903504E-2,-3.017674387E-1,3.481931984E-2
1.662374418E0,1.588249579E-2,-2.999348342E-1,3.359758854E-2
1.664358951E0,1.527163107E-2,-2.968805134E-1,3.359758854E-2
1.666373100E0,1.649336144E-2,-2.932153046E-1,2.932153270E-2
1.668355863E0,1.588249579E-2,-2.840523422E-1,3.115412779E-2
1.670370396E0,1.710422710E-2,-2.779437006E-1,3.176499158E-2
1.672353698E0,1.771509275E-2,-2.657263875E-1,3.176499158E-2
1.674368462E0,1.832595654E-2,-2.553416789E-1,3.420845419E-2
1.676383226E0,1.832595654E-2,-2.394591719E-1,3.481931984E-2
1.678366605E0,1.649336144E-2,-2.205223590E-1,3.665191308E-2
1.680380522E0,1.588249579E-2,-2.101376504E-1,3.787364438E-2
1.682363902E0,1.710422710E-2,-1.912008226E-1,3.787364438E-2
1.684377435E0,1.588249579E-2,-1.673770845E-1,4.153883830E-2
1.686361968E0,1.588249579E-2,-1.563815027E-1,4.337143153E-2
1.688375809E0,1.466076635E-2,-1.301143020E-1,4.276056588E-2
1.690359880E0,1.466076635E-2,-1.099557430E-1,4.398229718E-2
1.692373336E0,1.466076635E-2,-9.590584040E-2,4.703662544E-2
1.694357330E0,1.038470957E-2,-7.086037099E-2,4.764748737E-2
1.696372479E0,1.038470957E-2,-5.131268129E-2,5.131268129E-2
1.698355473E0,8.552113548E-3,-3.787364438E-2,4.948008433E-2
1.700368468E0,8.552113548E-3,-1.771509275E-2,5.070181563E-2
1.702384462E0,1.038470957E-2,2.443460980E-3,5.070181563E-2
1.704367842E0,1.099557430E-2,9.773843922E-3,5.253441259E-2
1.706380759E0,1.038470957E-2,2.687807009E-2,5.009094998E-2
1.708365600E0,1.038470957E-2,3.298672289E-2,5.192354694E-2
1.710378902E0,1.221730467E-2,4.825835302E-2,4.948008433E-2
1.712362512E0,1.160643995E-2,5.803219974E-2,4.948008433E-2
1.714376661E0,1.221730467E-2,6.230825558E-2,4.703662544E-2
1.716361655E0,1.160643995E-2,7.086037099E-2,4.703662544E-2
1.718373881E0,1.588249579E-2,7.880161703E-2,4.703662544E-2
1.720358875E0,1.466076635E-2,8.063421398E-2,4.703662544E-2
1.722372639E0,1.710422710E-2,8.491026610E-2,4.520402849E-2
1.724355787E0,1.649336144E-2,8.918632567E-2,4.214970022E-2
1.726370243E0,1.710422710E-2,8.979719132E-2,4.092797264E-2
1.728353314E0,1.893682219E-2,8.979719132E-2,3.848451003E-2
1.730368079E0,1.954768784E-2,9.162978828E-2,3.543018550E-2
1.732381842E0,1.954768784E-2,9.285151958E-2,3.359758854E-2
1.734365837E0,1.954768784E-2,9.162978828E-2,3.359758854E-2
1.736380677E0,2.015855350E-2,8.735372871E-2,2.993239649E-2
1.738364057E0,1.832595654E-2,8.735372871E-2,3.237585723E-2
1.740377205E0,2.321287990E-2,8.429940045E-2,2.565634064E-2
1.742360969E0,2.260201424E-2,8.307767659E-2,2.504547499E-2
1.744375347E0,2.138028294E-2,8.124507964E-2,2.382374369E-2
1.746359035E0,2.382374369E-2,7.574728876E-2,2.015855350E-2
1.748373568E0,2.199114859E-2,7.269296050E-2,1.649336144E-2
1.750356562E0,2.626720630E-2,6.841690838E-2,1.527163107E-2
1.752371019E0,2.626720630E-2,6.414084882E-2,9.773843922E-3
1.754354705E0,2.504547499E-2,6.108652428E-2,7.941247895E-3
1.756369777E0,2.504547499E-2,5.864306539E-2,6.108652335E-3
1.758352540E0,2.687807009E-2,5.436700583E-2,3.665191587E-3
1.760366766E0,2.932153270E-2,5.192354694E-2,1.832595794E-3
1.762380221E0,2.993239649E-2,4.703662544E-2,1.221730490E-3
1.764364216E0,3.115412779E-2,4.642575979E-2,-1.221730490E-3
1.766378672E0,3.054326214E-2,4.581489414E-2,-3.665191587E-3
1.768361821E0,3.115412779E-2,4.092797264E-2,-6.719517522E-3
1.770376815E0,3.115412779E-2,3.909537569E-2,-6.719517522E-3
1.772360502E0,3.237585723E-2,3.970624134E-2,-9.773843922E-3
1.774374342E0,3.176499158E-2,3.604105115E-2,-1.343903504E-2
1.776358645E0,2.993239649E-2,3.665191308E-2,-1.466076635E-2
1.778372179E0,3.054326214E-2,3.481931984E-2,-1.527163107E-2
1.780355557E0,2.932153270E-2,3.420845419E-2,-1.588249579E-2
1.782370091E0,3.054326214E-2,3.176499158E-2,-1.710422710E-2
1.784354008E0,2.809980139E-2,3.115412779E-2,-1.954768784E-2
1.786366310E0,2.809980139E-2,2.871066704E-2,-1.893682219E-2
1.788381689E0,3.054326214E-2,2.565634064E-2,-2.076941915E-2
1.790366299E0,2.993239649E-2,2.015855350E-2,-2.138028294E-2
1.792379601E0,2.626720630E-2,1.954768784E-2,-1.954768784E-2
1.794363519E0,2.993239649E-2,1.466076635E-2,-2.076941915E-2
1.796378052E0,3.237585723E-2,1.221730467E-2,-1.954768784E-2
1.798360816E0,3.176499158E-2,6.108652335E-3,-1.832595654E-2
1.800375271E0,3.237585723E-2,5.497787148E-3,-1.893682219E-2
1.802358574E0,3.604105115E-2,3.054326167E-3,-1.771509275E-2
1.804372799E0,3.359758854E-2,3.054326167E-3,-1.893682219E-2
1.806356486E0,3.298672289E-2,-1.221730490E-3,-1.710422710E-2
1.808370635E0,3.420845419E-2,-7.330383174E-3,-1.404990070E-2
1.810354321E0,3.359758854E-2,-7.941247895E-3,-1.588249579E-2
1.812367855E0,3.543018550E-2,-1.282817032E-2,-1.527163107E-2
1.814382849E0,3.726277873E-2,-1.832595654E-2,-1.710422710E-2
1.816367228E0,3.726277873E-2,-2.015855350E-2,-1.649336144E-2
1.818380453E0,3.970624134E-2,-2.748893574E-2,-1.771509275E-2
1.820363448E0,4.092797264E-2,-3.359758854E-2,-2.138028294E-2
1.822376750E0,4.031710699E-2,-3.726277873E-2,-1.893682219E-2
1.824361360E0,4.276056588E-2,-4.825835302E-2,-2.015855350E-2
1.826376047E0,4.276056588E-2,-5.314527452E-2,-2.626720630E-2
1.828359503E0,4.398229718E-2,-5.986479297E-2,-2.382374369E-2
1.830373343E0,4.337143153E-2,-6.841690838E-2,-2.687807009E-2
1.832357646E0,4.459316283E-2,-7.819075137E-2,-2.809980139E-2
1.834372102E0,4.642575979E-2,-8.368854225E-2,-2.932153270E-2
1.836355789E0,4.642575979E-2,-9.285151958E-2,-3.054326214E-2
1.838369937E0,4.520402849E-2,-9.834930301E-2,-3.237585723E-2
1.840354163E0,4.642575979E-2,-1.069014147E-1,-3.359758854E-2
1.842367465E0,4.459316283E-2,-1.154535338E-1,-3.604105115E-2
1.844381305E0,4.642575979E-2,-1.178969890E-1,-3.665191308E-2
1.846364608E0,4.581489414E-2,-1.264491081E-1,-3.909537569E-2
1.848378448E0,4.581489414E-2,-1.319468915E-1,-3.909537569E-2
1.850363059E0,4.520402849E-2,-1.368338168E-1,-3.909537569E-2
1.852377283E0,4.276056588E-2,-1.423316002E-1,-4.092797264E-2
1.854360663E0,4.276056588E-2,-1.453859210E-1,-4.214970022E-2
1.856375119E0,4.398229718E-2,-1.459967941E-1,-4.214970022E-2
1.858358729E0,4.459316283E-2,-1.502728462E-1,-4.031710699E-2
1.860372338E0,4.459316283E-2,-1.539380401E-1,-4.276056588E-2
1.862356872E0,4.459316283E-2,-1.545489132E-1,-4.031710699E-2
1.864371097E0,4.520402849E-2,-1.569923609E-1,-3.848451003E-2
1.866352938E0,4.459316283E-2,-1.582140923E-1,-3.726277873E-2
1.868368009E0,4.520402849E-2,-1.539380401E-1,-3.848451003E-2
1.870382773E0,4.398229718E-2,-1.533271819E-1,-3.604105115E-2
1.872365537E0,4.642575979E-2,-1.545489132E-1,-3.543018550E-2
1.874380531E0,4.581489414E-2,-1.521054506E-1,-3.481931984E-2
1.876364295E0,4.825835302E-2,-1.496619880E-1,-3.359758854E-2
1.878378751E0,4.886921868E-2,-1.496619880E-1,-3.237585723E-2
1.880362669E0,4.886921868E-2,-1.502728462E-1,-3.176499158E-2
1.882375894E0,4.886921868E-2,-1.417207420E-1,-3.543018550E-2
1.884359658E0,5.070181563E-2,-1.435533315E-1,-3.481931984E-2
1.886372883E0,5.192354694E-2,-1.423316002E-1,-3.848451003E-2
1.888357416E0,5.192354694E-2,-1.411098689E-1,-4.276056588E-2
1.890372256E0,5.131268129E-2,-1.386664063E-1,-4.214970022E-2
1.892354713E0,5.375614017E-2,-1.380555481E-1,-4.886921868E-2
1.894369707E0,5.436700583E-2,-1.386664063E-1,-5.497787148E-2
1.896353779E0,5.253441259E-2,-1.398881376E-1,-5.742133409E-2
1.898367004E0,5.375614017E-2,-1.398881376E-1,-6.536258012E-2
1.900380537E0,5.681046844E-2,-1.441642046E-1,-6.719517708E-2
1.902363917E0,5.986479297E-2,-1.459967941E-1,-7.391469181E-2
1.904378065E0,5.925392732E-2,-1.514945775E-1,-8.002334833E-2
1.906362290E0,6.230825558E-2,-1.521054506E-1,-8.307767659E-2
1.908376438E0,6.475171447E-2,-1.588249654E-1,-8.735372871E-2
1.910360510E0,6.536258012E-2,-1.643227488E-1,-9.224065393E-2
1.912374889E0,6.719517708E-2,-1.679879427E-1,-9.651670605E-2
1.914358038E0,6.902777404E-2,-1.759291887E-1,-1.014036313E-1
1.916373032E0,7.330382615E-2,-1.832595766E-1,-1.075122803E-1
1.918356104E0,7.513642311E-2,-1.863138974E-1,-1.093448773E-1
1.920370559E0,7.880161703E-2,-1.973094791E-1,-1.142318025E-1
1.922352785E0,8.002334833E-2,-2.058615834E-1,-1.191187203E-1
1.924368163E0,8.307767659E-2,-2.107485086E-1,-1.246165112E-1
1.926382235E0,8.735372871E-2,-2.241875380E-1,-1.288925707E-1
1.928365306E0,8.979719132E-2,-2.364048511E-1,-1.392772794E-1
1.930379840E0,9.468411654E-2,-2.449569702E-1,-1.423316002E-1
1.932362526E0,9.834930301E-2,-2.614503205E-1,-1.490511149E-1
1.934376983E0,9.957103431E-2,-2.669481039E-1,-1.545489132E-1
1.936361593E0,1.032362282E-1,-2.846632004E-1,-1.643227488E-1
1.938376126E0,1.075122803E-1,-3.029891551E-1,-1.759291887E-1
1.940358582E0,1.105666086E-1,-3.127630055E-1,-1.795943826E-1
1.942373576E0,1.160643995E-1,-3.353650272E-1,-1.942551434E-1
1.944357340E0,1.221730486E-1,-3.591887653E-1,-2.058615834E-1
1.946369642E0,1.215621829E-1,-3.714060783E-1,-2.125810981E-1
1.948354791E0,1.252273768E-1,-3.970624208E-1,-2.302961946E-1
1.950369246E0,1.301143020E-1,-4.251621962E-1,-2.455678284E-1
1.952352318E0,1.313360333E-1,-4.392121136E-1,-2.547308207E-1
1.954366235E0,1.380555481E-1,-4.697553813E-1,-2.700024247E-1
1.956380692E0,1.386664063E-1,-4.978551865E-1,-2.913827300E-1
1.958364301E0,1.435533315E-1,-5.161811113E-1,-3.005456924E-1
1.960379373E0,1.466076523E-1,-5.485569835E-1,-3.207042515E-1
1.962361829E0,1.527163088E-1,-5.821545720E-1,-3.414736688E-1
1.964375439E0,1.521054506E-1,-6.023131609E-1,-3.536909819E-1
1.966359742E0,1.582140923E-1,-6.389650702E-1,-3.750712574E-1
1.968374505E0,1.588249654E-1,-6.591235995E-1,-3.897320330E-1
1.970357500E0,1.655444801E-1,-7.012733221E-1,-4.166100919E-1
1.972371725E0,1.710422635E-1,-7.434229851E-1,-4.477642179E-1
1.974355412E0,1.740965992E-1,-7.654141784E-1,-4.618141353E-1
1.976370175E0,1.814269722E-1,-8.075638413E-1,-4.929682612E-1
1.978353170E0,1.881465018E-1,-8.509352803E-1,-5.296201706E-1
1.980366703E0,1.948660165E-1,-8.704829812E-1,-5.461135507E-1
1.982380929E0,2.040289938E-1,-9.108000994E-1,-5.839871764E-1
1.984365153E0,2.144137025E-1,-9.450085163E-1,-6.236934066E-1
1.986379302E0,2.186897546E-1,-9.615018964E-1,-6.456845403E-1
1.988362066E0,2.302961946E-1,-9.902125597E-1,-6.890559793E-1
1.990377137E0,2.406809032E-1,-1.017701507E0,-7.330383062E-1
1.992360285E0,2.437352389E-1,-1.028086185E0,-7.550294399E-1
1.994374973E0,2.504547536E-1,-1.047633886E0,-8.038986921E-1
1.996359582E0,2.577851415E-1,-1.063516378E0,-8.521569967E-1
1.998372500E0,2.620611787E-1,-1.069014192E0,-8.747590184E-1
2.000356803E0,2.687807083E-1,-1.082453251E0,-9.272934198E-1
2.002370105E0,2.724458873E-1,-1.087340117E0,-9.486737251E-1
2.004354407E0,2.791654170E-1,-1.092837930E0,-1.000597239E0
2.006368170E0,2.840523422E-1,-1.095892191E0,-1.052520871E0
2.008382012E0,2.852740586E-1,-1.095281363E0,-1.077566266E0
2.010365775E0,2.889392674E-1,-1.090394497E0,-1.132544160E0
2.012379924E0,2.926044464E-1,-1.082453251E0,-1.186911225E0
2.014364148E0,2.913827300E-1,-1.075733662E0,-1.215621829E0
2.016378990E0,2.895501256E-1,-1.064738154E0,-1.271821499E0
2.018361753E0,2.901609838E-1,-1.048855662E0,-1.327410221E0
2.020375594E0,2.895501256E-1,-1.040303469E0,-1.357342601E0
2.022360126E0,2.907718420E-1,-1.023810148E0,-1.414153099E0
2.024373121E0,2.956587672E-1,-1.004262447E0,-1.465465665E0
2.026355577E0,2.974913716E-1,-9.957103729E-1,-1.494176388E0
2.028370957E0,3.036000133E-1,-9.773843884E-1,-1.548543453E0
2.030354875E0,3.066543639E-1,-9.669997096E-1,-1.574199796E0
2.032369715E0,3.170390725E-1,-9.505063295E-1,-1.624901533E0
2.034351864E0,3.304781020E-1,-9.315695167E-1,-1.672549009E0
2.036367473E0,3.390302062E-1,-9.266825914E-1,-1.697594523E0
2.038381391E0,3.591887653E-1,-9.156870246E-1,-1.741576791E0
2.040364770E0,3.756821156E-1,-9.120218158E-1,-1.786170006E0
2.042378919E0,3.860668242E-1,-9.101892114E-1,-1.809993744E0
2.044361990E0,4.043927789E-1,-9.132435322E-1,-1.852143407E0
2.046376369E0,4.251621962E-1,-9.230173826E-1,-1.891238809E0
2.048360056E0,4.318817258E-1,-9.266825914E-1,-1.914451718E0
2.050375204E0,4.508185387E-1,-9.480628371E-1,-1.953547001E0
2.052357660E0,4.752531648E-1,-9.761626720E-1,-1.995696783E0
2.054373040E0,4.838052690E-1,-9.957103729E-1,-2.017687798E0
2.056357034E0,5.070181489E-1,-1.034805775E0,-2.059837580E0
2.058369875E0,5.332853794E-1,-1.079398870E0,-2.103819847E0
2.060353024E0,5.455026627E-1,-1.102000952E0,-2.126421928E0
2.062366787E0,5.723807216E-1,-1.156367898E0,-2.171625853E0
2.064381935E0,5.833762884E-1,-1.179580808E0,-2.197893143E0
2.066365622E0,6.090326309E-1,-1.235169530E0,-2.245540619E0
2.068380079E0,6.328563690E-1,-1.289536476E0,-2.296242476E0
2.070363996E0,6.444628239E-1,-1.313360333E0,-2.320066214E0
2.072378144E0,6.688974500E-1,-1.365283847E0,-2.371989727E0
2.074360677E0,6.896668673E-1,-1.411098719E0,-2.423913240E0
2.076376057E0,7.006624341E-1,-1.429424644E0,-2.452013016E0
2.078358743E0,7.189884186E-1,-1.466076612E0,-2.505769253E0
2.080373507E0,7.342600226E-1,-1.488678575E0,-2.557081938E0
2.082357193E0,7.434229851E-1,-1.496008992E0,-2.585792542E0
2.084370419E0,7.574729323E-1,-1.507004619E0,-2.634050846E0
2.086353875E0,7.715228200E-1,-1.505172014E0,-2.685974598E0
2.088368639E0,7.788531780E-1,-1.500895858E0,-2.709798336E0
2.090352556E0,7.861835957E-1,-1.483180761E0,-2.756834745E0
2.092366474E0,7.953465581E-1,-1.455691934E0,-2.803871393E0
2.094380314E0,7.953465581E-1,-1.437365890E0,-2.827084303E0
2.096364925E0,7.984008789E-1,-1.395827055E0,-2.868623257E0
2.098378150E0,7.990117669E-1,-1.373225093E0,-2.889392614E0
2.100361529E0,7.984008789E-1,-1.320690632E0,-2.929098845E0
2.102376293E0,8.002334833E-1,-1.262658477E0,-2.967583418E0
2.104360287E0,7.971791625E-1,-1.229060888E0,-2.981633186E0
2.106372590E0,7.929030657E-1,-1.161254883E0,-3.015230894E0
2.108357738E0,7.910705209E-1,-1.087340117E0,-3.046995878E0
2.110371579E0,7.892379165E-1,-1.044579625E0,-3.061656713E0
2.112355342E0,7.855727077E-1,-9.602801800E-1,-3.089145660E0
2.114369491E0,7.794640660E-1,-8.710938692E-1,-3.114801884E0
2.116354408E0,7.794640660E-1,-8.277224302E-1,-3.126408339E0
2.118367865E0,7.757988572E-1,-7.367035151E-1,-3.149621248E0
2.120382320E0,7.709119320E-1,-6.401867867E-1,-3.172834158E0
2.122365084E0,7.715228200E-1,-5.937610269E-1,-3.179553509E0
2.124378617E0,7.678576112E-1,-5.021312237E-1,-3.201544762E0
2.126362920E0,7.648032904E-1,-4.080579877E-1,-3.224146843E0
2.128376761E0,7.611380816E-1,-3.634648323E-1,-3.232698917E0
2.130360216E0,7.599163651E-1,-2.767219543E-1,-3.252857447E0
2.132374904E0,7.599163651E-1,-2.345722616E-1,-3.262020350E0
2.134358898E0,7.599163651E-1,-1.539380401E-1,-3.279735565E0
2.136374662E0,7.593054771E-1,-8.063421398E-2,-3.301726580E0
2.138356810E0,7.629706860E-1,-4.948008433E-2,-3.311500549E0
2.140369728E0,7.629706860E-1,7.330383174E-3,-3.332880735E0
2.142353337E0,7.666358948E-1,5.436700583E-2,-3.352428436E0
2.144367486E0,7.703011036E-1,7.086037099E-2,-3.362813234E0
2.146382249E0,7.764097452E-1,9.590584040E-2,-3.385415077E0
2.148366244E0,7.825183868E-1,1.123992056E-1,-3.406795502E0
2.150379854E0,7.886270285E-1,1.148426682E-1,-3.415347576E0
2.152364464E0,8.002334833E-1,1.099557430E-1,-3.437338829E0
2.154378304E0,8.057312369E-1,9.896016866E-2,-3.460551500E0
2.156362530E0,8.106181622E-1,8.613199741E-2,-3.471547127E0
2.158375832E0,8.167268038E-1,5.803219974E-2,-3.497203588E0
2.160360673E0,8.203920126E-1,4.092797264E-2,-3.508810043E0
2.162373899E0,8.252789378E-1,2.443460980E-3,-3.533244610E0
2.164356354E0,8.326093554E-1,-4.276056588E-2,-3.558900833E0
2.166371503E0,8.332201838E-1,-6.841690838E-2,-3.571118116E0
2.168355189E0,8.362745047E-1,-1.221730486E-1,-3.599828959E0
2.170370261E0,8.338310719E-1,-1.844813079E-1,-3.627928734E0
2.172353563E0,8.338310719E-1,-2.138028294E-1,-3.646254539E0
2.174366250E0,8.319984674E-1,-2.803871334E-1,-3.678019524E0
2.176382475E0,8.289441466E-1,-3.518583775E-1,-3.711617231E0
2.178365009E0,8.289441466E-1,-3.848451078E-1,-3.725056171E0
2.180378772E0,8.246681094E-1,-4.569272101E-1,-3.762929916E0
2.182363074E0,8.179485798E-1,-5.265658498E-1,-3.794694901E0
2.184377222E0,8.136724830E-1,-5.607742667E-1,-3.815464258E0
2.186359679E0,8.045095205E-1,-6.279694438E-1,-3.850283623E0
2.188374519E0,7.916813493E-1,-6.914994717E-1,-3.885102987E0
2.190359053E0,7.861835957E-1,-7.238753438E-1,-3.902207136E0
2.192372586E0,7.739662528E-1,-7.849618196E-1,-3.935804844E0
2.194355734E0,7.660250068E-1,-8.112290502E-1,-3.951076508E0
2.196371113E0,7.538077235E-1,-8.588765264E-1,-3.982230425E0
2.198353261E0,7.373143435E-1,-9.028588533E-1,-4.013384819E0
2.200368333E0,7.312057018E-1,-9.217956662E-1,-4.027434349E0
2.202351327E0,7.159340382E-1,-9.541715384E-1,-4.056756020E0
2.204365476E0,6.994407177E-1,-9.804387093E-1,-4.081190586E0
2.206379624E0,6.896668673E-1,-9.926560521E-1,-4.097073078E0
2.208363619E0,6.688974500E-1,-1.007927656E0,-4.121507645E0
2.210377536E0,6.499606371E-1,-1.021977544E0,-4.143498898E0
2.212361762E0,6.359107494E-1,-1.025031924E0,-4.153883457E0
2.214375602E0,6.151412725E-1,-1.032362223E0,-4.176485538E0
2.216359982E0,5.962044597E-1,-1.034805775E0,-4.194200993E0
2.218373129E0,5.852088928E-1,-1.036638379E0,-4.202142239E0
2.220355971E0,5.613851547E-1,-1.037249207E0,-4.221078873E0
2.222370043E0,5.442809463E-1,-1.038470864E0,-4.236350536E0
2.224354960E0,5.338962078E-1,-1.038470864E0,-4.244291782E0
2.226368878E0,5.131267905E-1,-1.034805775E0,-4.255287170E0
2.228352179E0,5.039638281E-1,-1.032362223E0,-4.263839245E0
2.230366636E0,4.868595898E-1,-1.026864529E0,-4.276056767E0
2.232380553E0,4.679227769E-1,-1.021366715E0,-4.286441326E0
2.234364471E0,4.575380683E-1,-1.013425469E0,-4.291328430E0
2.236379311E0,4.392121136E-1,-1.004262447E0,-4.299269676E0
2.238362306E0,4.221078753E-1,-9.889908433E-1,-4.302934647E0
2.240376839E0,4.141666293E-1,-9.798278809E-1,-4.307210922E0
2.242360449E0,3.995058835E-1,-9.608910084E-1,-4.310265064E0
2.244374058E0,3.836233616E-1,-9.431759119E-1,-4.313319683E0
2.246358361E0,3.738495409E-1,-9.297369123E-1,-4.312708855E0
2.248371509E0,3.591887653E-1,-9.065240026E-1,-4.316373825E0
2.250356119E0,3.457497358E-1,-8.839219809E-1,-4.318206310E0
2.252369652E0,3.390302062E-1,-8.723155856E-1,-4.317595482E0
2.254353647E0,3.286454976E-1,-8.527678847E-1,-4.321260929E0
2.256368796E0,3.145956099E-1,-8.326093554E-1,-4.326758385E0
2.258351559E0,3.115412891E-1,-8.222246170E-1,-4.330423832E0
2.260365092E0,2.981022298E-1,-8.038986921E-1,-4.337754250E0
2.262380086E0,2.938261926E-1,-7.971791625E-1,-4.343251705E0
2.264363543E0,2.803871334E-1,-7.788531780E-1,-4.353025913E0
2.266377075E0,2.712241709E-1,-7.678576112E-1,-4.364021301E0
2.268360994E0,2.663372457E-1,-7.623597980E-1,-4.370130062E0
2.270375449E0,2.541199327E-1,-7.568620443E-1,-4.382957935E0
2.272358906E0,2.412917763E-1,-7.531968355E-1,-4.397007942E0
2.274373053E0,2.357939780E-1,-7.507534027E-1,-4.400062561E0
2.276356741E0,2.241875380E-1,-7.507534027E-1,-4.412279606E0
2.278370504E0,2.083050460E-1,-7.531968355E-1,-4.422664165E0
2.280355422E0,2.003637999E-1,-7.562511563E-1,-4.430605412E0
2.282368416E0,1.832595766E-1,-7.599163651E-1,-4.437325001E0
2.284351796E0,1.637118906E-1,-7.672467232E-1,-4.445877075E0
2.286366560E0,1.533271819E-1,-7.721336484E-1,-4.448931694E0
2.288380092E0,1.380555481E-1,-7.837401032E-1,-4.456872940E0
2.290364395E0,1.203404516E-1,-7.941248417E-1,-4.460537910E0
2.292378466E0,1.123992056E-1,-7.996225953E-1,-4.466646671E0
2.294361538E0,9.590584040E-2,-8.118399382E-1,-4.469700813E0
2.296376994E0,8.857546002E-2,-8.161159754E-1,-4.474587917E0
2.298359450E0,7.330382615E-2,-8.283332586E-1,-4.478252888E0
2.300372983E0,5.497787148E-2,-8.411614299E-1,-4.488027096E0
2.302356978E0,4.520402849E-2,-8.472700715E-1,-4.490470409E0
2.304372048E0,3.115412779E-2,-8.619308472E-1,-4.496579170E0
2.306355428E0,1.404990070E-2,-8.839219809E-1,-4.503909588E0
2.308368961E0,6.108652335E-3,-8.918632865E-1,-4.508185387E0
2.310353186E0,-6.719517522E-3,-9.126327038E-1,-4.511850834E0
2.312367719E0,-2.443460934E-2,-9.364564419E-1,-4.521624565E0
2.314350714E0,-3.237585723E-2,-9.456194043E-1,-4.525900364E0
2.316365554E0,-4.764748737E-2,-9.651671052E-1,-4.530787468E0
2.318379318E0,-6.169738993E-2,-9.853256345E-1,-4.542394161E0
2.320363082E0,-7.086037099E-2,-9.969320893E-1,-4.546669960E0
2.322376230E0,-8.307767659E-2,-1.013425469E0,-4.556443691E0
2.324360225E0,-9.101892263E-2,-1.022588372E0,-4.563163280E0
2.326374758E0,-1.038470939E-1,-1.037860036E0,-4.574159145E0
2.328358368E0,-1.185078546E-1,-1.056185961E0,-4.584543705E0
2.330373131E0,-1.270599663E-1,-1.064127207E0,-4.592484951E0
2.332355896E0,-1.429424733E-1,-1.083064079E0,-4.604091167E0
2.334370428E0,-1.606575549E-1,-1.103222609E0,-4.618141174E0
2.336354731E0,-1.679879427E-1,-1.113607287E0,-4.623639107E0
2.338368186E0,-1.869247705E-1,-1.137431145E0,-4.637689114E0
2.340351335E0,-2.040289938E-1,-1.164309144E0,-4.653571606E0
2.342365483E0,-2.144137025E-1,-1.175304770E0,-4.661512852E0
2.344380786E0,-2.333505303E-1,-1.196684957E0,-4.679227829E0
2.346362934E0,-2.535090744E-1,-1.221730471E0,-4.696331978E0
2.348377775E0,-2.681698501E-1,-1.232115149E0,-4.706716537E0
2.350361462E0,-2.919935882E-1,-1.255328059E0,-4.723209858E0
2.352375302E0,-3.200933933E-1,-1.270599723E0,-4.740314484E0
2.354358990E0,-3.359758854E-1,-1.276708364E0,-4.750088215E0
2.356373445E0,-3.689626157E-1,-1.289536476E0,-4.763527393E0
2.358357363E0,-3.811798990E-1,-1.300532103E0,-4.771468639E0
2.360371588E0,-4.153883755E-1,-1.307251573E0,-4.784296513E0
2.362355506E0,-4.495968223E-1,-1.317025423E0,-4.795903206E0
2.364369038E0,-4.679227769E-1,-1.321301579E0,-4.800179005E0
2.366352726E0,-5.002986193E-1,-1.326188445E0,-4.812396526E0
2.368366566E0,-5.381723046E-1,-1.328021049E0,-4.824613571E0
2.370381407E0,-5.564982295E-1,-1.329853654E0,-4.828889847E0
2.372365093E0,-5.925393105E-1,-1.329853654E0,-4.838052750E0
2.374378627E0,-6.365215778E-1,-1.335962296E0,-4.848437309E0
2.376364082E0,-6.554583907E-1,-1.332297087E0,-4.856378555E0
2.378377077E0,-6.927211881E-1,-1.332907915E0,-4.868596077E0
2.380359226E0,-7.305948138E-1,-1.334740520E0,-4.880813122E0
2.382373605E0,-7.525860071E-1,-1.335962296E0,-4.891198158E0
2.384357600E0,-7.996225953E-1,-1.345125318E0,-4.904026031E0
2.386372671E0,-8.466592431E-1,-1.351844788E0,-4.916243553E0
2.388355820E0,-8.698720932E-1,-1.357342601E0,-4.922963142E0
2.390370275E0,-9.138544202E-1,-1.370781660E0,-4.933347702E0
2.392353963E0,-9.340129495E-1,-1.378111959E0,-4.938845634E0
2.394367726E0,-9.779952765E-1,-1.393383622E0,-4.948008537E0
2.396352028E0,-1.017090678E0,-1.410487890E0,-4.956560612E0
2.398365330E0,-1.037249207E0,-1.416596532E0,-4.960836887E0
2.400380633E0,-1.077566266E0,-1.428202987E0,-4.966334343E0
2.402363396E0,-1.117883444E0,-1.434922457E0,-4.974275589E0
2.404377622E0,-1.138652802E0,-1.434922457E0,-4.974275589E0
2.406360924E0,-1.174693823E0,-1.428202987E0,-4.979773521E0
2.408375380E0,-1.210124016E0,-1.418429136E0,-4.981606007E0
2.410358759E0,-1.227228284E0,-1.412320495E0,-4.983438492E0
2.412372292E0,-1.263269305E0,-1.397659659E0,-4.980995178E0
2.414356672E0,-1.299921274E0,-1.378722906E0,-4.982827663E0
2.416370435E0,-1.320079803E0,-1.362840414E0,-4.983438492E0
2.418355122E0,-1.356731653E0,-1.329853654E0,-4.984049320E0
2.420368270E0,-1.395216227E0,-1.290147424E0,-4.984049320E0
2.422352342E0,-1.413542151E0,-1.266934514E0,-4.983438492E0
2.424366721E0,-1.450804949E0,-1.220508814E0,-4.982827663E0
2.426380331E0,-1.470352650E0,-1.197295904E0,-4.980995178E0
2.428364556E0,-1.503339410E0,-1.149648428E0,-4.982216835E0
2.430379320E0,-1.537547827E0,-1.098335743E0,-4.979162693E0
2.432362083E0,-1.552208543E0,-1.075733662E0,-4.976719379E0
2.434376001E0,-1.590082288E0,-1.021977544E0,-4.972443104E0
2.436359611E0,-1.621847272E0,-9.792169929E-1,-4.971221447E0
2.438374144E0,-1.638951421E0,-9.572258592E-1,-4.968778133E0
2.440358446E0,-1.671938181E0,-9.156870246E-1,-4.966945171E0
2.442371672E0,-1.702481389E0,-8.753699064E-1,-4.962669373E0
2.444355359E0,-1.720807433E0,-8.533787727E-1,-4.962669373E0
2.446369738E0,-1.750128984E0,-8.173376918E-1,-4.959614754E0
2.448352887E0,-1.780061364E0,-7.837401032E-1,-4.960836887E0
2.450367265E0,-1.794111252E0,-7.666358948E-1,-4.960836887E0
2.452350414E0,-1.822211027E0,-7.354817390E-1,-4.959614754E0
2.454364870E0,-1.850921750E0,-7.024950385E-1,-4.957782269E0
2.456379634E0,-1.864971638E0,-6.866125464E-1,-4.958393097E0
2.458363320E0,-1.892460585E0,-6.536257863E-1,-4.954728127E0
2.460375931E0,-1.907121301E0,-6.377432942E-1,-4.953506470E0
2.462359309E0,-1.932777643E0,-6.029239893E-1,-4.950451851E0
2.464374920E0,-1.959655762E0,-5.693264008E-1,-4.943732262E0
2.466358990E0,-1.969429493E0,-5.528330207E-1,-4.940067291E0
2.468372755E0,-1.994475007E0,-5.180137157E-1,-4.930904388E0
2.470355826E0,-2.016466141E0,-4.874704778E-1,-4.922963142E0
2.472370898E0,-2.026850939E0,-4.721988440E-1,-4.915021896E0
2.474353431E0,-2.048231125E0,-4.379903674E-1,-4.903415203E0
2.476369656E0,-2.070222378E0,-4.025602043E-1,-4.891198158E0
2.478352805E0,-2.077552795E0,-3.878994286E-1,-4.883256912E0
2.480365953E0,-2.100154638E0,-3.481931984E-1,-4.865541458E0
2.482380486E0,-2.120313168E0,-3.115412891E-1,-4.845993996E0
2.484363788E0,-2.127643585E0,-2.907718420E-1,-4.838052750E0
2.486377321E0,-2.145358801E0,-2.528982162E-1,-4.815450668E0
2.488361084E0,-2.152689219E0,-2.351831198E-1,-4.805066109E0
2.490376464E0,-2.171015024E0,-1.948660165E-1,-4.779409885E0
2.492358920E0,-2.184454203E0,-1.588249654E-1,-4.753142357E0
2.494373068E0,-2.191784382E0,-1.417207420E-1,-4.738481522E0
2.496357678E0,-2.205834389E0,-1.056796908E-1,-4.709160328E0
2.498371442E0,-2.216830015E0,-7.147123665E-2,-4.675562382E0
2.500354513E0,-2.221716881E0,-5.253441259E-2,-4.657236576E0
2.502370200E0,-2.232101679E0,-1.771509275E-2,-4.622417450E0
2.504353271E0,-2.240042925E0,1.282817032E-2,-4.586987019E0
2.506365651E0,-2.244929790E0,3.359758854E-2,-4.566828728E0
2.508381337E0,-2.251649380E0,5.864306539E-2,-4.530787468E0
2.510364640E0,-2.260812283E0,8.613199741E-2,-4.493524551E0
2.512378558E0,-2.265088320E0,9.896016866E-2,-4.474587917E0
2.514362552E0,-2.270586014E0,1.178969890E-1,-4.435492516E0
2.516377239E0,-2.276083946E0,1.295034289E-1,-4.395786285E0
2.518360002E0,-2.278527260E0,1.362229437E-1,-4.375627518E0
2.520375074E0,-2.280359983E0,1.411098689E-1,-4.334699631E0
2.522357607E0,-2.283414364E0,1.411098689E-1,-4.316984653E0
2.524372294E0,-2.284025192E0,1.337794960E-1,-4.279721737E0
2.526355134E0,-2.286468506E0,1.221730486E-1,-4.241848469E0
2.528369822E0,-2.287079573E0,1.130100712E-1,-4.224743843E0
2.530353893E0,-2.287690401E0,8.979719132E-2,-4.185648441E0
2.532367118E0,-2.288301229E0,6.352998316E-2,-4.152661800E0
2.534352266E0,-2.287690401E0,4.703662544E-2,-4.134335995E0
2.536365877E0,-2.284636021E0,1.527163107E-2,-4.098905563E0
2.538380024E0,-2.283414364E0,-1.466076635E-2,-4.066529751E0
2.540362481E0,-2.282803535E0,-2.993239649E-2,-4.048814774E0
2.542376937E0,-2.277305603E0,-6.291911751E-2,-4.008497715E0
2.544360932E0,-2.276694775E0,-9.162978828E-2,-3.971845865E0
2.546374696E0,-2.272418737E0,-1.050688252E-1,-3.950465441E0
2.548358690E0,-2.271807909E0,-1.258382350E-1,-3.907705069E0
2.550373531E0,-2.266921043E0,-1.472185254E-1,-3.866166115E0
2.552355986E0,-2.262644768E0,-1.563815027E-1,-3.842342377E0
2.554370981E0,-2.261423111E0,-1.747074574E-1,-3.795916557E0
2.556355668E0,-2.262033939E0,-1.820378453E-1,-3.772703648E0
2.558369124E0,-2.255925417E0,-1.966986060E-1,-3.727499723E0
2.560352503E0,-2.250427485E0,-2.119702399E-1,-3.679852247E0
2.562366344E0,-2.249205828E0,-2.211332172E-1,-3.657860994E0
2.564380261E0,-2.244318962E0,-2.382374406E-1,-3.611435413E0
2.566364256E0,-2.238210201E0,-2.553416789E-1,-3.561344385E0
2.568378942E0,-2.235155821E0,-2.590068579E-1,-3.537520647E0
2.570362707E0,-2.225992918E0,-2.761110961E-1,-3.492316723E0
2.572375855E0,-2.219884396E0,-2.871066630E-1,-3.444058180E0
2.574359619E0,-2.217440844E0,-2.919935882E-1,-3.420234442E0
2.576375306E0,-2.206445217E0,-3.036000133E-1,-3.371976137E0
2.578357762E0,-2.200336695E0,-3.133738637E-1,-3.320663452E0
2.580371218E0,-2.191784382E0,-3.145956099E-1,-3.296228886E0
2.582356135E0,-2.182621479E0,-3.207042515E-1,-3.243083477E0
2.584369746E0,-2.170404196E0,-3.219259977E-1,-3.193603516E0
2.586352509E0,-2.164906502E0,-3.213151097E-1,-3.164892912E0
2.588366658E0,-2.153910875E0,-3.164281845E-1,-3.111747503E0
2.590350883E0,-2.147191286E0,-3.145956099E-1,-3.084869385E0
2.592365108E0,-2.132530689E0,-3.090978265E-1,-3.029891729E0
2.594379256E0,-2.119091511E0,-2.993239760E-1,-2.973081112E0
2.596363559E0,-2.112371922E0,-2.962696552E-1,-2.946814060E0
2.598377322E0,-2.095878601E0,-2.889392674E-1,-2.892446995E0
2.600361317E0,-2.077552795E0,-2.822197378E-1,-2.839301586E0
2.602375234E0,-2.066557169E0,-2.791654170E-1,-2.811201811E0
2.604358537E0,-2.053117990E0,-2.761110961E-1,-2.758667469E0
2.606372147E0,-2.038457394E0,-2.718350291E-1,-2.702467918E0
2.608356372E0,-2.027461767E0,-2.724458873E-1,-2.674978971E0
2.610371136E0,-2.010357618E0,-2.797762752E-1,-2.622444391E0
2.612354207E0,-1.995696783E0,-2.895501256E-1,-2.571131706E0
2.614368664E0,-1.990198970E0,-2.974913716E-1,-2.544253826E0
2.616352965E0,-1.974927306E0,-3.145956099E-1,-2.491719246E0
2.618365960E0,-1.957823157E0,-3.335324228E-1,-2.466063023E0
2.620379416E0,-1.950492740E0,-3.445279896E-1,-2.412306786E0
2.622363103E0,-1.935221076E0,-3.652974069E-1,-2.364048481E0
2.624377867E0,-1.927890658E0,-3.787364662E-1,-2.338392258E0
2.626362169E0,-1.910786510E0,-4.001167417E-1,-2.284636021E0
2.628375779E0,-1.894904017E0,-4.233296216E-1,-2.235766888E0
2.630360389E0,-1.886962771E0,-4.355469346E-1,-2.211332083E0
2.632373229E0,-1.872301936E0,-4.605923891E-1,-2.162462950E0
2.634357609E0,-1.851532578E0,-4.856378734E-1,-2.114204645E0
2.636372680E0,-1.842369556E0,-4.984660447E-1,-2.091602564E0
2.638355059E0,-1.822821856E0,-5.241223574E-1,-2.045787811E0
2.640369208E0,-1.804495931E0,-5.497786999E-1,-1.998751044E0
2.642352587E0,-1.792278647E0,-5.632177591E-1,-1.974316478E0
2.644367659E0,-1.769676566E0,-5.894849896E-1,-1.930334210E0
2.646350191E0,-1.745242000E0,-6.151412725E-1,-1.886962771E0
2.648364648E0,-1.734246373E0,-6.273586154E-1,-1.865582466E0
2.650379026E0,-1.713477015E0,-6.493497491E-1,-1.819156647E0
2.652362406E0,-1.700648785E0,-6.627888083E-1,-1.800219893E0
2.654376631E0,-1.681101203E0,-6.841690540E-1,-1.755626678E0
2.656360933E0,-1.657277465E0,-7.037167549E-1,-1.714087844E0
2.658375004E0,-1.646281838E0,-7.153232098E-1,-1.691485882E0
2.660357461E0,-1.621847272E0,-7.385360599E-1,-1.653001308E0
2.662372840E0,-1.596190929E0,-7.568620443E-1,-1.610240817E0
2.664356296E0,-1.586417079E0,-7.684684992E-1,-1.588249683E0
2.666369521E0,-1.558317184E0,-7.880161405E-1,-1.548543453E0
2.668353747E0,-1.532660842E0,-8.057312369E-1,-1.505782843E0
2.670367972E0,-1.522276163E0,-8.124507666E-1,-1.487456918E0
2.672351351E0,-1.494787216E0,-8.271115422E-1,-1.442252874E0
2.674365500E0,-1.472185254E0,-8.374962807E-1,-1.403157473E0
2.676380571E0,-1.460578799E0,-8.423831463E-1,-1.381777167E0
2.678363874E0,-1.438587666E0,-8.466592431E-1,-1.338405728E0
2.680378021E0,-1.420261741E0,-8.497135639E-1,-1.299921274E0
2.682361709E0,-1.414153099E0,-8.521569967E-1,-1.280984402E0
2.684375549E0,-1.398270488E0,-8.588765264E-1,-1.241889000E0
2.686358928E0,-1.392161846E0,-8.588765264E-1,-1.222952247E0
2.688373076E0,-1.377501130E0,-8.643743396E-1,-1.189354658E0
2.690357148E0,-1.365894675E0,-8.686503768E-1,-1.156367898E0
2.692370911E0,-1.358564258E0,-8.704829812E-1,-1.139263630E0
2.694354676E0,-1.348179579E0,-8.790351152E-1,-1.109942198E0
2.696369747E0,-1.335962296E0,-8.857545853E-1,-1.080620646E0
2.698351895E0,-1.326799273E0,-8.900306821E-1,-1.066570759E0
2.700367814E0,-1.313360333E0,-8.943067193E-1,-1.040914416E0
2.702349346E0,-1.296256065E0,-8.985827565E-1,-1.008538485E0
2.704364803E0,-1.287093043E0,-8.998045325E-1,-9.963212013E-1
2.706378643E0,-1.273653984E0,-8.967501521E-1,-9.706648588E-1
2.708362022E0,-1.253495455E0,-8.936958313E-1,-9.431759119E-1
2.710376093E0,-1.244943380E0,-8.888089061E-1,-9.315695167E-1
2.712360165E0,-1.226617455E0,-8.820894361E-1,-9.065240026E-1
2.714374621E0,-1.207680583E0,-8.735373020E-1,-8.814785480E-1
2.716358308E0,-1.197295904E0,-8.698720932E-1,-8.729264140E-1
2.718372687E0,-1.179580808E0,-8.570439219E-1,-8.472700715E-1
2.720356066E0,-1.169196129E0,-8.533787727E-1,-8.405506015E-1
2.722369291E0,-1.152702689E0,-8.454375267E-1,-8.203920126E-1
2.724352671E0,-1.136820197E0,-8.429940343E-1,-8.081747293E-1
2.726367742E0,-1.127046347E0,-8.442157507E-1,-7.971791625E-1
2.728351814E0,-1.107498646E0,-8.521569967E-1,-7.837401032E-1
2.730365577E0,-1.087950945E0,-8.674286604E-1,-7.721336484E-1
2.732379418E0,-1.078177214E0,-8.784242272E-1,-7.648032904E-1
2.734363105E0,-1.049466491E0,-9.095783234E-1,-7.489207983E-1
2.736377868E0,-1.023810148E0,-9.474520087E-1,-7.324274182E-1
2.738361017E0,-1.010371089E0,-9.669997096E-1,-7.238753438E-1
2.740374550E0,-9.853256345E-1,-1.009760261E0,-7.018841505E-1
2.742359083E0,-9.578366876E-1,-1.049466491E0,-6.750060916E-1
2.744373847E0,-9.468411207E-1,-1.067792416E0,-6.627888083E-1
2.746356072E0,-9.236282706E-1,-1.099557400E0,-6.328563690E-1
2.748370836E0,-9.083566070E-1,-1.117272496E0,-6.188064814E-1
2.750354754E0,-8.851437569E-1,-1.143539786E0,-5.852088928E-1
2.752368055E0,-8.588765264E-1,-1.161254883E0,-5.516113043E-1
2.754351973E0,-8.442157507E-1,-1.166752577E0,-5.375614166E-1
2.756367121E0,-8.148942590E-1,-1.169806957E0,-5.045747161E-1
2.758349885E0,-7.892379165E-1,-1.166141748E0,-4.734205604E-1
2.760364264E0,-7.715228200E-1,-1.162476540E0,-4.581489265E-1
2.762377874E0,-7.403686643E-1,-1.149648428E0,-4.324925840E-1
2.764361177E0,-7.104362845E-1,-1.129489779E0,-4.098905921E-1
2.766376017E0,-6.963863969E-1,-1.119105101E0,-3.988949955E-1
2.768359397E0,-6.688974500E-1,-1.095892191E0,-3.799581826E-1
2.770373853E0,-6.414085031E-1,-1.070846796E0,-3.628539443E-1
2.772357232E0,-6.273586154E-1,-1.058018565E0,-3.579670191E-1
2.774372226E0,-6.010913849E-1,-1.028086185E0,-3.426954150E-1
2.776356298E0,-5.717698932E-1,-9.975429177E-1,-3.316998184E-1
2.778369523E0,-5.626068711E-1,-9.828822017E-1,-3.274237812E-1
2.780352287E0,-5.351179838E-1,-9.480628371E-1,-3.182607889E-1
2.782366358E0,-5.241223574E-1,-9.334021211E-1,-3.133738637E-1
2.784350353E0,-4.984660447E-1,-8.979719281E-1,-3.036000133E-1
2.786364578E0,-4.728097022E-1,-8.607091308E-1,-2.919935882E-1
2.788378650E0,-4.593706727E-1,-8.411614299E-1,-2.864958048E-1
2.790362951E0,-4.331034720E-1,-7.990117669E-1,-2.736676335E-1
2.792376793E0,-4.068362415E-1,-7.525860071E-1,-2.620611787E-1
2.794360480E0,-3.927863538E-1,-7.324274182E-1,-2.553416789E-1
2.796375935E0,-3.689626157E-1,-6.860016584E-1,-2.406809032E-1
2.798357777E0,-3.420845270E-1,-6.401867867E-1,-2.241875380E-1
2.800372771E0,-3.292563558E-1,-6.169738770E-1,-2.156354338E-1
2.802355919E0,-3.054326177E-1,-5.736024380E-1,-1.954768747E-1
2.804370375E0,-2.822197378E-1,-5.253441334E-1,-1.759291887E-1
2.806353370E0,-2.700024247E-1,-5.064072609E-1,-1.643227488E-1
2.808367902E0,-2.474004179E-1,-4.624249935E-1,-1.417207420E-1
2.810351590E0,-2.254092693E-1,-4.239404798E-1,-1.166752651E-1
2.812365968E0,-2.113593817E-1,-4.037819207E-1,-1.044579595E-1
2.814379886E0,-1.936442852E-1,-3.665191531E-1,-8.063421398E-2
2.816364804E0,-1.802052408E-1,-3.481931984E-1,-6.658431143E-2
2.818378260E0,-1.637118906E-1,-3.182607889E-1,-4.459316283E-2
2.820360716E0,-1.447750628E-1,-2.907718420E-1,-2.504547499E-2
2.822376172E0,-1.337794960E-1,-2.767219543E-1,-1.527163107E-2
2.824359474E0,-1.209513173E-1,-2.516764700E-1,6.108652451E-4
2.826372469E0,-1.050688252E-1,-2.315179259E-1,1.588249579E-2
2.828357079E0,-9.896016866E-2,-2.211332172E-1,2.321287990E-2
2.830370919E0,-8.613199741E-2,-2.046398520E-1,3.115412779E-2
2.832354837E0,-7.269296050E-2,-1.918116808E-1,3.726277873E-2
2.834368755E0,-6.780604273E-2,-1.875356287E-1,3.970624134E-2
2.836353980E0,-5.864306539E-2,-1.795943826E-1,4.337143153E-2
2.838366897E0,-4.581489414E-2,-1.704314053E-1,4.581489414E-2
2.840350892E0,-4.214970022E-2,-1.692096740E-1,4.581489414E-2
2.842364733E0,-3.237585723E-2,-1.624901593E-1,4.642575979E-2
2.844378497E0,-2.565634064E-2,-1.582140923E-1,4.581489414E-2
2.846362260E0,-1.954768784E-2,-1.569923609E-1,4.459316283E-2
2.848376101E0,-1.343903504E-2,-1.527163088E-1,4.520402849E-2
2.850360326E0,-9.773843922E-3,-1.496619880E-1,4.459316283E-2
2.852373936E0,-3.665191587E-3,-1.466076523E-1,4.703662544E-2
2.854357623E0,1.221730490E-3,-1.429424733E-1,4.764748737E-2
2.856372695E0,5.497787148E-3,-1.423316002E-1,4.948008433E-2
2.858355767E0,8.552113548E-3,-1.356120855E-1,4.948008433E-2
2.860369914E0,1.466076635E-2,-1.319468915E-1,5.131268129E-2
2.862352063E0,1.343903504E-2,-1.288925707E-1,5.314527452E-2
2.864367134E0,1.710422710E-2,-1.264491081E-1,5.558873713E-2
2.866351052E0,1.893682219E-2,-1.233947799E-1,5.803219974E-2
2.868364892E0,1.954768784E-2,-1.215621829E-1,6.047565863E-2
2.870379734E0,1.893682219E-2,-1.178969890E-1,6.230825558E-2
2.872363035E0,1.954768784E-2,-1.123992056E-1,6.352998316E-2
2.874377184E0,1.893682219E-2,-1.111774743E-1,6.352998316E-2
2.876361255E0,1.893682219E-2,-1.032362282E-1,6.352998316E-2
2.878375327E0,1.649336144E-2,-9.590584040E-2,6.475171447E-2
2.880359629E0,1.710422710E-2,-9.346238524E-2,6.230825558E-2
2.882372547E0,1.099557430E-2,-8.368854225E-2,6.291911751E-2
2.884356310E0,1.221730467E-2,-8.185594529E-2,6.169738993E-2
2.886370690E0,6.108652335E-3,-7.086037099E-2,5.864306539E-2
2.888354376E0,4.276056774E-3,-5.986479297E-2,5.681046844E-2
2.890368294E0,1.832595794E-3,-5.681046844E-2,5.436700583E-2
2.892352827E0,-4.886921961E-3,-4.703662544E-2,5.009094998E-2
2.894366360E0,-7.330383174E-3,-3.909537569E-2,5.009094998E-2
2.896350047E0,-1.160643995E-2,-3.298672289E-2,4.886921868E-2
2.898364503E0,-1.282817032E-2,-2.382374369E-2,4.581489414E-2
2.900377729E0,-1.771509275E-2,-1.588249579E-2,4.642575979E-2
2.902362723E0,-2.138028294E-2,-1.099557430E-2,4.398229718E-2
2.904376871E0,-2.321287990E-2,-3.054326167E-3,4.153883830E-2
2.906358635E0,-2.871066704E-2,5.497787148E-3,4.398229718E-2
2.908374014E0,-3.176499158E-2,1.343903504E-2,4.092797264E-2
2.910356854E0,-3.665191308E-2,2.321287990E-2,4.031710699E-2
2.912371311E0,-3.787364438E-2,2.932153270E-2,3.970624134E-2
2.914355228E0,-4.092797264E-2,4.031710699E-2,4.276056588E-2
2.916370300E0,-4.703662544E-2,5.070181563E-2,4.459316283E-2
2.918353371E0,-4.948008433E-2,5.925392732E-2,4.337143153E-2
2.920367827E0,-5.253441259E-2,7.086037099E-2,4.581489414E-2
2.922350899E0,-5.436700583E-2,8.491026610E-2,5.070181563E-2
2.924364740E0,-5.558873713E-2,9.224065393E-2,5.314527452E-2
2.926379273E0,-5.619960278E-2,1.044579595E-1,5.803219974E-2
2.928362575E0,-6.047565863E-2,1.197295859E-1,6.047565863E-2
2.930376800E0,-6.230825558E-2,1.258382350E-1,6.475171447E-2
2.932360102E0,-6.352998316E-2,1.423316002E-1,7.024950534E-2
2.934374251E0,-6.841690838E-2,1.527163088E-1,7.391469181E-2
2.936359245E0,-6.841690838E-2,1.594358236E-1,7.635815442E-2
2.938373317E0,-7.269296050E-2,1.710422635E-1,8.246681094E-2
2.940355849E0,-7.757988572E-2,1.844813079E-1,8.491026610E-2
2.942369614E0,-7.880161703E-2,1.887573600E-1,8.918632567E-2
2.944353608E0,-8.429940045E-2,2.003637999E-1,9.529497474E-2
2.946367833E0,-8.491026610E-2,2.076941878E-1,9.712757170E-2
2.948351443E0,-8.613199741E-2,2.168571651E-1,9.896016866E-2
2.950366207E0,-9.346238524E-2,2.235766798E-1,1.001819000E-1
2.952349279E0,-9.529497474E-2,2.290744632E-1,1.026253626E-1
2.954363735E0,-9.834930301E-2,2.382374406E-1,1.069014147E-1
2.956379113E0,-1.014036313E-1,2.449569702E-1,1.123992056E-1
2.958361262E0,-1.020144969E-1,2.480112910E-1,1.136209369E-1
2.960376334E0,-1.038470939E-1,2.571742535E-1,1.172861308E-1
2.962359097E0,-1.075122803E-1,2.626720667E-1,1.227839142E-1
2.964374246E0,-1.062905490E-1,2.663372457E-1,1.252273768E-1
2.966356394E0,-1.105666086E-1,2.736676335E-1,1.331686229E-1
2.968371081E0,-1.142318025E-1,2.748893499E-1,1.423316002E-1
2.970355152E0,-1.142318025E-1,2.761110961E-1,1.441642046E-1
2.972368301E0,-1.154535338E-1,2.773328125E-1,1.533271819E-1
2.974352680E0,-1.130100712E-1,2.791654170E-1,1.606575549E-1
2.976368367E0,-1.148426682E-1,2.791654170E-1,1.655444801E-1
2.978350822E0,-1.191187203E-1,2.779437006E-1,1.734857261E-1
2.980364279E0,-1.191187203E-1,2.736676335E-1,1.789835095E-1
2.982379427E0,-1.221730486E-1,2.724458873E-1,1.850921661E-1
2.984362730E0,-1.233947799E-1,2.638937831E-1,1.936442852E-1
2.986375724E0,-1.270599663E-1,2.583959997E-1,1.954768747E-1
2.988360872E0,-1.295034289E-1,2.474004179E-1,1.991420686E-1
2.990374790E0,-1.343903542E-1,2.345722616E-1,2.009746730E-1
2.992358169E0,-1.356120855E-1,2.278527319E-1,2.028072625E-1
2.994372318E0,-1.386664063E-1,2.131919712E-1,2.046398520E-1
2.996356235E0,-1.417207420E-1,1.979203373E-1,2.040289938E-1
2.998369538E0,-1.417207420E-1,1.924225539E-1,2.076941878E-1
3.000354763E0,-1.453859210E-1,1.777617931E-1,2.046398520E-1
3.002368527E0,-1.453859210E-1,1.618792862E-1,2.052507252E-1
3.004351367E0,-1.472185254E-1,1.545489132E-1,2.052507252E-1
3.006365208E0,-1.490511149E-1,1.404990107E-1,2.052507252E-1
3.008379894E0,-1.508837193E-1,1.252273768E-1,2.064724565E-1
3.010362428E0,-1.527163088E-1,1.221730486E-1,2.070833147E-1
3.012377422E0,-1.521054506E-1,1.075122803E-1,2.089159191E-1
3.014361109E0,-1.527163088E-1,1.044579595E-1,2.083050460E-1
3.016376488E0,-1.557706445E-1,9.285151958E-2,2.070833147E-1
3.018360483E0,-1.551597714E-1,8.491026610E-2,2.076941878E-1
3.020371632E0,-1.557706445E-1,8.063421398E-2,2.131919712E-1
3.022356856E0,-1.557706445E-1,7.269296050E-2,2.156354338E-1
3.024371313E0,-1.545489132E-1,6.902777404E-2,2.180788964E-1
3.026354307E0,-1.539380401E-1,6.597344577E-2,2.186897546E-1
3.028368533E0,-1.539380401E-1,6.291911751E-2,2.199114859E-1
3.030352450E0,-1.533271819E-1,5.925392732E-2,2.272418737E-1
3.032366599E0,-1.502728462E-1,5.803219974E-2,2.284636050E-1
3.034349131E0,-1.484402567E-1,5.742133409E-2,2.284636050E-1
3.036364742E0,-1.453859210E-1,5.803219974E-2,2.333505303E-1
3.038378659E0,-1.435533315E-1,5.681046844E-2,2.345722616E-1
3.040362269E0,-1.392772794E-1,6.047565863E-2,2.425135076E-1
3.042376186E0,-1.343903542E-1,6.352998316E-2,2.443460971E-1
3.044359796E0,-1.325577646E-1,6.597344577E-2,2.486221492E-1
3.046373637E0,-1.276708394E-1,6.963863969E-2,2.522873580E-1
3.048357016E0,-1.258382350E-1,7.330382615E-2,2.535090744E-1
3.050372395E0,-1.203404516E-1,7.819075137E-2,2.577851415E-1
3.052355851E0,-1.142318025E-1,8.613199741E-2,2.590068579E-1
3.054369693E0,-1.130100712E-1,8.674286306E-2,2.626720667E-1
3.056353302E0,-1.099557430E-1,9.773843735E-2,2.657263875E-1
3.058367835E0,-1.001819000E-1,1.056796908E-1,2.669481039E-1
3.060351137E0,-9.834930301E-2,1.075122803E-1,2.681698501E-1
3.062366209E0,-9.285151958E-2,1.172861308E-1,2.675589919E-1
3.064349280E0,-8.735372871E-2,1.270599663E-1,2.669481039E-1
3.066362275E0,-8.368854225E-2,1.301143020E-1,2.693915665E-1
3.068376731E0,-7.941248268E-2,1.374446750E-1,2.681698501E-1
3.070360956E0,-7.391469181E-2,1.435533315E-1,2.669481039E-1
3.072374796E0,-7.208210230E-2,1.472185254E-1,2.663372457E-1
3.074358253E0,-6.902777404E-2,1.527163088E-1,2.626720667E-1
3.076373324E0,-6.658431143E-2,1.563815027E-1,2.626720667E-1
3.078356088E0,-6.536258012E-2,1.624901593E-1,2.577851415E-1
3.080371159E0,-5.986479297E-2,1.685988009E-1,2.522873580E-1
3.082354462E0,-5.803219974E-2,1.716531366E-1,2.516764700E-1
3.084368072E0,-5.864306539E-2,1.765400618E-1,2.449569702E-1
3.086351374E0,-5.803219974E-2,1.814269722E-1,2.443460971E-1
3.088365292E0,-5.681046844E-2,1.838704348E-1,2.412917763E-1
3.090350209E0,-5.742133409E-2,1.838704348E-1,2.376265824E-1
3.092363973E0,-5.497787148E-2,1.857030392E-1,2.357939780E-1
3.094377813E0,-5.436700583E-2,1.875356287E-1,2.339613885E-1
3.096362732E0,-5.558873713E-2,1.887573600E-1,2.321287990E-1
3.098375341E0,-5.314527452E-2,1.857030392E-1,2.309070677E-1
3.100358721E0,-5.497787148E-2,1.850921661E-1,2.290744632E-1
3.102372638E0,-5.497787148E-2,1.789835095E-1,2.235766798E-1
3.104357171E0,-5.375614017E-2,1.777617931E-1,2.241875380E-1
3.106370473E0,-5.558873713E-2,1.722639948E-1,2.193006277E-1
3.108354391E0,-5.864306539E-2,1.643227488E-1,2.168571651E-1
3.110369462E0,-5.986479297E-2,1.576032341E-1,2.162462920E-1
3.112352918E0,-6.230825558E-2,1.441642046E-1,2.107485086E-1
3.114366990E0,-6.475171447E-2,1.288925707E-1,2.034181207E-1
3.116351600E0,-6.536258012E-2,1.209513173E-1,2.003637999E-1
3.118364902E0,-6.719517708E-2,1.026253626E-1,1.918116808E-1
3.120378973E0,-7.024950534E-2,8.552113175E-2,1.820378453E-1
3.122362737E0,-6.841690838E-2,7.635815442E-2,1.789835095E-1
3.124376578E0,-7.513642311E-2,5.803219974E-2,1.710422635E-1
3.126360573E0,-7.819075137E-2,4.459316283E-2,1.600466967E-1
3.128374105E0,-7.819075137E-2,3.115412779E-2,1.569923609E-1
3.130358100E0,-7.880161703E-2,1.404990070E-2,1.478293836E-1
3.132372248E0,-8.063421398E-2,-1.221730490E-3,1.417207420E-1
3.134355935E0,-8.246681094E-2,-8.552113548E-3,1.398881376E-1
3.136371622E0,-8.613199741E-2,-2.015855350E-2,1.307251602E-1
3.138353694E0,-8.674286306E-2,-2.932153270E-2,1.233947799E-1
3.140367303E0,-8.796459436E-2,-3.481931984E-2,1.221730486E-1
3.142353067E0,-8.857546002E-2,-4.642575979E-2,1.191187203E-1
3.144366292E0,-8.613199741E-2,-5.070181563E-2,1.148426682E-1
3.146348748E0,-8.796459436E-2,-5.925392732E-2,1.093448773E-1
3.148363205E0,-8.857546002E-2,-6.780604273E-2,1.020144969E-1
3.150378045E0,-8.674286306E-2,-7.452555746E-2,1.001819000E-1
3.152360809E0,-9.040805697E-2,-8.002334833E-2,9.224065393E-2
3.154374880E0,-8.979719132E-2,-8.857546002E-2,8.552113175E-2
3.156359491E0,-8.918632567E-2,-9.040805697E-2,8.185594529E-2
3.158373331E0,-9.040805697E-2,-9.773843735E-2,7.330382615E-2
3.160357095E0,-9.040805697E-2,-1.001819000E-1,6.475171447E-2
3.162371166E0,-9.040805697E-2,-1.026253626E-1,5.986479297E-2
3.164354007E0,-9.224065393E-2,-1.093448773E-1,5.192354694E-2
3.166369386E0,-8.979719132E-2,-1.087340117E-1,4.276056588E-2
3.168352458E0,-9.040805697E-2,-1.111774743E-1,3.604105115E-2
3.170366913E0,-8.918632567E-2,-1.093448773E-1,2.993239649E-2
3.172349370E0,-9.101892263E-2,-1.087340117E-1,2.565634064E-2
3.174364056E0,-8.979719132E-2,-1.075122803E-1,1.832595654E-2
3.176379436E0,-8.735372871E-2,-1.007927656E-1,1.099557430E-2
3.178362277E0,-8.857546002E-2,-1.007927656E-1,8.552113548E-3
3.180373040E0,-8.979719132E-2,-9.346238524E-2,6.108652451E-4
3.182359112E0,-8.491026610E-2,-8.735372871E-2,-4.886921961E-3
3.184373260E0,-8.307767659E-2,-8.429940045E-2,-6.108652335E-3
3.186357870E0,-8.491026610E-2,-7.269296050E-2,-1.221730467E-2
3.188371480E0,-8.429940045E-2,-6.536258012E-2,-1.466076635E-2
3.190356013E0,-8.185594529E-2,-6.475171447E-2,-1.710422710E-2
3.192369930E0,-8.124507964E-2,-5.192354694E-2,-2.443460934E-2
3.194353618E0,-7.819075137E-2,-4.031710699E-2,-2.626720630E-2
3.196367458E0,-7.574728876E-2,-3.665191308E-2,-3.176499158E-2
3.198351068E0,-7.086037099E-2,-2.626720630E-2,-3.359758854E-2
3.200365293E0,-7.024950534E-2,-1.649336144E-2,-3.726277873E-2
3.202348596E0,-7.024950534E-2,-1.160643995E-2,-3.848451003E-2
3.204363051E0,-6.414084882E-2,0.000000000E0,-4.092797264E-2
3.206376969E0,-6.352998316E-2,4.886921961E-3,-4.214970022E-2
3.208360579E0,-6.047565863E-2,1.466076635E-2,-4.459316283E-2
3.210375420E0,-5.497787148E-2,2.199114859E-2,-4.581489414E-2
3.212358107E0,-5.436700583E-2,2.626720630E-2,-4.825835302E-2
3.214372332E0,-5.009094998E-2,3.481931984E-2,-4.764748737E-2
3.216357173E0,-4.581489414E-2,4.337143153E-2,-5.253441259E-2
3.218370167E0,-4.398229718E-2,4.642575979E-2,-5.314527452E-2
3.220353239E0,-3.909537569E-2,5.070181563E-2,-5.375614017E-2
3.222369233E0,-3.604105115E-2,5.131268129E-2,-5.497787148E-2
3.224353151E0,-3.604105115E-2,5.253441259E-2,-5.864306539E-2
3.226365145E0,-3.176499158E-2,5.314527452E-2,-6.047565863E-2
3.228349140E0,-2.932153270E-2,5.009094998E-2,-6.658431143E-2
3.230363673E0,-2.871066704E-2,4.642575979E-2,-6.352998316E-2
3.232377514E0,-2.504547499E-2,4.031710699E-2,-7.086037099E-2
3.234362123E0,-2.138028294E-2,3.481931984E-2,-7.574728876E-2
3.236377195E0,-2.076941915E-2,3.176499158E-2,-7.391469181E-2
3.238359651E0,-1.649336144E-2,2.443460934E-2,-7.819075137E-2
3.240374107E0,-1.588249579E-2,2.015855350E-2,-7.696902007E-2
3.242358025E0,-1.099557430E-2,1.466076635E-2,-7.757988572E-2
3.244371942E0,-8.552113548E-3,5.497787148E-3,-7.513642311E-2
3.246355245E0,-7.330383174E-3,1.832595794E-3,-7.757988572E-2
3.248369700E0,-6.108652335E-3,-6.108652335E-3,-7.269296050E-2
3.250353080E0,-1.221730490E-3,-1.588249579E-2,-7.086037099E-2
3.252367536E0,-1.221730490E-3,-2.138028294E-2,-6.963863969E-2
3.254351531E0,0.000000000E0,-3.115412779E-2,-6.597344577E-2
3.256365986E0,0.000000000E0,-3.970624134E-2,-6.108652428E-2
3.258348212E0,1.832595794E-3,-4.642575979E-2,-5.803219974E-2
3.260361744E0,5.497787148E-3,-5.436700583E-2,-5.314527452E-2
3.262376201E0,4.886921961E-3,-6.230825558E-2,-4.703662544E-2
3.264361118E0,6.719517522E-3,-6.536258012E-2,-4.337143153E-2
3.266374575E0,8.552113548E-3,-7.330382615E-2,-3.909537569E-2
3.268358953E0,8.552113548E-3,-7.757988572E-2,-3.298672289E-2
3.270372179E0,7.330383174E-3,-8.063421398E-2,-2.932153270E-2
3.272355251E0,7.941247895E-3,-8.491026610E-2,-2.260201424E-2
3.274370014E0,1.038470957E-2,-8.674286306E-2,-1.710422710E-2
3.276354317E0,8.552113548E-3,-9.040805697E-2,-1.404990070E-2
3.278367849E0,1.221730467E-2,-9.285151958E-2,-6.719517522E-3
3.280351844E0,1.221730467E-2,-9.224065393E-2,-2.443460980E-3
3.282365684E0,1.160643995E-2,-9.101892263E-2,2.443460980E-3
3.284349295E0,1.404990070E-2,-8.979719132E-2,7.941247895E-3
3.286363443E0,1.466076635E-2,-8.979719132E-2,1.221730467E-2
3.288377976E0,1.649336144E-2,-8.613199741E-2,1.404990070E-2
3.290361970E0,1.893682219E-2,-8.307767659E-2,2.076941915E-2
3.292374888E0,1.710422710E-2,-8.429940045E-2,2.321287990E-2
3.294359421E0,2.076941915E-2,-8.063421398E-2,2.687807009E-2
3.296374185E0,2.260201424E-2,-7.391469181E-2,3.176499158E-2
3.298356102E0,2.138028294E-2,-6.963863969E-2,3.176499158E-2
3.300370251E0,2.260201424E-2,-6.597344577E-2,3.787364438E-2
3.302355168E0,2.260201424E-2,-6.108652428E-2,4.031710699E-2
3.304368932E0,2.626720630E-2,-5.436700583E-2,4.459316283E-2
3.306351773E0,2.321287990E-2,-4.337143153E-2,4.886921868E-2
3.308366537E0,2.321287990E-2,-3.909537569E-2,5.192354694E-2
3.310350532E0,2.565634064E-2,-3.115412779E-2,5.803219974E-2
3.312364987E0,2.504547499E-2,-2.015855350E-2,6.230825558E-2
3.314347751E0,2.565634064E-2,-1.649336144E-2,6.719517708E-2
3.316362745E0,2.260201424E-2,-6.719517522E-3,6.963863969E-2
3.318376664E0,2.321287990E-2,2.443460980E-3,7.452555746E-2
3.320360042E0,2.199114859E-2,6.719517522E-3,7.696902007E-2
3.322374191E0,1.954768784E-2,1.588249579E-2,8.124507964E-2
3.324357570E0,2.138028294E-2,2.321287990E-2,8.307767659E-2
3.326371642E0,2.015855350E-2,2.687807009E-2,8.307767659E-2
3.328355712E0,1.832595654E-2,3.481931984E-2,8.735372871E-2
3.330370169E0,1.710422710E-2,4.337143153E-2,8.918632567E-2
3.332353471E0,1.649336144E-2,4.764748737E-2,8.735372871E-2
3.334367389E0,1.527163107E-2,5.681046844E-2,9.101892263E-2
3.336351922E0,1.527163107E-2,6.230825558E-2,9.224065393E-2
3.338365762E0,1.343903504E-2,7.208210230E-2,9.285151958E-2
3.340347911E0,1.221730467E-2,8.246681094E-2,9.651670605E-2
3.342362367E0,1.343903504E-2,8.491026610E-2,9.712757170E-2
3.344378131E0,1.221730467E-2,9.468411654E-2,1.020144969E-1
3.346360587E0,1.282817032E-2,1.020144969E-1,1.007927656E-1
3.348375351E0,1.221730467E-2,1.056796908E-1,1.026253626E-1
3.350358960E0,1.038470957E-2,1.142318025E-1,1.069014147E-1
3.352372878E0,9.773843922E-3,1.215621829E-1,1.069014147E-1
3.354356488E0,1.038470957E-2,1.240056455E-1,1.117883399E-1
3.356370637E0,7.941247895E-3,1.307251602E-1,1.142318025E-1
3.358354400E0,6.719517522E-3,1.343903542E-1,1.154535338E-1
3.360369395E0,6.108652335E-3,1.368338168E-1,1.172861308E-1
3.362352158E0,7.941247895E-3,1.362229437E-1,1.203404516E-1
3.364365999E0,8.552113548E-3,1.374446750E-1,1.227839142E-1
3.366349456E0,9.773843922E-3,1.398881376E-1,1.240056455E-1
3.368363834E0,7.941247895E-3,1.386664063E-1,1.270599663E-1
3.370378598E0,7.941247895E-3,1.404990107E-1,1.276708394E-1
3.372361669E0,9.162978269E-3,1.380555481E-1,1.307251602E-1
3.374375895E0,7.941247895E-3,1.325577646E-1,1.374446750E-1
3.376361120E0,8.552113548E-3,1.319468915E-1,1.368338168E-1
3.378373423E0,8.552113548E-3,1.264491081E-1,1.417207420E-1
3.380356801E0,1.038470957E-2,1.227839142E-1,1.441642046E-1
3.382372489E0,1.221730467E-2,1.160643995E-1,1.404990107E-1
3.384355560E0,9.773843922E-3,1.130100712E-1,1.453859210E-1
3.386368708E0,1.160643995E-2,1.069014147E-1,1.466076523E-1
3.388352779E0,1.038470957E-2,1.026253626E-1,1.484402567E-1
3.390366928E0,1.160643995E-2,9.468411654E-2,1.490511149E-1
3.392351153E0,1.160643995E-2,8.613199741E-2,1.490511149E-1
3.394364686E0,1.221730467E-2,8.552113175E-2,1.502728462E-1
3.396349373E0,1.343903504E-2,7.819075137E-2,1.514945775E-1
3.398362829E0,1.099557430E-2,7.269296050E-2,1.533271819E-1
3.400376669E0,1.221730467E-2,6.902777404E-2,1.527163088E-1
3.402360434E0,1.160643995E-2,6.475171447E-2,1.508837193E-1
3.404374813E0,1.466076635E-2,6.230825558E-2,1.514945775E-1
3.406358884E0,1.099557430E-2,5.619960278E-2,1.527163088E-1
3.408372725E0,1.282817032E-2,5.436700583E-2,1.521054506E-1
3.410356027E0,1.099557430E-2,5.192354694E-2,1.551597714E-1
3.412370484E0,1.527163107E-2,4.886921868E-2,1.527163088E-1
3.414353939E0,1.221730467E-2,4.825835302E-2,1.502728462E-1
3.416369011E0,1.404990070E-2,4.703662544E-2,1.502728462E-1
3.418351159E0,1.404990070E-2,4.764748737E-2,1.484402567E-1
3.420364692E0,1.404990070E-2,4.703662544E-2,1.459967941E-1
3.422348994E0,1.649336144E-2,4.703662544E-2,1.466076523E-1
3.424363451E0,1.343903504E-2,5.070181563E-2,1.429424733E-1
3.426377291E0,1.160643995E-2,5.436700583E-2,1.392772794E-1
3.428361209E0,1.282817032E-2,5.619960278E-2,1.380555481E-1
3.430376280E0,9.773843922E-3,6.169738993E-2,1.356120855E-1
3.432359429E0,9.773843922E-3,6.414084882E-2,1.343903542E-1
3.434373501E0,9.162978269E-3,6.902777404E-2,1.319468915E-1
3.436357264E0,6.108652335E-3,7.330382615E-2,1.276708394E-1
3.438371028E0,4.886921961E-3,7.391469181E-2,1.252273768E-1
3.440356253E0,4.276056774E-3,7.819075137E-2,1.197295859E-1
3.442368325E0,2.443460980E-3,8.185594529E-2,1.172861308E-1
3.444353165E0,2.443460980E-3,8.368854225E-2,1.136209369E-1
3.446366698E0,0.000000000E0,8.735372871E-2,1.093448773E-1
3.448350385E0,-2.443460980E-3,8.979719132E-2,1.075122803E-1
3.450364611E0,-1.832595794E-3,9.040805697E-2,1.026253626E-1
3.452348220E0,-6.108652451E-4,9.162978828E-2,9.834930301E-2
3.454362369E0,0.000000000E0,9.040805697E-2,9.651670605E-2
3.456377517E0,-1.221730490E-3,8.857546002E-2,9.285151958E-2
3.458359973E0,-1.832595794E-3,8.857546002E-2,8.735372871E-2
3.460373506E0,-3.665191587E-3,8.613199741E-2,8.185594529E-2
3.462357808E0,-3.665191587E-3,8.674286306E-2,8.002334833E-2
3.464372572E0,-1.832595794E-3,8.613199741E-2,7.635815442E-2
3.466355028E0,-2.443460980E-3,8.368854225E-2,7.513642311E-2
3.468370331E0,-6.108652451E-4,8.063421398E-2,6.902777404E-2
3.470353786E0,-3.054326167E-3,7.819075137E-2,6.475171447E-2
3.472367551E0,-1.221730490E-3,7.513642311E-2,6.658431143E-2
3.474351852E0,0.000000000E0,7.024950534E-2,6.108652428E-2
3.476365693E0,-4.276056774E-3,6.780604273E-2,6.047565863E-2
3.478349149E0,-2.443460980E-3,6.597344577E-2,5.742133409E-2
3.480363298E0,-3.665191587E-3,6.169738993E-2,5.681046844E-2
3.482377984E0,-3.054326167E-3,5.681046844E-2,5.619960278E-2
3.484361364E0,-4.276056774E-3,5.497787148E-2,5.619960278E-2
3.486374973E0,-3.665191587E-3,5.253441259E-2,5.375614017E-2
3.488358045E0,-2.443460980E-3,4.886921868E-2,5.131268129E-2
3.490373039E0,-3.054326167E-3,4.764748737E-2,5.009094998E-2
3.492356726E0,-1.832595794E-3,4.581489414E-2,5.314527452E-2
3.494371490E0,-4.276056774E-3,4.703662544E-2,5.131268129E-2
3.496355562E0,-3.054326167E-3,4.581489414E-2,5.192354694E-2
3.498368172E0,-3.054326167E-3,4.581489414E-2,5.192354694E-2
3.500351474E0,-4.886921961E-3,4.825835302E-2,5.314527452E-2
3.502365622E0,-2.443460980E-3,4.642575979E-2,5.375614017E-2
3.504350001E0,-2.443460980E-3,5.131268129E-2,5.681046844E-2
3.506364381E0,-1.221730490E-3,5.192354694E-2,5.742133409E-2
3.508347529E0,-5.497787148E-3,5.375614017E-2,5.619960278E-2
3.510362293E0,-3.054326167E-3,5.864306539E-2,6.047565863E-2
3.512376133E0,-3.054326167E-3,5.986479297E-2,6.169738993E-2
3.514359436E0,-2.443460980E-3,5.925392732E-2,6.108652428E-2
3.516374891E0,-1.221730490E-3,6.230825558E-2,6.169738993E-2
3.518358809E0,-3.054326167E-3,6.230825558E-2,5.986479297E-2
3.520372342E0,-3.665191587E-3,6.536258012E-2,6.291911751E-2
3.522355183E0,-2.443460980E-3,6.719517708E-2,5.986479297E-2
3.524369562E0,-1.832595794E-3,6.719517708E-2,6.108652428E-2
3.526352710E0,-3.054326167E-3,7.208210230E-2,5.864306539E-2
3.528367475E0,-2.443460980E-3,7.208210230E-2,5.986479297E-2
3.530350238E0,-2.443460980E-3,7.391469181E-2,6.108652428E-2
3.532365617E0,-3.054326167E-3,7.635815442E-2,5.803219974E-2
3.534348611E0,-3.665191587E-3,7.880161703E-2,5.619960278E-2
3.536363991E0,-3.054326167E-3,7.941248268E-2,5.619960278E-2
3.538376677E0,-5.497787148E-3,8.002334833E-2,5.253441259E-2
3.540360365E0,-7.330383174E-3,8.063421398E-2,5.070181563E-2
3.542375974E0,-8.552113548E-3,7.880161703E-2,5.009094998E-2
3.544358738E0,-7.330383174E-3,7.819075137E-2,4.948008433E-2
3.546372040E0,-9.162978269E-3,7.819075137E-2,4.764748737E-2
3.548356035E0,-9.773843922E-3,7.880161703E-2,4.520402849E-2
3.550371029E0,-9.773843922E-3,7.880161703E-2,4.459316283E-2
3.552355101E0,-9.162978269E-3,7.696902007E-2,4.337143153E-2
3.554367633E0,-9.773843922E-3,7.941248268E-2,4.581489414E-2
3.556352859E0,-1.038470957E-2,8.063421398E-2,4.398229718E-2
3.558366084E0,-1.038470957E-2,8.246681094E-2,4.337143153E-2
3.560350156E0,-1.038470957E-2,8.491026610E-2,4.520402849E-2
3.562363689E0,-7.330383174E-3,8.552113175E-2,4.459316283E-2
3.564377760E0,-8.552113548E-3,8.613199741E-2,4.703662544E-2
3.566361448E0,-7.330383174E-3,8.918632567E-2,4.948008433E-2
3.568375057E0,-5.497787148E-3,8.735372871E-2,5.009094998E-2
3.570359667E0,-6.108652335E-3,8.918632567E-2,5.009094998E-2
3.572373815E0,-4.886921961E-3,8.979719132E-2,5.131268129E-2
3.574357118E0,-4.276056774E-3,8.918632567E-2,5.436700583E-2
3.576372804E0,-3.054326167E-3,8.857546002E-2,5.375614017E-2
3.578354415E0,-2.443460980E-3,8.613199741E-2,5.497787148E-2
3.580367563E0,-1.221730490E-3,8.674286306E-2,5.681046844E-2
3.582351865E0,0.000000000E0,8.552113175E-2,5.742133409E-2
3.584367013E0,0.000000000E0,8.429940045E-2,5.803219974E-2
3.586350700E0,0.000000000E0,8.552113175E-2,5.742133409E-2
3.588364848E0,1.832595794E-3,8.368854225E-2,5.619960278E-2
3.590348766E0,3.665191587E-3,8.185594529E-2,5.619960278E-2
3.592362377E0,5.497787148E-3,8.307767659E-2,5.619960278E-2
3.594376755E0,7.330383174E-3,8.429940045E-2,5.619960278E-2
3.596361135E0,9.773843922E-3,8.613199741E-2,5.619960278E-2
3.598374052E0,1.099557430E-2,8.613199741E-2,5.803219974E-2
3.600357355E0,1.099557430E-2,8.368854225E-2,5.864306539E-2
3.602371579E0,1.221730467E-2,8.429940045E-2,6.108652428E-2
3.604355882E0,1.466076635E-2,8.491026610E-2,6.352998316E-2
3.606370030E0,1.588249579E-2,8.491026610E-2,6.414084882E-2
3.608353333E0,2.015855350E-2,8.246681094E-2,6.414084882E-2
3.610368173E0,2.076941915E-2,8.185594529E-2,6.963863969E-2
3.612351245E0,2.504547499E-2,7.819075137E-2,7.330382615E-2
3.614365316E0,2.382374369E-2,8.124507964E-2,7.391469181E-2
3.616350003E0,2.748893574E-2,7.635815442E-2,7.635815442E-2
3.618364151E0,3.054326214E-2,7.452555746E-2,7.696902007E-2
3.620346915E0,2.932153270E-2,7.208210230E-2,8.002334833E-2
3.622361678E0,3.176499158E-2,7.208210230E-2,8.002334833E-2
3.624375212E0,3.543018550E-2,6.780604273E-2,8.307767659E-2
3.626358899E0,3.543018550E-2,6.902777404E-2,8.368854225E-2
3.628373662E0,3.726277873E-2,6.719517708E-2,8.368854225E-2
3.630357580E0,3.848451003E-2,6.475171447E-2,8.491026610E-2
3.632371113E0,4.092797264E-2,6.230825558E-2,8.674286306E-2
3.634354493E0,4.153883830E-2,6.108652428E-2,8.796459436E-2
3.636369256E0,4.398229718E-2,5.925392732E-2,8.918632567E-2
3.638352405E0,4.153883830E-2,5.803219974E-2,8.918632567E-2
3.640367091E0,4.520402849E-2,5.314527452E-2,8.979719132E-2
3.642349624E0,4.520402849E-2,5.375614017E-2,9.162978828E-2
3.644364311E0,4.459316283E-2,5.131268129E-2,9.346238524E-2
3.646347998E0,4.703662544E-2,4.764748737E-2,9.468411654E-2
3.648362223E0,4.642575979E-2,4.276056588E-2,9.651670605E-2
3.650376295E0,4.703662544E-2,3.909537569E-2,9.773843735E-2
3.652360366E0,4.764748737E-2,3.420845419E-2,9.896016866E-2
3.654373284E0,4.825835302E-2,3.115412779E-2,9.834930301E-2
3.656358510E0,4.886921868E-2,2.687807009E-2,1.038470939E-1
3.658372042E0,4.764748737E-2,2.260201424E-2,1.050688252E-1
3.660354422E0,5.070181563E-2,1.710422710E-2,1.069014147E-1
3.662368954E0,4.764748737E-2,1.160643995E-2,1.123992056E-1
3.664352872E0,4.764748737E-2,6.719517522E-3,1.111774743E-1
3.666367635E0,4.825835302E-2,6.108652451E-4,1.148426682E-1
3.668350707E0,5.070181563E-2,-9.773843922E-3,1.154535338E-1
3.670365471E0,5.131268129E-2,-1.160643995E-2,1.172861308E-1
3.672348850E0,5.070181563E-2,-2.260201424E-2,1.209513173E-1
3.674362998E0,5.314527452E-2,-3.176499158E-2,1.221730486E-1
3.676377224E0,5.192354694E-2,-3.604105115E-2,1.227839142E-1
3.678360602E0,5.375614017E-2,-4.642575979E-2,1.233947799E-1
3.680375597E0,5.314527452E-2,-5.742133409E-2,1.233947799E-1
3.682358745E0,5.253441259E-2,-6.047565863E-2,1.258382350E-1
3.684372817E0,5.497787148E-2,-7.024950534E-2,1.221730486E-1
3.686355889E0,5.497787148E-2,-8.368854225E-2,1.227839142E-1
3.688370037E0,5.681046844E-2,-9.101892263E-2,1.197295859E-1
3.690354417E0,5.558873713E-2,-9.773843735E-2,1.209513173E-1
3.692368488E0,5.558873713E-2,-1.087340117E-1,1.142318025E-1
3.694351867E0,5.803219974E-2,-1.142318025E-1,1.148426682E-1
3.696366323E0,5.619960278E-2,-1.209513173E-1,1.099557430E-1
3.698350010E0,5.497787148E-2,-1.246165112E-1,1.087340117E-1
3.700363004E0,5.375614017E-2,-1.343903542E-1,1.062905490E-1
3.702377999E0,5.497787148E-2,-1.404990107E-1,1.050688252E-1
3.704361685E0,5.314527452E-2,-1.417207420E-1,1.020144969E-1
3.706375296E0,5.131268129E-2,-1.466076523E-1,1.001819000E-1
3.708359597E0,5.253441259E-2,-1.551597714E-1,9.407325089E-2
3.710373669E0,5.070181563E-2,-1.582140923E-1,9.346238524E-2
3.712357433E0,5.070181563E-2,-1.594358236E-1,9.285151958E-2
3.714371581E0,4.825835302E-2,-1.631010175E-1,8.796459436E-2
3.716355499E0,4.703662544E-2,-1.673770845E-1,8.613199741E-2
3.718368724E0,4.398229718E-2,-1.704314053E-1,8.246681094E-2
3.720353412E0,4.398229718E-2,-1.716531366E-1,7.696902007E-2
3.722367483E0,4.092797264E-2,-1.740965992E-1,7.574728876E-2
3.724350631E0,3.909537569E-2,-1.753183305E-1,7.086037099E-2
3.726364779E0,3.665191308E-2,-1.753183305E-1,6.719517708E-2
3.728348390E0,3.420845419E-2,-1.765400618E-1,6.352998316E-2
3.730362537E0,3.176499158E-2,-1.759291887E-1,5.925392732E-2
3.732376456E0,3.176499158E-2,-1.740965992E-1,5.497787148E-2
3.734360065E0,2.687807009E-2,-1.740965992E-1,5.070181563E-2
3.736374829E0,2.748893574E-2,-1.740965992E-1,4.520402849E-2
3.738358208E0,2.443460934E-2,-1.747074574E-1,4.337143153E-2
3.740372741E0,2.321287990E-2,-1.722639948E-1,3.848451003E-2
3.742354812E0,2.076941915E-2,-1.710422635E-1,3.298672289E-2
3.744370269E0,2.015855350E-2,-1.710422635E-1,3.543018550E-2
3.746353263E0,1.771509275E-2,-1.698205322E-1,2.687807009E-2
3.748367181E0,1.649336144E-2,-1.692096740E-1,2.015855350E-2
3.750351791E0,1.404990070E-2,-1.698205322E-1,1.832595654E-2
3.752365631E0,1.404990070E-2,-1.667662114E-1,1.343903504E-2
3.754349242E0,1.038470957E-2,-1.631010175E-1,1.160643995E-2
3.756364390E0,9.773843922E-3,-1.618792862E-1,9.773843922E-3
3.758346231E0,1.038470957E-2,-1.576032341E-1,8.552113548E-3
3.760361917E0,6.719517522E-3,-1.551597714E-1,4.276056774E-3
3.762375066E0,6.108652335E-3,-1.496619880E-1,1.832595794E-3
3.764358829E0,6.108652335E-3,-1.447750628E-1,-6.108652451E-4
3.766373824E0,3.054326167E-3,-1.429424733E-1,-1.832595794E-3
3.768356587E0,1.832595794E-3,-1.417207420E-1,-4.276056774E-3
3.770371429E0,1.221730490E-3,-1.362229437E-1,-7.941247895E-3
3.772354807E0,-1.221730490E-3,-1.319468915E-1,-9.162978269E-3
3.774368571E0,-3.054326167E-3,-1.325577646E-1,-1.221730467E-2
3.776353258E0,-8.552113548E-3,-1.282816976E-1,-1.649336144E-2
3.778366714E0,-1.099557430E-2,-1.282816976E-1,-1.649336144E-2
3.780349479E0,-1.282817032E-2,-1.246165112E-1,-2.260201424E-2
3.782364319E0,-1.710422710E-2,-1.221730486E-1,-2.687807009E-2
3.784348006E0,-1.954768784E-2,-1.209513173E-1,-2.871066704E-2
3.786361769E0,-2.199114859E-2,-1.197295859E-1,-3.298672289E-2
3.788376303E0,-2.626720630E-2,-1.166752651E-1,-3.970624134E-2
3.790359912E0,-2.871066704E-2,-1.130100712E-1,-4.092797264E-2
3.792374984E0,-2.932153270E-2,-1.148426682E-1,-4.581489414E-2
3.794357516E0,-3.359758854E-2,-1.130100712E-1,-4.764748737E-2
3.796372204E0,-3.543018550E-2,-1.093448773E-1,-5.070181563E-2
3.798355582E0,-3.970624134E-2,-1.050688252E-1,-5.497787148E-2
3.800370347E0,-4.092797264E-2,-1.044579595E-1,-5.436700583E-2
3.802354033E0,-4.459316283E-2,-9.957103431E-2,-6.047565863E-2
3.804367643E0,-4.886921868E-2,-9.651670605E-2,-5.925392732E-2
3.806351253E0,-5.070181563E-2,-9.346238524E-2,-6.291911751E-2
3.808364863E0,-5.497787148E-2,-8.979719132E-2,-6.169738993E-2
3.810349088E0,-5.742133409E-2,-8.368854225E-2,-6.291911751E-2
3.812363544E0,-5.986479297E-2,-8.429940045E-2,-6.291911751E-2
3.814346309E0,-5.925392732E-2,-8.063421398E-2,-6.291911751E-2
3.816361995E0,-6.169738993E-2,-7.269296050E-2,-6.414084882E-2
3.818374298E0,-6.230825558E-2,-7.147123665E-2,-6.230825558E-2
3.820358292E0,-6.352998316E-2,-6.536258012E-2,-6.352998316E-2
3.822372133E0,-6.414084882E-2,-6.108652428E-2,-6.414084882E-2
3.824355896E0,-6.291911751E-2,-5.803219974E-2,-6.352998316E-2
3.826370583E0,-6.719517708E-2,-5.253441259E-2,-6.291911751E-2
3.828354039E0,-6.536258012E-2,-4.948008433E-2,-6.352998316E-2
3.830369034E0,-6.475171447E-2,-4.703662544E-2,-6.291911751E-2
3.832352413E0,-6.658431143E-2,-4.092797264E-2,-6.414084882E-2
3.834365715E0,-6.291911751E-2,-3.909537569E-2,-6.352998316E-2
3.836351479E0,-6.291911751E-2,-3.481931984E-2,-6.475171447E-2
3.838364704E0,-6.230825558E-2,-3.298672289E-2,-6.536258012E-2
3.840348698E0,-6.414084882E-2,-2.993239649E-2,-6.658431143E-2
3.842361616E0,-6.169738993E-2,-2.382374369E-2,-6.597344577E-2
3.844376687E0,-6.047565863E-2,-2.199114859E-2,-6.658431143E-2
3.846359836E0,-5.925392732E-2,-2.138028294E-2,-6.658431143E-2
3.848373908E0,-5.681046844E-2,-1.527163107E-2,-6.658431143E-2
3.850357056E0,-5.619960278E-2,-1.221730467E-2,-6.719517708E-2
3.852371205E0,-5.619960278E-2,-1.160643995E-2,-6.719517708E-2
3.854355122E0,-5.497787148E-2,-9.773843922E-3,-6.597344577E-2
3.856369348E0,-5.314527452E-2,-6.108652335E-3,-6.536258012E-2
3.858353572E0,-5.314527452E-2,-1.832595794E-3,-6.536258012E-2
3.860366490E0,-5.192354694E-2,-6.108652335E-3,-6.414084882E-2
3.862351177E0,-5.009094998E-2,-4.276056774E-3,-6.414084882E-2
3.864365556E0,-5.253441259E-2,0.000000000E0,-6.047565863E-2
3.866348012E0,-5.314527452E-2,1.221730490E-3,-6.169738993E-2
3.868362776E0,-5.192354694E-2,6.108652451E-4,-5.864306539E-2
3.870376693E0,-4.948008433E-2,1.221730490E-3,-5.619960278E-2
3.872360688E0,-4.948008433E-2,-1.221730490E-3,-5.619960278E-2
3.874374221E0,-5.009094998E-2,-2.443460980E-3,-5.192354694E-2
3.876359139E0,-5.009094998E-2,-1.221730490E-3,-5.131268129E-2
3.878372287E0,-4.948008433E-2,-4.276056774E-3,-4.764748737E-2
3.880356359E0,-4.948008433E-2,-5.497787148E-3,-4.703662544E-2
3.882370200E0,-4.642575979E-2,-7.330383174E-3,-4.642575979E-2
3.884353501E0,-4.886921868E-2,-1.038470957E-2,-4.276056588E-2
3.886368035E0,-4.764748737E-2,-1.099557430E-2,-4.276056588E-2
3.888351029E0,-5.070181563E-2,-1.771509275E-2,-4.276056588E-2
3.890365870E0,-5.070181563E-2,-2.076941915E-2,-3.909537569E-2
3.892349787E0,-5.070181563E-2,-2.443460934E-2,-3.787364438E-2
3.894363398E0,-5.070181563E-2,-2.932153270E-2,-3.604105115E-2
3.896347699E0,-5.131268129E-2,-3.054326214E-2,-3.420845419E-2
3.898361848E0,-5.192354694E-2,-3.665191308E-2,-3.359758854E-2
3.900371611E0,-5.558873713E-2,-4.092797264E-2,-3.237585723E-2
3.902358760E0,-5.619960278E-2,-4.459316283E-2,-3.054326214E-2
3.904372908E0,-5.681046844E-2,-5.192354694E-2,-2.993239649E-2
3.906356903E0,-5.558873713E-2,-5.803219974E-2,-3.054326214E-2
3.908370359E0,-5.803219974E-2,-6.108652428E-2,-3.054326214E-2
3.910354661E0,-6.047565863E-2,-6.841690838E-2,-3.176499158E-2
3.912369502E0,-6.352998316E-2,-7.513642311E-2,-3.298672289E-2
3.914352496E0,-6.230825558E-2,-8.002334833E-2,-3.359758854E-2
3.916367261E0,-6.414084882E-2,-8.429940045E-2,-3.665191308E-2
3.918350332E0,-6.414084882E-2,-8.918632567E-2,-3.726277873E-2
3.920365096E0,-6.475171447E-2,-9.651670605E-2,-3.970624134E-2
3.922347936E0,-6.597344577E-2,-9.773843735E-2,-3.909537569E-2
3.924362316E0,-6.658431143E-2,-1.001819000E-1,-4.031710699E-2
3.926376156E0,-6.780604273E-2,-1.050688252E-1,-3.970624134E-2
3.928360151E0,-6.536258012E-2,-1.087340117E-1,-4.031710699E-2
3.930374683E0,-6.536258012E-2,-1.093448773E-1,-4.031710699E-2
3.932357448E0,-6.597344577E-2,-1.136209369E-1,-3.787364438E-2
3.934371595E0,-6.780604273E-2,-1.154535338E-1,-3.909537569E-2
3.936356437E0,-6.719517708E-2,-1.154535338E-1,-3.848451003E-2
3.938369354E0,-6.536258012E-2,-1.178969890E-1,-3.665191308E-2
3.940353041E0,-6.597344577E-2,-1.197295859E-1,-3.481931984E-2
3.942368112E0,-6.780604273E-2,-1.197295859E-1,-3.237585723E-2
3.944351261E0,-6.536258012E-2,-1.215621829E-1,-3.054326214E-2
3.946364794E0,-6.352998316E-2,-1.240056455E-1,-2.809980139E-2
3.948349327E0,-6.414084882E-2,-1.240056455E-1,-2.748893574E-2
3.950362937E0,-6.414084882E-2,-1.264491081E-1,-2.565634064E-2
3.952346316E0,-6.291911751E-2,-1.295034289E-1,-2.443460934E-2
3.954360772E0,-6.108652428E-2,-1.319468915E-1,-2.260201424E-2
3.956375766E0,-6.047565863E-2,-1.325577646E-1,-2.382374369E-2
3.958358530E0,-6.291911751E-2,-1.350012124E-1,-2.382374369E-2
3.960373986E0,-6.108652428E-2,-1.374446750E-1,-2.199114859E-2
3.962356366E0,-5.742133409E-2,-1.380555481E-1,-2.138028294E-2
3.964370590E0,-5.986479297E-2,-1.392772794E-1,-2.321287990E-2
3.966354585E0,-5.986479297E-2,-1.435533315E-1,-2.138028294E-2
3.968368656E0,-5.742133409E-2,-1.453859210E-1,-2.443460934E-2
3.970352421E0,-5.803219974E-2,-1.447750628E-1,-2.260201424E-2
3.972366799E0,-5.742133409E-2,-1.478293836E-1,-2.321287990E-2
3.974350563E0,-5.742133409E-2,-1.459967941E-1,-2.443460934E-2
