"Time (s)","Linear Acceleration x (m/s^2)","Linear Acceleration y (m/s^2)","Linear Acceleration z (m/s^2)"
2.038044200E-2,-2.002277374E-1,4.572563171E-1,-5.201344490E-1
2.837672900E-2,-3.023741245E-1,5.779519081E-1,-5.535049438E-1
3.637355300E-2,-3.084585667E-1,5.560770035E-1,-6.057543755E-1
4.436768500E-2,-3.119027615E-1,5.165944099E-1,-6.695761681E-1
5.236404700E-2,-3.393592834E-1,5.161066055E-1,-7.270364761E-1
6.035787100E-2,-4.062421322E-1,5.783700943E-1,-8.152842522E-1
6.838546500E-2,-4.876945019E-1,6.943650246E-1,-9.739036560E-1
7.638082700E-2,-5.221683979E-1,8.179278374E-1,-1.085945129E0
8.437649800E-2,-5.457260609E-1,8.797025681E-1,-1.125858307E0
9.237247700E-2,-5.253951550E-1,9.237651825E-1,-1.200327396E0
1.003675320E-1,-5.539414883E-1,9.702596664E-1,-1.270613670E0
1.083628940E-1,-5.739741325E-1,1.038310528E0,-1.309895992E0
1.163594880E-1,-5.519392490E-1,1.122857571E0,-1.325017929E0
1.243850040E-1,-4.860057831E-1,1.175473213E0,-1.512265682E0
1.323807520E-1,-4.143726826E-1,1.138138294E0,-1.581629753E0
1.403751140E-1,-2.553043365E-1,9.913544655E-1,-1.508812904E0
1.483720150E-1,-1.046493053E-1,7.949619293E-1,-1.328226089E0
1.563676870E-1,2.517700195E-2,6.389818192E-1,-1.151998520E0
1.643618950E-1,5.518984795E-2,4.610733986E-1,-9.182481766E-1
1.723581810E-1,2.893018723E-2,3.420701027E-1,-7.833776474E-1
1.803842360E-1,1.025199890E-4,2.227439880E-1,-6.253733635E-1
1.883799830E-1,2.264499664E-2,1.377434731E-1,-4.938817024E-1
1.963765770E-1,1.418097019E-1,-1.791191101E-2,-3.761849403E-1
2.043713240E-1,2.217886448E-1,-4.851913452E-2,-4.502949715E-1
2.123673020E-1,2.494738102E-1,-1.155853271E-1,-4.535279274E-1
2.203614350E-1,3.389253616E-1,-2.454004288E-1,-3.793492317E-1
2.283576440E-1,4.192147255E-1,-3.573570251E-1,-3.542699814E-1
2.363843910E-1,4.581015110E-1,-4.956479073E-1,-2.622728348E-1
2.443801380E-1,4.617068768E-1,-5.607333183E-1,-2.688536644E-1
2.523748850E-1,5.304684639E-1,-6.341142654E-1,-1.595335007E-1
2.603702480E-1,6.564579010E-1,-7.647757530E-1,-3.774404526E-2
2.683664570E-1,7.368566990E-1,-9.302892685E-1,9.981203079E-2
2.763636660E-1,7.798993587E-1,-1.098465919E0,2.767519951E-1
2.843578750E-1,7.656402588E-1,-1.227627754E0,4.679174423E-1
2.923839300E-1,6.991415024E-1,-1.250142574E0,6.079931259E-1
3.003783700E-1,6.234116554E-1,-1.183202744E0,6.194291115E-1
3.083749630E-1,5.278100967E-1,-1.119646072E0,5.442600250E-1
3.163709410E-1,3.859977722E-1,-1.061179638E0,4.943623543E-1
3.243657650E-1,3.139209747E-1,-1.039030552E0,4.331936836E-1
3.323613590E-1,2.574448586E-1,-1.039051056E0,3.876008987E-1
3.403564150E-1,1.956441402E-1,-1.022670746E0,3.708801270E-1
3.483826240E-1,9.096193314E-2,-9.947171211E-1,3.144989014E-1
3.563791400E-1,4.854917526E-3,-9.860835075E-1,3.030185699E-1
3.643745030E-1,-1.229357719E-2,-9.412689209E-1,3.776764870E-1
3.723701730E-1,8.380484581E-2,-9.006605148E-1,3.849849701E-1
3.803652280E-1,1.667413712E-1,-8.141989708E-1,3.268103600E-1
3.883605910E-1,2.976512909E-1,-7.345967293E-1,3.603754044E-1
3.963563380E-1,4.129037857E-1,-6.383967400E-1,1.875114441E-1
4.043833930E-1,5.118212700E-1,-5.466537476E-1,9.748077393E-2
4.123786790E-1,5.643017292E-1,-5.000472069E-1,4.171752930E-2
4.203737340E-1,4.781129360E-1,-4.744882584E-1,-6.740570068E-3
4.283697890E-1,3.187723160E-1,-4.407768250E-1,-1.125512123E-1
4.363663060E-1,1.449673176E-1,-4.008359909E-1,-2.041730881E-1
4.443608220E-1,-4.505038261E-2,-3.250818253E-1,-2.785372734E-1
4.523570310E-1,-1.906685829E-1,-2.773175240E-1,-3.015365601E-1
4.603795480E-1,-2.868747711E-1,-2.665691376E-1,-2.845768929E-1
4.683776030E-1,-3.696196079E-1,-2.372407913E-1,-3.298435211E-1
4.763745050E-1,-4.720590115E-1,-2.198181152E-1,-3.337330818E-1
4.843687130E-1,-5.252003670E-1,-2.235417366E-1,-3.480701447E-1
4.923649220E-1,-5.984532833E-1,-2.274985313E-1,-4.030566216E-1
5.003597460E-1,-6.397376060E-1,-2.174024582E-1,-4.288420677E-1
5.083867240E-1,-6.327993870E-1,-2.435832024E-1,-4.824805260E-1
5.163836260E-1,-6.522195339E-1,-2.435808182E-1,-6.302738190E-1
5.243780650E-1,-7.006492615E-1,-2.402982712E-1,-7.954587936E-1
5.323728890E-1,-7.337539196E-1,-2.475876808E-1,-9.134352207E-1
5.403687910E-1,-7.032370567E-1,-2.367558479E-1,-1.022750616E0
5.483638460E-1,-6.803228855E-1,-1.886200905E-1,-1.085381031E0
5.563610550E-1,-6.716718674E-1,-1.869673729E-1,-1.149487495E0
5.643860330E-1,-6.882634163E-1,-2.028431892E-1,-1.174692869E0
5.723813960E-1,-7.103655338E-1,-1.764097214E-1,-1.170961142E0
5.803766810E-1,-7.166981697E-1,-1.651706696E-1,-1.226567507E0
5.883732750E-1,-7.627539635E-1,-1.335034370E-1,-1.185839653E0
5.963687150E-1,-8.135783672E-1,-9.139728546E-2,-1.146625519E0
6.043636930E-1,-8.815453053E-1,-8.241844177E-2,-1.166699409E0
6.123594410E-1,-9.506180286E-1,-8.258819580E-2,-1.187604189E0
6.203851880E-1,-9.604713917E-1,-1.110334396E-1,-1.116123915E0
6.283811660E-1,-9.684193134E-1,-9.634304047E-2,-1.017640352E0
6.363777590E-1,-8.878395557E-1,-1.033353806E-1,-1.041226149E0
6.443728140E-1,-7.302818298E-1,-9.833812714E-2,-1.038378477E0
6.523676380E-1,-6.051316261E-1,-8.616065979E-2,-9.379787445E-1
6.603636170E-1,-4.351694584E-1,-5.288696289E-2,-9.954679012E-1
6.683592110E-1,-2.842929363E-1,-4.369258881E-2,-1.052969694E0
6.763860350E-1,-1.535449028E-1,-1.763153076E-2,-9.990565777E-1
6.843813210E-1,-4.639482498E-2,-2.480506897E-2,-9.092893600E-1
6.923764530E-1,7.397937775E-2,-3.420162201E-2,-7.159497738E-1
7.003720460E-1,1.755685806E-1,-3.454589844E-2,-5.494124889E-1
7.083680240E-1,2.184123993E-1,-7.767295837E-2,-4.338669777E-1
7.163640790E-1,3.047466278E-1,-1.231813431E-1,-3.147981167E-1
7.243584430E-1,3.630807400E-1,-2.059679031E-1,-2.380816936E-1
7.323848820E-1,4.142451286E-1,-2.248916626E-1,-1.940548420E-1
7.403799370E-1,4.128992558E-1,-1.684379578E-1,-1.403560638E-1
7.483766070E-1,4.024043083E-1,-9.721183777E-2,-9.084939957E-2
7.563722780E-1,3.953723907E-1,-1.630783081E-4,-1.029682159E-2
7.643670250E-1,4.196805954E-1,7.656097412E-2,7.125926018E-2
7.723623880E-1,4.475467205E-1,1.066808701E-1,1.832571030E-1
7.803577500E-1,5.681669712E-1,9.894084930E-2,2.829909325E-1
7.883841900E-1,6.740200520E-1,4.158782959E-2,3.131740093E-1
7.963800920E-1,7.590112686E-1,-8.376121521E-2,3.368957043E-1
8.043754550E-1,7.998661995E-1,-1.594762802E-1,3.492991924E-1
8.123712020E-1,7.786884308E-1,-2.542543411E-1,3.342418671E-1
8.203664880E-1,7.438402176E-1,-2.601051331E-1,3.038334846E-1
8.283630810E-1,6.660819054E-1,-2.394533157E-1,2.630271912E-1
8.363590590E-1,6.098449230E-1,-1.923131943E-1,2.097411156E-1
8.443839600E-1,5.457718372E-1,-1.691923141E-1,1.680822372E-1
8.523790920E-1,4.563975334E-1,-1.080045700E-1,1.314234734E-1
8.603744560E-1,4.078722000E-1,-8.319664001E-2,7.875943184E-2
8.683709720E-1,3.211064339E-1,-1.087884903E-1,-2.672910690E-2
8.763670270E-1,2.376859188E-1,-2.033767700E-1,-1.076197624E-1
8.843620820E-1,1.537151337E-1,-3.472909927E-1,-1.536819935E-1
8.923574450E-1,7.333374023E-2,-5.206146240E-1,-1.884300709E-1
9.003831920E-1,3.318810463E-2,-6.322660446E-1,-1.717021465E-1
9.083791700E-1,5.250906944E-2,-7.015886307E-1,-1.591532230E-1
9.163757640E-1,5.654716492E-2,-7.075042725E-1,-9.650683403E-2
9.243705880E-1,1.061918736E-1,-6.268043518E-1,-5.625319481E-2
9.323656430E-1,1.333134174E-1,-5.700759888E-1,-4.322004318E-2
9.403606210E-1,1.480579376E-1,-5.381231308E-1,2.105212212E-2
9.483569840E-1,1.257262230E-1,-5.024719238E-1,-2.308130264E-3
9.563842700E-1,8.244085312E-2,-5.062808990E-1,-6.727480888E-2
9.643787860E-1,-1.975154877E-2,-5.085439682E-1,-1.253483295E-1
9.723747640E-1,-1.642780304E-1,-4.995813370E-1,-2.262058258E-1
9.803688200E-1,-2.435960770E-1,-5.222864151E-1,-3.401232958E-1
9.883664140E-1,-3.318526745E-1,-4.732522964E-1,-5.252000093E-1
9.963620070E-1,-4.078764915E-1,-4.527778625E-1,-6.242747307E-1
1.004357062E0,-3.950798512E-1,-4.030590057E-1,-6.837000847E-1
1.012383194E0,-3.532509804E-1,-3.788423538E-1,-7.667382956E-1
1.020377633E0,-2.986829281E-1,-3.423032761E-1,-7.467185259E-1
1.028373919E0,-2.221786976E-1,-3.009834290E-1,-7.323100567E-1
1.036369897E0,-1.290540695E-1,-2.767972946E-1,-7.052291632E-1
1.044365645E0,-2.666497231E-2,-2.317667007E-1,-6.476006508E-1
1.052360085E0,1.778674126E-2,-1.996469498E-1,-6.010317802E-1
1.060355755E0,1.168267727E-1,-1.735811234E-1,-4.858458042E-1
1.068382733E0,1.411333084E-1,-1.609010696E-1,-4.226385355E-1
1.076379019E0,1.484014988E-1,-1.423158646E-1,-4.615553617E-1
1.084373535E0,1.246924400E-1,-1.415643692E-1,-4.419506788E-1
1.092368821E0,8.012652397E-2,-1.252164841E-1,-3.604828119E-1
1.100364876E0,1.313519478E-2,-9.781837463E-2,-3.346662521E-1
1.108360547E0,-2.180814743E-2,-7.354164124E-2,-4.105336666E-1
1.116357372E0,-8.164572716E-2,-5.445003510E-2,-4.290822744E-1
1.124381427E0,-1.181681156E-1,2.764701843E-3,-4.470651150E-1
1.132377943E0,-1.384036541E-1,3.107929230E-2,-4.335211515E-1
1.140372998E0,-1.013321877E-1,3.289222717E-2,-3.961281776E-1
1.148369591E0,-6.650400162E-2,2.249050140E-2,-3.359200954E-1
1.156364415E0,1.961469650E-3,2.599525452E-2,-2.327431440E-1
1.164360701E0,8.705592155E-2,4.556083679E-2,-1.309615374E-1
1.172355680E0,8.375477791E-2,8.842658997E-2,-5.489945412E-2
1.180380889E0,9.709382057E-2,1.522521973E-1,1.003623009E-3
1.188377482E0,7.648992538E-2,2.179565430E-1,2.565705776E-2
1.196373537E0,9.927034378E-3,2.401666641E-1,3.904664516E-2
1.204368208E0,-4.028511047E-2,2.429714203E-1,4.439747334E-2
1.212364186E0,-8.111333847E-2,2.265491486E-1,5.688977242E-2
1.220359241E0,-8.107089996E-2,1.359786987E-1,5.767941475E-2
1.228355296E0,-7.107257843E-2,1.053857803E-1,1.162006855E-1
1.236382582E0,-1.027417183E-2,6.995105743E-2,3.290596008E-1
1.244376791E0,9.634423256E-2,2.693557739E-2,3.685843945E-1
1.252373308E0,2.024147511E-1,4.057312012E-2,4.106441736E-1
1.260367516E0,2.543754578E-1,6.745815277E-2,4.379366636E-1
1.268362879E0,2.682895660E-1,6.903076172E-2,4.739484787E-1
1.276359395E0,2.399182320E-1,5.051517487E-2,4.059194326E-1
1.284354758E0,1.827628613E-1,-2.083778381E-2,3.250035048E-1
1.292381275E0,1.718719006E-1,-9.417057037E-2,2.480225563E-1
1.300375638E0,1.500778198E-1,-1.716051102E-1,1.691086292E-1
1.308371385E0,1.195406914E-1,-1.837472916E-1,1.075063944E-1
1.316368210E0,1.300852299E-1,-2.433061600E-1,9.150683880E-2
1.324363342E0,1.213846207E-1,-2.667264938E-1,9.873449802E-2
1.332358935E0,1.649518013E-1,-2.852888107E-1,9.041965008E-2
1.340353682E0,2.216644287E-1,-2.825183868E-1,9.719491005E-2
1.348381045E0,2.482674122E-1,-2.584972382E-1,7.570612431E-2
1.356376715E0,2.569208145E-1,-2.371101379E-1,4.515790939E-2
1.364371848E0,2.690567970E-1,-2.160434723E-1,5.306935310E-2
1.372366595E0,2.683529854E-1,-1.784381866E-1,2.754092216E-2
1.380362189E0,2.262816429E-1,-1.553554535E-1,1.891636848E-2
1.388358244E0,1.838216782E-1,-1.347236633E-1,-2.288877964E-2
1.396354760E0,1.224277020E-1,-1.331052780E-1,-3.781330585E-2
1.404379661E0,5.891227722E-2,-1.217451096E-1,-6.166708469E-2
1.412376255E0,3.185033798E-3,-8.618068695E-2,-8.482813835E-2
1.420371002E0,-1.618146896E-2,-4.558467865E-2,-8.320486546E-2
1.428366365E0,-1.354312897E-2,-2.633762360E-2,-5.470538139E-2
1.436363267E0,-1.775717735E-2,2.393722534E-4,-1.263531446E-1
1.444358398E0,3.550648689E-2,3.409481049E-2,-2.117016315E-1
1.452353453E0,1.701974869E-2,5.847930908E-2,-1.073018312E-1
1.460378970E0,4.164695740E-2,6.136703491E-2,-2.228139639E-1
1.468375486E0,1.859354973E-2,6.440639496E-2,-2.059253454E-1
1.476372387E0,3.876614571E-2,1.058263779E-1,-1.815736294E-1
1.484366596E0,1.865291595E-2,1.234149933E-1,-1.571608782E-1
1.492362498E0,2.759671211E-2,1.769437790E-1,-1.020148993E-1
1.500357015E0,3.204751015E-2,1.682233810E-1,-1.503442526E-1
1.508383685E0,4.621529579E-2,1.714839935E-1,-1.365910769E-1
1.516380048E0,1.980853081E-2,1.364107132E-1,-9.211659431E-2
1.524374795E0,3.262519836E-3,6.785297394E-2,-1.149392128E-1
1.532370158E0,-1.738643646E-2,4.146575928E-3,-6.972193718E-3
1.540365520E0,-6.204128265E-3,-1.162624359E-2,3.777182102E-2
1.548361729E0,1.475930214E-2,3.952884674E-2,6.456041336E-2
1.556357785E0,-2.416372299E-3,1.169767380E-1,4.761815071E-2
1.564383301E0,-7.194828987E-2,1.106519699E-1,9.248363972E-2
1.572379279E0,-1.095404625E-1,3.976631165E-2,1.004594564E-1
1.580374334E0,-2.107400894E-1,1.215934753E-2,8.379590511E-2
1.588370005E0,-3.509719372E-1,-7.874488831E-3,1.170306206E-1
1.596366521E0,-4.241654873E-1,2.771949768E-2,1.281868219E-1
1.604361576E0,-4.159660339E-1,1.628875732E-3,1.724246740E-1
1.612356631E0,-3.753187656E-1,2.850723267E-2,2.068225145E-1
1.620382456E0,-3.531262875E-1,-1.896858215E-3,1.790291071E-1
1.628378819E0,-3.189606667E-1,-3.618240356E-3,2.013268471E-1
1.636375105E0,-2.712056637E-1,-1.756572723E-2,1.898158789E-1
1.644369237E0,-1.869747639E-1,-3.225326538E-3,1.403321028E-1
1.652365215E0,-1.196470261E-1,2.969551086E-2,1.082849503E-1
1.660359577E0,-4.511046410E-2,9.318161011E-2,1.364642382E-1
1.668355863E0,-8.189916611E-3,1.012220383E-1,9.805989265E-2
1.676383226E0,-8.030414581E-3,9.949302673E-2,4.307579994E-2
1.684377435E0,-1.012539864E-2,4.509353638E-2,2.615916729E-2
1.692373336E0,-9.176969528E-3,5.142211914E-3,1.343703270E-2
1.700368468E0,2.157211304E-3,-3.469276428E-2,2.640986443E-2
1.708365600E0,4.474163055E-3,-5.295658112E-2,3.373920918E-2
1.716361655E0,-1.456737518E-2,-9.043502808E-2,6.185293198E-2
1.724355787E0,-5.033636093E-2,-8.967971802E-2,4.150986671E-2
1.732381842E0,-6.741333008E-2,-8.907604218E-2,2.095806599E-2
1.740377205E0,-9.454512596E-2,-6.224632263E-2,4.928112030E-4
1.748373568E0,-7.691931725E-2,-7.390403748E-2,8.805871010E-3
1.756369777E0,-8.179688454E-2,-5.944347382E-2,7.746100426E-3
1.764364216E0,-1.136670113E-1,-5.231475830E-2,-7.572412491E-3
1.772360502E0,-1.506736279E-1,-6.441974640E-2,-2.760982513E-2
1.780355557E0,-1.521124840E-1,-3.824710846E-2,-1.022983789E-1
1.788381689E0,-1.939926147E-1,-3.825664520E-2,-9.974753857E-2
1.796378052E0,-2.614552975E-1,-4.039955139E-2,-6.555128098E-2
1.804372799E0,-2.892646790E-1,-5.173206329E-2,-7.409524918E-2
1.812367855E0,-2.372312546E-1,-6.040668488E-2,-5.829620361E-2
1.820363448E0,-1.994607449E-1,-5.708408356E-2,-2.572071552E-2
1.828359503E0,-1.624205112E-1,-3.479480743E-2,-7.532119751E-3
1.836355789E0,-1.359806061E-1,-4.148292542E-2,1.790094376E-2
1.844381305E0,-1.510324478E-1,-4.352188110E-2,-1.130461693E-2
1.852377283E0,-1.357450485E-1,-3.609561920E-2,-5.430734158E-2
1.860372338E0,-1.139245033E-1,-2.873992920E-2,-7.271337509E-2
1.868368009E0,-1.424138546E-1,9.769439697E-3,-8.368480206E-2
1.876364295E0,-1.302127838E-1,4.345893860E-2,-4.457557201E-2
1.884359658E0,-5.154848099E-2,4.818439484E-2,-1.329088211E-2
1.892354713E0,4.475021362E-2,-2.614021301E-3,-8.911013603E-3
1.900380537E0,1.100301743E-1,-2.771472931E-2,1.654601097E-2
1.908376438E0,6.792807579E-2,-2.465724945E-2,2.480363846E-2
1.916373032E0,4.081583023E-2,-5.321788788E-2,4.711306095E-2
1.924368163E0,4.068017006E-2,-7.749557495E-2,8.098673820E-2
1.932362526E0,4.571437836E-2,-9.518909454E-2,1.981319189E-1
1.940358582E0,1.391687393E-1,-1.423578262E-1,3.051571846E-1
1.948354791E0,2.601532936E-1,-2.384490967E-1,3.780021667E-1
1.956380692E0,3.520965576E-1,-3.048448563E-1,4.240735769E-1
1.964375439E0,4.926643372E-1,-3.706140518E-1,4.341087341E-1
1.972371725E0,6.664214134E-1,-4.432697296E-1,4.777098894E-1
1.980366703E0,8.489570618E-1,-5.093326569E-1,5.404437780E-1
1.988362066E0,1.119981289E0,-6.604080200E-1,5.242611170E-1
1.996359582E0,1.480932713E0,-8.991813660E-1,3.062527180E-1
2.004354407E0,1.998612881E0,-1.063228607E0,2.935299873E-1
2.012379924E0,2.544857740E0,-1.218764305E0,1.566576958E-1
2.020375594E0,2.837996721E0,-1.356475830E0,2.102981806E-1
2.028370957E0,2.963038445E0,-1.564360619E0,4.813964367E-1
2.036367473E0,2.856256723E0,-1.826111794E0,8.606833220E-1
2.044361990E0,2.772262573E0,-2.202105522E0,1.063964844E0
2.052357660E0,2.729194641E0,-2.457693100E0,1.053511262E0
2.060353024E0,2.785927773E0,-2.641457558E0,1.087415338E0
2.068380079E0,2.946897030E0,-2.737257004E0,8.440326452E-1
2.076376057E0,3.188684464E0,-2.758505821E0,5.042406321E-1
2.084370419E0,3.598087788E0,-2.667606354E0,1.320493221E-2
2.092366474E0,4.157596111E0,-2.527330399E0,-4.246914387E-1
2.100361529E0,4.543960571E0,-2.462334633E0,-6.102998853E-1
2.108357738E0,4.884028912E0,-2.368277550E0,-6.268921494E-1
2.116354408E0,4.945069790E0,-2.345730782E0,-5.301045775E-1
2.124378617E0,4.799180984E0,-2.317345619E0,-3.581926823E-1
2.132374904E0,4.495441914E0,-2.354893208E0,-2.160340548E-1
2.140369728E0,4.067800045E0,-2.436750889E0,-5.251228809E-2
2.148366244E0,3.495528698E0,-2.559449196E0,1.866354942E-1
2.156362530E0,3.025482655E0,-2.746263981E0,2.433545589E-1
2.164356354E0,2.701342583E0,-2.878353119E0,1.470973492E-1
2.172353563E0,2.564611435E0,-3.002094746E0,-2.013206482E-2
2.180378772E0,2.580829620E0,-3.024836540E0,-4.560554028E-2
2.188374519E0,2.620054245E0,-2.952363968E0,-1.703560352E-1
2.196371113E0,2.539890289E0,-2.904368877E0,-2.167301178E-1
2.204365476E0,2.481472015E0,-2.839630127E0,-3.111970425E-1
2.212361762E0,2.424745083E0,-2.844787598E0,-3.798872232E-1
2.220355971E0,2.390698910E0,-2.782579899E0,-2.680406570E-1
2.228352179E0,2.238887787E0,-2.748925209E0,-9.469020367E-2
2.236379311E0,1.961325645E0,-2.599126816E0,1.127481461E-2
2.244374058E0,1.585713387E0,-2.454165936E0,1.004880667E-1
2.252369652E0,1.319202423E0,-2.401419163E0,1.966799498E-1
2.260365092E0,1.300935745E0,-2.304140091E0,2.341039181E-1
2.268360994E0,1.333542824E0,-2.298490286E0,1.916886568E-1
2.276356741E0,1.288509369E0,-2.231959581E0,1.448292732E-1
2.284351796E0,1.151005745E0,-2.172354460E0,1.443183422E-2
2.292378466E0,1.024421692E0,-2.254974127E0,1.854969263E-1
2.300372983E0,9.307880402E-1,-2.347258091E0,2.225093842E-1
2.308368961E0,9.037876129E-1,-2.532945156E0,3.798264265E-1
2.316365554E0,8.790092468E-1,-2.701527834E0,4.549328089E-1
2.324360225E0,9.163379669E-1,-2.825664997E0,5.631968379E-1
2.332355896E0,1.098187447E0,-2.950953007E0,5.757231116E-1
2.340351335E0,1.336055756E0,-3.023644924E0,6.345114112E-1
2.348377775E0,1.424449921E0,-3.099194050E0,4.818962216E-1
2.356373445E0,1.287467957E0,-2.986117601E0,3.043782711E-2
2.364369038E0,1.203614235E0,-2.910652876E0,-3.249292970E-1
2.372365093E0,1.290832520E0,-2.856085539E0,-6.965011358E-1
2.380359226E0,1.460840225E0,-2.902828455E0,-8.239058256E-1
2.388355820E0,1.508117676E0,-3.038156509E0,-1.002085686E0
2.396352028E0,1.349074364E0,-3.100578547E0,-8.950707912E-1
2.404377622E0,1.172993660E0,-3.237418175E0,-9.935697317E-1
2.412372292E0,9.606418610E-1,-3.265130520E0,-8.039906025E-1
2.420368270E0,8.983850479E-1,-3.237339973E0,-9.060977697E-1
2.428364556E0,8.616905212E-1,-3.216715336E0,-8.362619877E-1
2.436359611E0,8.404893875E-1,-3.167204618E0,-8.751777411E-1
2.444355359E0,8.597908020E-1,-3.226356268E0,-8.755781651E-1
2.452350414E0,7.484035492E-1,-3.335950375E0,-6.930179000E-1
2.460375931E0,4.528732300E-1,-3.416949272E0,-6.838561296E-1
2.468372755E0,6.757450104E-2,-3.399550200E0,-6.633470058E-1
2.476369656E0,-5.376558304E-1,-3.338107109E0,-6.237006187E-1
2.484363788E0,-1.032184601E0,-3.370369673E0,-6.902321577E-1
2.492358920E0,-1.591199398E0,-3.361001968E0,-6.531278491E-1
2.500354513E0,-2.026722908E0,-3.427708864E0,-6.659709811E-1
2.508381337E0,-2.434667587E0,-3.472912788E0,-6.930278540E-1
2.516377239E0,-2.656186104E0,-3.502970934E0,-6.605559587E-1
2.524372294E0,-2.675927639E0,-3.553528309E0,-6.650614142E-1
2.532367118E0,-2.712670326E0,-3.553412676E0,-3.640455008E-1
2.540362481E0,-2.910467625E0,-3.592504978E0,-4.583883286E-2
2.548358690E0,-3.408622503E0,-3.540439367E0,3.074645996E-2
2.556355668E0,-3.698589087E0,-3.488408566E0,-9.988486767E-2
2.564380261E0,-3.838886738E0,-3.446475029E0,-1.349503398E-1
2.572375855E0,-3.855314016E0,-3.316500664E0,-1.392626762E-2
2.580371218E0,-3.851898670E0,-3.307412148E0,1.180553436E-2
2.588366658E0,-3.910856485E0,-3.338546753E0,-2.925240993E-2
2.596363559E0,-3.893591404E0,-3.449052811E0,-1.574567556E-1
2.604358537E0,-3.780698299E0,-3.641298294E0,-3.258645535E-1
2.612354207E0,-3.658678055E0,-3.806282043E0,-3.972433805E-1
2.620379416E0,-3.559039116E0,-3.875849247E0,-3.504974842E-1
2.628375779E0,-3.503996134E0,-3.925114632E0,-3.857382536E-1
2.636372680E0,-3.333946943E0,-3.983644009E0,-2.552398443E-1
2.644367659E0,-3.175198078E0,-3.973865986E0,3.920364380E-2
2.652362406E0,-2.965380192E0,-3.932808399E0,1.056816578E-1
2.660357461E0,-2.689872742E0,-3.856545448E0,2.146053314E-1
2.668353747E0,-2.468532324E0,-3.709913731E0,3.592793941E-1
2.676380571E0,-2.351496458E0,-3.486379623E0,3.911466599E-1
2.684375549E0,-2.096047401E0,-3.143256187E0,1.910772324E-1
2.692370911E0,-1.770668507E0,-2.874768734E0,1.619126797E-1
2.700367814E0,-1.568105459E0,-2.621765614E0,2.505803108E-1
2.708362022E0,-1.528257132E0,-2.516629219E0,2.634959221E-1
2.716358308E0,-1.367908001E0,-2.524053097E0,1.961948872E-1
2.724352671E0,-8.554229736E-1,-2.592090607E0,7.672429085E-2
2.732379418E0,-4.020400047E-1,-2.537033081E0,3.201115131E-1
2.740374550E0,-6.100382805E-1,-2.438597202E0,8.147957325E-1
2.748370836E0,-1.267119408E0,-2.239036083E0,1.079723358E0
2.756367121E0,-1.676996231E0,-2.011965752E0,1.311931610E0
2.764361177E0,-1.445907831E0,-1.767145634E0,1.586913109E0
2.772357232E0,-9.317035675E-1,-1.613350391E0,1.689951181E0
2.780352287E0,-4.235436916E-1,-1.520130157E0,1.724716187E0
2.788378650E0,-7.311749458E-2,-1.506964684E0,1.704619646E0
2.796375935E0,8.634519577E-2,-1.466045380E0,1.669803858E0
2.804370375E0,-5.317187309E-2,-1.344383717E0,1.655626059E0
2.812365968E0,-3.134386539E-1,-1.160429478E0,1.558762312E0
2.820360716E0,-4.873218536E-1,-9.209027290E-1,1.460705996E0
2.828357079E0,-4.096605778E-1,-7.287931442E-1,1.340080023E0
2.836353980E0,-1.032772064E-1,-5.797553062E-1,1.290157557E0
2.844378497E0,1.272757053E-1,-4.295330048E-1,1.207990885E0
2.852373936E0,2.702498436E-1,-3.264513016E-1,1.109706163E0
2.860369914E0,3.697264194E-1,-2.279672623E-1,9.821033478E-1
2.868364892E0,4.436321259E-1,-2.286052704E-1,8.181555271E-1
2.876361255E0,5.148470402E-1,-1.787328720E-1,5.555334091E-1
2.884356310E0,5.787827969E-1,-1.035680771E-1,3.315162659E-1
2.892352827E0,6.593945026E-1,1.765727997E-2,1.600425243E-1
2.900377729E0,6.472473145E-1,1.747026443E-1,8.023142815E-2
2.908374014E0,5.102987289E-1,3.566093445E-1,3.146100044E-2
2.916370300E0,3.039793968E-1,5.137758255E-1,2.662897110E-2
2.924364740E0,8.146572113E-2,5.651502609E-1,6.958270073E-2
2.932360102E0,-1.421058178E-1,5.336275101E-1,6.590151787E-2
2.940355849E0,-2.406771183E-1,4.323949814E-1,3.674221039E-2
2.948351443E0,-2.377336025E-1,3.065109253E-1,-4.198479652E-2
2.956379113E0,-2.389919758E-1,1.877584457E-1,-8.763337135E-2
2.964374246E0,-3.233137131E-1,1.552524567E-1,-1.173582077E-1
2.972368301E0,-4.679629803E-1,2.035322189E-1,-8.296751976E-2
2.980364279E0,-5.570614338E-1,2.550392151E-1,-8.385157585E-2
2.988360872E0,-5.119738579E-1,2.592601776E-1,-1.214818954E-1
2.996356235E0,-4.580864906E-1,2.402639389E-1,-1.186249256E-1
3.004351367E0,-4.696526527E-1,1.787900925E-1,-1.324617863E-1
3.012377422E0,-4.968731403E-1,7.525539398E-2,-1.419036388E-1
3.020371632E0,-4.771859646E-1,1.723957062E-2,-1.359975338E-1
3.028368533E0,-4.122440815E-1,-1.091489792E-1,-1.489152908E-1
3.036364742E0,-3.576841354E-1,-1.788702011E-1,-1.118943691E-1
3.044359796E0,-3.795850277E-1,-1.564531326E-1,-7.759356499E-2
3.052355851E0,-3.567228317E-1,-3.109169006E-2,-1.263334751E-1
3.060351137E0,-3.308846951E-1,9.820079803E-2,-1.521804333E-1
3.068376731E0,-2.561876774E-1,2.092752457E-1,-2.212200165E-1
3.076373324E0,-1.998023987E-1,3.186016083E-1,-3.087313175E-1
3.084368072E0,-1.975169182E-1,3.351764679E-1,-3.740708828E-1
3.092363973E0,-2.867827415E-1,3.428230286E-1,-3.774280548E-1
3.100358721E0,-3.912451267E-1,2.822685242E-1,-3.413634300E-1
3.108354391E0,-4.136106968E-1,1.828613281E-1,-3.430008888E-1
3.116351600E0,-3.365447521E-1,4.329586029E-2,-3.183500767E-1
3.124376578E0,-2.730956078E-1,-5.957603455E-2,-2.650499344E-1
3.132372248E0,-3.087980747E-1,-9.935188293E-2,-1.815254688E-1
3.140367303E0,-3.121030331E-1,-1.143407822E-1,-1.849675179E-1
3.148363205E0,-1.748435497E-1,-1.632137299E-1,-1.827867031E-1
3.156359491E0,4.084348679E-3,-2.601490021E-1,-2.177925110E-1
3.164354007E0,1.967270374E-1,-3.312702179E-1,-2.325143814E-1
3.172349370E0,3.282248974E-1,-3.965616226E-1,-2.195963860E-1
3.180373040E0,4.737129211E-1,-4.351687431E-1,-2.166783810E-1
3.188371480E0,6.227989197E-1,-4.088740349E-1,-1.868102551E-1
3.196367458E0,6.990792751E-1,-3.670887947E-1,-1.250107288E-1
3.204363051E0,6.804347038E-1,-2.950983047E-1,-6.737422943E-2
3.212358107E0,5.966601372E-1,-2.097616196E-1,-7.524013519E-3
3.220353239E0,5.259804726E-1,-1.500110626E-1,6.502628326E-3
3.228349140E0,4.648337364E-1,-1.066045761E-1,9.395241737E-2
3.236377195E0,3.432443142E-1,-1.209602356E-1,1.492071152E-1
3.244371942E0,1.610555649E-1,-1.341934204E-1,2.032930851E-1
3.252367536E0,2.567124367E-2,-1.297941208E-1,1.972136497E-1
3.260361744E0,-9.979271889E-2,-1.673345566E-1,2.079136372E-1
3.268358953E0,-1.426990032E-1,-1.362352371E-1,2.024765015E-1
3.276354317E0,-9.714579582E-2,-1.123056412E-1,2.210931778E-1
3.284349295E0,1.204133034E-2,-1.093454361E-1,2.250776291E-1
3.292374888E0,1.175789833E-1,-1.270542145E-1,2.235937119E-1
3.300370251E0,1.503305435E-1,-1.367454529E-1,2.308030128E-1
3.308366537E0,1.823778152E-1,-1.385917664E-1,1.774101257E-1
3.316362745E0,2.374963760E-1,-1.444787979E-1,1.328394413E-1
3.324357570E0,3.461446762E-1,-1.682863235E-1,1.158576012E-1
3.332353471E0,3.979046345E-1,-2.193861008E-1,1.239302158E-1
3.340347911E0,3.812670708E-1,-2.403469086E-1,1.686463356E-1
3.348375351E0,3.471839428E-1,-2.101373672E-1,1.547229290E-1
3.356370637E0,2.588319778E-1,-1.537332535E-1,1.547634602E-1
3.364365999E0,1.719088554E-1,-1.074457169E-1,1.713678837E-1
3.372361669E0,6.296682358E-2,-4.801559448E-2,1.672048569E-1
3.380356801E0,-5.395603180E-2,-1.366043091E-2,1.950612068E-1
3.388352779E0,-1.149606705E-1,-3.529930115E-2,1.738400459E-1
3.396349373E0,-1.493494511E-1,-7.183837891E-2,1.607246399E-1
3.404374813E0,-1.167852879E-1,-1.277542114E-1,1.458370686E-1
3.412370484E0,8.796930313E-3,-1.312227249E-1,7.917332649E-2
3.420364692E0,1.792936325E-1,-1.610169411E-1,7.298398018E-2
3.428361209E0,2.658717632E-1,-8.563518524E-2,1.944661140E-2
3.436357264E0,3.574259281E-1,-3.182601929E-2,8.895158768E-3
3.444353165E0,3.442728519E-1,2.665042877E-2,3.865981102E-2
3.452348220E0,3.128962517E-1,7.282733917E-2,4.903602600E-2
3.460373506E0,2.299633026E-1,8.485221863E-2,7.158708572E-2
3.468370331E0,1.246123314E-1,1.032180786E-1,8.478498459E-2
3.476365693E0,2.788639069E-2,1.397209167E-1,5.317091942E-2
3.484361364E0,-4.402542114E-2,1.516342163E-1,3.161001205E-2
3.492356726E0,-9.152412415E-2,1.965913773E-1,2.494096756E-2
3.500351474E0,-1.557435989E-1,2.174930573E-1,4.116058350E-3
3.508347529E0,-1.981263161E-1,2.214775085E-1,-3.822231293E-2
3.516374891E0,-1.967558861E-1,1.844434738E-1,-8.057522774E-2
3.524369562E0,-1.802043915E-1,1.348943710E-1,-1.226241589E-1
3.532365617E0,-1.366338730E-1,5.366039276E-2,-2.144711018E-1
3.540360365E0,-4.970979691E-2,-4.215908051E-2,-2.295014858E-1
3.548356035E0,-5.360746384E-2,-6.627559662E-2,-2.061307430E-1
3.556352859E0,-1.003823280E-1,-4.741668701E-2,-1.587877274E-1
3.564377760E0,-1.587448120E-1,-1.189327240E-2,-1.068594456E-1
3.572373815E0,-2.265028954E-1,-3.616809845E-2,-5.045795441E-2
3.580367563E0,-2.606432438E-1,-8.193302155E-2,-3.498029709E-2
3.588364848E0,-2.782564163E-1,-1.969013214E-1,-3.411626816E-2
3.596361135E0,-3.126850128E-1,-3.212728500E-1,-1.201057434E-2
3.604355882E0,-3.924469948E-1,-3.977060318E-1,-4.552364349E-3
3.612351245E0,-3.647105694E-1,-3.877639771E-1,2.670741081E-2
3.620346915E0,-3.495049477E-1,-4.134755135E-1,6.278991699E-2
3.628373662E0,-3.228940964E-1,-4.126410484E-1,1.522684097E-2
3.636369256E0,-3.277981281E-1,-4.093456268E-1,-5.732774734E-3
3.644364311E0,-2.878243923E-1,-3.628764153E-1,-4.776144028E-2
3.652360366E0,-3.226213455E-1,-3.139662743E-1,-7.015609741E-2
3.660354422E0,-3.244721889E-1,-2.316155434E-1,-1.013596058E-1
3.668350707E0,-3.055982590E-1,-1.659784317E-1,-9.348464012E-2
3.676377224E0,-2.161581516E-1,-1.147017479E-1,-9.147477150E-2
3.684372817E0,-8.759069443E-2,3.672599792E-3,-9.031748772E-2
3.692368488E0,5.852890015E-2,1.052484512E-1,-5.384922028E-2
3.700363004E0,1.151747704E-1,2.089633942E-1,-4.938650131E-2
3.708359597E0,1.783819199E-1,3.245210648E-1,-3.255844116E-3
3.716355499E0,2.079029083E-1,3.393831253E-1,6.254887581E-2
3.724350631E0,2.349915504E-1,3.566846848E-1,1.139674187E-1
3.732376456E0,2.504315376E-1,3.190193176E-1,1.935920715E-1
3.740372741E0,2.236671448E-1,2.621316910E-1,2.748258114E-1
3.748367181E0,1.836962700E-1,2.434768677E-1,3.645641804E-1
3.756364390E0,1.285390854E-1,2.940826416E-1,4.098775387E-1
3.764358829E0,5.818653107E-2,3.638458252E-1,4.558811188E-1
3.772354807E0,5.889701843E-2,4.119815826E-1,4.499940872E-1
3.780349479E0,9.198474884E-2,4.337844849E-1,4.403352737E-1
3.788376303E0,7.378339767E-2,4.793500900E-1,4.080026150E-1
3.796372204E0,6.412124634E-2,4.720077515E-1,4.034285545E-1
3.804367643E0,7.171630859E-4,4.788169861E-1,3.763294220E-1
3.812363544E0,-3.276729584E-2,4.354095459E-1,3.908982277E-1
3.820358292E0,-3.915262222E-2,3.443021774E-1,3.851025105E-1
3.828354039E0,-3.053426743E-2,2.605495453E-1,3.638916016E-1
3.836351479E0,-7.872533798E-2,1.243066788E-1,3.464019299E-1
3.844376687E0,-6.891393661E-2,2.607345581E-3,3.207888603E-1
3.852371205E0,-1.041541100E-1,-4.478263855E-2,2.777926922E-1
3.860366490E0,-1.319704056E-1,-4.905414581E-2,2.201669216E-1
3.868362776E0,-1.551914215E-1,-7.727336884E-2,1.388587952E-1
3.876359139E0,-1.956019402E-1,-7.681369781E-2,7.252073288E-2
3.884353501E0,-2.033090591E-1,-8.603763580E-2,1.168251038E-4
3.892349787E0,-1.905303001E-1,-8.817863464E-2,-6.135964394E-2
3.900371611E0,-2.101211548E-1,-8.567237854E-2,-1.667065620E-1
3.908370359E0,-1.164636612E-1,-7.828330994E-2,-2.369787693E-1
3.916367261E0,-2.912187576E-2,-1.042628288E-1,-2.628788948E-1
3.924362316E0,-1.200675964E-2,-1.182866096E-1,-2.687556744E-1
3.932357448E0,-3.612089157E-2,-1.538887024E-1,-2.620532513E-1
3.940353041E0,-7.274174690E-2,-1.847090721E-1,-2.715349197E-1
3.948349327E0,-5.738925934E-2,-1.747641563E-1,-2.756338120E-1
3.956375766E0,-2.127599716E-2,-1.671438217E-1,-2.479360104E-1
3.964370590E0,2.141785622E-2,-1.427745819E-1,-2.243723869E-1
3.972366799E0,-8.055686951E-3,-1.471691132E-1,-1.979806423E-1
3.980360701E0,5.340576172E-3,-1.156926155E-1,-1.736574173E-1
3.988357295E0,-1.043367386E-2,-1.319684982E-1,-1.467473507E-1
3.996353811E0,1.900100708E-2,-1.456394196E-1,-1.223795414E-1
4.004348328E0,2.191162109E-2,-2.141280174E-1,-9.354829788E-2
4.012374690E0,7.476806641E-4,-2.512488365E-1,-5.790257454E-2
4.020369745E0,-2.554559708E-2,-2.618751526E-1,-8.208322525E-2
4.028366339E0,-3.303337097E-2,-1.958289146E-1,-1.299498081E-1
4.036362086E0,4.256772995E-2,-8.902883530E-2,-1.699883938E-1
4.044357065E0,8.157444000E-2,1.069641113E-2,-1.927595139E-1
4.052352812E0,1.394681931E-1,1.032333374E-1,-1.433889866E-1
4.060347559E0,1.948270798E-1,1.024990082E-1,-1.108305454E-1
4.068374537E0,2.311420441E-1,2.763652802E-2,-6.420588493E-2
4.076370515E0,2.531800270E-1,-6.845092773E-2,-2.073931694E-2
4.084365878E0,2.367601395E-1,-1.401343346E-1,-9.211778641E-3
4.092360702E0,1.631989479E-1,-1.827526093E-1,3.957700729E-2
4.100356374E0,1.065173149E-1,-2.034320831E-1,6.347322464E-2
4.108351736E0,5.468511581E-2,-1.687912941E-1,9.635782242E-2
4.116348945E0,1.465129852E-2,-1.267886162E-1,6.920123100E-2
4.124373231E0,1.103863716E-1,-1.108140945E-1,3.020000458E-2
4.132370132E0,1.645536423E-1,-6.106710434E-2,3.471231461E-2
4.140365187E0,1.728801727E-1,-1.366424561E-2,6.002664566E-3
4.148360780E0,1.953477859E-1,7.210254669E-2,1.096153259E-2
4.156357681E0,2.080020905E-1,8.866596222E-2,2.768754959E-2
4.164351506E0,2.586293221E-1,1.151113510E-1,4.416108131E-2
4.172348177E0,2.992014885E-1,7.261180878E-2,4.818320274E-2
4.180373309E0,2.870731354E-1,2.804279327E-2,5.876374245E-2
4.188369594E0,2.773218155E-1,-1.622581482E-2,7.355093956E-2
4.196365880E0,2.441082001E-1,3.042411804E-2,8.557629585E-2
4.204360012E0,1.759309769E-1,9.599304199E-2,1.210215092E-1
4.212355374E0,1.113672256E-1,2.089986801E-1,1.177806854E-1
4.220350429E0,8.123397827E-2,2.401742935E-1,1.120574474E-1
4.228346485E0,8.292484283E-2,2.231745720E-1,8.942651749E-2
4.236374079E0,9.254312515E-2,2.010617256E-1,5.948853493E-2
4.244369441E0,7.657766342E-2,1.666626930E-1,6.530451775E-2
4.252364573E0,7.333707809E-2,1.056942940E-1,6.120085716E-2
4.260359321E0,8.504533768E-2,8.773660660E-2,9.016513824E-2
4.268355606E0,5.426979065E-2,7.210588455E-2,9.704995155E-2
4.276351584E0,6.013727188E-2,9.930801392E-2,8.692455292E-2
4.284346562E0,1.163482666E-2,1.381139755E-1,1.007428169E-1
4.292373079E0,-6.972217560E-2,1.502394676E-1,1.001906395E-1
4.300363827E0,-1.457934380E-1,9.022426605E-2,7.341384888E-2
4.308363420E0,-1.902675629E-1,5.618810654E-2,6.602001190E-2
4.316359706E0,-2.129621506E-1,2.666997910E-2,4.456853867E-2
4.324355453E0,-1.757569313E-1,3.289794922E-2,3.060007095E-2
4.332350816E0,-1.174950600E-1,5.616188049E-3,-9.172439575E-3
4.340345256E0,2.250194550E-3,-4.796028137E-3,-6.988120079E-2
4.348372541E0,9.039640427E-2,1.839494705E-2,-6.798982620E-2
4.356368519E0,1.090784073E-1,2.242755890E-2,-7.083916664E-2
4.364363652E0,7.790851593E-2,4.541540146E-2,-7.374787331E-2
4.372359322E0,5.429983139E-2,1.571178436E-2,-6.505227089E-2
4.380353454E0,4.277181625E-2,-6.801605225E-3,-3.734040260E-2
4.388349740E0,-1.647281647E-2,-3.407430649E-2,-7.468461990E-3
4.396346949E0,-9.717178345E-2,-8.523368835E-2,1.500940323E-2
4.404371850E0,-1.685624123E-1,-6.928586960E-2,1.848697662E-2
4.412367828E0,-1.615829468E-1,-7.472753525E-2,2.712941170E-2
4.420362884E0,-1.550292969E-1,-6.815528870E-2,1.699566841E-2
4.428358554E0,-1.394195557E-1,-8.539342880E-2,-1.438379288E-2
4.436354455E0,-1.025037766E-1,-1.025791168E-1,-3.603243828E-2
4.444349818E0,-6.118154526E-2,-9.815454483E-2,-5.738496780E-2
4.452345565E0,-1.061296463E-2,-1.415033340E-1,-6.663131714E-2
4.460369466E0,8.671760559E-3,-1.178140640E-1,-9.725284576E-2
4.468367290E0,3.970479965E-2,-1.060914993E-1,-1.156675816E-1
4.476363268E0,5.388736725E-2,-9.206342697E-2,-1.098554134E-1
4.484358401E0,2.484464645E-2,-2.061319351E-2,-7.988119125E-2
4.492353456E0,2.538204193E-3,-1.134347916E-2,-9.025669098E-2
4.500348204E0,1.106929779E-2,-6.921768188E-3,-1.097755432E-1
4.508375874E0,5.051660538E-2,-1.923799515E-2,-9.319281578E-2
4.516372390E0,8.514451981E-2,-2.924060822E-2,-7.640719414E-2
4.524366599E0,8.643341064E-2,1.798105240E-2,-6.651997566E-2
4.532362193E0,6.870937347E-2,3.871583939E-2,-4.690313339E-2
4.540356324E0,6.795787811E-2,7.365560532E-2,-4.394721985E-2
4.548352688E0,8.891963959E-2,5.104446411E-2,-2.901911736E-2
4.556349820E0,2.883529663E-2,7.133483887E-2,-2.844977379E-2
4.564375336E0,-3.804206848E-2,5.564689636E-2,-1.859498024E-2
4.572370468E0,-7.848787308E-2,3.769445419E-2,1.483702660E-2
4.580365754E0,-8.532190323E-2,1.743173599E-2,5.996966362E-2
4.588361809E0,-9.455919266E-2,-5.153179169E-3,8.102965355E-2
4.596358325E0,-1.325922012E-1,-3.959321976E-2,9.713673592E-2
4.604353150E0,-1.181573868E-1,-3.808498383E-2,8.706188202E-2
4.612348513E0,-6.808614731E-2,-1.003742218E-2,7.688641548E-2
4.628370315E0,-3.831624985E-2,8.213806152E-2,8.117032051E-2
4.636366909E0,-2.715396881E-2,8.149194717E-2,8.356046677E-2
4.644362502E0,-2.310180664E-2,9.038114548E-2,6.441068649E-2
4.652357249E0,1.436805725E-2,4.658794403E-2,6.454682350E-2
4.660352074E0,2.555418015E-2,3.629636765E-2,5.987286568E-2
4.668348359E0,-3.854274750E-3,-1.958084106E-2,8.161902428E-2
4.676375030E0,-4.342556000E-3,3.524780273E-3,7.208251953E-2
4.684370470E0,-1.928520203E-2,-1.648330688E-2,3.394961357E-2
4.692365141E0,3.772735596E-3,2.570772171E-2,-4.922437668E-2
4.700360580E0,2.647209167E-2,7.034730911E-2,-9.619617462E-2
4.708356481E0,3.011322021E-2,1.195859909E-1,-1.309185028E-1
4.716352844E0,2.907848358E-2,1.614227295E-1,-1.796882153E-1
4.724347514E0,7.603120804E-2,2.006478310E-1,-1.802411079E-1
4.732374261E0,9.192895889E-2,1.941514015E-1,-1.612503529E-1
4.740369394E0,1.128358841E-1,1.755509377E-1,-1.111083031E-1
4.748365911E0,8.622121811E-2,9.714603424E-2,-4.470658302E-2
4.756361658E0,6.718921661E-2,3.802299500E-2,-3.646707535E-2
4.764356098E0,5.083751678E-2,-4.259586334E-3,-2.392292023E-2
4.772351768E0,3.249263763E-2,-1.042366028E-3,-1.184558868E-2
4.780347669E0,1.443719864E-2,2.238750458E-3,3.090715408E-2
4.788373185E0,-3.917932510E-2,5.388259888E-3,1.846837997E-2
4.796369779E0,-4.958820343E-2,-2.504682541E-2,1.082277298E-2
4.804365527E0,-8.382797241E-2,-4.365777969E-2,3.447651863E-2
4.812360197E0,-1.229834557E-1,-8.388566971E-2,3.207468987E-2
4.820354714E0,-1.406307220E-1,-9.792041779E-2,1.324582100E-2
4.828350923E0,-1.108045578E-1,-7.841873169E-2,9.206771851E-3
4.836347516E0,-9.805345535E-2,-6.136560440E-2,8.401870728E-4
4.844373110E0,-1.142539978E-1,-8.025836945E-2,-3.115034103E-2
4.852368395E0,-9.956312180E-2,-9.917688370E-2,-3.649306297E-2
4.860361912E0,-9.239625931E-2,-1.035895348E-1,-5.370497704E-2
4.868359737E0,-5.695390701E-2,-9.836101532E-2,-6.335234642E-2
4.876356330E0,-1.722812653E-2,-7.619810104E-2,-6.559586525E-2
4.884351385E0,-4.086971283E-3,-9.943199158E-2,-4.380607605E-2
4.892346825E0,-1.506614685E-2,-8.429145813E-2,-2.672958374E-2
4.900372572E0,2.527236938E-5,-6.903409958E-2,-3.113627434E-2
4.908368319E0,1.731920242E-2,-7.294845581E-2,-1.852083206E-2
4.916364297E0,2.242088318E-2,-9.121465683E-2,-5.676746368E-3
4.924359660E0,3.220939636E-2,-5.925464630E-2,2.612590790E-3
4.932354408E0,5.401659012E-2,-5.850696564E-2,-1.291203499E-2
4.940349771E0,1.285433769E-1,-2.425670624E-2,-3.562903404E-2
4.948345749E0,1.315517426E-1,-6.833553314E-3,-5.376124382E-2
4.956373419E0,7.991886139E-2,2.731370926E-2,-4.357337952E-2
4.964368166E0,2.151775360E-2,4.948425293E-2,-2.426314354E-2
4.972363144E0,-8.062839508E-3,4.773569107E-2,-1.467728615E-2
4.980358892E0,-3.523111343E-2,2.440977097E-2,-2.898836136E-2
4.988354485E0,-3.358650208E-2,-1.821422577E-2,-4.070186615E-2
4.996351156E0,-1.989173889E-2,-4.416894913E-2,-8.344078064E-2
5.004346211E0,5.362701416E-2,-4.378175735E-2,-1.022109985E-1
5.012372574E0,9.609174728E-2,-5.300188065E-2,-1.377527714E-1
5.020365167E0,1.052184105E-1,-3.111648560E-2,-1.303679943E-1
5.028363069E0,8.122444153E-2,7.434368134E-3,-1.256425381E-1
5.036358739E0,8.856391907E-2,4.597043991E-2,-9.957480431E-2
5.044354640E0,3.889036179E-2,6.757068634E-2,-8.324098587E-2
5.052350003E0,2.068948746E-2,1.080770493E-1,-9.553432465E-2
5.060344751E0,5.180358887E-3,1.291933060E-1,-7.416415215E-2
5.068371498E0,-1.001501083E-2,1.309947968E-1,-5.762052536E-2
5.076367476E0,-6.316471100E-2,1.469931602E-1,-1.479554176E-2
5.084362223E0,-7.792568207E-2,9.596061707E-2,-7.997035980E-3
5.092357971E0,-9.021377563E-2,4.978132248E-2,8.155345917E-3
5.100352949E0,-1.024880409E-1,3.669738770E-3,2.606868744E-3
5.108349234E0,-8.127403259E-2,-3.034877777E-2,1.120448112E-2
5.116345520E0,-5.525827408E-2,-4.275894165E-2,1.726984978E-2
5.124371037E0,-3.655719757E-2,-1.918506622E-2,1.616406441E-2
5.132367323E0,-1.071262360E-2,-3.728866577E-4,-8.895158768E-3
5.140361840E0,-8.866310120E-3,1.841688156E-2,-3.862905502E-2
5.148358433E0,1.930952072E-2,3.955411911E-2,-5.628800392E-2
5.156354950E0,2.365827560E-2,7.011175156E-2,-8.093786240E-2
5.164348774E0,4.117488861E-3,7.663726807E-2,-5.757951736E-2
5.172345136E0,2.539634705E-2,1.045584679E-1,-6.038475037E-2
5.180368114E0,4.911422729E-2,7.741594315E-2,-4.409050941E-2
5.188366555E0,4.431343079E-2,5.980539322E-2,-2.794909477E-2
5.196363225E0,2.068614960E-2,3.013849258E-2,-1.201558113E-2
5.204357973E0,-2.679347992E-3,-3.060674667E-2,3.943276405E-2
5.212353566E0,-4.265260696E-2,-4.345560074E-2,6.912755966E-2
5.220348082E0,-5.369138718E-2,-3.718471527E-2,1.058356762E-1
5.228344060E0,-6.233167648E-2,-2.132844925E-2,1.113972664E-1
5.236371115E0,-7.326698303E-2,4.007339478E-3,1.002843380E-1
5.244365170E0,-6.744050980E-2,3.886365891E-2,7.252907753E-2
5.252361226E0,-7.827425003E-2,5.930662155E-2,7.109546661E-2
5.260353512E0,-7.952165604E-2,3.661632538E-2,3.859901428E-2
5.268352875E0,-6.417083740E-2,-7.614612579E-3,1.585888863E-2
5.276349391E0,-3.950452805E-2,-1.589202881E-2,2.917766571E-3
5.284343600E0,3.960609436E-3,-5.997562408E-2,-1.700830460E-2
5.292369424E0,2.320289612E-2,-3.453493118E-2,-2.482581139E-2
5.300364479E0,6.397294998E-2,-9.013175964E-3,-2.081823349E-2
5.308361919E0,8.079433441E-2,1.905775070E-2,9.212732315E-3
5.316357898E0,8.360528946E-2,4.703855515E-2,3.183150291E-2
5.324352029E0,3.391647339E-2,8.697366714E-2,2.316141129E-2
5.332347700E0,-1.065587997E-2,9.561777115E-2,2.477169037E-3
5.340342755E0,-4.547739029E-2,8.741283417E-2,-1.464366913E-3
5.348369502E0,-4.683542252E-2,8.397340775E-2,-2.683782578E-2
5.356365249E0,-7.699155807E-2,6.131982803E-2,-4.961037636E-2
5.364360612E0,-7.609081268E-2,2.425813675E-2,-5.306100845E-2
5.372356205E0,-7.753467560E-2,1.540660858E-3,-4.454803467E-2
5.380350723E0,-9.588146210E-2,-4.981660843E-2,-5.282211304E-2
5.388347624E0,-1.358666420E-1,-6.280469894E-2,-4.674768448E-2
5.396343525E0,-1.450829506E-1,-9.717321396E-2,-4.539370537E-2
5.404369041E0,-9.727191925E-2,-1.001119614E-1,-4.177403450E-2
5.412364789E0,-5.719184875E-2,-9.800910950E-2,-5.479931831E-2
5.420359459E0,-3.194856644E-2,-1.173062325E-1,-6.757473946E-2
5.428355437E0,9.479045868E-3,-1.483416557E-1,-8.255434036E-2
5.436352030E0,-2.218723297E-3,-1.529188156E-1,-6.373405457E-2
5.444347163E0,-1.198720932E-2,-1.502046585E-1,-4.219865799E-2
5.452342218E0,-5.435943604E-3,-1.569399834E-1,-4.434633255E-2
5.460367735E0,7.482957840E-2,-1.084589958E-1,-3.662419319E-2
5.468364328E0,1.285357475E-1,-6.234502792E-2,-2.629876137E-2
5.476360614E0,1.248250008E-1,-1.628255844E-2,-1.590991020E-2
5.484355361E0,7.841444016E-2,5.758762360E-3,1.094198227E-2
5.492351570E0,7.069540024E-2,-8.145332336E-3,8.675098419E-3
5.500345779E0,5.849599838E-2,-1.964473724E-2,2.996563911E-2
5.508372142E0,4.178190231E-2,1.671600342E-2,1.267290115E-2
5.516369428E0,2.781152725E-2,6.494379044E-2,-7.205963135E-3
5.524364483E0,4.753494263E-2,1.083059311E-1,1.356840134E-2
5.532360153E0,5.791759491E-2,1.276106834E-1,-1.601457596E-3
5.540354900E0,1.588439941E-2,1.659321785E-1,-3.355574608E-2
5.548350571E0,-6.887912750E-3,1.634840965E-1,-3.436636925E-2
5.556347164E0,3.034973145E-2,1.610245705E-1,-4.012656212E-2
5.564341836E0,4.158067703E-2,1.464190483E-1,-6.027793884E-2
5.572368660E0,3.883743286E-2,1.389183998E-1,-4.242610931E-2
5.580362176E0,7.478427887E-2,1.192951202E-1,-8.217144012E-2
5.588359385E0,7.055616379E-2,1.424546242E-1,-8.358573914E-2
5.596355363E0,6.912565231E-2,1.557497978E-1,-7.050871849E-2
5.604350418E0,2.257728577E-2,1.616926193E-1,-2.160191536E-2
5.612345704E0,2.307891846E-4,1.340527534E-1,-2.794075012E-2
5.620371605E0,-3.685951233E-4,7.053184509E-2,3.720998764E-3
5.628367890E0,-1.517438889E-2,3.337860107E-2,3.991627693E-2
5.636364408E0,-4.179239273E-2,9.713172913E-4,9.037566185E-2
5.644358309E0,-5.381488800E-2,-7.570743561E-3,1.000227928E-1
5.652354287E0,-5.853652954E-2,-3.775215149E-2,1.145133972E-1
5.660349265E0,-5.359745026E-2,-2.727127075E-2,9.307289124E-2
5.668345243E0,-5.089187622E-2,-3.610181808E-2,8.136010170E-2
5.676372990E0,-4.331731796E-2,2.199602127E-2,4.583764076E-2
5.684367430E0,-5.020713806E-2,5.612087250E-2,3.205442429E-2
5.692363100E0,-8.823442459E-2,7.579851151E-2,4.097223282E-3
5.700357541E0,-7.638311386E-2,8.116531372E-2,-6.740093231E-3
5.708353442E0,-7.441377640E-2,4.826736450E-2,-2.447533607E-2
5.716349728E0,-7.516288757E-2,-1.298904419E-3,-5.398607254E-2
5.724345398E0,-6.415367126E-2,-3.158283234E-2,-4.520845413E-2
5.732370914E0,-6.533432007E-2,-8.321380615E-2,-5.096364021E-2
5.740363585E0,-6.908416748E-2,-6.766986847E-2,-4.482412338E-2
5.748362332E0,-1.255445480E-1,-8.307790756E-2,-2.464151382E-2
5.756358541E0,-1.414804459E-1,-9.108352661E-2,-1.668906212E-2
5.764353366E0,-1.170878410E-1,-7.493400574E-2,-3.029179573E-2
5.772348729E0,-1.194510460E-1,-3.951597214E-2,9.033679962E-3
5.780344091E0,-8.377265930E-2,3.135204315E-3,1.026630402E-2
5.788370762E0,-1.510810852E-2,1.001262665E-2,1.662468910E-2
5.796367355E0,4.589557648E-2,1.700115204E-2,1.853537560E-2
5.804361564E0,3.723526001E-2,3.590250015E-2,1.845645905E-2
5.812357542E0,4.052257538E-2,5.490064621E-2,1.101565361E-2
5.820352597E0,3.924417496E-2,7.150220871E-2,4.640841484E-2
5.828348806E0,3.564834595E-2,6.906986237E-2,4.554247856E-2
5.836344554E0,-1.174449921E-3,4.748249054E-2,4.672598839E-2
5.844370609E0,-3.536224365E-2,2.335977554E-2,3.834247589E-2
5.852366279E0,-5.266571045E-2,4.216146469E-2,3.496479988E-2
5.860361334E0,-3.657913208E-2,6.086826324E-2,3.673791885E-2
5.868356774E0,2.729177475E-2,5.075788498E-2,7.689714432E-3
5.876353905E0,6.938409805E-2,3.820753098E-2,-2.337074280E-2
5.884348731E0,1.045598984E-1,1.354980469E-2,-3.290915489E-2
5.892344401E0,1.161761284E-1,-4.716634750E-2,-2.104949951E-2
5.900369533E0,7.536363602E-2,-6.966209412E-2,2.820491791E-4
5.908364895E0,6.353235245E-2,-1.041374207E-1,6.959915161E-3
5.916362181E0,4.216718674E-2,-1.099214554E-1,1.128339767E-2
5.924356236E0,6.136369705E-2,-7.734632492E-2,-3.701043129E-2
5.932352291E0,1.090259552E-1,-5.190086365E-2,-5.397415161E-2
5.940347577E0,8.961582184E-2,-9.787082672E-3,-2.759528160E-2
5.948343248E0,2.958250046E-2,1.305007935E-2,-1.780676842E-2
5.956370688E0,1.988077164E-2,7.028102875E-3,-7.801771164E-3
5.964365127E0,3.389739990E-2,-5.165910721E-2,2.400875092E-2
5.972360797E0,2.135181427E-2,-9.597015381E-2,1.537966728E-2
5.980352468E0,6.382274628E-2,-7.325935364E-2,1.641893387E-2
5.988352753E0,9.923219681E-2,2.353572845E-2,3.250360489E-3
5.996348347E0,1.039428711E-1,9.615182877E-2,-1.231884956E-2
6.004342556E0,8.532905579E-2,1.445035934E-1,-4.708290100E-2
6.012369303E0,6.730222702E-2,1.279230118E-1,-6.039047241E-2
6.020364282E0,-5.129337311E-3,1.015434265E-1,-8.598542213E-2
6.028360568E0,-3.880977631E-2,5.345201492E-2,-1.357021332E-1
6.036357238E0,-1.741886139E-2,-1.383638382E-2,-1.709616184E-1
6.044351601E0,-2.254581451E-2,-6.436872482E-2,-1.796443462E-1
6.052347271E0,-4.481983185E-2,-5.502557755E-2,-1.711351871E-1
6.060341787E0,-1.965332031E-2,-6.223535538E-2,-1.481599808E-1
6.068369150E0,5.969333649E-2,-4.024887085E-2,-9.399247169E-2
6.076364513E0,1.049466133E-1,-5.386734009E-2,-7.091808319E-2
6.084359876E0,1.546993256E-1,-3.140354156E-2,-5.264306068E-2
6.092355777E0,1.899175644E-1,-6.442070007E-3,-2.719926834E-2
6.100350294E0,1.657280922E-1,7.589912415E-2,2.421259880E-2
6.108346810E0,1.494059563E-1,8.865928650E-2,9.666013718E-2
6.116344019E0,8.360767365E-2,6.532812119E-2,1.709067822E-1
6.124368382E0,1.886844635E-3,-2.040576935E-2,2.324922085E-1
6.132363668E0,-1.056675911E-1,-1.371078491E-1,3.002929688E-1
6.140359031E0,-2.272629738E-1,-2.054061890E-1,3.497822285E-1
6.148355701E0,-2.958955765E-1,-2.418141365E-1,3.397557735E-1
6.156351603E0,-4.070267677E-1,-2.632322311E-1,3.324041367E-1
6.164346350E0,-4.625673294E-1,-3.007493019E-1,3.229584694E-1
6.172342097E0,-4.890613556E-1,-3.542513847E-1,3.090441227E-1
6.180367537E0,-4.963326454E-1,-3.781638145E-1,3.243055344E-1
6.188363207E0,-5.252938271E-1,-4.204607010E-1,3.261301517E-1
6.196359877E0,-5.650138855E-1,-4.479403496E-1,3.475975990E-1
6.204354933E0,-6.228187084E-1,-4.605569839E-1,3.792042732E-1
6.212350296E0,-6.462900639E-1,-4.940533638E-1,3.969321251E-1
6.220345351E0,-6.423919201E-1,-5.076446533E-1,4.266786575E-1
6.228341560E0,-7.277553082E-1,-5.182161331E-1,5.253567696E-1
6.236367768E0,-8.400256634E-1,-5.496096611E-1,6.160242558E-1
6.244363669E0,-9.796009064E-1,-6.309089661E-1,6.448528767E-1
6.252358494E0,-1.218916178E0,-7.550468445E-1,6.894221306E-1
6.260354087E0,-1.375889301E0,-9.170565605E-1,6.131777763E-1
6.268349758E0,-1.341487169E0,-1.178767204E0,3.379900455E-1
6.276346659E0,-1.077952385E0,-1.470150471E0,7.451176643E-2
6.284341484E0,-7.318165302E-1,-1.791529655E0,-1.708898544E-1
6.292367308E0,-5.310268402E-1,-2.013799667E0,-3.738801479E-1
6.300361055E0,-4.581828117E-1,-2.067141056E0,-4.477581978E-1
6.308358341E0,-3.076100349E-1,-2.047138214E0,-5.001661777E-1
6.316354011E0,-2.233128548E-1,-2.046910286E0,-4.687125683E-1
6.324349681E0,-2.608156204E-1,-2.099600792E0,-4.491021633E-1
6.332345276E0,-3.594851494E-1,-2.226928234E0,-4.464631081E-1
6.340340331E0,-5.909805298E-1,-2.330428600E0,-3.776051998E-1
6.348366770E0,-7.389416695E-1,-2.453396320E0,-3.771202564E-1
6.356363364E0,-6.326460838E-1,-2.581202030E0,-3.674452305E-1
6.364358111E0,-3.808846474E-1,-2.707005501E0,-2.754547596E-1
6.372353243E0,-2.170963287E-1,-2.785533428E0,-2.149930000E-1
6.380348529E0,-9.697103500E-2,-2.831445217E0,-2.161364555E-1
6.388344584E0,-1.236681938E-1,-2.786511421E0,-2.661581039E-1
6.396341486E0,-3.124222755E-1,-2.740808010E0,-3.275916576E-1
6.404366694E0,-6.572074890E-1,-2.621455669E0,-4.704110622E-1
6.412362595E0,-1.042155743E0,-2.463151932E0,-6.469640732E-1
6.420357112E0,-1.574410915E0,-2.235791206E0,-7.444429398E-1
6.428353398E0,-2.096623182E0,-1.949351788E0,-7.829332352E-1
6.436348991E0,-2.553009748E0,-1.722746372E0,-7.578051090E-1
6.444344661E0,-2.940416336E0,-1.533824444E0,-7.115800381E-1
6.452370870E0,-3.213469744E0,-1.443389416E0,-6.674304008E-1
6.460362234E0,-3.441622019E0,-1.468196392E0,-7.068753242E-1
6.468362135E0,-3.680523396E0,-1.528697014E0,-6.861183643E-1
6.476357882E0,-3.994079590E0,-1.595978260E0,-6.398761272E-1
6.484352322E0,-4.295983315E0,-1.709536552E0,-5.555336475E-1
6.492348838E0,-4.453016281E0,-1.790369034E0,-5.281786919E-1
6.500343585E0,-4.324812889E0,-1.952504158E0,-4.486129284E-1
6.508370025E0,-3.909365416E0,-2.078732491E0,-3.910300732E-1
6.516367003E0,-3.081870079E0,-2.318529606E0,-3.601970673E-1
6.524361367E0,-2.203534603E0,-2.512991190E0,-3.774876595E-1
6.532356729E0,-1.515303612E0,-2.604288816E0,-3.028254509E-1
6.540351784E0,-7.779459953E-1,-2.679387569E0,-2.866718769E-1
6.548348455E0,-4.330406189E-1,-2.695492506E0,-4.024868011E-1
6.556344356E0,-2.518248558E-1,-2.704187870E0,-4.164619446E-1
6.564369334E0,-1.373481750E-1,-2.704639196E0,-5.350117683E-1
6.572365312E0,6.428527832E-2,-2.629132271E0,-6.683324575E-1
6.580359751E0,4.376373291E-1,-2.564515114E0,-8.157085180E-1
6.588356269E0,7.367343903E-1,-2.435956955E0,-7.445182800E-1
6.596352862E0,8.889522552E-1,-2.273327351E0,-6.970787048E-1
6.604347302E0,8.183889389E-1,-2.109298229E0,-6.782190800E-1
6.612342664E0,7.900381088E-1,-2.032378912E0,-6.719856262E-1
6.620338642E0,8.830909729E-1,-1.967282772E0,-7.599586248E-1
6.628365082E0,8.961706161E-1,-1.897962689E0,-8.123539686E-1
6.636361060E0,6.744747162E-1,-1.853192925E0,-7.949894667E-1
6.644356192E0,4.494190216E-1,-1.805932641E0,-9.470498562E-1
6.652351171E0,2.829675674E-1,-1.793674469E0,-9.395463467E-1
6.660346303E0,2.467489243E-1,-1.804918051E0,-8.869962692E-1
6.668343127E0,3.614311218E-1,-1.806157947E0,-8.914175034E-1
6.676369951E0,6.809501648E-1,-1.888952017E0,-1.007934451E0
6.684364083E0,9.460306168E-1,-1.956619263E0,-9.987643957E-1
6.692360599E0,1.027345657E0,-2.078583717E0,-9.881465435E-1
6.700352654E0,8.635778427E-1,-2.140250683E0,-1.013316035E0
6.708351325E0,6.063232422E-1,-2.258537054E0,-1.018823504E0
6.716347688E0,5.765800476E-1,-2.371860266E0,-1.099970102E0
6.724342128E0,5.876922607E-1,-2.369755268E0,-1.040301800E0
6.732368798E0,6.631650925E-1,-2.355845451E0,-1.035495043E0
6.740363545E0,7.594032288E-1,-2.269735336E0,-1.059549332E0
6.748359523E0,8.041830063E-1,-2.233886480E0,-1.026464224E0
6.756355809E0,6.632184982E-1,-2.183063745E0,-1.003272295E0
6.764351172E0,4.732542038E-1,-2.115550280E0,-9.424456954E-1
6.772346534E0,3.535842896E-1,-2.094901085E0,-9.090723991E-1
6.780341283E0,4.000720978E-1,-2.063641071E0,-8.949995041E-1
6.788367799E0,3.942251205E-1,-2.101468086E0,-8.273054361E-1
6.796364393E0,3.855524063E-1,-2.115720510E0,-8.264952898E-1
6.804359371E0,2.609415054E-1,-2.146770239E0,-7.439087629E-1
6.812355349E0,2.402820587E-1,-2.242479324E0,-7.126128674E-1
6.820350173E0,4.099798203E-1,-2.321127415E0,-7.122954130E-1
6.828345766E0,6.227111816E-1,-2.440525055E0,-6.823199987E-1
6.836341513E0,7.530755997E-1,-2.472592831E0,-6.574691534E-1
6.844367339E0,7.574491501E-1,-2.484430313E0,-6.368874311E-1
6.852363240E0,5.520181656E-1,-2.420300007E0,-6.175661087E-1
6.860357987E0,3.026790619E-1,-2.307751656E0,-5.978939533E-1
6.868354273E0,-4.678058624E-2,-2.128530025E0,-5.936813354E-1
6.876349712E0,-1.666841507E-1,-1.976623535E0,-5.343681574E-1
6.884345921E0,-2.651691437E-3,-1.999652386E0,-4.785498381E-1
6.892340976E0,4.451971054E-1,-2.195667744E0,-4.409697056E-1
6.900366877E0,1.050314426E0,-2.375451088E0,-3.323352337E-1
6.908363471E0,1.589862347E0,-2.637261868E0,-3.915419579E-1
6.916359373E0,1.783884048E0,-2.724051952E0,-3.398188353E-1
6.924354197E0,1.540604591E0,-2.633503914E0,-3.425391912E-1
6.932349482E0,1.158473492E0,-2.440194130E0,-4.340864420E-1
6.940343999E0,7.246365547E-1,-2.145401001E0,-4.909399748E-1
6.948340515E0,4.880986214E-1,-1.964854717E0,-4.280600548E-1
6.956367647E0,5.214123726E-1,-1.890925407E0,-3.946855068E-1
6.964362625E0,7.403421402E-1,-1.875992298E0,-4.140934944E-1
6.972357681E0,9.755425453E-1,-1.865997314E0,-3.385585546E-1
6.980353044E0,1.069542408E0,-1.804343700E0,-2.885364294E-1
6.988349330E0,1.007418633E0,-1.693129539E0,-2.188537121E-1
6.996346308E0,9.291386604E-1,-1.583066940E0,-1.025029421E-1
7.004340363E0,9.217991829E-1,-1.609705925E0,5.337679386E-2
7.012365648E0,1.150058270E0,-1.670302391E0,7.329440117E-2
7.020361319E0,1.442924500E0,-1.729320526E0,2.393722534E-1
7.028357604E0,1.765100479E0,-1.787477493E0,3.189151287E-1
7.036353891E0,2.093984127E0,-1.835431099E0,2.537958622E-1
7.044349484E0,2.244319916E0,-1.748671532E0,1.899644136E-1
7.052344539E0,2.310692310E0,-1.596861839E0,1.169160604E-1
7.060339363E0,2.325694561E0,-1.424330711E0,1.769995689E-2
7.068366111E0,2.370460510E0,-1.288286209E0,-3.602874279E-2
7.076362396E0,2.356577873E0,-1.157137871E0,-6.337797642E-2
7.084357144E0,2.319148302E0,-1.064343452E0,-1.849663258E-2
7.092353122E0,2.284461021E0,-1.011880875E0,6.087207794E-2
7.100348408E0,2.206564903E0,-9.468355179E-1,8.447217941E-2
7.108343233E0,2.165493011E0,-8.573503494E-1,1.678706408E-1
7.116340749E0,2.139956236E0,-7.717046738E-1,2.204658985E-1
7.124365881E0,2.120139122E0,-6.776943207E-1,2.235351801E-1
7.132361244E0,2.109312296E0,-5.484924316E-1,2.175550461E-1
7.140356068E0,2.090972662E0,-4.389133453E-1,2.527678013E-1
7.148351969E0,2.087708712E0,-3.581609726E-1,2.229611874E-1
7.156348639E0,2.158515930E0,-2.434911728E-1,2.182377577E-1
7.164343695E0,2.217400789E0,-1.499404907E-1,2.687257528E-1
7.172339596E0,2.288918495E0,-3.898811340E-2,2.541880608E-1
7.180364190E0,2.334506989E0,5.336475372E-2,2.312766314E-1
7.188361168E0,2.328357220E0,1.703948975E-1,2.162362337E-1
7.196357376E0,2.292150736E0,2.906103134E-1,1.725456715E-1
7.204351893E0,2.264348030E0,3.638105392E-1,1.190063357E-1
7.212347563E0,2.171239138E0,4.500751495E-1,1.036158800E-1
7.220342849E0,2.125756025E0,5.562868118E-1,1.271685958E-1
7.228338520E0,2.006285191E0,5.752515793E-1,1.413905621E-1
7.236365344E0,1.880414009E0,6.052656174E-1,1.940215230E-1
7.244360399E0,1.724031687E0,6.013708115E-1,2.086188197E-1
7.252355993E0,1.563086748E0,5.998926163E-1,1.950853467E-1
7.260351048E0,1.377217054E0,5.418405533E-1,1.801332831E-1
7.268347641E0,1.169013023E0,5.140113831E-1,1.641442776E-1
7.276343004E0,9.205517769E-1,4.503889084E-1,1.214969754E-1
7.284338444E0,7.165753841E-1,3.855304718E-1,1.102899313E-1
7.292365192E0,4.761412144E-1,3.324251175E-1,8.595865965E-2
7.300359016E0,2.811951637E-1,2.897834778E-1,1.038438082E-1
7.308356225E0,7.651185989E-2,2.130622864E-1,1.306815147E-1
7.316351587E0,-6.956768036E-2,1.675443649E-1,1.616290808E-1
7.324346565E0,-2.185921669E-1,1.369075775E-1,1.943213940E-1
7.332341928E0,-3.319201469E-1,9.266471863E-2,2.402419448E-1
7.340337060E0,-4.070241451E-1,6.136226654E-2,2.493575811E-1
7.348363807E0,-4.773850441E-1,2.522659302E-2,2.567103505E-1
7.356360401E0,-5.319199562E-1,8.336067200E-3,2.749041915E-1
7.364354764E0,-5.966229439E-1,-4.054164886E-2,2.778887153E-1
7.372351357E0,-6.350686550E-1,-1.189346313E-1,2.570365071E-1
7.380346412E0,-6.579859257E-1,-1.832609177E-1,2.028033137E-1
7.388342083E0,-6.691145897E-1,-2.521944046E-1,1.305634975E-1
7.396337830E0,-7.042872906E-1,-3.064575195E-1,7.992869616E-2
7.404363346E0,-7.264227867E-1,-3.296937943E-1,4.728490114E-2
7.412359017E0,-7.072591782E-1,-3.723945618E-1,2.313190699E-2
7.420351227E0,-6.605796814E-1,-4.233188629E-1,2.664893866E-2
7.428350281E0,-6.020503044E-1,-4.806032181E-1,1.222527027E-2
7.436346952E0,-5.163114071E-1,-5.352621078E-1,2.958905697E-2
7.444342007E0,-4.684348106E-1,-5.515775681E-1,4.728376865E-2
7.452336754E0,-4.300198555E-1,-6.039352417E-1,5.771923065E-2
7.460362270E0,-4.106466770E-1,-6.109685898E-1,9.167230129E-2
7.468359095E0,-3.793590069E-1,-5.942926407E-1,9.396946430E-2
7.476355688E0,-3.504807949E-1,-5.467224121E-1,1.076226830E-1
7.484349898E0,-3.457193375E-1,-4.826393127E-1,7.555115223E-2
7.492346799E0,-3.018937111E-1,-3.761262894E-1,1.753920317E-2
7.500340315E0,-2.867794037E-1,-2.680788040E-1,-4.453939199E-2
7.508336601E0,-3.120152950E-1,-1.439142227E-1,-1.387047172E-1
7.516363271E0,-2.773289680E-1,-8.505249023E-2,-2.093594074E-1
7.524358403E0,-2.899568081E-1,-4.102420807E-2,-2.636492252E-1
7.532354381E0,-2.849824429E-1,-1.409339905E-2,-3.037473559E-1
7.540348744E0,-2.996706963E-1,-2.782630920E-2,-3.604027629E-1
7.554357014E0,-2.044415474E-1,-6.509494781E-2,-3.760522008E-1
7.556341316E0,-2.068357468E-1,-8.424854279E-2,-3.904173970E-1
7.564367217E0,-1.304683685E-1,-1.701602936E-1,-3.649263978E-1
7.572362811E0,-7.905340195E-2,-2.109165192E-1,-3.462701440E-1
7.580354250E0,-1.431703568E-2,-2.759838104E-1,-3.443278670E-1
7.588354459E0,-7.188320160E-4,-2.935056686E-1,-3.330675960E-1
7.596349899E0,1.226615906E-2,-3.208265305E-1,-3.408697844E-1
7.604345493E0,1.776289940E-2,-3.243341446E-1,-3.413894176E-1
7.612340625E0,-8.008480072E-4,-3.207311630E-1,-3.346370459E-1
7.620366372E0,-2.590894699E-3,-3.171339035E-1,-3.418938518E-1
7.628361812E0,1.465773582E-2,-3.135776520E-1,-3.511422276E-1
7.636357482E0,3.123760223E-3,-3.100166321E-1,-3.716208935E-1
7.644353153E0,2.926850319E-2,-3.114175797E-1,-3.723527491E-1
7.652348823E0,4.307460785E-2,-3.176984787E-1,-3.700233996E-1
7.660343878E0,3.224086761E-2,-2.858629227E-1,-3.766699731E-1
7.668339472E0,5.193209648E-2,-2.541828156E-1,-3.682628274E-1
7.676366835E0,7.547473907E-2,-2.442979813E-1,-3.711474538E-1
7.684361967E0,1.051259041E-1,-2.179613113E-1,-3.711936176E-1
7.692357560E0,1.260459423E-1,-1.824655533E-1,-3.586515486E-1
7.700352384E0,1.355350018E-1,-1.163434982E-1,-3.526344597E-1
7.708347978E0,1.428904533E-1,-5.558967590E-2,-3.340922892E-1
7.716345186E0,1.406786442E-1,-2.662754059E-2,-3.248562515E-1
7.724339395E0,1.764142513E-1,4.945850372E-2,-3.009440005E-1
7.732365835E0,1.521861553E-1,8.171367645E-2,-2.677052021E-1
7.740360275E0,1.472997665E-1,1.037092209E-1,-2.447498441E-1
7.748356869E0,1.215553284E-1,1.155653000E-1,-2.227945924E-1
7.756353462E0,1.016702652E-1,1.245536804E-1,-1.901221573E-1
7.764348209E0,6.409931183E-2,1.163988113E-1,-1.662018001E-1
7.772343495E0,4.030394554E-2,1.151371002E-1,-1.391325593E-1
7.780338242E0,9.001493454E-3,9.453105927E-2,-1.253775954E-1
7.788365605E0,-6.986069679E-2,1.074066162E-1,-7.264786959E-2
7.796361968E0,-1.412320137E-1,1.106901169E-1,-5.245262384E-2
7.804356947E0,-1.574833393E-1,1.139163971E-1,-3.333294392E-2
7.812351771E0,-1.737999916E-1,1.051177979E-1,-4.097557068E-2
7.820346749E0,-2.141101360E-1,9.868144989E-2,-2.005785704E-2
7.828343111E0,-2.183551788E-1,8.029747009E-2,-6.488800049E-3
7.836339013E0,-2.484200001E-1,5.488014221E-2,1.676350832E-2
7.844365452E0,-2.678828239E-1,5.847263336E-2,3.757190704E-2
7.852360507E0,-3.001685143E-1,5.530452728E-2,3.424131870E-2
7.860355562E0,-2.806794643E-1,5.013656616E-2,5.682080984E-2
7.868351618E0,-2.695107460E-1,3.811836243E-2,6.941604614E-2
7.876348519E0,-2.667617798E-1,5.273056030E-2,8.625853062E-2
7.884342651E0,-2.794022560E-1,2.938938141E-2,8.335983753E-2
7.892338014E0,-2.809960842E-1,-7.935523987E-3,9.183716774E-2
7.900361069E0,-2.692921162E-1,1.013946533E-2,9.961658716E-2
7.908360739E0,-2.682754993E-1,-1.214408875E-2,6.882977486E-2
7.916357332E0,-2.519404888E-1,1.737594604E-3,6.419861317E-2
7.924351157E0,-2.629783154E-1,-3.668785095E-2,5.694705248E-2
7.932346212E0,-2.466664314E-1,-5.331134796E-2,8.044713736E-2
7.940342421E0,-2.412447929E-1,-8.163356781E-2,9.173375368E-2
7.948338784E0,-2.066075802E-1,-1.122379303E-1,1.051672101E-1
7.956365146E0,-1.787829399E-1,-1.164484024E-1,1.468085051E-1
7.964359663E0,-1.772358418E-1,-1.278553009E-1,1.259673834E-1
7.972355641E0,-1.662018299E-1,-1.393156052E-1,1.503285170E-1
7.980351004E0,-1.672599316E-1,-1.149311066E-1,1.672013402E-1
7.988345983E0,-1.470446587E-1,-1.098079681E-1,1.861053109E-1
7.996342961E0,-1.345686913E-1,-1.144590378E-1,1.877104044E-1
8.004337323E0,-8.500957489E-2,-7.875061035E-2,1.581821442E-1
8.012364147E0,-8.687853813E-2,-8.166790009E-2,1.549275517E-1
8.020359125E0,-1.019096375E-1,-7.533073425E-2,1.302437782E-1
8.028355180E0,-1.037008762E-1,-8.603000641E-2,1.011959314E-1
8.036351389E0,-1.159238815E-1,-1.113033295E-1,8.925122023E-2
8.044345829E0,-1.524119377E-1,-1.462202072E-1,8.728313446E-2
8.052341808E0,-1.412703991E-1,-1.572504044E-1,9.272092581E-2
8.060336863E0,-1.373689175E-1,-1.922264099E-1,1.007429361E-1
8.068362995E0,-1.547183990E-1,-2.342948914E-1,1.065910459E-1
8.076358973E0,-1.455528736E-1,-2.284402847E-1,1.291343570E-1
8.084354412E0,-1.240503788E-1,-2.081317902E-1,1.539560556E-1
8.092350390E0,-1.165328026E-1,-1.853427887E-1,1.475263238E-1
8.100345137E0,-9.926462173E-2,-1.337776184E-1,1.506698728E-1
8.108341423E0,-1.010246277E-1,-9.416389465E-2,1.345604658E-1
8.116337325E0,-1.003384590E-1,-4.735565186E-2,1.256482601E-1
8.124362919E0,-7.837796211E-2,1.134395599E-2,1.142693758E-1
8.132358820E0,-9.001588821E-2,1.255035400E-2,1.242705584E-1
8.140353875E0,-9.932613373E-2,4.244804382E-2,1.388081312E-1
8.148349545E0,-9.672403336E-2,1.082067490E-1,1.408165693E-1
8.156345908E0,-8.476901054E-2,1.188097000E-1,1.448293328E-1
8.164340963E0,-8.745431900E-2,1.341094971E-1,1.269897223E-1
8.172336325E0,-7.863426208E-2,1.085834503E-1,1.115636230E-1
8.180361842E0,-1.179239750E-1,9.497261047E-2,9.856557846E-2
8.188358359E0,-1.404089928E-1,5.025291443E-2,6.895720959E-2
8.196354722E0,-1.459512711E-1,1.517295837E-2,6.117022038E-2
8.204349161E0,-1.296145916E-1,-1.980781555E-2,7.039803267E-2
8.212344755E0,-1.178364754E-1,-4.274368286E-2,5.835628510E-2
8.220340117E0,-1.057517529E-1,-8.235073090E-2,7.760936022E-2
8.228335788E0,-8.143925667E-2,-8.836555481E-2,6.832188368E-2
8.236363150E0,-4.754471779E-2,-8.002376556E-2,8.529931307E-2
8.244357975E0,-3.993058205E-2,-8.123970032E-2,8.082067966E-2
8.252353569E0,9.253025055E-4,-5.378818512E-2,6.454408169E-2
8.260348316E0,1.054978371E-2,-5.270195007E-2,6.263566017E-2
8.268344910E0,-3.871202469E-3,-4.446220398E-2,6.072366238E-2
8.276341195E0,-6.386518478E-3,-5.300521851E-2,4.438507557E-2
8.284335404E0,-2.593708038E-2,-3.287315369E-2,3.307163715E-2
8.292361844E0,-4.343366623E-2,-6.788921356E-2,3.379881382E-2
8.300353822E0,-6.850934029E-2,-5.749702454E-2,8.491337299E-3
8.308353493E0,-6.757807732E-2,-5.913639069E-2,-2.117097378E-3
8.316348779E0,-8.865499496E-2,-5.128479004E-2,-2.720952034E-3
8.324344449E0,-9.113216400E-2,-6.509304047E-2,-2.926880121E-2
8.332339504E0,-9.146928787E-2,-6.456851959E-2,-2.191084623E-2
8.340335251E0,-7.782340050E-2,-6.173610687E-2,-1.168251038E-5
8.348361075E0,-5.936503410E-2,-5.170154572E-2,1.727378368E-2
8.356357976E0,-4.317212105E-2,-3.207588196E-2,5.590021610E-2
8.364352647E0,-2.199459076E-2,-1.720905304E-2,7.989305258E-2
8.372348318E0,4.320383072E-3,-1.903533936E-2,1.203238368E-1
8.380343065E0,1.393795013E-2,-1.734733582E-3,1.074929833E-1
8.388339428E0,-5.122661591E-3,-1.212120056E-3,1.038134098E-1
8.396336021E0,-3.373336792E-2,1.691818237E-3,8.311021328E-2
8.404360615E0,-6.479382515E-2,6.952285767E-3,9.556406736E-2
8.412356285E0,-5.979442596E-2,2.470016479E-4,1.076321602E-1
8.420351648E0,-9.311461449E-2,3.091812134E-3,1.025655270E-1
8.428347626E0,-5.469036102E-2,3.221702576E-2,1.114192605E-1
8.436344836E0,-7.625746727E-2,2.297210693E-2,9.113395214E-2
8.444338890E0,-5.043530464E-2,6.408691406E-3,8.979302645E-2
8.452334561E0,-3.951978683E-2,-3.425407410E-2,9.295946360E-2
8.460360770E0,-3.882336617E-2,-4.395484924E-2,7.212644815E-2
8.468356671E0,-7.456302643E-2,-5.378818512E-2,7.994681597E-2
8.476353033E0,-8.442687988E-2,-4.698371887E-2,8.050268888E-2
8.484348319E0,-1.066272259E-1,-5.223846436E-2,6.433129311E-2
8.492342220E0,-8.377575874E-2,-2.646827698E-2,4.829025269E-2
8.500338430E0,-9.718465805E-2,-7.962226868E-3,4.191315174E-2
8.508364869E0,-7.271099091E-2,-1.507759094E-3,2.861058712E-2
8.516360540E0,-5.593752861E-2,2.877140045E-2,2.993279696E-2
8.524355056E0,-4.932117462E-2,3.975963593E-2,1.690262556E-2
8.532352188E0,-4.308891296E-2,5.303764343E-2,3.490704298E-2
8.540345705E0,-4.688000679E-2,7.338428497E-2,1.462417841E-2
8.548342683E0,-3.919291496E-2,9.121227264E-2,-3.308355808E-3
8.556338584E0,-5.107736588E-2,4.189395905E-2,-3.082478046E-2
8.564333332E0,-4.638004303E-2,1.168155670E-2,-7.269757986E-2
8.572361002E0,-7.989788055E-2,1.022911072E-2,-7.613688707E-2
8.580354596E0,-1.178228855E-1,-1.505661011E-2,-8.172494173E-2
8.588352112E0,-1.002576351E-1,-1.148605347E-2,-7.028758526E-2
8.596346475E0,-1.037120819E-1,-2.985000610E-3,-5.628305674E-2
8.604341914E0,-1.020054817E-1,2.717208862E-2,-5.158990622E-2
8.612338739E0,-1.193220615E-1,3.583526611E-2,-5.863338709E-2
8.620332255E0,-1.102635860E-1,2.058792114E-2,-8.449089527E-2
8.628359696E0,-1.155338287E-1,2.976417542E-3,-8.134555817E-2
8.636356904E0,-1.491203308E-1,-1.208782196E-2,-1.206798553E-1
8.644350421E0,-1.557462215E-1,-1.736831665E-2,-1.258475780E-1
8.652346399E0,-1.617951393E-1,-2.006149292E-2,-1.328080893E-1
8.660340838E0,-1.671371460E-1,-8.170127869E-3,-1.129261255E-1
8.668337740E0,-1.550683975E-1,-1.044845581E-2,-1.285158992E-1
8.676364102E0,-1.403174400E-1,-2.699851990E-2,-1.223369241E-1
8.684359157E0,-1.421601772E-1,-7.585525513E-3,-1.088280678E-1
8.692354905E0,-1.342697144E-1,-8.869171143E-5,-1.166875362E-1
8.700349653E0,-1.192307472E-1,5.767726898E-2,-1.077718139E-1
8.708345631E0,-1.185750961E-1,5.079269409E-2,-8.693766594E-2
8.716341609E0,-1.156923771E-1,4.864501953E-2,-7.575929165E-2
8.724336279E0,-1.082735062E-1,6.080245972E-2,-8.132916689E-2
8.732363642E0,-9.861946106E-2,6.095123291E-2,-8.446806669E-2
8.740358158E0,-1.154932976E-1,6.585121155E-2,-9.223693609E-2
8.748354444E0,-1.180233955E-1,8.032417297E-2,-8.084285259E-2
8.756350423E0,-1.110236645E-1,9.239006042E-2,-6.465923786E-2
8.764345093E0,-1.135900021E-1,1.092433929E-1,-5.091422796E-2
8.772341379E0,-1.184763908E-1,9.497642517E-2,-4.454058409E-2
8.780335895E0,-1.065161228E-1,1.070594788E-1,-3.824234009E-2
8.788362873E0,-1.089215279E-1,1.143474579E-1,-3.208327293E-2
8.796359544E0,-1.183710098E-1,1.288490295E-1,-2.832305431E-2
8.804353983E0,-1.015815735E-1,1.433305740E-1,-4.365384579E-2
8.812349577E0,-1.133337021E-1,1.530857086E-1,-3.486090899E-2
8.820344940E0,-1.129267216E-1,1.604900360E-1,-4.046297073E-2
8.828340611E0,-8.844733238E-2,1.416025162E-1,-3.156304359E-2
8.836336973E0,-8.788228035E-2,1.371011734E-1,-3.443652391E-2
8.844362182E0,-7.032704353E-2,1.183042526E-1,-2.998775244E-2
8.852357775E0,-6.925725937E-2,8.521366119E-2,-3.024607897E-2
8.860353215E0,-7.512784004E-2,1.240158081E-1,-1.366323233E-2
8.868349424E0,-6.148672104E-2,1.006660461E-1,-1.766979694E-3
8.876345171E0,-1.896500587E-2,7.496261597E-2,-1.136076450E-2
8.884340150E0,-3.854227066E-2,8.521080017E-2,1.018649340E-2
8.892335590E0,-1.000761986E-2,7.636547089E-2,1.025021076E-2
8.900361645E0,9.010553360E-3,6.993007660E-2,1.992696524E-2
8.908357392E0,-6.136894226E-4,7.548904419E-2,1.047700644E-2
8.916353908E0,-1.960682869E-2,6.434154510E-2,1.065528393E-2
8.924348656E0,7.067918777E-3,5.084514618E-2,1.800215244E-2
8.932344634E0,-2.038478851E-3,4.935455322E-2,2.545946836E-2
8.940338842E0,1.036405563E-2,2.391147614E-2,3.529053926E-2
8.948335668E0,4.428219795E-2,1.761341095E-2,4.512625933E-2
8.956361876E0,1.830792427E-2,-7.847785950E-3,6.456393003E-2
8.964357162E0,3.530144691E-2,-3.813743591E-2,5.278819799E-2
8.972352525E0,4.257655144E-2,5.755424500E-3,6.733167171E-2
8.980347272E0,3.779435158E-2,1.609706879E-2,6.499940157E-2
8.988344250E0,4.481601715E-2,-9.510040283E-3,6.512743235E-2
8.996339920E0,4.912114143E-2,4.619693756E-2,6.992870569E-2
9.004335206E0,6.760311127E-2,8.473396301E-3,7.940202951E-2
9.012360800E0,6.887626648E-2,2.330589294E-2,8.637654781E-2
9.020353317E0,7.433867455E-2,1.403808594E-2,8.364683390E-2
9.028352372E0,7.477712631E-2,2.862739563E-2,9.728896618E-2
9.036348042E0,6.777858734E-2,3.595924377E-2,9.640169144E-2
9.044343482E0,6.277298927E-2,6.232738495E-2,1.167600155E-1
9.052338767E0,5.532479286E-2,5.274772644E-2,1.081107855E-1
9.060334130E0,5.956625938E-2,7.420063019E-2,1.134609580E-1
9.068360339E0,5.644488335E-2,7.883548737E-2,1.066477299E-1
9.076356856E0,7.926321030E-2,8.096790314E-2,1.020545959E-1
9.084351680E0,5.172443390E-2,5.195617676E-2,8.789515495E-2
9.092347043E0,3.847360611E-2,7.798194885E-2,1.070954800E-1
9.100341790E0,3.490018845E-2,5.851745605E-2,1.283715367E-1
9.108338307E0,1.949000359E-2,5.104160309E-2,1.326163411E-1
9.116335208E0,6.658792496E-3,5.078792572E-2,1.367956400E-1
9.124360417E0,5.905628204E-3,5.535602570E-2,9.081596136E-2
9.132356164E0,3.488063812E-4,4.796886444E-2,9.301030636E-2
9.140350297E0,-3.126788139E-2,6.700611115E-2,9.066051245E-2
9.148346583E0,-5.328655243E-4,7.170486450E-2,1.075361967E-1
9.156343176E0,2.077865601E-2,8.122920990E-2,1.124029756E-1
9.164338154E0,3.249716759E-2,7.158279419E-2,9.552842379E-2
9.172333901E0,4.652476311E-2,8.824443817E-2,7.853871584E-2
9.180355418E0,5.337762833E-2,6.660270691E-2,7.357084751E-2
9.188355396E0,4.837322235E-2,4.979419708E-2,3.292846680E-2
9.196351681E0,3.173780441E-2,4.504776001E-2,4.027998447E-2
9.204347045E0,3.700995445E-2,3.081417084E-2,5.004501343E-2
9.212342331E0,2.829337120E-2,1.907157898E-2,4.313009977E-2
9.220337463E0,2.945590019E-2,6.008625031E-2,3.149521351E-2
9.228333441E0,4.736018181E-2,6.038856506E-2,3.900218010E-2
9.236360188E0,6.023979187E-2,7.021141052E-2,3.451836109E-2
9.244354935E0,3.233957291E-2,8.002662659E-2,2.783197165E-2
9.252349913E0,4.741907120E-2,3.475856781E-2,1.413959265E-2
9.260344122E0,3.848218918E-2,3.976154327E-2,1.258009672E-2
9.268341563E0,2.481889725E-2,2.803421021E-2,6.418049335E-3
9.276337310E0,6.136560440E-2,4.324913025E-3,2.668869495E-2
9.284332980E0,5.723118782E-2,-2.618789673E-3,1.827389002E-2
9.292358804E0,6.264185905E-2,2.410888672E-3,2.193009853E-2
9.300353782E0,1.012947559E-1,1.694011688E-2,2.070492506E-2
9.308349760E0,1.061363220E-1,1.223182678E-2,1.449322701E-2
9.316346738E0,9.397983551E-2,2.900600433E-2,2.015256882E-2
9.324341716E0,1.029670238E-1,5.525493622E-2,1.141458750E-2
9.332336465E0,8.782529831E-2,6.230354309E-2,-2.091407776E-3
9.340331289E0,7.240772247E-2,6.689548492E-2,-1.171946526E-3
9.348358651E0,6.640791893E-2,2.597332001E-2,7.125318050E-3
9.356354553E0,5.308222771E-2,-6.198883057E-4,1.307636499E-2
9.364350223E0,4.916572571E-2,-3.296852112E-3,2.637422085E-2
9.372345585E0,3.810048103E-2,-8.358001709E-3,3.018468618E-2
9.380340410E0,2.945709229E-2,-1.820087433E-2,4.834932089E-2
9.388336389E0,3.284573555E-2,-3.041839600E-2,5.939030647E-2
9.396333290E0,5.763864517E-2,-6.771087646E-3,7.743281126E-2
9.404358729E0,3.926444054E-2,2.488136292E-3,6.186872721E-2
9.412354092E0,4.959964752E-2,2.609157562E-2,5.806928873E-2
9.420345532E0,4.056906700E-2,2.568912506E-2,5.171495676E-2
9.428345433E0,4.585337639E-2,-8.253097534E-3,3.324818611E-2
9.436340795E0,5.788803101E-3,-1.821804047E-2,4.833763838E-2
9.444336542E0,-1.488447189E-2,-1.856040955E-2,6.559270620E-2
9.452332214E0,-3.996348381E-2,1.229667664E-2,9.935647249E-2
9.460357730E0,-5.029082298E-2,3.843688965E-2,1.231540442E-1
9.468353401E0,-3.398060799E-2,5.265522003E-2,1.322018504E-1
9.476350532E0,-4.163599014E-2,6.445503235E-2,1.242184639E-1
9.484344434E0,-5.173254013E-2,2.355766296E-2,1.064519286E-1
9.492340104E0,-4.530262947E-2,4.006671906E-2,9.593874216E-2
9.500334543E0,-7.008600235E-2,1.488685608E-3,7.825344801E-2
9.508332060E0,-8.280205727E-2,-1.073265076E-2,8.446812630E-2
9.516358192E0,-7.868814468E-2,-4.208660126E-2,8.354341984E-2
9.524353479E0,-4.095530510E-2,-4.708576202E-2,7.056057453E-2
9.532348226E0,-1.754164696E-2,-3.531551361E-2,5.993920565E-2
9.540343896E0,-2.042579651E-2,-3.073024750E-2,7.312488556E-2
9.548339951E0,-1.769542694E-3,-1.897239685E-2,8.136487007E-2
9.556335544E0,7.133007050E-3,-2.489089966E-3,5.821895599E-2
9.564330676E0,-1.770091057E-2,4.351615906E-3,5.167871714E-2
9.572357347E0,-4.026079178E-2,-8.010864258E-4,4.283255339E-2
9.580351863E0,-4.125857353E-2,-1.553249359E-2,5.070430040E-2
9.588348458E0,-5.438017845E-2,-6.350517273E-3,2.280509472E-2
9.596344974E0,-6.500864029E-2,-3.543663025E-2,1.423603296E-2
9.604338875E0,-3.738880157E-2,-3.340530396E-2,1.057696342E-2
9.612335392E0,-1.956295967E-2,-4.099655151E-2,1.428395510E-2
9.620361293E0,-1.926422119E-3,-5.581188202E-2,1.564592123E-2
9.628355732E0,-3.463745117E-3,-1.556777954E-2,1.936167479E-2
9.636353249E0,-9.817600250E-3,-2.561378479E-2,2.063596249E-2
9.644347920E0,-9.016752243E-3,-1.892089844E-2,4.987716675E-3
9.652343975E0,-1.302075386E-2,9.314537048E-3,-3.511190414E-3
9.660338338E0,-7.520914078E-3,1.615524292E-3,7.092595100E-3
9.668334623E0,-1.878166199E-2,-3.697395325E-3,5.649387836E-3
9.676361371E0,-1.591062546E-2,-9.064674377E-3,-1.011162996E-2
9.684355502E0,-1.063823700E-2,-7.243156433E-3,-4.235446453E-3
9.692351788E0,-1.025414467E-2,1.610469818E-2,-1.747542620E-2
9.700347151E0,-2.668380737E-3,5.940437317E-3,-1.150280237E-2
9.708343438E0,-6.876945496E-3,5.396842957E-3,-1.750171185E-2
9.716339185E0,-8.679866791E-3,2.400779724E-2,-2.113336325E-2
9.724333932E0,1.361274719E-2,2.350234985E-2,-1.759874821E-2
9.732361218E0,-2.387762070E-3,1.820850372E-2,-2.369064093E-2
9.740353503E0,5.726099014E-3,3.450775146E-2,-2.974396944E-2
9.748351635E0,4.378318787E-3,4.125785828E-2,-2.865147591E-2
9.756347690E0,-8.835077286E-3,2.648639679E-2,-2.991753817E-2
9.764342745E0,-1.468205452E-2,2.853012085E-2,-1.671612263E-2
9.772337801E0,-6.041526794E-3,9.055137634E-3,-2.027821541E-2
9.780333087E0,-1.890897751E-2,1.593494415E-2,-1.414310932E-2
9.788360142E0,-7.876634598E-3,6.051063538E-3,4.068851471E-3
9.796356427E0,-3.030705452E-2,2.970409393E-2,1.271623373E-2
9.804350867E0,-4.780530930E-3,6.774711609E-2,1.669740677E-2
9.812346230E0,-3.299474716E-3,6.506061554E-2,3.022974730E-2
9.828337878E0,5.656266212E-2,5.715465546E-2,4.777240753E-2
9.836334242E0,4.785251617E-2,3.514671326E-2,4.674774408E-2
9.844360604E0,5.563712120E-2,4.655170441E-2,6.202536821E-2
9.852355428E0,7.048988342E-2,1.719856262E-2,5.296295881E-2
9.860350099E0,5.885076523E-2,-1.700782776E-2,5.551379919E-2
9.868347000E0,3.516888618E-2,1.099681854E-2,6.982344389E-2
9.876341824E0,1.132249832E-2,1.020622253E-2,8.860301971E-2
9.884337110E0,4.257917404E-3,2.616405487E-2,1.358972788E-1
9.892332857E0,4.356384277E-3,2.052879333E-2,1.874690652E-1
9.900359297E0,9.022951126E-3,4.112434387E-2,2.120552063E-1
9.908354660E0,1.115083694E-2,5.203723907E-2,2.525567412E-1
9.916350946E0,5.881786346E-3,2.213382721E-2,2.372100949E-1
9.924346001E0,5.293130875E-3,1.607227325E-2,2.401812077E-1
9.932341594E0,1.899170876E-2,-1.162052155E-2,2.375836372E-1
9.940336418E0,1.835656166E-2,-2.977561951E-2,2.129086256E-1
9.948333012E0,3.696799278E-2,-7.905769348E-2,1.832283139E-1
9.956360067E0,5.562162399E-2,-8.525562286E-2,1.653326154E-1
9.964354430E0,7.671713829E-2,-8.907699585E-2,1.615518928E-1
9.972349870E0,4.306030273E-2,-7.369804382E-2,1.406692863E-1
9.980342463E0,7.658886909E-2,-4.155540466E-2,1.314911246E-1
9.988341134E0,8.393144608E-2,-1.658248901E-2,1.268728375E-1
9.996337112E0,6.250834465E-2,2.035427094E-2,9.129536152E-2
1.000433186E1,2.413463593E-2,4.051017761E-2,5.375438929E-2
1.001235891E1,9.487390518E-3,3.430461884E-2,9.487986565E-3
1.002035343E1,-1.987791061E-2,1.847553253E-2,-5.417943001E-3
1.002834941E1,-3.498792648E-2,2.660751343E-2,-6.279748678E-2
1.003634539E1,-1.696467400E-2,5.933761597E-3,-7.912033796E-2
1.004434044E1,1.530647278E-2,-7.585525513E-3,-7.375609875E-2
1.005233611E1,1.153993607E-2,4.196166992E-4,-1.041717529E-1
1.006033109E1,3.403902054E-2,-3.708076477E-2,-9.619009495E-2
1.006835792E1,3.745412827E-2,-3.624343872E-2,-1.143114567E-1
1.007635420E1,2.645421028E-2,-1.145839691E-2,-1.321837902E-1
1.008434895E1,1.553630829E-2,-3.359794617E-3,-1.566156149E-1
1.009234431E1,-1.435232162E-2,4.838943481E-3,-1.685006618E-1
1.010033990E1,-3.458929062E-2,2.029705048E-2,-1.701186299E-1
1.010833565E1,-5.458450317E-2,4.068660736E-2,-1.733037233E-1
1.011633255E1,-5.539846420E-2,2.523708344E-2,-1.781219244E-1
1.012435738E1,-5.851793289E-2,2.425098419E-2,-1.797492504E-1
1.013235336E1,-6.630182266E-2,2.580261230E-2,-2.185223699E-1
1.014034787E1,-7.147264481E-2,5.950927734E-3,-2.228337526E-1
1.014834470E1,-9.052515030E-2,-1.713752747E-3,-2.118786573E-1
1.015634044E1,-8.050942421E-2,-1.641654968E-2,-2.075017691E-1
1.016433458E1,-8.211445808E-2,-1.183509827E-2,-1.859890223E-1
1.017233171E1,-8.326959610E-2,4.852294922E-3,-1.834498644E-1
1.018035692E1,-7.905316353E-2,2.532958984E-3,-1.570937634E-1
1.018835205E1,-7.706785202E-2,3.133296967E-2,-1.336164474E-1
1.019634864E1,-7.491302490E-2,4.101085663E-2,-1.557914615E-1
1.020434424E1,-9.165644646E-2,5.554199219E-2,-1.732131839E-1
1.021233960E1,-1.248290539E-1,8.215236664E-2,-1.784317493E-1
1.022033381E1,-1.479616165E-1,5.862522125E-2,-1.595411301E-1
1.022833063E1,-1.397738457E-1,8.303356171E-2,-1.406570077E-1
1.023635746E1,-1.552851200E-1,1.003284454E-1,-1.360754967E-1
1.024435313E1,-1.445395947E-1,1.247711182E-1,-1.100812554E-1
1.025234811E1,-9.349656105E-2,1.131849289E-1,-1.057178378E-1
1.026034285E1,-9.774112701E-2,1.278553009E-1,-9.682434797E-2
1.026834006E1,-7.344698906E-2,1.137151718E-1,-6.187045574E-2
1.027633519E1,3.103256226E-3,7.307720184E-2,-3.224688768E-2
1.028433017E1,9.786629677E-2,3.390312195E-3,-9.761452675E-4
1.029235607E1,1.866226196E-1,-1.161479950E-2,2.488541603E-2
1.030035113E1,1.828048229E-1,4.038810730E-3,-1.672607660E-2
1.030834711E1,1.608939171E-1,7.315635681E-3,3.455930948E-2
1.031634362E1,1.213550568E-1,5.485534668E-3,1.208481193E-1
1.032433898E1,1.144814491E-1,-3.495693207E-2,1.609200239E-1
1.033233373E1,1.184251308E-1,-8.535861969E-2,2.362292409E-1
1.034032948E1,7.028150558E-2,-1.410589218E-1,1.965197921E-1
1.034835592E1,3.430819511E-2,-1.230878830E-1,1.694663763E-1
1.035635182E1,-4.903674126E-2,-1.151275635E-1,1.339145303E-1
1.036434695E1,-6.661653519E-2,-1.098003387E-1,1.333510280E-1
1.037234324E1,4.638934135E-2,-9.271049500E-2,1.532522440E-1
1.038033822E1,2.294366360E-1,-9.279823303E-2,1.408662200E-1
1.038833358E1,3.625774384E-1,-5.513381958E-2,1.841372848E-1
1.039633017E1,5.337257385E-1,-3.987598419E-2,1.886527538E-1
1.040435569E1,6.463451385E-1,-3.061199188E-2,2.107657790E-1
1.041235113E1,7.522242069E-1,-1.814365387E-2,2.495014071E-1
1.042034619E1,7.315151691E-1,-7.446289062E-3,3.230313659E-1
1.042834216E1,6.546049118E-1,-4.382801056E-2,4.356365800E-1
1.043633814E1,5.205211639E-1,-4.078865051E-2,5.412211418E-1
1.044433343E1,3.357000351E-1,-8.878231049E-2,5.997334719E-1
1.045232940E1,1.347997189E-1,-7.956409454E-2,5.482668877E-1
1.046035461E1,-6.007266045E-2,-7.261466980E-2,5.037363172E-1
1.046835067E1,-2.480878830E-1,-2.192974091E-2,3.749141097E-1
1.047634780E1,-3.571341038E-1,5.846309662E-2,2.091799378E-1
1.048434262E1,-3.508245945E-1,1.113500595E-1,1.434165239E-1
1.049233760E1,-1.991088390E-1,1.364765167E-1,7.512974739E-2
1.050033274E1,-2.186512947E-2,1.785287857E-1,2.348542213E-3
1.050835940E1,1.480741501E-1,2.273416519E-1,-5.095505714E-2
1.051635508E1,2.863245010E-1,3.041629791E-1,-8.819442987E-2
1.052435021E1,4.276671410E-1,3.254384995E-1,-1.251806617E-1
1.053234611E1,5.280730724E-1,3.345737457E-1,-1.515852213E-1
1.054034055E1,5.837521553E-1,3.269824982E-1,-1.713157892E-1
1.054833660E1,6.403884888E-1,2.810544968E-1,-1.904991865E-1
1.055633404E1,6.562840939E-1,2.490692139E-1,-2.263134122E-1
1.056432818E1,6.360735893E-1,2.022905350E-1,-2.950134277E-1
1.057235462E1,5.610160828E-1,2.055683136E-1,-3.386778235E-1
1.058034936E1,4.516055584E-1,2.043733597E-1,-3.475379944E-1
1.058834511E1,3.256821632E-1,2.087345123E-1,-3.143407106E-1
1.059634193E1,1.918189526E-1,1.688604355E-1,-2.615127563E-1
1.060433737E1,2.454638481E-2,1.090030670E-1,-1.658160090E-1
1.061233181E1,-1.169729233E-1,7.208728790E-2,-1.703355312E-1
1.062035733E1,-2.146100998E-1,1.712894440E-2,-1.591928005E-1
1.062835415E1,-2.645258904E-1,-3.437995911E-3,-1.551029086E-1
1.063635075E1,-3.074269295E-1,-5.884552002E-2,-2.257318497E-1
1.064434519E1,-3.094820976E-1,-8.168029785E-2,-3.520838618E-1
1.065234032E1,-3.326864243E-1,-4.777240753E-2,-4.396697879E-1
1.066033499E1,-3.409214020E-1,-2.649593353E-2,-4.671937525E-1
1.066833197E1,-3.132219315E-1,-3.843307495E-3,-4.907301068E-1
1.067635925E1,-2.963502407E-1,1.228713989E-2,-5.168920755E-1
1.068435346E1,-2.858304977E-1,5.281543732E-2,-5.367372036E-1
1.069234936E1,-2.671134472E-1,6.025409698E-2,-4.674211442E-1
1.070034111E1,-2.093396187E-1,1.992225647E-2,-3.110889792E-1
1.070834009E1,-1.895520687E-1,-3.753662109E-3,-2.047989368E-1
1.071633638E1,-1.965591908E-1,-4.074096680E-3,-1.049730778E-1
1.072433182E1,-2.323756218E-1,-4.064655304E-2,-6.584876776E-2
1.073235764E1,-2.723433971E-1,-2.688503265E-2,-6.720602512E-2
1.074035231E1,-3.044385910E-1,8.559226990E-3,-7.967150211E-2
1.074834836E1,-3.542616367E-1,3.254318237E-2,-9.758591652E-2
1.075634465E1,-4.143733978E-1,9.309005737E-2,-1.181593537E-1
1.076433971E1,-4.679563046E-1,1.543550491E-1,-1.336216927E-1
1.077233561E1,-5.097744465E-1,1.590785980E-1,-1.436550021E-1
1.078032974E1,-5.211024284E-1,1.645231247E-1,-1.268675327E-1
1.078835710E1,-5.094711781E-1,1.633872986E-1,-1.380763054E-1
1.079635400E1,-4.828367233E-1,1.721153259E-1,-1.628723741E-1
1.080434821E1,-4.605047703E-1,1.858549118E-1,-1.701543331E-1
1.081234411E1,-4.193155766E-1,2.258090973E-1,-1.699099541E-1
1.082033855E1,-4.120974541E-1,2.631750107E-1,-1.550894380E-1
1.082833492E1,-3.628163338E-1,3.288087845E-1,-1.310790181E-1
1.083633143E1,-3.196172714E-1,3.818941116E-1,-7.413548231E-2
1.084435641E1,-3.013031483E-1,3.555240631E-1,-1.320433617E-2
1.085235177E1,-3.244204521E-1,3.718814850E-1,6.843405962E-2
1.086034406E1,-3.597908020E-1,3.497457504E-1,1.397217512E-1
1.086834335E1,-3.211429119E-1,3.179035187E-1,1.506926417E-1
1.087633963E1,-3.086037636E-1,2.717580795E-1,2.117734551E-1
1.088433446E1,-3.028032780E-1,2.401285172E-1,2.153735161E-1
1.089232982E1,-2.488226891E-1,2.110157013E-1,1.738391519E-1
1.090035626E1,-1.657330990E-1,1.437778473E-1,9.952300787E-2
1.090835185E1,-5.624532700E-2,3.587818146E-2,6.876200438E-2
1.091634875E1,7.235860825E-2,-3.132343292E-2,4.797929525E-2
1.092434289E1,1.748766899E-1,-1.104545593E-1,9.140753746E-2
1.093233832E1,3.066015244E-1,-1.799411774E-1,1.264665723E-1
1.094033369E1,4.052810669E-1,-2.207431793E-1,1.732358932E-1
1.094833020E1,5.389239788E-1,-2.525663376E-1,1.666284800E-1
1.095635703E1,6.702482700E-1,-2.471427917E-1,1.023111939E-1
1.096435147E1,7.423696518E-1,-2.146444321E-1,5.528640747E-2
1.097234737E1,7.709760666E-1,-1.912889481E-1,1.945585012E-2
1.098034273E1,7.339766026E-1,-2.170648575E-1,4.324990511E-2
1.098833786E1,6.760311127E-1,-2.028274536E-1,1.098235250E-1
1.099633438E1,6.498494148E-1,-2.347755432E-1,1.638368368E-1
1.100432920E1,6.312329769E-1,-2.244234085E-1,1.957686543E-1
1.101235526E1,6.603143215E-1,-1.886787415E-1,1.226835251E-1
1.102034762E1,7.194104195E-1,-1.015014648E-1,6.493628025E-2
1.102834637E1,7.629377842E-1,-1.041707993E-1,-2.489656210E-2
1.103634289E1,7.550153732E-1,-5.542087555E-2,-1.131833196E-1
1.104433863E1,7.304399014E-1,-8.174037933E-2,-1.142903566E-1
1.105233330E1,7.763838768E-1,-1.038465500E-1,-9.383386374E-2
1.106032897E1,8.788061142E-1,-1.695699692E-1,-1.123304963E-1
1.106835549E1,1.066424847E0,-2.765321732E-1,-1.483008265E-1
1.107635170E1,1.116233587E0,-3.219404221E-1,-1.945867538E-1
1.108434652E1,1.123804569E0,-3.106241226E-1,-2.027794123E-1
1.109234127E1,1.112686634E0,-3.361186981E-1,-2.300871015E-1
1.110033625E1,1.175778151E0,-4.034023285E-1,-2.762351036E-1
1.110833346E1,1.327526808E0,-5.244045258E-1,-3.287965059E-1
1.111632890E1,1.415820599E0,-5.846977234E-1,-3.894178271E-1
1.112435465E1,1.493098497E0,-6.633462906E-1,-5.144365430E-1
1.113235039E1,1.532724619E0,-7.221364975E-1,-6.524217129E-1
1.114034537E1,1.523197412E0,-7.873001099E-1,-6.695190072E-1
1.114834112E1,1.538859606E0,-7.990589142E-1,-6.117191315E-1
1.115633771E1,1.609594345E0,-8.586225510E-1,-6.275397539E-1
1.116433246E1,1.804024696E0,-8.181056976E-1,-5.786708593E-1
1.117232844E1,1.982750416E0,-8.025293350E-1,-4.999240637E-1
1.118035334E1,2.232192993E0,-7.857770920E-1,-4.000830352E-1
1.118834993E1,2.436645985E0,-8.212347031E-1,-4.459066093E-1
1.119634591E1,2.529160500E0,-8.014688492E-1,-5.261842608E-1
1.120434066E1,2.616138935E0,-7.908725739E-1,-5.574859977E-1
1.121233694E1,2.623783112E0,-8.134508133E-1,-6.144061685E-1
1.122033192E1,2.548739433E0,-7.776622772E-1,-5.457786322E-1
1.122832882E1,2.254648685E0,-7.171115875E-1,-4.608078599E-1
1.123635526E1,1.938961029E0,-7.126522064E-1,-3.867810965E-1
1.124434970E1,1.710114002E0,-7.519750595E-1,-3.633259833E-1
1.125234484E1,1.687851429E0,-8.686714172E-1,-3.681798279E-1
1.126033766E1,1.787744045E0,-1.077530861E0,-3.759171665E-1
1.126833618E1,1.793457508E0,-1.216363907E0,-3.273439705E-1
1.127633277E1,1.630473137E0,-1.293501854E0,-2.120195627E-1
1.128432752E1,1.481969357E0,-1.363241196E0,-1.322287917E-1
1.129235334E1,1.440285683E0,-1.319442749E0,-1.419417858E-1
1.130034863E1,1.606490612E0,-1.121159554E0,-1.686152816E-1
1.130834491E1,1.785847187E0,-9.102849960E-1,-1.744832993E-1
1.131634151E1,2.029146671E0,-6.428623199E-1,-2.099555731E-1
1.132433595E1,2.182557106E0,-4.177913666E-1,-2.638982236E-1
1.133233162E1,2.170493126E0,-2.748088837E-1,-3.415226936E-1
1.134032606E1,2.021906853E0,-1.087689400E-1,-2.398276031E-1
1.134835288E1,1.741830826E0,-2.761840820E-2,-1.247059703E-1
1.135634947E1,1.458380699E0,3.161573410E-2,9.179741144E-2
1.136434422E1,1.222832680E0,5.761528015E-2,3.040097952E-1
1.137233920E1,1.001902103E0,3.366851807E-2,4.501438737E-1
1.138033518E1,9.620580673E-1,-1.278734207E-2,3.504477739E-1
1.138833085E1,1.009351254E0,-1.495194435E-1,2.012538016E-1
1.139632744E1,1.117151737E0,-2.597312927E-1,2.666997910E-2
1.140435242E1,1.069989681E0,-3.603773117E-1,-5.762451887E-2
1.141234871E1,8.252878189E-1,-3.864274025E-1,-8.229365945E-2
1.142034376E1,6.161870956E-1,-5.069389343E-1,-1.020914316E-1
1.142833943E1,5.319342613E-1,-6.397604942E-1,-9.067395329E-2
1.143633602E1,4.933891296E-1,-7.683439255E-1,-7.878831029E-2
1.144433100E1,3.914937973E-1,-8.935384750E-1,-7.760930061E-2
1.145235713E1,1.872425079E-1,-9.072213173E-1,-8.588382602E-2
1.146035165E1,1.061849594E-1,-9.805121422E-1,-1.413198709E-1
1.146834763E1,5.955982208E-2,-1.029369831E0,-1.437175721E-1
1.147634422E1,7.067871094E-2,-1.037612438E0,-1.847112775E-1
1.148433889E1,8.375167847E-2,-1.008476734E0,-1.930073798E-1
1.149233464E1,9.480667114E-2,-8.850955963E-1,-1.074555814E-1
1.150032908E1,-6.072044373E-3,-8.317046165E-1,-7.232408226E-2
1.150835644E1,-5.326938629E-2,-7.606525421E-1,-3.594756126E-4
1.151635242E1,-1.065063477E-1,-6.516737938E-1,5.298046768E-2
1.152434748E1,-2.418746948E-1,-5.984582901E-1,6.409223378E-2
1.153234338E1,-4.392766953E-1,-4.780616760E-1,-2.647884190E-2
1.154033874E1,-4.769248962E-1,-3.797791004E-1,-1.440910697E-1
1.154833418E1,-3.208551407E-1,-3.262033463E-1,-2.316565514E-1
1.155633100E1,-1.034240723E-1,-3.263947964E-1,-2.982464433E-1
1.156435621E1,3.744602203E-2,-3.623135090E-1,-3.248597383E-1
1.157235188E1,1.034469604E-1,-3.642237186E-1,-2.838543653E-1
1.158034725E1,1.547250748E-1,-3.726689816E-1,-2.581979334E-1
1.158834322E1,2.440204620E-1,-3.977432251E-1,-2.274602652E-1
1.159633889E1,3.637905121E-1,-3.718097210E-1,-2.124246061E-1
1.160433372E1,5.739440918E-1,-3.051955700E-1,-3.283767998E-1
1.161232962E1,9.212865829E-1,-2.859323025E-1,-2.926666141E-1
1.162035491E1,1.242763519E0,-3.235170841E-1,-2.315139174E-1
1.162835119E1,1.588412285E0,-3.729624748E-1,-1.531669497E-1
1.163634748E1,1.734050751E0,-4.316143990E-1,-1.492869854E-2
1.164434276E1,1.767032623E0,-4.385044575E-1,7.337737083E-2
1.165233782E1,1.769937515E0,-4.976398945E-1,8.314591646E-2
1.166033264E1,1.781301498E0,-5.924600363E-1,-6.395280361E-3
1.166832885E1,1.767794609E0,-6.565295458E-1,-3.069967031E-2
1.167635529E1,1.796741486E0,-7.409603596E-1,-1.024754643E-1
1.168435065E1,1.808708191E0,-7.502882481E-1,-2.371299863E-1
1.169234579E1,1.749094009E0,-6.872320175E-1,-2.517009974E-1
1.170034200E1,1.522662163E0,-6.444582343E-1,-1.845768094E-1
1.170833736E1,1.206331253E0,-4.546510577E-1,-1.114268303E-1
1.171633341E1,9.630575180E-1,-3.394155204E-1,-1.134521365E-1
1.172432931E1,9.338893890E-1,-2.528457642E-1,-1.608072519E-1
1.173235522E1,1.032538414E0,-3.046891987E-1,-1.354278922E-1
1.174034958E1,1.039004326E0,-3.778229654E-1,-1.863861084E-2
1.174834625E1,8.172111511E-1,-4.293260872E-1,5.307698250E-2
1.175634254E1,5.613384247E-1,-4.802281559E-1,9.761452675E-2
1.176433690E1,3.486757278E-1,-3.949691653E-1,7.472991943E-2
1.177233226E1,2.441711426E-1,-3.241143227E-1,4.802906513E-2
1.178032793E1,1.316499710E-1,-1.677243710E-1,9.165537357E-2
1.178835437E1,3.854560852E-2,-3.226518631E-3,2.225228548E-1
1.179635035E1,-1.607799530E-1,1.613926888E-1,3.832388520E-1
1.180434517E1,-5.085020065E-1,3.846263885E-1,5.274421573E-1
1.181234107E1,-7.608499527E-1,4.966537952E-1,5.216021538E-1
1.182033590E1,-9.518108368E-1,5.075793266E-1,5.750590563E-1
1.182833249E1,-1.164200783E0,3.876979351E-1,5.666647553E-1
1.183632839E1,-1.528717518E0,2.227439880E-1,5.311638117E-1
1.184435483E1,-1.912843704E0,1.412484646E-1,4.701771438E-1
1.185234958E1,-2.241945267E0,1.340599060E-1,3.736597300E-1
1.186034471E1,-2.543454647E0,2.338614464E-1,2.836071253E-1
1.186834069E1,-2.792192459E0,3.430950642E-1,1.926169097E-1
1.187633782E1,-3.051080704E0,5.385093689E-1,6.546586752E-2
1.188433226E1,-3.140006065E0,6.407945156E-1,-1.270861626E-1
1.189232793E1,-2.934711933E0,5.815491676E-1,-1.827449203E-1
1.190034914E1,-2.605188847E0,4.360265732E-1,-9.138414264E-2
1.190834889E1,-2.421706676E0,2.624769211E-1,2.198678255E-2
1.191634541E1,-2.295233250E0,7.592344284E-2,1.918856800E-1
1.192434077E1,-2.323757172E0,-5.522012711E-2,2.916682363E-1
1.193233552E1,-2.360885143E0,-1.154561043E-1,3.615630269E-1
1.194033119E1,-2.345299244E0,-1.658778191E-1,4.081149697E-1
1.194832716E1,-2.238368511E0,-2.984814644E-1,2.936252356E-1
1.195635453E1,-2.123671055E0,-5.402112007E-1,2.217302024E-1
1.196434843E1,-2.068134308E0,-8.602323532E-1,2.507470250E-1
1.197234433E1,-2.145792961E0,-1.129550934E0,3.115092814E-1
1.198033938E1,-2.304351330E0,-1.268589020E0,4.551485181E-1
1.198833505E1,-2.453104019E0,-1.219561577E0,5.948539376E-1
1.199633226E1,-2.662861347E0,-9.304924011E-1,7.098802328E-1
1.200432609E1,-2.819066048E0,-7.340936661E-1,8.741501570E-1
1.201235253E1,-3.070241928E0,-5.421485901E-1,1.013160586E0
1.202034758E1,-3.321025372E0,-4.432115555E-1,1.056546688E0
1.202834395E1,-3.564292431E0,-4.232525826E-1,1.092737913E0
1.203634054E1,-3.539511204E0,-4.797768593E-1,1.086670041E0
1.204433498E1,-3.407057762E0,-5.054788589E-1,1.129513741E0
1.205233119E1,-3.145577431E0,-4.597625732E-1,1.142310619E0
1.206032624E1,-2.855354309E0,-3.958063126E-1,1.150070190E0
1.206835176E1,-2.457032681E0,-3.738870621E-1,1.136009574E0
1.207634897E1,-2.127338409E0,-4.039916992E-1,1.161727905E0
1.208434379E1,-1.992686272E0,-5.487828255E-1,1.231957674E0
1.209233939E1,-2.057857037E0,-6.478433609E-1,1.458369255E0
1.210033444E1,-2.206045151E0,-7.342495918E-1,1.602202535E0
1.210832988E1,-2.399599552E0,-7.238097191E-1,1.811745405E0
1.211632701E1,-2.559618473E0,-7.053427696E-1,1.957561493E0
1.212435191E1,-2.607181549E0,-5.666413307E-1,2.039827585E0
1.213234797E1,-2.427616596E0,-4.371862411E-1,1.994115114E0
1.214034272E1,-2.233789921E0,-3.318243027E-1,1.912361026E0
1.214833862E1,-1.910006046E0,-2.728562355E-1,1.735915422E0
1.215633521E1,-1.553440571E0,-3.137698174E-1,1.522778511E0
1.216433027E1,-1.213912010E0,-3.925366402E-1,1.402401924E0
1.217232478E1,-1.097060204E0,-4.445333481E-1,1.394271135E0
1.218035084E1,-1.076528072E0,-4.355411530E-1,1.336208940E0
1.218834689E1,-1.018761158E0,-4.104919434E-1,1.371010065E0
1.219634372E1,-1.070107937E0,-3.524317741E-1,1.480008364E0
1.220433823E1,-1.259607792E0,-2.038626671E-1,1.578839302E0
1.221233390E1,-1.314560413E0,-1.133351326E-1,1.569206953E0
1.222032957E1,-1.000358582E0,-1.290340424E-1,1.671256781E0
1.222832486E1,-1.130070210E0,-2.389202118E-1,1.934284210E0
1.223635261E1,-1.707375526E0,-3.930315971E-1,1.982531786E0
1.224434705E1,-2.202824593E0,-4.852442741E-1,1.981926203E0
1.225234233E1,-2.340188503E0,-4.554829597E-1,1.954830170E0
1.226033716E1,-2.282315254E0,-3.585295677E-1,2.054346561E0
1.226833398E1,-2.031287193E0,-2.257785797E-1,1.978594780E0
1.227632965E1,-1.693300724E0,-2.736139297E-2,1.949428320E0
1.228432417E1,-1.353492260E0,1.857895851E-1,2.078186989E0
1.229235115E1,-1.278399467E0,2.687869072E-1,2.126218319E0
1.230034559E1,-1.279950142E0,2.606801987E-1,2.079187632E0
1.231633847E1,-1.123498440E0,-6.326436996E-2,1.898922682E0
1.232433268E1,-8.479051590E-1,-2.824583054E-1,1.700924873E0
1.233232858E1,-5.650763512E-1,-3.765077591E-1,1.588616610E0
1.234032425E1,-3.224291801E-1,-3.910074234E-1,1.519957542E0
1.234835069E1,-1.199207306E-1,-3.425407410E-1,1.322086811E0
1.235634643E1,1.831202507E-1,-3.143544197E-1,1.117897630E0
1.236434203E1,4.860954285E-1,-2.583665848E-1,9.457967281E-1
1.237233739E1,5.761728287E-1,-1.248431206E-1,8.039098978E-1
1.238033183E1,5.308651924E-1,8.494853973E-2,6.978548765E-1
1.238832819E1,4.513587952E-1,2.141423225E-1,5.952105522E-1
1.239632448E1,3.827242851E-1,2.328767776E-1,6.172252893E-1
1.240434992E1,2.914166451E-1,1.357645988E-1,6.409462690E-1
1.241234559E1,1.756873131E-1,1.631975174E-2,6.502970457E-1
1.242034126E1,6.199455261E-2,-1.414771080E-1,7.009452581E-1
1.242833724E1,-6.793022156E-3,-2.268614769E-1,7.022825480E-1
1.243633352E1,-1.335411072E-1,-3.350768089E-1,7.309044600E-1
1.244432742E1,-2.056818008E-1,-4.012041092E-1,7.139228582E-1
1.245235471E1,-2.379298210E-1,-4.424781799E-1,6.640485525E-1
1.246034915E1,-3.445477486E-1,-3.763685226E-1,5.598444939E-1
1.246834482E1,-4.313969612E-1,-1.701812744E-1,4.639420509E-1
1.247634180E1,-3.834128380E-1,3.454542160E-2,3.574824333E-1
1.248433655E1,-2.347602844E-1,1.423883438E-1,2.744622231E-1
1.249233191E1,-1.037931442E-2,1.635007858E-1,1.677553654E-1
1.250032750E1,2.424068451E-1,1.373558044E-1,1.247591972E-1
1.250835371E1,4.859833717E-1,1.151561737E-1,1.375911236E-1
1.251635023E1,6.885237694E-1,1.322607994E-1,1.456472874E-1
1.252434528E1,7.829885483E-1,1.876235008E-1,1.574468613E-1
1.253233980E1,8.740668297E-1,2.923564911E-1,1.803629398E-1
1.254033539E1,9.172973633E-1,3.550515175E-1,2.152245045E-1
1.254833260E1,8.271284103E-1,3.872113228E-1,2.760508060E-1
1.255632796E1,6.542363167E-1,4.054393768E-1,2.927951813E-1
1.256435325E1,5.086750984E-1,4.099864960E-1,3.272130489E-1
1.257234884E1,3.490543365E-1,3.177199364E-1,3.840267658E-1
1.258034390E1,2.274937630E-1,1.769313812E-1,4.660258293E-1
1.258833957E1,1.054377556E-1,-1.714134216E-2,4.877543449E-1
1.259633678E1,-5.573797226E-2,-1.975555420E-1,4.145407677E-1
1.260433160E1,-1.565756798E-1,-2.852873802E-1,2.779722214E-1
1.261232750E1,-2.240238190E-1,-3.116121292E-1,1.158998013E-1
1.262035210E1,-1.725106239E-1,-2.815093994E-1,-8.405303955E-2
1.262834869E1,4.510927200E-2,-2.425050735E-1,-2.398276329E-1
1.263634498E1,2.341127396E-1,-2.086353302E-1,-3.265857697E-1
1.264433972E1,3.509397507E-1,-1.867022514E-1,-3.467371464E-1
1.265233509E1,3.696651459E-1,-1.670131683E-1,-3.160510063E-1
1.266033022E1,3.555998802E-1,-1.709027290E-1,-2.439508438E-1
1.266832674E1,3.171133995E-1,-1.697454453E-1,-1.618008614E-1
1.267635318E1,2.887582779E-1,-1.232104301E-1,-1.309854984E-1
1.268434823E1,2.859311104E-1,-4.625701904E-2,-1.140992641E-1
1.269234367E1,2.616353035E-1,1.984882355E-2,-6.387948990E-2
1.270033872E1,1.286287308E-1,7.153224945E-2,-6.414008141E-2
1.270833409E1,-4.060077667E-2,1.489596367E-1,-5.990076065E-2
1.271633091E1,-1.132845879E-1,1.548867226E-1,-7.674765587E-2
1.272432574E1,-4.092454910E-2,1.359992027E-1,-8.485102654E-2
1.273235179E1,6.276178360E-2,8.113813400E-2,-4.522991180E-2
1.274034723E1,5.184698105E-2,5.492401123E-2,2.993822098E-2
1.274834290E1,7.665634155E-3,1.216173172E-2,1.208574772E-1
1.275633972E1,-5.774641037E-2,-1.841211319E-2,2.177953720E-1
1.276433424E1,-1.517729759E-1,-8.460903168E-2,2.923147678E-1
1.277233045E1,-2.699875832E-1,-1.074705124E-1,3.358399868E-1
1.278032466E1,-3.217945099E-1,-1.274313927E-1,3.509089947E-1
1.278835195E1,-3.120741844E-1,-1.109151840E-1,2.944746017E-1
1.279634854E1,-2.814588547E-1,-3.172922134E-2,2.265963554E-1
1.280434244E1,-2.704372406E-1,2.378082275E-2,1.830856800E-1
1.281233842E1,-2.764005661E-1,1.250157356E-1,1.611428261E-1
1.282033370E1,-3.159403801E-1,2.169728279E-1,1.530418396E-1
1.282832976E1,-2.978162766E-1,2.446274757E-1,1.628875732E-1
1.283632635E1,-2.789878845E-1,2.028722763E-1,2.143688202E-1
1.284435095E1,-3.685913086E-1,1.821298599E-1,3.235721588E-1
1.285234723E1,-4.916529655E-1,1.889972687E-1,3.731517792E-1
1.286034167E1,-5.923171043E-1,2.323551178E-1,3.681178093E-1
1.286833857E1,-5.802083015E-1,2.668814659E-1,3.405647278E-1
1.287633447E1,-5.916876793E-1,3.542733192E-1,2.798130512E-1
1.288432868E1,-5.231451988E-1,4.233903885E-1,1.925733089E-1
1.289232489E1,-4.143805504E-1,4.226355553E-1,1.462011337E-1
1.290035049E1,-3.498229980E-1,3.839035034E-1,1.591408253E-1
1.290834646E1,-3.319354057E-1,2.980027199E-1,1.682441235E-1
1.291634367E1,-2.972049713E-1,1.850242615E-1,1.374294758E-1
1.292433711E1,-1.702170372E-1,8.416032791E-2,1.649322510E-1
1.293233348E1,-1.083202362E-1,6.877613068E-2,1.389350891E-1
1.294032784E1,-1.127047539E-1,1.162018776E-1,8.613801003E-2
1.294832443E1,-1.299948692E-1,1.493473053E-1,4.462933540E-2
1.295635149E1,-1.363310814E-1,1.537466049E-1,-7.139635086E-2
1.296434662E1,-1.391396523E-1,7.924461365E-2,-1.947743893E-1
1.297234190E1,-1.694474220E-1,-3.338193893E-2,-2.564702034E-1
1.298033696E1,-2.462792397E-1,-1.577091217E-1,-2.761070728E-1
1.298833332E1,-3.074078560E-1,-2.983341217E-1,-2.972300053E-1
1.299632861E1,-3.218808174E-1,-3.999609947E-1,-3.344564438E-1
1.300432466E1,-2.440962791E-1,-4.674582481E-1,-4.237270355E-1
1.301235072E1,-1.576647758E-1,-4.053759575E-1,-4.736294746E-1
1.302034331E1,-1.127600670E-1,-2.953767776E-1,-5.435791016E-1
1.302834114E1,-1.209545135E-1,-1.997981071E-1,-5.383388996E-1
1.303633804E1,-1.271066666E-1,-1.711606979E-1,-4.871616364E-1
1.304433278E1,-1.264934540E-1,-2.328987122E-1,-4.055531025E-1
1.305232784E1,-1.380367279E-1,-3.370165825E-1,-3.014326096E-1
1.306032359E1,-8.793926239E-2,-4.762387276E-1,-3.083055019E-1
1.306835003E1,7.111930847E-2,-5.835680962E-1,-2.765648365E-1
1.307634662E1,1.589198112E-1,-6.087555885E-1,-2.647428513E-1
1.308434098E1,1.275382042E-1,-5.042123795E-1,-2.624287605E-1
1.309233673E1,7.541561127E-2,-3.348464966E-1,-2.742581367E-1
1.310033140E1,1.318359375E-1,-1.604852676E-1,-2.547655106E-1
1.310832807E1,2.488927841E-1,-2.899837494E-2,-2.565805912E-1
1.311632367E1,3.027443886E-1,3.282880783E-2,-2.294991016E-1
1.312434949E1,2.803568840E-1,5.337715149E-2,-1.512503624E-1
1.313234454E1,1.594686508E-1,1.309442520E-2,-5.765080452E-2
1.314034022E1,2.459573746E-2,-5.210685730E-2,5.940270424E-2
1.314833596E1,-8.399534225E-2,-1.346030235E-1,1.876039505E-1
1.315633163E1,-1.598997116E-1,-1.957845688E-1,2.702233791E-1
1.316432700E1,-1.728034019E-1,-2.591400146E-1,2.980968952E-1
1.317232290E1,-2.540688515E-1,-2.961630821E-1,3.046755791E-1
1.318034541E1,-3.406758308E-1,-3.625025749E-1,2.779853344E-1
1.318834470E1,-4.920759201E-1,-4.082942009E-1,2.302763462E-1
1.319634137E1,-5.838704109E-1,-4.432449341E-1,1.693072319E-1
1.320433573E1,-6.118412018E-1,-4.719667435E-1,1.077508926E-1
1.321233140E1,-6.480612755E-1,-4.462480545E-1,1.290600300E-1
1.322032615E1,-6.947460175E-1,-4.090847969E-1,2.039046288E-1
1.322832251E1,-7.946357727E-1,-3.438863754E-1,2.434651852E-1
1.323634895E1,-8.587441444E-1,-2.749094963E-1,2.478408813E-1
1.324434393E1,-9.908437729E-1,-2.142300606E-1,2.644746304E-1
1.325233929E1,-1.076250076E0,-1.380062103E-1,2.079482079E-1
1.326033227E1,-1.084244251E0,-5.093812943E-2,1.434895992E-1
1.326833094E1,-1.012863159E0,-1.990604401E-2,6.436061859E-2
1.327632692E1,-9.537506104E-1,-1.109743118E-2,1.417303085E-2
1.328432205E1,-8.880162239E-1,-4.534721375E-4,-4.997205734E-2
1.329234849E1,-8.493676186E-1,4.793787003E-2,-1.684064865E-1
1.330034293E1,-6.945018768E-1,8.887004852E-2,-2.526209354E-1
1.330833922E1,-5.429692268E-1,1.652116776E-1,-3.453934193E-1
1.331633581E1,-3.870887756E-1,2.646441460E-1,-4.371175766E-1
1.332433048E1,-2.452383041E-1,4.082736969E-1,-5.256114006E-1
1.333232615E1,-2.006888390E-1,4.834051132E-1,-5.203461647E-1
1.334032059E1,-2.146768570E-1,5.619177818E-1,-4.725193977E-1
1.334834826E1,-2.484831810E-1,6.126289368E-1,-4.497089386E-1
1.335634370E1,-2.808375359E-1,6.192436218E-1,-4.142763615E-1
1.336433876E1,-3.782887459E-1,5.889849663E-1,-3.480935097E-1
1.337233374E1,-4.378371239E-1,5.842318535E-1,-2.922472954E-1
1.338032941E1,-4.600987434E-1,5.480384827E-1,-2.374343872E-1
1.338832569E1,-5.143690109E-1,5.668148994E-1,-1.582241058E-1
1.339632205E1,-5.391941071E-1,5.621972084E-1,-8.852481842E-2
1.340434688E1,-5.182189941E-1,5.512704849E-1,-2.377796173E-2
1.341234316E1,-4.735965729E-1,5.248079300E-1,4.084467888E-2
1.342033668E1,-3.630366325E-1,5.453557968E-1,9.156942368E-2
1.342833397E1,-3.326058388E-1,5.577116013E-1,1.120114326E-1
1.343633048E1,-2.652320862E-1,5.357885361E-1,1.711900234E-1
1.344432623E1,-2.203454971E-1,5.032587051E-1,2.163460255E-1
1.345232067E1,-2.120203972E-1,4.312639236E-1,2.616195679E-1
1.346034672E1,-1.851034164E-1,3.699655533E-1,2.784042358E-1
1.346834301E1,-1.862411499E-1,2.911691666E-1,2.696182728E-1
1.347633876E1,-2.478365898E-1,2.754592896E-1,2.116920948E-1
1.348433351E1,-2.738370895E-1,2.867288589E-1,2.124292850E-1
1.349232972E1,-2.266902924E-1,2.916603088E-1,1.792297363E-1
1.350032385E1,-1.267776489E-1,3.098459244E-1,1.058394909E-1
1.350831959E1,-5.786895752E-2,3.338479996E-1,3.126597404E-2
1.351634750E1,-2.204942703E-2,3.417959213E-1,-7.760572433E-2
1.352434232E1,6.187868118E-2,3.386240005E-1,-1.371002197E-1
1.353233761E1,1.750907898E-1,3.147869110E-1,-1.336228848E-1
1.354033235E1,2.179064751E-1,2.915163040E-1,-4.150342941E-2
1.354832895E1,2.364573479E-1,2.636995316E-1,2.176403999E-2
1.355632523E1,3.029069901E-1,1.976366043E-1,1.040081978E-1
1.356435044E1,3.723378181E-1,1.766624451E-1,1.841156483E-1
1.357234619E1,3.536739349E-1,1.529026031E-1,2.694277763E-1
1.358033809E1,2.876076698E-1,1.408329010E-1,3.069345951E-1
1.358833753E1,1.739940643E-1,1.646852493E-1,3.462343216E-1
1.359633351E1,8.451414108E-2,1.671810150E-1,3.941781521E-1
1.360432887E1,6.902933121E-2,1.535310745E-1,4.333972931E-1
1.361232416E1,6.527853012E-2,8.802986145E-2,4.679880142E-1
1.362034975E1,6.603288651E-2,4.186630249E-3,3.903291225E-1
1.362834534E1,1.020884514E-1,-9.317398071E-2,2.966892719E-1
1.363634163E1,1.778693199E-1,-1.274194717E-1,2.212128639E-1
1.364433699E1,2.194142342E-1,-8.698081970E-2,1.384007931E-1
1.365233243E1,2.964005470E-1,1.105976105E-2,1.063163280E-1
1.366032718E1,3.157830238E-1,1.017780304E-1,8.697462082E-2
1.366832377E1,2.804703712E-1,1.801118851E-1,9.228205681E-2
1.367635021E1,2.624053955E-1,1.863470078E-1,1.311485767E-1
1.368434519E1,2.233805656E-1,1.396932602E-1,1.457452774E-1
1.369234086E1,2.110538483E-1,7.858467102E-2,1.432600021E-1
1.370033622E1,2.227973938E-1,3.227233887E-3,1.354203224E-1
1.370833228E1,1.844167709E-1,-3.379249573E-2,1.224656105E-1
1.371632764E1,1.201825142E-1,-2.306938171E-2,1.115443707E-1
1.372432362E1,-2.598524094E-2,1.421594620E-1,1.057779789E-1
1.373234944E1,-8.661460876E-2,3.229160309E-1,7.465529442E-2
1.374034288E1,-6.498479843E-2,4.119949341E-1,5.634808540E-2
1.374834079E1,-1.642036438E-2,4.503278732E-1,1.945567131E-2
1.375633707E1,-6.093978882E-4,4.475727081E-1,2.569031715E-2
1.376433151E1,-7.254219055E-2,4.228887558E-1,2.702021599E-2
1.377232718E1,-2.134299278E-1,3.047895432E-1,4.934549332E-2
1.378032185E1,-3.592967987E-1,2.036924362E-1,6.177234650E-2
1.378834929E1,-4.358754158E-1,6.448364258E-2,-2.898836136E-2
1.379634612E1,-4.075546265E-1,-4.091453552E-2,-9.346508980E-2
1.380434056E1,-3.272418976E-1,-6.950569153E-2,-1.405148506E-1
1.381233623E1,-2.309126854E-1,-6.974220276E-3,-1.986093521E-1
1.382033066E1,-1.400709152E-1,9.629440308E-2,-2.076489925E-1
1.382832703E1,-5.474281311E-2,2.068576813E-1,-1.917867661E-1
1.383632324E1,-1.044178009E-2,3.007335663E-1,-1.779267788E-1
1.384434821E1,4.562664032E-2,3.661022186E-1,-1.332364082E-1
1.385234389E1,5.856847763E-2,3.743295670E-1,-7.268643379E-2
1.386033894E1,5.966997147E-2,3.590154648E-1,-1.836895943E-2
1.386833577E1,7.053089142E-2,2.772102356E-1,4.592990875E-2
1.387633174E1,5.080556870E-2,2.101659775E-1,9.618473053E-2
1.388432680E1,5.064582825E-2,1.482172012E-1,8.741235733E-2
1.389232216E1,1.234388351E-2,1.200666428E-1,7.520103455E-2
1.390034429E1,-2.105665207E-2,1.376152039E-1,5.506324768E-2
1.390834404E1,-8.321380615E-2,1.792259216E-1,1.557397842E-2
1.391633994E1,-7.836246490E-2,1.634016037E-1,-2.383565903E-2
1.392433407E1,-1.024408340E-1,1.739454269E-1,-4.135727882E-2
1.393233067E1,-1.526212692E-1,1.700105667E-1,-1.805996895E-2
1.394032518E1,-1.500191689E-1,2.091064453E-1,-3.530859947E-2
1.394832178E1,-1.398954391E-1,2.241306305E-1,-3.339362144E-2
1.395634760E1,-1.006698608E-1,2.150840759E-1,-3.391814232E-2
1.396434327E1,-9.202718735E-2,1.676578522E-1,-2.293133736E-2
1.397233894E1,-1.709399223E-1,1.774063110E-1,-2.204632759E-2
1.398033123E1,-2.966659069E-1,1.748294830E-1,-2.629065514E-2
1.398832990E1,-3.852474689E-1,2.218666077E-1,-5.408120155E-2
1.399632618E1,-4.342277050E-1,2.728614807E-1,-4.031753540E-2
1.400432070E1,-4.529116154E-1,3.658380508E-1,-4.197168350E-2
1.401234706E1,-4.601607323E-1,3.953399658E-1,-2.556014061E-2
1.402034250E1,-4.585266113E-1,4.285993576E-1,-3.390312195E-3
1.402833840E1,-4.128572941E-1,3.726902008E-1,-2.836036682E-2
1.403633507E1,-3.198316097E-1,2.955541611E-1,-2.693486214E-2
1.404432982E1,-2.686977386E-1,2.478694916E-1,-9.008646011E-3
1.405232572E1,-2.288303375E-1,2.369604111E-1,-1.266145706E-2
1.406032016E1,-1.692500114E-1,2.486124039E-1,-2.623176575E-2
1.406834637E1,-1.232202053E-1,2.539148331E-1,-4.957747459E-2
1.407634296E1,-6.208801270E-2,2.194604874E-1,-6.859254837E-2
1.408433794E1,1.898884773E-2,1.788024902E-1,-6.194186211E-2
1.409233392E1,9.147286415E-2,6.249332428E-2,-6.099200249E-2
1.410032898E1,1.105079651E-1,9.154319763E-3,-2.994561195E-2
1.410832534E1,6.716227531E-2,1.134586334E-2,2.153205872E-2
1.411632132E1,4.527807236E-2,4.263782501E-2,2.184891701E-2
1.412434676E1,7.335877419E-2,3.848743439E-2,4.283905029E-2
1.413234181E1,5.593514442E-2,2.029609680E-2,7.497715950E-2
1.414033418E1,4.994869232E-4,-1.682090759E-2,1.181633472E-1
1.414833231E1,-1.382243633E-1,-2.748203278E-2,1.197965145E-1
1.415632913E1,-2.359125614E-1,-7.151222229E-2,1.111454964E-1
1.416432419E1,-2.860531807E-1,-1.199712753E-1,1.187884808E-1
1.417232055E1,-3.390996456E-1,-1.035499573E-1,1.361064911E-1
1.418034576E1,-3.445923328E-1,-7.262611389E-2,9.612464905E-2
1.418834258E1,-2.953464985E-1,-5.603599548E-2,1.828956604E-2
1.419633772E1,-1.844007969E-1,-6.579017639E-2,-4.436635971E-2
1.420433300E1,-1.147644520E-1,-6.852054596E-2,-1.105225086E-1
1.421232836E1,-8.877468109E-2,-9.296417236E-3,-2.014272213E-1
1.422032319E1,-8.472967148E-2,4.694271088E-2,-3.020956516E-1
1.422832009E1,-8.841538429E-2,3.552150726E-2,-3.356635571E-1
1.423634714E1,-1.165590286E-1,2.839183807E-2,-3.264882565E-1
1.424434189E1,-1.404082775E-1,-5.069923401E-2,-3.115396500E-1
1.425233664E1,-1.982026100E-1,-1.845531464E-1,-2.609946728E-1
1.426033231E1,-2.301678658E-1,-2.866077423E-1,-1.901752949E-1
1.426832798E1,-2.888679504E-1,-3.617105484E-1,-1.493084431E-1
1.427632427E1,-2.599642277E-1,-4.244050980E-1,-1.516067982E-1
1.428431963E1,-2.231266499E-1,-4.460916519E-1,-1.504745483E-1
1.429234514E1,-1.811962128E-1,-3.648366928E-1,-1.517453194E-1
1.430033897E1,-1.442382336E-1,-2.573070526E-1,-2.097907066E-1
1.430833672E1,-1.051371098E-1,-1.878261566E-1,-1.841945648E-1
1.431633300E1,-3.773069382E-2,-1.728391647E-1,-1.641893387E-1
1.432432752E1,6.338977814E-2,-2.193536758E-1,-1.150362492E-1
1.433232288E1,1.419470310E-1,-2.316713333E-1,1.720309258E-2
1.434031878E1,1.873431206E-1,-2.652721405E-1,1.195890903E-1
1.434834522E1,2.194395065E-1,-3.227005005E-1,2.396230698E-1
1.435634212E1,2.094948292E-1,-3.628444672E-1,3.067314625E-1
1.436433626E1,1.070406437E-1,-4.187402725E-1,3.988070488E-1
1.437233170E1,-8.517265320E-2,-4.520540237E-1,4.411809444E-1
1.438032606E1,-2.643442154E-1,-4.843997955E-1,4.653630257E-1
1.438832242E1,-4.252939224E-1,-5.020685196E-1,4.129099846E-1
1.439631894E1,-5.037200451E-1,-4.912281036E-1,3.215880394E-1
1.440434415E1,-4.668807983E-1,-4.688110352E-1,2.358458042E-1
1.441234020E1,-4.211907387E-1,-4.207477570E-1,1.049561501E-1
1.442033526E1,-2.958779335E-1,-3.662090302E-1,-2.679848671E-2
1.442833177E1,-1.158757210E-1,-2.764034271E-1,-2.016274929E-1
1.443632714E1,5.934333801E-2,-1.752681732E-1,-3.385691643E-1
1.444432219E1,2.496194839E-1,-4.819583893E-2,-4.509921074E-1
1.445231794E1,4.037146568E-1,6.416130066E-2,-5.286397934E-1
1.446034092E1,5.018055439E-1,1.257038116E-1,-5.582885742E-1
1.446833943E1,5.426173210E-1,1.744632721E-1,-5.712521076E-1
1.447633626E1,5.254585743E-1,1.793718338E-1,-5.309228897E-1
1.448433077E1,4.491062164E-1,2.097940445E-1,-4.359400272E-1
1.449232645E1,3.677852154E-1,2.777738571E-1,-3.408606052E-1
1.450032112E1,2.244734764E-1,3.283987045E-1,-2.015156746E-1
1.450834886E1,1.468582153E-1,3.619585037E-1,-9.631633759E-2
1.451634484E1,2.272939682E-2,3.690290451E-1,5.762338638E-2
1.452433982E1,-7.704639435E-2,3.809480667E-1,1.722083092E-1
1.453233580E1,-1.416993141E-1,3.907041550E-1,2.603187561E-1
1.454032962E1,-1.910862923E-1,3.862562180E-1,2.966344357E-1
1.454832621E1,-1.871540546E-1,3.557100296E-1,3.051841259E-1
1.455632281E1,-1.801304817E-1,3.229846954E-1,3.051059246E-1
1.456431733E1,-1.274495125E-1,3.002891541E-1,2.460918427E-1
1.457234315E1,5.130839348E-2,2.495546341E-1,1.813263893E-1
1.457432707E1,8.959770203E-2,2.188529968E-1,1.663064957E-1
1.457634306E1,1.135396957E-1,2.044878006E-1,1.591238976E-1
1.457832529E1,1.901543140E-1,1.757574081E-1,1.567296982E-1
1.458033820E1,2.476150990E-1,1.374502182E-1,1.543354988E-1
1.458833480E1,3.543131351E-1,7.620716095E-2,1.365122795E-1
1.459633162E1,4.173197746E-1,2.978610992E-2,1.372890472E-1
1.460432514E1,4.702377319E-1,3.900432587E-2,1.610107422E-1
1.461232143E1,4.619104862E-1,-3.934669495E-2,1.811707020E-1
1.462034363E1,4.968373775E-1,-1.520853043E-1,1.830143929E-1
1.462834269E1,4.646453857E-1,-2.224187851E-1,1.807253361E-1
1.463633897E1,4.227180481E-1,-3.006000519E-1,1.695833206E-1
1.464433495E1,3.837494850E-1,-2.865037918E-1,1.739079952E-1
1.465232993E1,3.127973080E-1,-2.453775406E-1,1.750800610E-1
1.466032529E1,2.322351933E-1,-2.303800583E-1,1.734633446E-1
1.466832127E1,1.997964382E-1,-2.251825333E-1,9.808635712E-2
1.467634840E1,1.842019558E-1,-2.154369354E-1,6.171202660E-2
1.468434254E1,1.431050301E-1,-1.752643585E-1,1.438403130E-2
1.469233813E1,8.865499496E-2,-1.765508652E-1,-8.971691132E-4
1.470033326E1,1.645207405E-2,-1.475820541E-1,-4.417419434E-2
1.470832893E1,3.585743904E-2,-1.598167419E-1,-1.011602879E-1
1.471632583E1,7.446503639E-2,-1.888856888E-1,-1.196272373E-1
1.472432027E1,1.201536655E-1,-1.795492172E-1,-9.507489204E-2
1.473234671E1,1.158554554E-1,-1.223115921E-1,-3.974437714E-2
1.474034146E1,1.359345913E-1,-4.119300842E-2,-3.021788597E-2
1.474833774E1,2.210144997E-1,-1.040077209E-2,7.780075073E-3
1.475633403E1,2.348413467E-1,-1.559543610E-2,4.292154312E-2
1.476432847E1,1.563377380E-1,-2.591133118E-2,1.545715332E-2
1.477232506E1,5.775046349E-2,-4.396343231E-2,-3.466606140E-4
1.478031889E1,3.909659386E-2,-8.145904541E-2,-2.368235588E-2
1.478834617E1,9.288549423E-3,-9.536266327E-2,1.039099693E-2
1.479634284E1,-4.851508141E-2,-1.192359924E-1,4.940891266E-2
1.480433759E1,-6.765556335E-2,-1.148061752E-1,5.339622498E-3
1.481233288E1,-2.920103073E-2,-6.537628174E-2,-3.039455414E-2
1.482032793E1,-7.509469986E-3,1.953792572E-2,-6.497359276E-2
1.482832422E1,-3.142237663E-2,1.065397263E-1,-1.129519939E-1
1.483632058E1,-1.950645447E-2,1.334362030E-1,-1.266362667E-1
1.484434610E1,4.227900505E-2,1.052665710E-1,-1.421921253E-1
1.485234146E1,1.132450104E-1,2.212238312E-2,-1.335322857E-1
1.486033705E1,1.721692085E-1,-4.892158508E-2,-8.920264244E-2
1.486833242E1,2.357258797E-1,-1.125736237E-1,-4.281449318E-2
1.487632878E1,2.106280327E-1,-1.639852524E-1,1.015186310E-2
1.488432353E1,1.377902031E-1,-1.720552444E-1,7.187914848E-2
1.489231881E1,6.494808197E-2,-1.894464493E-1,9.226369858E-2
1.490034433E1,7.071018219E-2,-2.255773544E-1,1.312503815E-1
1.490834038E1,1.020760536E-1,-2.754945755E-1,1.744704247E-1
1.491633821E1,1.012563705E-1,-3.127737045E-1,2.149245739E-1
1.492433196E1,7.801961899E-2,-3.469352722E-1,2.713992596E-1
1.493232794E1,5.606460571E-2,-3.679914474E-1,3.264009953E-1
1.494032238E1,4.963254929E-2,-4.236645699E-1,3.342046738E-1
1.494831905E1,6.343698502E-2,-4.515213966E-1,3.471319675E-1
1.495634602E1,7.362031937E-2,-4.802627563E-1,3.602848053E-1
1.496434023E1,5.188226700E-2,-5.364069939E-1,3.855886459E-1
1.497233613E1,4.885673523E-2,-5.791602135E-1,4.272253513E-1
1.498033150E1,2.636766434E-2,-6.492891312E-1,5.068068504E-1
1.498832786E1,-3.892469406E-2,-7.164177895E-1,5.871961117E-1
1.499632407E1,-7.296514511E-2,-7.373566628E-1,6.899538040E-1
1.500431820E1,-1.116228104E-1,-7.959189415E-1,7.887773514E-1
1.501234472E1,-1.264405251E-1,-8.586535454E-1,8.435039520E-1
1.502033723E1,-1.584243774E-1,-1.009605408E0,8.838639259E-1
1.502833513E1,-2.264509201E-1,-1.146166801E0,9.175188541E-1
1.503633288E1,-3.470664024E-1,-1.367225647E0,9.315257072E-1
1.504432763E1,-5.800092220E-1,-1.621042252E0,9.589688778E-1
1.505232299E1,-8.514318466E-1,-1.805548191E0,9.687232971E-1
1.506031751E1,-1.268163681E0,-2.014952660E0,1.045808792E0
1.506834449E1,-1.622819185E0,-2.204019547E0,1.125402689E0
1.507634023E1,-2.017064571E0,-2.400200367E0,1.286786556E0
1.508433552E1,-2.231289625E0,-2.532051563E0,1.382739782E0
1.509233034E1,-2.443991661E0,-2.610918522E0,1.423377991E0
1.510032563E1,-2.627846241E0,-2.710152149E0,1.423301458E0
1.510832192E1,-2.752291679E0,-2.826554298E0,1.437054157E0
1.511631851E1,-2.870109320E0,-2.995272160E0,1.401476860E0
1.512434372E1,-2.978995562E0,-3.155578136E0,1.370566607E0
1.513233908E1,-3.140278816E0,-3.359824181E0,1.197180271E0
1.514033414E1,-3.314043999E0,-3.527580738E0,8.561661243E-1
1.514833042E1,-3.445523262E0,-3.631298065E0,5.474176407E-1
1.515632678E1,-3.586987019E0,-3.792257309E0,2.003443241E-1
1.516432153E1,-3.700090885E0,-3.899034739E0,-2.140045166E-2
1.517231812E1,-3.804145813E0,-4.053439140E0,-2.213549614E-1
1.518033987E1,-3.997115612E0,-4.266373634E0,-3.115689754E-1
1.518833862E1,-4.223226070E0,-4.422398090E0,-3.757586479E-1
1.519633491E1,-4.477266788E0,-4.585248947E0,-4.450960159E-1
1.520433004E1,-4.790887833E0,-4.652737617E0,-4.879298210E-1
1.521232532E1,-5.008460045E0,-4.716905594E0,-5.655920506E-1
1.522032038E1,-5.083184242E0,-4.748563766E0,-6.940701008E-1
1.522831766E1,-4.996950150E0,-4.857596397E0,-8.145844936E-1
1.523634380E1,-4.757085800E0,-4.963847637E0,-7.087264061E-1
1.524433793E1,-4.546481133E0,-5.084959984E0,-5.663397312E-1
1.525233391E1,-4.291199684E0,-5.239039898E0,-4.106068611E-1
1.526032619E1,-4.075548649E0,-5.388624668E0,-3.351576328E-1
1.526832525E1,-3.620046139E0,-5.603228092E0,-4.206817150E-1
1.527632123E1,-2.976052761E0,-5.801965714E0,-5.569670200E-1
1.528431713E1,-2.404806137E0,-5.878009796E0,-6.896216869E-1
1.529234264E1,-1.704945564E0,-5.965198517E0,-9.609458447E-1
1.530033747E1,-1.106131554E0,-5.919175148E0,-1.266403556E0
1.530833337E1,-2.924690247E-1,-5.922774315E0,-1.596607447E0
1.531633035E1,3.642587662E-1,-5.825963020E0,-1.776579380E0
1.532432533E1,8.910217285E-1,-5.766920090E0,-1.757174969E0
1.533232038E1,1.193769455E0,-5.660629272E0,-1.684807062E0
1.534031513E1,1.226855278E0,-5.497013092E0,-1.690318704E0
1.534834195E1,1.150919914E0,-5.372509480E0,-1.708070755E0
1.535633855E1,1.109862328E0,-5.266338825E0,-1.780074835E0
1.536433329E1,9.166765213E-1,-5.205927849E0,-1.730510950E0
1.537232927E1,6.939630508E-1,-5.192583084E0,-1.698096991E0
1.538032402E1,6.500482559E-1,-5.075105190E0,-1.747862577E0
1.538832030E1,8.428516388E-1,-4.953343391E0,-1.784277081E0
1.539631713E1,1.043734550E0,-4.776169777E0,-1.630838394E0
1.540434203E1,1.249464989E0,-4.688975811E0,-1.571363211E0
1.541233778E1,1.444752693E0,-4.664937973E0,-1.464478731E0
1.542032968E1,1.797216415E0,-4.577834129E0,-1.469700813E0
1.542832904E1,2.052735329E0,-4.473948479E0,-1.342617512E0
1.543632540E1,2.187701225E0,-4.255303860E0,-1.160169005E0
1.544432008E1,2.464886665E0,-4.077580452E0,-1.001270175E0
1.545231544E1,3.065501213E0,-3.952547073E0,-8.671949506E-1
1.546034042E1,3.776920319E0,-3.931763411E0,-6.723773479E-1
1.546833670E1,4.115061760E0,-3.885101318E0,-3.014760017E-1
1.547633322E1,4.091258049E0,-3.791880131E0,-4.651570320E-2
1.548432858E1,3.643665314E0,-3.610557079E0,1.760375500E-1
1.549232333E1,3.264624596E0,-3.362391472E0,3.746317625E-1
1.550031846E1,2.951676369E0,-3.149536610E0,4.923299551E-1
1.550834544E1,2.696361065E0,-2.992094040E0,6.620085239E-1
1.551634180E1,2.532680511E0,-2.876458168E0,8.053760529E-1
1.552433678E1,2.576013565E0,-2.995018482E0,7.778041363E-1
1.553233253E1,2.622757435E0,-3.087917328E0,7.957651615E-1
1.554032781E1,2.446984291E0,-3.144866943E0,8.039898872E-1
1.554832410E1,2.187136650E0,-3.104936123E0,7.777509689E-1
1.555631892E1,1.899979115E0,-3.092744827E0,7.420699596E-1
1.556431429E1,1.712511063E0,-3.076683044E0,6.482014656E-1
1.557234065E1,1.701782227E0,-3.046760559E0,5.545983315E-1
1.558033509E1,1.621326447E0,-3.021998882E0,4.051611423E-1
1.558833176E1,1.566915989E0,-2.951900005E0,2.188603878E-1
1.559632766E1,1.505797386E0,-2.931482315E0,6.983280182E-4
1.560432310E1,1.440104485E0,-2.918819427E0,-2.123661041E-1
1.561231877E1,1.437412262E0,-2.903579712E0,-4.031968117E-1
1.562034367E1,1.393493176E0,-3.005651474E0,-6.141064167E-1
1.562834080E1,1.448031664E0,-3.117418289E0,-7.268707752E-1
1.563633647E1,1.465192556E0,-3.318027496E0,-8.774341345E-1
1.564433099E1,1.579375505E0,-3.533373833E0,-1.027117252E0
1.565232728E1,1.682380915E0,-3.753498077E0,-1.095067739E0
1.566032233E1,1.886596441E0,-3.955337524E0,-1.198624015E0
1.566831831E1,2.138280392E0,-4.068917274E0,-1.259522915E0
1.567634406E1,2.405722857E0,-4.108114243E0,-1.401311755E0
1.568434011E1,2.691354036E0,-4.005478859E0,-1.411178470E0
1.569233632E1,2.999079704E0,-3.765179634E0,-1.453004956E0
1.570033053E1,3.325623512E0,-3.388842583E0,-1.400431752E0
1.570832651E1,3.602503300E0,-2.985591888E0,-1.306779146E0
1.571632249E1,3.835552692E0,-2.471182823E0,-1.110681415E0
1.572431746E1,3.975527763E0,-2.062602997E0,-9.753704071E-1
1.573234460E1,4.033404350E0,-1.663274765E0,-8.030297756E-1
1.574033834E1,4.078886986E0,-1.351514816E0,-6.605136395E-1
1.574833532E1,4.029674530E0,-1.172081947E0,-5.045018196E-1
1.575633161E1,3.944991827E0,-1.021626472E0,-4.259235859E-1
1.576432659E1,3.871083021E0,-9.235286713E-1,-4.244222641E-1
1.577232195E1,3.832085371E0,-8.366231918E-1,-4.445471764E-1
1.578031670E1,3.843071938E0,-7.748661041E-1,-4.692702293E-1
1.578834344E1,3.846863031E0,-6.973285675E-1,-4.962947369E-1
1.579634034E1,3.831520081E0,-5.965747833E-1,-5.039234161E-1
1.580433478E1,3.819709539E0,-5.035743713E-1,-4.612307549E-1
1.581232992E1,3.747575045E0,-3.751821518E-1,-4.427866936E-1
1.582032528E1,3.716323614E0,-2.831869125E-1,-4.081702232E-1
1.582832149E1,3.630645514E0,-1.676616669E-1,-3.741955757E-1
1.583631754E1,3.560012341E0,-9.326648712E-2,-3.746473789E-1
1.584434398E1,3.440511942E0,-2.644443512E-2,-4.000165462E-1
1.585233873E1,3.334048033E0,1.853084564E-2,-4.811933041E-1
1.586033378E1,3.219566107E0,7.051753998E-2,-5.507946014E-1
1.586833099E1,3.152920961E0,1.415977478E-1,-5.893218517E-1
1.587632666E1,3.076544046E0,1.892614365E-1,-6.062138081E-1
1.588432049E1,3.086336613E0,1.775827408E-1,-6.273267269E-1
1.589231670E1,3.089454651E0,1.805582047E-1,-6.383125782E-1
1.590034198E1,3.103622913E0,1.547288895E-1,-5.940597057E-1
1.590833788E1,3.069841146E0,1.499814987E-1,-5.405714512E-1
1.591633486E1,2.999016523E0,1.444177628E-1,-5.164306164E-1
1.592432984E1,2.900130749E0,1.472787857E-1,-4.741299152E-1
