"Time (s)","Acceleration x (m/s^2)","Acceleration y (m/s^2)","Acceleration z (m/s^2)"
4.942453000E-3,-9.097966552E-2,-5.600037575E0,7.915230751E0
6.987601000E-3,-1.053448766E-1,-5.600037575E0,7.900865555E0
9.094440000E-3,-1.029506698E-1,-5.614402771E0,7.864952564E0
1.107774200E-2,-1.077390760E-1,-5.616796970E0,7.855375767E0
1.309165800E-2,-9.576806426E-2,-5.609614372E0,7.833827972E0
1.507372900E-2,-8.858546615E-2,-5.631162167E0,7.831433773E0
1.708949200E-2,-8.140286058E-2,-5.626373768E0,7.848193169E0
1.907279300E-2,-6.943184882E-2,-5.626373768E0,7.867346764E0
2.108640300E-2,-6.703764945E-2,-5.657498837E0,7.864952564E0
2.306970400E-2,-6.943184882E-2,-5.667075634E0,7.848193169E0
2.508415900E-2,-1.029506698E-1,-5.664681435E0,7.833827972E0
2.706846000E-2,-1.484405100E-1,-5.667075634E0,7.821856976E0
2.908260800E-2,-1.771709323E-1,-5.662287235E0,7.821856976E0
3.106514000E-2,-2.106897533E-1,-5.667075634E0,7.824251175E0
3.308082600E-2,-2.346317619E-1,-5.667075634E0,7.812280178E0
3.509458800E-2,-2.729389966E-1,-5.667075634E0,7.802703381E0
3.707773600E-2,-3.327940404E-1,-5.679046631E0,7.809885979E0
3.909211500E-2,-3.591302633E-1,-5.691017628E0,7.817068577E0
4.107526200E-2,-3.974374831E-1,-5.712565422E0,7.817068577E0
4.308971700E-2,-4.261679053E-1,-5.710171223E0,7.790732384E0
4.507340300E-2,-4.381389022E-1,-5.724536419E0,7.788338184E0
4.708747300E-2,-4.596867263E-1,-5.729324818E0,7.783549786E0
4.907116000E-2,-4.740519226E-1,-5.734113216E0,7.762001991E0
5.108530700E-2,-4.740519226E-1,-5.722142220E0,7.742848396E0
5.306876200E-2,-4.596867263E-1,-5.705382824E0,7.716512203E0
5.508321800E-2,-4.644751251E-1,-5.688623428E0,7.694964409E0
5.706682600E-2,-4.620809257E-1,-5.705382824E0,7.687781811E0
5.908066600E-2,-4.596867263E-1,-5.722142220E0,7.680599213E0
6.109519900E-2,-4.525041282E-1,-5.707777023E0,7.647080421E0
6.307826900E-2,-4.477157295E-1,-5.702988625E0,7.635109425E0
6.509272400E-2,-4.309563041E-1,-5.681440830E0,7.601590633E0
6.707641000E-2,-4.285621047E-1,-5.671864033E0,7.589619160E0
6.908994200E-2,-4.094084799E-1,-5.676652431E0,7.558494568E0
7.107570500E-2,-3.854664862E-1,-5.671864033E0,7.536946774E0
7.308869800E-2,-3.878606856E-1,-5.667075634E0,7.517793179E0
7.507146100E-2,-3.615244627E-1,-5.671864033E0,7.493851185E0
7.708645500E-2,-3.136404157E-1,-5.674258232E0,7.479485989E0
7.907021800E-2,-3.064578176E-1,-5.664681435E0,7.460332394E0
8.108344200E-2,-2.801215947E-1,-5.681440830E0,7.455543995E0
8.306805200E-2,-2.633621991E-1,-5.683835030E0,7.445967197E0
8.508127600E-2,-2.561795712E-1,-5.683835030E0,7.438784599E0
8.706580800E-2,-2.370259613E-1,-5.679046631E0,7.429207802E0
8.907995500E-2,-2.298433632E-1,-5.676652431E0,7.417236805E0
9.109387200E-2,-2.250549644E-1,-5.674258232E0,7.414842606E0
9.307748100E-2,-2.035071403E-1,-5.681440830E0,7.390900612E0
9.509162800E-2,-2.154781520E-1,-5.679046631E0,7.393294811E0
9.707531500E-2,-2.226607651E-1,-5.671864033E0,7.405265808E0
9.908984700E-2,-2.418143749E-1,-5.650316238E0,7.405265808E0
1.010726090E-1,-2.442085743E-1,-5.633556366E0,7.395689011E0
1.030870650E-1,-2.466027737E-1,-5.614402771E0,7.381323814E0
1.050703660E-1,-2.633621991E-1,-5.621585369E0,7.362170219E0
1.070839750E-1,-2.681505978E-1,-5.623979568E0,7.359776020E0
1.090678920E-1,-2.585737705E-1,-5.607220173E0,7.378929615E0
1.110821160E-1,-2.489969730E-1,-5.590460777E0,7.405265808E0
1.130666480E-1,-2.561795712E-1,-5.583278179E0,7.412448406E0
1.150804880E-1,-2.561795712E-1,-5.578489780E0,7.417236805E0
1.170949430E-1,-2.489969730E-1,-5.576095581E0,7.417236805E0
1.190777830E-1,-2.489969730E-1,-5.573701382E0,7.429207802E0
1.210921620E-1,-2.561795712E-1,-5.544970989E0,7.453149796E0
1.230761550E-1,-2.729389966E-1,-5.552153587E0,7.481880188E0
1.250906100E-1,-2.753331959E-1,-5.547365189E0,7.491456985E0
1.270739880E-1,-2.896983922E-1,-5.537788391E0,7.508216381E0
1.290887510E-1,-2.849099934E-1,-5.556941986E0,7.498639584E0
1.310721300E-1,-2.896983922E-1,-5.544970989E0,7.501033783E0
1.330860460E-1,-3.088520169E-1,-5.544970989E0,7.522581577E0
1.350696550E-1,-3.232172430E-1,-5.542576790E0,7.529764175E0
1.370823410E-1,-3.184288144E-1,-5.525817394E0,7.527369976E0
1.390669500E-1,-3.399766386E-1,-5.513846397E0,7.510610580E0
1.410810210E-1,-3.423708379E-1,-5.499481201E0,7.503427982E0
1.430650920E-1,-3.327940404E-1,-5.492298603E0,7.486668587E0
1.450783150E-1,-3.208230138E-1,-5.499481201E0,7.486668587E0
1.470933860E-1,-3.208230138E-1,-5.494692802E0,7.477091789E0
1.490770720E-1,-3.160346150E-1,-5.497087002E0,7.457938194E0
1.510927580E-1,-3.160346150E-1,-5.475539207E0,7.448361397E0
1.530755210E-1,-3.184288144E-1,-5.468356609E0,7.441178799E0
1.550880530E-1,-3.280056417E-1,-5.470750809E0,7.422025204E0
1.570726620E-1,-3.208230138E-1,-5.451597214E0,7.412448406E0
1.590865790E-1,-3.184288144E-1,-5.451597214E0,7.402871609E0
1.610708800E-1,-3.160346150E-1,-5.437232018E0,7.393294811E0
1.630846430E-1,-3.112462163E-1,-5.453991413E0,7.386112213E0
1.650677910E-1,-3.016694188E-1,-5.439626217E0,7.398083210E0
1.670819380E-1,-2.801215947E-1,-5.458779812E0,7.398083210E0
1.690664700E-1,-2.873041928E-1,-5.458779812E0,7.419631004E0
1.710813090E-1,-2.825157940E-1,-5.446808815E0,7.443572998E0
1.730643800E-1,-2.633621991E-1,-5.449203014E0,7.450755596E0
1.750784510E-1,-2.585737705E-1,-5.439626217E0,7.465120792E0
1.770197520E-1,-2.681505978E-1,-5.442020416E0,7.496245384E0
1.790643610E-1,-2.753331959E-1,-5.444414616E0,7.493851185E0
1.811470470E-1,-2.705447972E-1,-5.444414616E0,7.489062786E0
1.830729640E-1,-2.729389966E-1,-5.437232018E0,7.489062786E0
1.850876500E-1,-2.681505978E-1,-5.458779812E0,7.479485989E0
1.870711050E-1,-2.681505978E-1,-5.458779812E0,7.474697590E0
1.890845600E-1,-2.633621991E-1,-5.442020416E0,7.462726593E0
1.910686310E-1,-2.537853718E-1,-5.439626217E0,7.445967197E0
1.930833160E-1,-2.489969730E-1,-5.446808815E0,7.426813602E0
1.950673100E-1,-2.466027737E-1,-5.444414616E0,7.433996201E0
1.970806120E-1,-2.418143749E-1,-5.453991413E0,7.443572998E0
1.990952970E-1,-2.466027737E-1,-5.446808815E0,7.450755596E0
2.010787530E-1,-2.370259613E-1,-5.439626217E0,7.457938194E0
2.030922840E-1,-2.370259613E-1,-5.444414616E0,7.460332394E0
2.050765860E-1,-2.202665508E-1,-5.470750809E0,7.469909191E0
2.070903490E-1,-2.154781520E-1,-5.497087002E0,7.472303391E0
2.090741120E-1,-2.130839527E-1,-5.499481201E0,7.477091789E0
2.110897980E-1,-2.298433632E-1,-5.523423195E0,7.465120792E0
2.130716380E-1,-2.418143749E-1,-5.552153587E0,7.474697590E0
2.150869390E-1,-2.394201756E-1,-5.564124584E0,7.479485989E0
2.170700100E-1,-2.370259613E-1,-5.580883980E0,7.489062786E0
2.190835420E-1,-2.657563984E-1,-5.588066578E0,7.517793179E0
2.210669970E-1,-2.705447972E-1,-5.612008572E0,7.522581577E0
2.230810680E-1,-2.657563984E-1,-5.671864033E0,7.541735172E0
2.250654450E-1,-2.753331959E-1,-5.688623428E0,7.572859764E0
2.270795930E-1,-2.729389966E-1,-5.700594425E0,7.594407558E0
2.290934330E-1,-2.777273953E-1,-5.707777023E0,7.601590633E0
2.310792720E-1,-2.873041928E-1,-5.710171223E0,7.592013359E0
2.330915740E-1,-2.873041928E-1,-5.731719017E0,7.582436562E0
2.350749530E-1,-2.992752194E-1,-5.741295815E0,7.606379032E0
2.370900230E-1,-3.040636182E-1,-5.748478413E0,7.620744228E0
2.390727090E-1,-2.944868207E-1,-5.803544998E0,7.663839817E0
2.410872400E-1,-2.777273953E-1,-5.820304394E0,7.730877399E0
2.430705420E-1,-2.753331959E-1,-5.827486992E0,7.762001991E0
2.450850750E-1,-2.753331959E-1,-5.868188381E0,7.826645374E0
2.470690680E-1,-2.944868207E-1,-5.899312973E0,7.862558365E0
2.490832160E-1,-2.920926213E-1,-5.911283970E0,7.881711960E0
2.510669020E-1,-3.088520169E-1,-5.944802761E0,7.903259754E0
2.530809720E-1,-3.136404157E-1,-5.959167957E0,7.910442352E0
2.550640430E-1,-3.232172430E-1,-5.954379559E0,7.917624950E0
2.570781910E-1,-3.567360640E-1,-5.954379559E0,7.922413349E0
2.590927220E-1,-3.639186621E-1,-5.951985359E0,7.927201748E0
2.610760240E-1,-3.974374831E-1,-5.951985359E0,7.929595947E0
2.630908630E-1,-4.261679053E-1,-5.937620163E0,7.948749542E0
2.650735490E-1,-4.213795066E-1,-5.944802761E0,7.946355343E0
2.670880050E-1,-4.357447028E-1,-5.937620163E0,7.946355343E0
2.690704590E-1,-4.548983276E-1,-5.920860767E0,7.953537941E0
2.710852220E-1,-4.620809257E-1,-5.932831764E0,7.953537941E0
2.730701400E-1,-4.836287498E-1,-5.947196960E0,7.948749542E0
2.750837480E-1,-5.003881454E-1,-5.937620163E0,7.929595947E0
2.770670500E-1,-5.027823448E-1,-5.932831764E0,7.898471355E0
2.790806580E-1,-5.051765442E-1,-5.940014362E0,7.836222172E0
2.810652670E-1,-5.243301988E-1,-5.949591160E0,7.776367188E0
2.830793380E-1,-5.363011956E-1,-5.963956356E0,7.742848396E0
2.850937930E-1,-5.315127969E-1,-5.971138954E0,7.654263020E0
2.870771720E-1,-5.315127969E-1,-5.990292549E0,7.560888767E0
2.890917040E-1,-5.315127969E-1,-5.999869347E0,7.524975777E0
2.910753120E-1,-5.147533417E-1,-6.021417141E0,7.479485989E0
2.930897680E-1,-5.171475410E-1,-6.040570736E0,7.481880188E0
2.950723000E-1,-5.099649429E-1,-6.042964935E0,7.474697590E0
2.970864470E-1,-4.788403511E-1,-6.050147533E0,7.472303391E0
2.990701340E-1,-4.740519226E-1,-6.066906929E0,7.486668587E0
3.010848190E-1,-4.668693244E-1,-6.093243122E0,7.510610580E0
3.030678900E-1,-4.620809257E-1,-6.119579315E0,7.572859764E0
3.050824220E-1,-4.596867263E-1,-6.131550789E0,7.589619160E0
3.070654920E-1,-4.908113480E-1,-6.133944988E0,7.618350029E0
3.090796400E-1,-4.620809257E-1,-6.133944988E0,7.630321026E0
3.110956340E-1,-4.477157295E-1,-6.129156113E0,7.651868820E0
3.130787040E-1,-4.453215301E-1,-6.131550789E0,7.680599213E0
3.150916210E-1,-4.572925270E-1,-6.098031521E0,7.690176010E0
3.170758460E-1,-4.644751251E-1,-6.088454723E0,7.690176010E0
3.190894540E-1,-4.668693244E-1,-6.078877926E0,7.697358608E0
3.210734480E-1,-4.596867263E-1,-6.071695328E0,7.740454197E0
3.230872100E-1,-4.548983276E-1,-6.071695328E0,7.757213593E0
3.250706660E-1,-4.620809257E-1,-6.050147533E0,7.793126583E0
3.270853520E-1,-4.620809257E-1,-6.035782337E0,7.817068577E0
3.290699610E-1,-4.979939461E-1,-6.030993938E0,7.855375767E0
3.310844160E-1,-5.195417404E-1,-6.011840343E0,7.852981567E0
3.330666410E-1,-5.410895944E-1,-6.002263546E0,7.848193169E0
3.350807880E-1,-5.817909837E-1,-5.966350555E0,7.841010571E0
3.370650130E-1,-6.200982332E-1,-5.947196960E0,7.819462776E0
3.390786210E-1,-6.464344859E-1,-5.935225964E0,7.809885979E0
3.410923840E-1,-6.919242740E-1,-5.940014362E0,7.807491779E0
3.430761480E-1,-7.374141216E-1,-5.940014362E0,7.805097580E0
3.450908330E-1,-7.517793179E-1,-5.935225964E0,7.797914982E0
3.470748270E-1,-7.685387731E-1,-5.918466568E0,7.795520782E0
3.490883590E-1,-7.876923680E-1,-5.904101372E0,7.781155586E0
3.510717370E-1,-8.044517636E-1,-5.899312973E0,7.773972988E0
3.530871920E-1,-7.924807668E-1,-5.908889771E0,7.762001991E0
3.550695710E-1,-7.829039693E-1,-5.896918774E0,7.764396191E0
3.570841030E-1,-7.924807668E-1,-5.889736176E0,7.764396191E0
3.590674040E-1,-7.876923680E-1,-5.896918774E0,7.771578789E0
3.610810130E-1,-7.709329724E-1,-5.896918774E0,7.778761387E0
3.630646990E-1,-7.733271718E-1,-5.899312973E0,7.783549786E0
3.650794620E-1,-7.757213712E-1,-5.896918774E0,7.778761387E0
3.670944550E-1,-7.589619160E-1,-5.908889771E0,7.778761387E0
3.690781410E-1,-7.398083210E-1,-5.935225964E0,7.781155586E0
3.710925970E-1,-6.991068721E-1,-5.961562157E0,7.769184589E0
3.730750520E-1,-6.847416759E-1,-5.963956356E0,7.759607792E0
3.750895070E-1,-6.727706790E-1,-5.983109951E0,7.757213593E0
3.770729620E-1,-6.488286853E-1,-6.011840343E0,7.735665798E0
3.790880330E-1,-6.368576288E-1,-6.019022942E0,7.718906403E0
3.810707190E-1,-6.200982332E-1,-6.040570736E0,7.697358608E0
3.830849430E-1,-6.129156351E-1,-6.059724331E0,7.692570210E0
3.850686290E-1,-5.937620401E-1,-6.071695328E0,7.685387611E0
3.870833150E-1,-6.057330370E-1,-6.086060524E0,7.671022415E0
3.890658470E-1,-6.033388376E-1,-6.112396717E0,7.654263020E0
3.910827640E-1,-5.865794420E-1,-6.126761913E0,7.651868820E0
3.930649120E-1,-5.865794420E-1,-6.136339188E0,7.623138428E0
3.950778280E-1,-5.841852427E-1,-6.136339188E0,7.613561630E0
3.970928990E-1,-5.841852427E-1,-6.133944988E0,7.594407558E0
3.990759690E-1,-5.770025849E-1,-6.119579315E0,7.565677166E0
4.010900400E-1,-5.674257874E-1,-6.117185116E0,7.558494568E0
4.030741100E-1,-5.386953950E-1,-6.114790916E0,7.553706169E0
4.050873340E-1,-5.243301988E-1,-6.098031521E0,7.539340973E0
4.070715590E-1,-5.099649429E-1,-6.081272125E0,7.532158375E0
4.090873220E-1,-4.596867263E-1,-6.062118530E0,7.489062786E0
4.110703150E-1,-4.165911078E-1,-6.045359135E0,7.489062786E0
4.130841550E-1,-3.950432837E-1,-6.038176537E0,7.489062786E0
4.150678410E-1,-3.519476354E-1,-6.016628742E0,7.474697590E0
4.170817580E-1,-3.064578176E-1,-6.002263546E0,7.460332394E0
4.190642130E-1,-2.801215947E-1,-5.983109951E0,7.460332394E0
4.210795140E-1,-2.394201756E-1,-5.961562157E0,7.445967197E0
4.230937390E-1,-2.250549644E-1,-5.911283970E0,7.419631004E0
4.250771170E-1,-2.082955539E-1,-5.882553577E0,7.410054207E0
4.270906490E-1,-2.250549644E-1,-5.817910194E0,7.417236805E0
4.290740280E-1,-2.370259613E-1,-5.798756599E0,7.438784599E0
4.310890210E-1,-2.920926213E-1,-5.777208805E0,7.503427982E0
4.330724760E-1,-3.591302633E-1,-5.743690014E0,7.568071365E0
4.350874700E-1,-3.974374831E-1,-5.734113216E0,7.589619160E0
4.370706170E-1,-4.548983276E-1,-5.722142220E0,7.635109425E0
4.390840730E-1,-5.051765442E-1,-5.729324818E0,7.663839817E0
4.410681430E-1,-5.626373887E-1,-5.722142220E0,7.682993412E0
4.430825210E-1,-6.416460276E-1,-5.734113216E0,7.742848396E0
4.450656690E-1,-6.943184733E-1,-5.758055210E0,7.833827972E0
4.470798170E-1,-7.230489254E-1,-5.772420406E0,7.876923561E0
4.490641170E-1,-7.781155705E-1,-5.793968201E0,7.910442352E0
4.510788810E-1,-8.164227605E-1,-5.801150799E0,7.912836552E0
4.530914120E-1,-8.355764151E-1,-5.815515995E0,7.908048153E0
4.550757140E-1,-8.619126081E-1,-5.844246387E0,7.905653954E0
4.570890160E-1,-8.786720037E-1,-5.865794182E0,7.910442352E0
4.590730090E-1,-8.930372596E-1,-5.865794182E0,7.963114738E0
4.610871560E-1,-9.097966552E-1,-5.875370979E0,7.984662533E0
4.630713810E-1,-9.169792533E-1,-5.872976780E0,7.989450932E0
4.650855280E-1,-9.121908545E-1,-5.875370979E0,7.984662533E0
4.670692140E-1,-9.169792533E-1,-5.882553577E0,7.999027729E0
4.690830550E-1,-9.121908545E-1,-5.889736176E0,7.991845131E0
4.710688940E-1,-8.858546019E-1,-5.894524574E0,7.982268333E0
4.730815800E-1,-8.690952063E-1,-5.901707172E0,7.948749542E0
4.750643420E-1,-8.619126081E-1,-5.904101372E0,7.927201748E0
4.770774900E-1,-8.499416113E-1,-5.935225964E0,7.905653954E0
4.790937920E-1,-8.451532125E-1,-5.947196960E0,7.874529362E0
4.810762460E-1,-8.403648138E-1,-5.956773758E0,7.848193169E0
4.830900860E-1,-8.331822157E-1,-5.975927353E0,7.807491779E0
4.850743880E-1,-8.020575643E-1,-5.990292549E0,7.785943985E0
4.870886120E-1,-7.900865674E-1,-5.987898350E0,7.771578789E0
4.890726060E-1,-7.996633649E-1,-5.987898350E0,7.723694801E0
4.910872910E-1,-8.044517636E-1,-5.995080948E0,7.682993412E0
4.930704390E-1,-7.996633649E-1,-5.997475147E0,7.608773232E0
4.950833560E-1,-7.948749661E-1,-6.007051945E0,7.572859764E0
4.970670410E-1,-7.852981687E-1,-6.007051945E0,7.551311970E0
4.990826510E-1,-7.900865674E-1,-6.019022942E0,7.503427982E0
5.010660300E-1,-7.852981687E-1,-6.016628742E0,7.441178799E0
5.030795610E-1,-7.781155705E-1,-6.019022942E0,7.407660007E0
5.050937860E-1,-7.709329724E-1,-6.021417141E0,7.345410824E0
5.070774720E-1,-7.422025204E-1,-6.042964935E0,7.295132637E0
5.090915420E-1,-7.350199223E-1,-6.035782337E0,7.271190643E0
5.110749980E-1,-7.422025204E-1,-6.052541733E0,7.244854450E0
5.130899910E-1,-7.182605267E-1,-6.066906929E0,7.189787865E0
5.150727540E-1,-6.967126727E-1,-6.059724331E0,7.173028469E0
5.170866710E-1,-6.679822803E-1,-6.052541733E0,7.144298077E0
5.190706640E-1,-6.631938815E-1,-6.040570736E0,7.125144482E0
5.210850420E-1,-6.344634295E-1,-6.028599739E0,7.108384609E0
5.230691130E-1,-6.009446383E-1,-6.004657745E0,7.098807812E0
5.250820290E-1,-5.937620401E-1,-5.997475147E0,7.098807812E0
5.270660230E-1,-5.865794420E-1,-5.963956356E0,7.101202011E0
5.290807860E-1,-5.889736414E-1,-5.951985359E0,7.134721279E0
5.310653180E-1,-5.913678408E-1,-5.935225964E0,7.146692276E0
5.330783120E-1,-5.961562395E-1,-5.923254967E0,7.168240070E0
5.350927670E-1,-5.889736414E-1,-5.894524574E0,7.216124058E0
5.370761450E-1,-5.841852427E-1,-5.892130375E0,7.237671852E0
5.390902160E-1,-5.985504389E-1,-5.906495571E0,7.283161640E0
5.410742090E-1,-6.057330370E-1,-5.937620163E0,7.352593422E0
5.430877420E-1,-6.009446383E-1,-5.956773758E0,7.407660007E0
5.450720430E-1,-6.177040339E-1,-6.011840343E0,7.486668587E0
5.470859600E-1,-6.296750307E-1,-6.054935932E0,7.522581577E0
5.490692610E-1,-6.488286853E-1,-6.078877926E0,7.522581577E0
5.510849470E-1,-6.967126727E-1,-6.131550789E0,7.527369976E0
5.530686330E-1,-7.278373241E-1,-6.174646378E0,7.541735172E0
5.550812420E-1,-7.948749661E-1,-6.196194172E0,7.577648163E0
5.570643890E-1,-8.690952063E-1,-6.236895561E0,7.613561630E0
5.590791520E-1,-9.074024558E-1,-6.251260757E0,7.632715225E0
5.610936080E-1,-9.840168953E-1,-6.279991150E0,7.678205013E0
5.630766780E-1,-1.072602391E0,-6.301538944E0,7.702147007E0
5.650919790E-1,-1.125274777E0,-6.311115742E0,7.706935406E0
5.670750490E-1,-1.228225470E0,-6.315904140E0,7.730877399E0
5.690895820E-1,-1.328781962E0,-6.308721542E0,7.754819393E0
5.710728840E-1,-1.374271750E0,-6.313509941E0,7.759607792E0
5.730871070E-1,-1.438915253E0,-6.311115742E0,7.745242596E0
5.750711010E-1,-1.505952835E0,-6.323086739E0,7.723694801E0
5.770845570E-1,-1.537077546E0,-6.318298340E0,7.723694801E0
5.790683190E-1,-1.584961534E0,-6.327875137E0,7.726089001E0
5.810821590E-1,-1.589749932E0,-6.330269337E0,7.773972988E0
5.830658460E-1,-1.580173135E0,-6.347028732E0,7.790732384E0
5.850796080E-1,-1.558625340E0,-6.375759125E0,7.800309181E0
5.870636790E-1,-1.556231141E0,-6.382941723E0,7.802703381E0
5.890777490E-1,-1.522712231E0,-6.406883717E0,7.778761387E0
5.910919730E-1,-1.482010841E0,-6.416460514E0,7.730877399E0
5.930756600E-1,-1.460463047E0,-6.433219910E0,7.709329605E0
5.950901140E-1,-1.405396342E0,-6.454767704E0,7.690176010E0
5.970734160E-1,-1.340752959E0,-6.490680695E0,7.678205013E0
5.990876410E-1,-1.314416766E0,-6.505045891E0,7.661445618E0
6.010710180E-1,-1.266532660E0,-6.531382084E0,7.603984833E0
6.030854740E-1,-1.211466074E0,-6.540958881E0,7.544129372E0
6.050696990E-1,-1.187524080E0,-6.548141479E0,7.508216381E0
6.070829990E-1,-1.125274777E0,-6.564900875E0,7.436390400E0
6.090682240E-1,-1.058237195E0,-6.579266071E0,7.352593422E0
6.110826020E-1,-1.031900883E0,-6.586448669E0,7.326257229E0
6.130648270E-1,-9.840168953E-1,-6.598419666E0,7.273584843E0
6.150788980E-1,-9.265560508E-1,-6.603208065E0,7.225700855E0
6.170928140E-1,-9.002198577E-1,-6.619967937E0,7.196970463E0
6.190768080E-1,-8.786720037E-1,-6.636727333E0,7.163451672E0
6.210911860E-1,-8.499416113E-1,-6.646304131E0,7.132327080E0
6.230737180E-1,-8.403648138E-1,-6.665457726E0,7.077260017E0
6.250884810E-1,-8.116343617E-1,-6.679822922E0,7.046135426E0
6.270715510E-1,-7.948749661E-1,-6.691793919E0,7.041347027E0
6.290862370E-1,-7.565677166E-1,-6.725312710E0,7.026981831E0
6.310718470E-1,-7.398083210E-1,-6.763619900E0,7.007828236E0
6.330844550E-1,-7.302315235E-1,-6.770802498E0,6.993463039E0
6.350674490E-1,-7.350199223E-1,-6.799532890E0,6.993463039E0
6.370825970E-1,-7.350199223E-1,-6.842628479E0,6.995857239E0
6.390659740E-1,-7.374141216E-1,-6.868964672E0,7.000645638E0
6.410803530E-1,-7.469909191E-1,-6.916848660E0,7.010222435E0
6.430631930E-1,-7.613561153E-1,-6.952761650E0,6.991068840E0
6.450775710E-1,-7.781155705E-1,-6.964732647E0,6.986280441E0
6.470914110E-1,-7.996633649E-1,-6.993463039E0,6.976703644E0
6.490757120E-1,-7.876923680E-1,-7.029376030E0,6.981492043E0
6.510905520E-1,-7.781155705E-1,-7.038952827E0,6.993463039E0
6.530730070E-1,-7.972691655E-1,-7.060500622E0,7.019799232E0
6.550871540E-1,-8.140285611E-1,-7.074865818E0,7.029376030E0
6.570705330E-1,-8.092401624E-1,-7.091625214E0,7.048529625E0
6.590849110E-1,-8.068459630E-1,-7.105990410E0,7.031770229E0
6.610689040E-1,-8.116343617E-1,-7.113173485E0,7.003039837E0
6.630831290E-1,-8.116343617E-1,-7.144298077E0,6.952761650E0
6.650667380E-1,-7.972691655E-1,-7.170634270E0,6.936002254E0
6.670809620E-1,-7.852981687E-1,-7.187393665E0,6.955155849E0
6.690633410E-1,-7.445967197E-1,-7.247248650E0,7.041347027E0
6.710781800E-1,-7.062895298E-1,-7.297526836E0,7.158663273E0
6.730925590E-1,-6.847416759E-1,-7.328651428E0,7.218518257E0
6.750756300E-1,-6.512228847E-1,-7.364564419E0,7.362170219E0
6.770900840E-1,-6.177040339E-1,-7.417236805E0,7.520187378E0
6.790740780E-1,-6.105214357E-1,-7.436390400E0,7.580042362E0
6.810873790E-1,-5.889736414E-1,-7.448361397E0,7.625532627E0
6.830722960E-1,-5.913678408E-1,-7.445967197E0,7.592013359E0
6.850861360E-1,-5.937620401E-1,-7.441178799E0,7.572859764E0
6.870703600E-1,-6.057330370E-1,-7.429207802E0,7.534552574E0
6.890842000E-1,-6.081272364E-1,-7.422025204E0,7.489062786E0
6.910688100E-1,-6.416460276E-1,-7.429207802E0,7.366958618E0
6.930817260E-1,-6.919242740E-1,-7.426813602E0,7.266402245E0
6.950651040E-1,-7.038952708E-1,-7.426813602E0,7.228095055E0
6.970790210E-1,-7.422025204E-1,-7.438784599E0,7.204153061E0
6.990629370E-1,-7.972691655E-1,-7.455543995E0,7.184999466E0
7.010770850E-1,-8.212111592E-1,-7.453149796E0,7.170634270E0
7.030909240E-1,-8.882488012E-1,-7.436390400E0,7.098807812E0
7.050749180E-1,-9.624691010E-1,-7.424419403E0,7.005434036E0
7.070888360E-1,-9.983820915E-1,-7.417236805E0,6.981492043E0
7.090724440E-1,-1.060631394E0,-7.381323814E0,7.007828236E0
7.110881300E-1,-1.127668977E0,-7.386112213E0,7.103596210E0
7.130712010E-1,-1.154005170E0,-7.398083210E0,7.151480675E0
7.150838860E-1,-1.206677675E0,-7.388506413E0,7.204153061E0
7.170687270E-1,-1.233013868E0,-7.371747017E0,7.199364662E0
7.190826430E-1,-1.283292055E0,-7.357381821E0,7.173028469E0
7.210662520E-1,-1.357512355E0,-7.335834026E0,7.122750282E0
7.230801690E-1,-1.398213744E0,-7.326257229E0,7.103596210E0
7.250641620E-1,-1.491587639E0,-7.297526836E0,7.086836815E0
7.270779250E-1,-1.589749932E0,-7.275979042E0,7.060500622E0
7.290920730E-1,-1.637633920E0,-7.259219646E0,7.046135426E0
7.310758360E-1,-1.742978811E0,-7.225700855E0,6.983886242E0
7.330899060E-1,-1.848323703E0,-7.180211067E0,6.926425457E0
7.350732850E-1,-1.874659896E0,-7.153874874E0,6.904877663E0
7.370878170E-1,-1.944091797E0,-7.103596210E0,6.833051682E0
7.390711180E-1,-2.018311977E0,-7.050923824E0,6.777985096E0
7.410850340E-1,-2.044648170E0,-7.031770229E0,6.742072105E0
7.430692590E-1,-2.102109194E0,-6.981492043E0,6.658275127E0
7.450830990E-1,-2.152387381E0,-6.924031258E0,6.591237068E0
7.470667850E-1,-2.169146776E0,-6.902483463E0,6.567295074E0
7.490813170E-1,-2.205059767E0,-6.873753071E0,6.560112476E0
7.510646190E-1,-2.229001760E0,-6.854599476E0,6.586448669E0
7.530791500E-1,-2.257732153E0,-6.837840080E0,6.643909931E0
7.550932980E-1,-2.315192938E0,-6.828263283E0,6.718130112E0
7.570766770E-1,-2.346317768E0,-6.818686485E0,6.730101109E0
7.590908240E-1,-2.427720547E0,-6.797138691E0,6.751648903E0
7.610744330E-1,-2.525882721E0,-6.787561893E0,6.849811077E0
7.630883490E-1,-2.576161146E0,-6.777985096E0,6.936002254E0
7.650723430E-1,-2.674323320E0,-6.777985096E0,7.134721279E0
7.670864910E-1,-2.738966703E0,-6.751648903E0,7.271190643E0
7.690707920E-1,-2.750937700E0,-6.756437302E0,7.304709435E0
7.710843240E-1,-2.724601507E0,-6.742072105E0,7.287950039E0
7.730686260E-1,-2.614468336E0,-6.715735912E0,7.211335659E0
7.750823880E-1,-2.540247917E0,-6.713341713E0,7.182605267E0
7.770657670E-1,-2.358288765E0,-6.720524311E0,7.158663273E0
7.790796830E-1,-2.138022184E0,-6.737283707E0,7.177816868E0
7.810632920E-1,-2.027888775E0,-6.734889507E0,7.177816868E0
7.830781320E-1,-1.812410712E0,-6.744466305E0,7.153874874E0
7.850916640E-1,-1.695094824E0,-6.742072105E0,7.122750282E0
7.870752730E-1,-1.450886250E0,-6.754043102E0,7.034164429E0
7.890888820E-1,-1.254561663E0,-6.782773495E0,6.916848660E0
7.910749520E-1,-1.146822572E0,-6.777985096E0,6.842628479E0
7.930876390E-1,-9.696516991E-1,-6.770802498E0,6.696582317E0
7.950703250E-1,-8.212111592E-1,-6.770802498E0,6.567295074E0
7.970854720E-1,-7.589619160E-1,-6.770802498E0,6.514622688E0
7.990696970E-1,-6.512228847E-1,-6.792350292E0,6.430825710E0
8.010819970E-1,-5.770025849E-1,-6.797138691E0,6.366182327E0
8.030669140E-1,-5.530605912E-1,-6.799532890E0,6.325480938E0
8.050808310E-1,-5.123591423E-1,-6.801927090E0,6.227318764E0
8.070635170E-1,-4.908113480E-1,-6.794744492E0,6.124367714E0
8.090795110E-1,-4.764461517E-1,-6.794744492E0,6.083666325E0
8.110625820E-1,-4.405331016E-1,-6.799532890E0,6.023811340E0
8.130764980E-1,-4.165911078E-1,-6.813898087E0,5.990292549E0
8.150894150E-1,-3.878606856E-1,-6.816292286E0,5.983109951E0
8.170742540E-1,-3.687070608E-1,-6.823474884E0,5.937620163E0
8.190880940E-1,-3.327940404E-1,-6.818686485E0,5.913678169E0
8.210718570E-1,-2.801215947E-1,-6.854599476E0,5.916072369E0
8.230860040E-1,-2.466027737E-1,-6.868964672E0,5.913678169E0
8.250689980E-1,-2.178723514E-1,-6.871358871E0,5.913678169E0
8.270835310E-1,-1.795651317E-1,-6.904877663E0,5.932831764E0
8.290671390E-1,-1.675941199E-1,-6.928819656E0,5.916072369E0
8.310815950E-1,-1.675941199E-1,-6.943184853E0,5.904101372E0
8.330650500E-1,-1.915361285E-1,-6.991068840E0,5.884947777E0
8.350795050E-1,-2.657563984E-1,-7.022193432E0,5.896918774E0
8.370634220E-1,-2.992752194E-1,-7.036558628E0,5.918466568E0
8.390772610E-1,-3.615244627E-1,-7.082048416E0,5.997475147E0
8.410911780E-1,-4.620809257E-1,-7.120356083E0,6.026205540E0
8.430747870E-1,-5.219359994E-1,-7.144298077E0,5.992686749E0
8.450890110E-1,-6.344634295E-1,-7.153874874E0,5.930437565E0
8.470720050E-1,-6.919242740E-1,-7.189787865E0,5.889736176E0
8.490877680E-1,-8.164227605E-1,-7.213729858E0,5.877765179E0
8.510711460E-1,-9.313444495E-1,-7.283161640E0,5.901707172E0
8.530840630E-1,-9.840168953E-1,-7.319074631E0,5.940014362E0
8.550676730E-1,-1.072602391E0,-7.398083210E0,6.033388138E0
8.570828190E-1,-1.165976286E0,-7.486668587E0,6.114790916E0
8.590658900E-1,-1.204283476E0,-7.546523571E0,6.150704384E0
8.610796530E-1,-1.273715258E0,-7.651868820E0,6.184223175E0
8.630639540E-1,-1.340752959E0,-7.752425194E0,6.260837555E0
8.650781020E-1,-1.355118155E0,-7.821856976E0,6.332663536E0
8.670917110E-1,-1.364694953E0,-7.939172745E0,6.528987885E0
8.690756280E-1,-1.326387763E0,-8.049305916E0,6.622362137E0
8.710910820E-1,-1.302445769E0,-8.101978302E0,6.612784863E0
8.730738450E-1,-1.276109457E0,-8.180987358E0,6.500257492E0
8.750876090E-1,-1.242590666E0,-8.192957878E0,6.320692539E0
8.770713710E-1,-1.237802267E0,-8.195352554E0,6.268020153E0
8.790855190E-1,-1.237802267E0,-8.164227486E0,6.224924564E0
8.810688970E-1,-1.237802267E0,-8.145073891E0,6.210559368E0
8.830830440E-1,-1.244984865E0,-8.123526573E0,6.174646378E0
8.850670380E-1,-1.276109457E0,-8.082824707E0,6.100425720E0
8.870814940E-1,-1.300051570E0,-8.058882713E0,6.054935932E0
8.890654100E-1,-1.340752959E0,-8.006210327E0,6.016628742E0
8.910795580E-1,-1.367089152E0,-7.946355343E0,6.057330132E0
8.930629360E-1,-1.376665950E0,-7.929595947E0,6.102819920E0
8.950765450E-1,-1.386242747E0,-7.915230751E0,6.172252178E0
8.970903850E-1,-1.410184860E0,-7.903259754E0,6.215347767E0
8.990743010E-1,-1.417367458E0,-7.900865555E0,6.229712963E0
9.010888330E-1,-1.436521053E0,-7.881711960E0,6.248866558E0
9.030724430E-1,-1.467645645E0,-7.891288757E0,6.279991150E0
9.050868970E-1,-1.472434044E0,-7.891288757E0,6.282385349E0
9.070702760E-1,-1.484405041E0,-7.893682957E0,6.275202751E0
9.090835010E-1,-1.448492050E0,-7.884106159E0,6.272808552E0
9.110650320E-1,-1.443703651E0,-7.876923561E0,6.265625954E0
9.130811030E-1,-1.441309452E0,-7.879317760E0,6.272808552E0
9.150650960E-1,-1.436521053E0,-7.872135162E0,6.294356346E0
9.170798590E-1,-1.412579060E0,-7.852981567E0,6.378153324E0
9.190634690E-1,-1.388636947E0,-7.850587368E0,6.466738701E0
9.210773850E-1,-1.386242747E0,-7.845798969E0,6.488286495E0
9.230920710E-1,-1.367089152E0,-7.848193169E0,6.507440090E0
9.250746040E-1,-1.323993564E0,-7.843404770E0,6.555324078E0
9.270893660E-1,-1.312022567E0,-7.833827972E0,6.581660271E0
9.290733600E-1,-1.323993564E0,-7.807491779E0,6.627150536E0
9.310874300E-1,-1.307234168E0,-7.795520782E0,6.646304131E0
9.330711160E-1,-1.309628367E0,-7.783549786E0,6.646304131E0
9.350853410E-1,-1.323993564E0,-7.750030994E0,6.631938934E0
9.370686420E-1,-1.374271750E0,-7.673416615E0,6.653486729E0
9.390834820E-1,-1.400607944E0,-7.632715225E0,6.665457726E0
9.410661680E-1,-1.508347034E0,-7.580042362E0,6.694188118E0
9.430806230E-1,-1.589749932E0,-7.510610580E0,6.703764915E0
9.450637700E-1,-1.647210717E0,-7.474697590E0,6.698976517E0
9.470785340E-1,-1.771709204E0,-7.417236805E0,6.710947514E0
9.490615270E-1,-1.824381709E0,-7.386112213E0,6.732495308E0
9.510753670E-1,-1.910573006E0,-7.350199223E0,6.806715488E0
9.530907440E-1,-1.980004787E0,-7.321468830E0,6.842628479E0
9.550741230E-1,-2.020706177E0,-7.314286232E0,6.835445881E0
9.570883480E-1,-2.090138197E0,-7.311892033E0,6.773196697E0
9.590719560E-1,-2.121262789E0,-7.314286232E0,6.703764915E0
9.610858730E-1,-2.130839586E0,-7.295132637E0,6.663063526E0
9.630697900E-1,-2.164358377E0,-7.287950039E0,6.600813866E0
9.650837060E-1,-2.195482969E0,-7.275979042E0,6.576871872E0
9.670680080E-1,-2.212242365E0,-7.278373241E0,6.574477673E0
9.690821550E-1,-2.217030764E0,-7.287950039E0,6.605602264E0
9.710666870E-1,-2.240972757E0,-7.268796444E0,6.619967937E0
9.730799120E-1,-2.250549555E0,-7.271190643E0,6.627150536E0
9.750627510E-1,-2.252943754E0,-7.266402245E0,6.670246124E0
9.770772070E-1,-2.240972757E0,-7.261613846E0,6.727706909E0
9.790909700E-1,-2.243366957E0,-7.252037048E0,6.756437302E0
9.810749630E-1,-2.250549555E0,-7.225700855E0,6.799532890E0
9.830891880E-1,-2.255337954E0,-7.208941460E0,6.811503887E0
9.850728740E-1,-2.245761156E0,-7.184999466E0,6.787561893E0
9.870872520E-1,-2.243366957E0,-7.127538681E0,6.751648903E0
9.890700150E-1,-2.231395960E0,-7.101202011E0,6.734889507E0
9.910866240E-1,-2.212242365E0,-7.067683220E0,6.670246124E0
9.930679250E-1,-2.178723574E0,-7.041347027E0,6.572083473E0
9.950826120E-1,-2.157175779E0,-7.015010834E0,6.524199486E0
9.970659890E-1,-2.111685991E0,-6.971915245E0,6.421248913E0
9.990805220E-1,-2.054224968E0,-6.931213856E0,6.327875137E0
1.001063593E0,-2.018311977E0,-6.890512466E0,6.308721542E0
1.003078047E0,-1.934514999E0,-6.847416878E0,6.258443356E0
1.005061349E0,-1.838746905E0,-6.811503887E0,6.179434776E0
1.007076188E0,-1.795651317E0,-6.787561893E0,6.143521786E0
1.009090643E0,-1.685518026E0,-6.742072105E0,6.095637321E0
1.011074637E0,-1.618480325E0,-6.715735912E0,6.088454723E0
1.013088477E0,-1.491587639E0,-6.703764915E0,6.121973515E0
1.015071471E0,-1.422155857E0,-6.708553314E0,6.141127586E0
1.017085388E0,-1.388636947E0,-6.722918510E0,6.133944988E0
1.019068996E0,-1.338358760E0,-6.746860504E0,6.121973515E0
1.021083144E0,-1.345541358E0,-6.758831501E0,6.133944988E0
1.023067215E0,-1.335964561E0,-6.780379295E0,6.153098583E0
1.025081054E0,-1.319205165E0,-6.830657482E0,6.198588371E0
1.027065279E0,-1.321599364E0,-6.878541470E0,6.287173748E0
1.029077964E0,-1.343147159E0,-6.892906666E0,6.327875137E0
1.031095112E0,-1.383848548E0,-6.909666061E0,6.416460514E0
1.033077644E0,-1.438915253E0,-6.947973251E0,6.505045891E0
1.035090561E0,-1.477222443E0,-6.955155849E0,6.538564682E0
1.037073939E0,-1.572990537E0,-6.962338448E0,6.576871872E0
1.039088933E0,-1.683123827E0,-6.940790653E0,6.593631268E0
1.041073003E0,-1.750161409E0,-6.933608055E0,6.593631268E0
1.043086536E0,-1.889025092E0,-6.914454460E0,6.624756336E0
1.045069530E0,-1.972822189E0,-6.907271862E0,6.655880928E0
1.047083676E0,-2.147598982E0,-6.914454460E0,6.727706909E0
1.049068670E0,-2.317587137E0,-6.909666061E0,6.792350292E0
1.051082817E0,-2.396595955E0,-6.909666061E0,6.835445881E0
1.053066196E0,-2.568978310E0,-6.926425457E0,6.971915245E0
1.055080344E0,-2.748543501E0,-6.971915245E0,7.086836815E0
1.057063721E0,-2.827552319E0,-6.993463039E0,7.144298077E0
1.059077485E0,-2.956839085E0,-7.070077419E0,7.275979042E0
1.061091402E0,-3.081337690E0,-7.156269073E0,7.417236805E0
1.063075933E0,-3.129221678E0,-7.199364662E0,7.479485989E0
1.065089850E0,-3.232172251E0,-7.278373241E0,7.582436562E0
1.067073151E0,-3.313575268E0,-7.359776020E0,7.661445618E0
1.069086760E0,-3.354276657E0,-7.386112213E0,7.694964409E0
1.071073831E0,-3.402160645E0,-7.457938194E0,7.742848396E0
1.073084824E0,-3.447650433E0,-7.493851185E0,7.785943985E0
1.075068203E0,-3.469198227E0,-7.505822182E0,7.817068577E0
1.077082735E0,-3.509899616E0,-7.548917770E0,7.869740963E0
1.079066728E0,-3.517082214E0,-7.556100368E0,7.922413349E0
1.081080799E0,-3.550601006E0,-7.580042362E0,7.999027729E0
1.083064178E0,-3.579331636E0,-7.594407558E0,8.027758598E0
1.085078632E0,-3.591302633E0,-7.589619160E0,8.008605003E0
1.087061703E0,-3.600879431E0,-7.575253963E0,7.929595947E0
1.089076543E0,-3.643975019E0,-7.529764175E0,7.795520782E0
1.091090921E0,-3.677493811E0,-7.510610580E0,7.716512203E0
1.093074377E0,-3.732560396E0,-7.436390400E0,7.532158375E0
1.095088447E0,-3.768473387E0,-7.340622425E0,7.335834026E0
1.097072210E0,-3.766079187E0,-7.285555840E0,7.235277653E0
1.099086665E0,-3.763684988E0,-7.184999466E0,7.026981831E0
1.101069428E0,-3.687070608E0,-7.098807812E0,6.813898087E0
1.103083806E0,-3.624821424E0,-7.070077419E0,6.718130112E0
1.105067492E0,-3.476380825E0,-7.024587631E0,6.552929878E0
1.107081332E0,-3.375824451E0,-7.010222435E0,6.414066315E0
1.109065095E0,-3.153163671E0,-6.998251438E0,6.354211330E0
1.111081011E0,-2.880224705E0,-6.991068840E0,6.272808552E0
1.113063851E0,-2.762908697E0,-6.995857239E0,6.241683960E0
1.115076999E0,-2.528276920E0,-7.019799232E0,6.212953568E0
1.117092146E0,-2.315192938E0,-7.048529625E0,6.193799973E0
1.119075448E0,-2.231395960E0,-7.065289021E0,6.189011574E0
1.121089594E0,-2.109291792E0,-7.103596210E0,6.217741966E0
1.123072742E0,-2.078166962E0,-7.115567684E0,6.210559368E0
1.125087121E0,-2.080561161E0,-7.129932880E0,6.217741966E0
1.127070191E0,-2.147598982E0,-7.156269073E0,6.229712963E0
1.129085569E0,-2.257732153E0,-7.165845871E0,6.256049156E0
1.131069563E0,-2.346317768E0,-7.163451672E0,6.260837555E0
1.133082556E0,-2.525882721E0,-7.151480675E0,6.275202751E0
1.135065935E0,-2.726995707E0,-7.115567684E0,6.296750546E0
1.137080698E0,-2.846705914E0,-7.089231014E0,6.323086739E0
1.139064614E0,-3.062183857E0,-7.046135426E0,6.409277916E0
1.141078224E0,-3.162740469E0,-7.010222435E0,6.488286495E0
1.143061602E0,-3.356670856E0,-6.979097843E0,6.531382084E0
1.145075749E0,-3.533841610E0,-6.950367451E0,6.572083473E0
1.147089897E0,-3.608062029E0,-6.936002254E0,6.584054470E0
1.149073275E0,-3.727771997E0,-6.914454460E0,6.631938934E0
1.151090115E0,-3.797203779E0,-6.895300865E0,6.694188118E0
1.153070801E0,-3.809175014E0,-6.900089264E0,6.718130112E0
1.155086410E0,-3.797203779E0,-6.916848660E0,6.725312710E0
1.157069173E0,-3.785232782E0,-6.926425457E0,6.689399719E0
1.159083704E0,-3.761290789E0,-6.933608055E0,6.660669327E0
1.161067314E0,-3.703830004E0,-6.947973251E0,6.624756336E0
1.163081846E0,-3.653551817E0,-6.952761650E0,6.610390663E0
1.165065531E0,-3.636792421E0,-6.950367451E0,6.610390663E0
1.167078449E0,-3.584120035E0,-6.952761650E0,6.581660271E0
1.169062366E0,-3.545812607E0,-6.940790653E0,6.557718277E0
1.171077128E0,-3.543418407E0,-6.936002254E0,6.545747280E0
1.173091353E0,-3.550601006E0,-6.928819656E0,6.524199486E0
1.175074654E0,-3.557783842E0,-6.938396454E0,6.524199486E0
1.177088263E0,-3.598485231E0,-6.924031258E0,6.528987885E0
1.179072488E0,-3.658340216E0,-6.912060261E0,6.500257492E0
1.181086634E0,-3.687070608E0,-6.909666061E0,6.473921299E0
1.183070628E0,-3.775655985E0,-6.892906666E0,6.426037312E0
1.185084469E0,-3.864241600E0,-6.895300865E0,6.406883717E0
1.187067846E0,-3.904942989E0,-6.900089264E0,6.404489517E0
1.189081763E0,-3.995922565E0,-6.900089264E0,6.373364925E0
1.191068219E0,-4.060565948E0,-6.900089264E0,6.347028732E0
1.193080135E0,-4.082113743E0,-6.900089264E0,6.358999729E0
1.195063590E0,-4.103661537E0,-6.902483463E0,6.327875137E0
1.197077661E0,-4.115632534E0,-6.907271862E0,6.308721542E0
1.199061347E0,-4.113238335E0,-6.895300865E0,6.284779549E0
1.201075264E0,-4.125209332E0,-6.890512466E0,6.236895561E0
1.203089641E0,-4.146757126E0,-6.861782074E0,6.191405773E0
1.205073020E0,-4.141968727E0,-6.859387875E0,6.162675381E0
1.207086860E0,-4.125209332E0,-6.866570473E0,6.102819920E0
1.209071776E0,-4.129997730E0,-6.864176273E0,6.071695328E0
1.211085693E0,-4.120420933E0,-6.833051682E0,6.016628742E0
1.213068149E0,-4.106055737E0,-6.833051682E0,5.980715752E0
1.215083219E0,-4.103661537E0,-6.837840080E0,5.975927353E0
1.217066290E0,-4.067748547E0,-6.813898087E0,5.954379559E0
1.219080975E0,-4.007893562E0,-6.782773495E0,5.947196960E0
1.221064354E0,-3.988739967E0,-6.773196697E0,5.949591160E0
1.223078886E0,-3.969586372E0,-6.749254704E0,5.978321552E0
1.225061879E0,-3.914519787E0,-6.739677906E0,6.011840343E0
1.227076104E0,-3.895366192E0,-6.734889507E0,6.035782337E0
1.229089944E0,-3.849876404E0,-6.706159115E0,6.081272125E0
1.231075783E0,-3.823540211E0,-6.682217121E0,6.121973515E0
1.233087700E0,-3.816357613E0,-6.660669327E0,6.138733387E0
1.235071771E0,-3.799597979E0,-6.622362137E0,6.155492783E0
1.237086149E0,-3.785232782E0,-6.593631268E0,6.160281181E0
1.239069527E0,-3.768473387E0,-6.581660271E0,6.153098583E0
1.241083982E0,-3.756502390E0,-6.540958881E0,6.138733387E0
1.243067361E0,-3.756502390E0,-6.524199486E0,6.117185116E0
1.245081585E0,-3.746925592E0,-6.493074894E0,6.066906929E0
1.247065194E0,-3.737348795E0,-6.435614109E0,6.026205540E0
1.249079419E0,-3.718195200E0,-6.411672115E0,6.014234543E0
1.251063413E0,-3.655946016E0,-6.390124321E0,5.987898350E0
1.253076944E0,-3.612850428E0,-6.347028732E0,5.968744755E0
1.255091323E0,-3.579331636E0,-6.313509941E0,5.954379559E0
1.257074700E0,-3.490746021E0,-6.265625954E0,5.896918774E0
1.259089233E0,-3.380612850E0,-6.198588371E0,5.829881191E0
1.261072534E0,-3.318363667E0,-6.172252178E0,5.796362400E0
1.263087297E0,-3.186682463E0,-6.121973515E0,5.731719017E0
1.265070137E0,-3.083731890E0,-6.083666325E0,5.674258232E0
1.267085131E0,-3.033453465E0,-6.064512730E0,5.652710438E0
1.269067662E0,-2.990357876E0,-6.004657745E0,5.635950565E0
1.271084810E0,-2.971204281E0,-5.973533154E0,5.676652431E0
1.273066958E0,-2.940079689E0,-5.959167957E0,5.714959621E0
1.275079874E0,-2.932897091E0,-5.947196960E0,5.798756599E0
1.277064483E0,-2.942473888E0,-5.947196960E0,5.851428986E0
1.279078938E0,-2.987963676E0,-5.937620163E0,5.978321552E0
1.281061701E0,-3.069366693E0,-5.930437565E0,6.081272125E0
1.283075926E0,-3.124433279E0,-5.925649166E0,6.117185116E0
1.285089765E0,-3.263296843E0,-5.906495571E0,6.157886982E0
1.287073990E0,-3.430891037E0,-5.906495571E0,6.186617374E0
1.289088215E0,-3.541024208E0,-5.901707172E0,6.191405773E0
1.291072515E0,-3.763684988E0,-5.882553577E0,6.198588371E0
1.293085971E0,-3.998316765E0,-5.841852188E0,6.227318764E0
1.295069733E0,-4.120420933E0,-5.829881191E0,6.241683960E0
1.297083266E0,-4.314351559E0,-5.798756599E0,6.289567947E0
1.299066952E0,-4.491522312E0,-5.777208805E0,6.361393929E0
1.301081406E0,-4.565742493E0,-5.779603004E0,6.392518520E0
1.303065324E0,-4.668693542E0,-5.786785603E0,6.430825710E0
1.305079241E0,-4.697423935E0,-5.789179802E0,6.426037312E0
1.307063541E0,-4.728548527E0,-5.789179802E0,6.414066315E0
1.309076689E0,-4.709394932E0,-5.784391403E0,6.411672115E0
1.311092144E0,-4.702212334E0,-5.784391403E0,6.414066315E0
1.313073984E0,-4.627991676E0,-5.803544998E0,6.433219910E0
1.315088132E0,-4.537012100E0,-5.803544998E0,6.430825710E0
1.317072356E0,-4.481945515E0,-5.810727596E0,6.423643112E0
1.319087119E0,-4.335899353E0,-5.774814606E0,6.402095318E0
1.321070805E0,-4.240131378E0,-5.767632008E0,6.382941723E0
1.323084644E0,-4.187458992E0,-5.755661011E0,6.368576527E0
1.325068023E0,-4.086902142E0,-5.731719017E0,6.344634533E0
1.327082248E0,-3.991134167E0,-5.681440830E0,6.313509941E0
1.329066164E0,-3.938461781E0,-5.671864033E0,6.311115742E0
1.331080081E0,-3.847482204E0,-5.631162167E0,6.313509941E0
1.333064306E0,-3.785232782E0,-5.595249176E0,6.320692539E0
1.335077529E0,-3.763684988E0,-5.597643375E0,6.330269337E0
1.337061600E0,-3.701435804E0,-5.573701382E0,6.354211330E0
1.339075747E0,-3.679888010E0,-5.556941986E0,6.351817131E0
1.341089510E0,-3.629609823E0,-5.509057999E0,6.313509941E0
1.343072966E0,-3.593696833E0,-5.480327606E0,6.253654957E0
1.345087651E0,-3.564966440E0,-5.456385612E0,6.229712963E0
1.347071030E0,-3.529053211E0,-5.415684223E0,6.193799973E0
1.349085485E0,-3.541024208E0,-5.377377033E0,6.143521786E0
1.351069786E0,-3.560178041E0,-5.358223438E0,6.129156113E0
1.353083319E0,-3.600879431E0,-5.327098846E0,6.102819920E0
1.355066465E0,-3.660734415E0,-5.300762653E0,6.074089527E0
1.357081152E0,-3.703830004E0,-5.298368454E0,6.076483727E0
1.359064300E0,-3.797203779E0,-5.300762653E0,6.093243122E0
1.361078677E0,-3.900154591E0,-5.334281445E0,6.153098583E0
1.363062363E0,-3.948038578E0,-5.374982834E0,6.198588371E0
1.365075896E0,-4.007893562E0,-5.434837818E0,6.287173748E0
1.367090350E0,-4.041412354E0,-5.499481201E0,6.363788128E0
1.369074421E0,-4.055777550E0,-5.535394192E0,6.406883717E0
1.371089184E0,-4.053383350E0,-5.604825974E0,6.509834290E0
1.373072793E0,-4.043806553E0,-5.640739441E0,6.560112476E0
1.375086095E0,-4.036623955E0,-5.693411827E0,6.665457726E0
1.377069395E0,-3.964797974E0,-5.729324818E0,6.768408298E0
1.379083851E0,-3.931279182E0,-5.746084213E0,6.811503887E0
1.381067307E0,-3.892971992E0,-5.750872612E0,6.876147270E0
1.383081453E0,-3.883395195E0,-5.774814606E0,6.890512466E0
1.385065447E0,-3.861847401E0,-5.786785603E0,6.892906666E0
1.387079826E0,-3.861847401E0,-5.772420406E0,6.900089264E0
1.389062588E0,-3.878606796E0,-5.755661011E0,6.912060261E0
1.391079198E0,-3.885789394E0,-5.738901615E0,6.900089264E0
1.393060191E0,-3.928884983E0,-5.702988625E0,6.852205276E0
1.395075185E0,-3.983951569E0,-5.667075634E0,6.813898087E0
1.397089102E0,-4.019864559E0,-5.664681435E0,6.797138691E0
1.399072479E0,-4.072536945E0,-5.657498837E0,6.775590897E0
1.401087243E0,-4.086902142E0,-5.667075634E0,6.763619900E0
1.403070006E0,-4.098873138E0,-5.671864033E0,6.770802498E0
1.405085076E0,-4.108449936E0,-5.688623428E0,6.768408298E0
1.407067839E0,-4.098873138E0,-5.700594425E0,6.758831501E0
1.409083524E0,-4.058171749E0,-5.731719017E0,6.756437302E0
1.411067749E0,-4.005499363E0,-5.753266811E0,6.758831501E0
1.413080666E0,-3.981557369E0,-5.770026207E0,6.758831501E0
1.415064659E0,-3.940855980E0,-5.789179802E0,6.744466305E0
1.417078192E0,-3.871424198E0,-5.789179802E0,6.718130112E0
1.419061955E0,-3.830722809E0,-5.781997204E0,6.691793919E0
1.421076025E0,-3.773261786E0,-5.801150799E0,6.689399719E0
1.423090173E0,-3.718195200E0,-5.820304394E0,6.706159115E0
1.425073551E0,-3.679888010E0,-5.827486992E0,6.718130112E0
1.427088006E0,-3.622427225E0,-5.841852188E0,6.737283707E0
1.429071077E0,-3.548206806E0,-5.846640587E0,6.722918510E0
1.431087762E0,-3.517082214E0,-5.846640587E0,6.722918510E0
1.433069833E0,-3.450044632E0,-5.861005783E0,6.706159115E0
1.435083365E0,-3.421314240E0,-5.875370979E0,6.713341713E0
1.437066820E0,-3.361459255E0,-5.884947777E0,6.703764915E0
1.439080891E0,-3.323152065E0,-5.916072369E0,6.713341713E0
1.441065193E0,-3.301604033E0,-5.923254967E0,6.722918510E0
1.443079032E0,-3.258508444E0,-5.899312973E0,6.708553314E0
1.445062718E0,-3.239354849E0,-5.923254967E0,6.708553314E0
1.447076865E0,-3.239354849E0,-5.925649166E0,6.715735912E0
1.449061474E0,-3.234566450E0,-5.911283970E0,6.730101109E0
1.451075622E0,-3.239354849E0,-5.937620163E0,6.725312710E0
1.453088846E0,-3.241749048E0,-5.944802761E0,6.734889507E0
1.455072301E0,-3.258508444E0,-5.983109951E0,6.754043102E0
1.457086372E0,-3.308786631E0,-6.023811340E0,6.782773495E0
1.459070365E0,-3.332728863E0,-6.035782337E0,6.799532890E0
1.461084282E0,-3.359065056E0,-6.062118530E0,6.806715488E0
1.463068276E0,-3.387795448E0,-6.100425720E0,6.794744492E0
1.465082346E0,-3.404554844E0,-6.124367714E0,6.792350292E0
1.467065725E0,-3.464409828E0,-6.172252178E0,6.801927090E0
1.469079949E0,-3.485957623E0,-6.205770969E0,6.813898087E0
1.471065404E0,-3.517082214E0,-6.232107162E0,6.840234280E0
1.473076860E0,-3.557783842E0,-6.287173748E0,6.880935669E0
1.475061699E0,-3.572149038E0,-6.306327343E0,6.892906666E0
1.477074924E0,-3.605667830E0,-6.342240334E0,6.943184853E0
1.479090302E0,-3.646369219E0,-6.385335922E0,6.983886242E0
1.481073372E0,-3.660734415E0,-6.402095318E0,7.012616634E0
1.483087289E0,-3.663128614E0,-6.438008308E0,7.074865818E0
1.485071514E0,-3.670311213E0,-6.495469093E0,7.127538681E0
1.487085123E0,-3.670311213E0,-6.517016888E0,7.149086475E0
1.489070040E0,-3.658340216E0,-6.552929878E0,7.187393665E0
1.491083802E0,-3.636792421E0,-6.572083473E0,7.199364662E0
1.493066950E0,-3.629609823E0,-6.574477673E0,7.196970463E0
1.495080405E0,-3.593696833E0,-6.584054470E0,7.201758862E0
1.497064398E0,-3.591302633E0,-6.586448669E0,7.194576263E0
1.499078623E0,-3.581725836E0,-6.591237068E0,7.201758862E0
1.501062233E0,-3.579331636E0,-6.607996464E0,7.189787865E0
1.503076072E0,-3.586514235E0,-6.612784863E0,7.184999466E0
1.505090220E0,-3.588908434E0,-6.617573261E0,7.187393665E0
1.507073982E0,-3.574543238E0,-6.629544735E0,7.204153061E0
1.509088437E0,-3.581725836E0,-6.643909931E0,7.204153061E0
1.511073047E0,-3.579331636E0,-6.684611320E0,7.201758862E0
1.513087194E0,-3.584120035E0,-6.696582317E0,7.187393665E0
1.515068649E0,-3.579331636E0,-6.703764915E0,7.177816868E0
1.517084028E0,-3.541024208E0,-6.722918510E0,7.151480675E0
1.519067175E0,-3.538630009E0,-6.744466305E0,7.134721279E0
1.521082169E0,-3.533841610E0,-6.766014099E0,7.120356083E0
1.523064701E0,-3.495534420E0,-6.763619900E0,7.110779285E0
1.525079463E0,-3.466804028E0,-6.751648903E0,7.082048416E0
1.527063073E0,-3.454833031E0,-6.754043102E0,7.074865818E0
1.529078143E0,-3.430891037E0,-6.761225700E0,7.070077419E0
1.531061598E0,-3.409343243E0,-6.763619900E0,7.053318024E0
1.533075669E0,-3.339911461E0,-6.768408298E0,7.053318024E0
1.535089508E0,-3.296815634E0,-6.777985096E0,7.053318024E0
1.537072964E0,-3.280056238E0,-6.794744492E0,7.046135426E0
1.539086804E0,-3.253720045E0,-6.830657482E0,7.050923824E0
1.541070105E0,-3.232172251E0,-6.840234280E0,7.043741226E0
1.543085176E0,-3.227383852E0,-6.842628479E0,7.024587631E0
1.545068245E0,-3.224989653E0,-6.849811077E0,6.967126846E0
1.547082778E0,-3.232172251E0,-6.856993675E0,6.914454460E0
1.549065541E0,-3.236960649E0,-6.868964672E0,6.880935669E0
1.551082150E0,-3.268085241E0,-6.871358871E0,6.825869083E0
1.553063067E0,-3.280056238E0,-6.871358871E0,6.797138691E0
1.555079061E0,-3.294421434E0,-6.868964672E0,6.773196697E0
1.557062361E0,-3.308786631E0,-6.871358871E0,6.722918510E0
1.559075355E0,-3.320757866E0,-6.871358871E0,6.696582317E0
1.561090118E0,-3.330334663E0,-6.876147270E0,6.677428722E0
1.563073727E0,-3.323152065E0,-6.890512466E0,6.655880928E0
1.565088259E0,-3.323152065E0,-6.895300865E0,6.651092529E0
1.567071560E0,-3.308786631E0,-6.902483463E0,6.651092529E0
1.569085477E0,-3.296815634E0,-6.892906666E0,6.639121532E0
1.571069779E0,-3.287238836E0,-6.897695065E0,6.622362137E0
1.573083618E0,-3.253720045E0,-6.895300865E0,6.596025467E0
1.575067227E0,-3.251325846E0,-6.892906666E0,6.588842869E0
1.577081452E0,-3.246537447E0,-6.890512466E0,6.574477673E0
1.579064753E0,-3.229778051E0,-6.878541470E0,6.543353081E0
1.581078901E0,-3.251325846E0,-6.866570473E0,6.521805286E0
1.583062895E0,-3.248931646E0,-6.859387875E0,6.514622688E0
1.585077119E0,-3.234566450E0,-6.852205276E0,6.493074894E0
1.587060420E0,-3.236960649E0,-6.840234280E0,6.476315498E0
1.589073952E0,-3.234566450E0,-6.835445881E0,6.478709698E0
1.591091561E0,-3.239354849E0,-6.818686485E0,6.445190907E0
1.593073324E0,-3.236960649E0,-6.777985096E0,6.385335922E0
1.595085933E0,-3.239354849E0,-6.775590897E0,6.366182327E0
1.597070542E0,-3.246537447E0,-6.739677906E0,6.323086739E0
1.599084689E0,-3.258508444E0,-6.727706909E0,6.303933144E0
1.601068375E0,-3.277662039E0,-6.715735912E0,6.270414352E0
1.603082215E0,-3.299209833E0,-6.706159115E0,6.263231754E0
1.605066208E0,-3.311181068E0,-6.696582317E0,6.265625954E0
1.607080049E0,-3.323152065E0,-6.703764915E0,6.260837555E0
1.609064427E0,-3.303998232E0,-6.701370716E0,6.251260757E0
1.611078497E0,-3.294421434E0,-6.694188118E0,6.236895561E0
1.613062260E0,-3.280056238E0,-6.696582317E0,6.224924564E0
1.615075485E0,-3.270479441E0,-6.698976517E0,6.205770969E0
1.617089940E0,-3.270479441E0,-6.691793919E0,6.203376770E0
1.619073318E0,-3.253720045E0,-6.689399719E0,6.191405773E0
1.621087465E0,-3.236960649E0,-6.679822922E0,6.181828976E0
1.623071767E0,-3.246537447E0,-6.663063526E0,6.174646378E0
1.625085530E0,-3.220201254E0,-6.658275127E0,6.172252178E0
1.627068985E0,-3.227383852E0,-6.643909931E0,6.155492783E0
1.629082825E0,-3.236960649E0,-6.636727333E0,6.157886982E0
1.631068665E0,-3.248931646E0,-6.615179062E0,6.145915985E0
1.633080350E0,-3.251325846E0,-6.605602264E0,6.143521786E0
1.635064883E0,-3.260902643E0,-6.579266071E0,6.133944988E0
1.637078492E0,-3.296815634E0,-6.562506676E0,6.119579315E0
1.639062793E0,-3.301604033E0,-6.550535679E0,6.102819920E0
1.641076325E0,-3.330334663E0,-6.533776283E0,6.064512730E0
1.643060011E0,-3.342305660E0,-6.509834290E0,6.038176537E0
1.645073774E0,-3.347094059E0,-6.488286495E0,6.030993938E0
1.647088537E0,-3.385401249E0,-6.452373505E0,6.016628742E0
1.649073222E0,-3.399766445E0,-6.438008308E0,6.002263546E0
1.651087370E0,-3.409343243E0,-6.428431511E0,5.997475147E0
1.653070057E0,-3.440467834E0,-6.406883717E0,6.011840343E0
1.655083665E0,-3.452438831E0,-6.394912720E0,6.009446144E0
1.657067351E0,-3.447650433E0,-6.387730122E0,6.007051945E0
1.659081421E0,-3.457227230E0,-6.387730122E0,5.987898350E0
1.661064800E0,-3.469198227E0,-6.368576527E0,5.985504150E0
1.663079948E0,-3.473986626E0,-6.366182327E0,5.985504150E0
1.665063018E0,-3.469198227E0,-6.332663536E0,5.961562157E0
1.667077165E0,-3.481169224E0,-6.325480938E0,5.951985359E0
1.669060775E0,-3.495534420E0,-6.313509941E0,5.932831764E0
1.671077460E0,-3.531447411E0,-6.296750546E0,5.925649166E0
1.673059300E0,-3.536235809E0,-6.303933144E0,5.918466568E0
1.675072217E0,-3.536235809E0,-6.311115742E0,5.904101372E0
1.677087826E0,-3.557783842E0,-6.313509941E0,5.870582581E0
1.679071281E0,-3.560178041E0,-6.311115742E0,5.861005783E0
1.681085044E0,-3.567360640E0,-6.315904140E0,5.827486992E0
1.683068114E0,-3.557783842E0,-6.327875137E0,5.808333397E0
1.685082955E0,-3.567360640E0,-6.327875137E0,5.793968201E0
1.687066332E0,-3.572149038E0,-6.323086739E0,5.765237808E0
1.689080711E0,-3.572149038E0,-6.320692539E0,5.743690014E0
1.691065397E0,-3.584120035E0,-6.318298340E0,5.738901615E0
1.693078313E0,-3.562572241E0,-6.313509941E0,5.736507416E0
1.695062000E0,-3.555389643E0,-6.299144745E0,5.734113216E0
1.697076377E0,-3.584120035E0,-6.303933144E0,5.736507416E0
1.699059448E0,-3.593696833E0,-6.327875137E0,5.741295815E0
1.701073904E0,-3.608062029E0,-6.323086739E0,5.738901615E0
1.703088051E0,-3.617638826E0,-6.323086739E0,5.726930618E0
1.705072045E0,-3.655946016E0,-6.318298340E0,5.719748020E0
1.707085346E0,-3.675099611E0,-6.335057735E0,5.719748020E0
1.709068647E0,-3.722983599E0,-6.327875137E0,5.729324818E0
1.711085564E0,-3.770867586E0,-6.330269337E0,5.753266811E0
1.713066866E0,-3.799597979E0,-6.342240334E0,5.760449409E0
1.715081628E0,-3.825934410E0,-6.363788128E0,5.789179802E0
1.717065007E0,-3.854664803E0,-6.361393929E0,5.820304394E0
1.719079384E0,-3.883395195E0,-6.368576527E0,5.839457989E0
1.721062147E0,-3.931279182E0,-6.368576527E0,5.863399982E0
1.723076988E0,-3.957615376E0,-6.375759125E0,5.877765179E0
1.725060288E0,-3.969586372E0,-6.382941723E0,5.892130375E0
1.727074205E0,-3.998316765E0,-6.385335922E0,5.899312973E0
1.729089276E0,-4.019864559E0,-6.421248913E0,5.928043365E0
1.731073192E0,-4.041412354E0,-6.423643112E0,5.942408562E0
1.733087340E0,-4.094084740E0,-6.426037312E0,5.959167957E0
1.735070795E0,-4.108449936E0,-6.428431511E0,5.980715752E0
1.737084020E0,-4.132391930E0,-6.421248913E0,6.035782337E0
1.739068321E0,-4.168305397E0,-6.430825710E0,6.071695328E0
1.741082160E0,-4.194641590E0,-6.433219910E0,6.090848923E0
1.743066077E0,-4.230554581E0,-6.457161903E0,6.121973515E0
1.745079687E0,-4.273650169E0,-6.483498096E0,6.131550789E0
1.747063911E0,-4.297592163E0,-6.485892296E0,6.145915985E0
1.749077212E0,-4.345476151E0,-6.483498096E0,6.177040577E0
1.751063360E0,-4.386177540E0,-6.485892296E0,6.198588371E0
1.753075969E0,-4.414907932E0,-6.485892296E0,6.212953568E0
1.755059270E0,-4.465186119E0,-6.505045891E0,6.263231754E0
1.757073725E0,-4.508281708E0,-6.536170483E0,6.308721542E0
1.759087027E0,-4.532223701E0,-6.555324078E0,6.320692539E0
1.761071021E0,-4.560954094E0,-6.593631268E0,6.356605530E0
1.763085475E0,-4.577713490E0,-6.622362137E0,6.380547523E0
1.765068854E0,-4.599261284E0,-6.639121532E0,6.428431511E0
1.767083617E0,-4.606443882E0,-6.679822922E0,6.457161903E0
1.769067918E0,-4.618414879E0,-6.710947514E0,6.466738701E0
1.771081758E0,-4.627991676E0,-6.734889507E0,6.481103897E0
1.773064829E0,-4.616020679E0,-6.773196697E0,6.476315498E0
1.775079283E0,-4.618414879E0,-6.799532890E0,6.473921299E0
1.777062354E0,-4.618414879E0,-6.847416878E0,6.481103897E0
1.779076809E0,-4.627991676E0,-6.868964672E0,6.502651691E0
1.781060418E0,-4.632780075E0,-6.871358871E0,6.509834290E0
1.783073951E0,-4.630385876E0,-6.900089264E0,6.538564682E0
1.785087790E0,-4.637568474E0,-6.914454460E0,6.524199486E0
1.787071784E0,-4.639962673E0,-6.921637058E0,6.517016888E0
1.789085624E0,-4.613626480E0,-6.928819656E0,6.524199486E0
1.791071155E0,-4.625597477E0,-6.936002254E0,6.514622688E0
1.793083534E0,-4.632780075E0,-6.945579052E0,6.517016888E0
1.795067219E0,-4.627991676E0,-6.945579052E0,6.509834290E0
1.797082521E0,-4.627991676E0,-6.950367451E0,6.507440090E0
1.799065361E0,-4.627991676E0,-6.952761650E0,6.473921299E0
1.801079200E0,-4.639962673E0,-6.931213856E0,6.459556103E0
1.803063117E0,-4.647145271E0,-6.931213856E0,6.447585106E0
1.805077881E0,-4.642356873E0,-6.895300865E0,6.435614109E0
1.807060951E0,-4.635174274E0,-6.876147270E0,6.421248913E0
1.809076098E0,-4.632780075E0,-6.864176273E0,6.411672115E0
1.811059708E0,-4.618414879E0,-6.830657482E0,6.402095318E0
1.813072932E0,-4.596867085E0,-6.809109688E0,6.411672115E0
1.815088002E0,-4.596867085E0,-6.787561893E0,6.404489517E0
1.817070842E0,-4.594472885E0,-6.749254704E0,6.416460514E0
1.819085220E0,-4.568136692E0,-6.713341713E0,6.385335922E0
1.821068907E0,-4.565742493E0,-6.701370716E0,6.385335922E0
1.823083053E0,-4.560954094E0,-6.672640324E0,6.387730122E0
1.825066432E0,-4.551377296E0,-6.636727333E0,6.375759125E0
1.827080657E0,-4.539406300E0,-6.627150536E0,6.382941723E0
1.829063958E0,-4.544194698E0,-6.610390663E0,6.370970726E0
1.831079952E0,-4.537012100E0,-6.586448669E0,6.363788128E0
1.833063021E0,-4.515464306E0,-6.557718277E0,6.354211330E0
1.835075631E0,-4.520252705E0,-6.540958881E0,6.339846134E0
1.837059933E0,-4.520252705E0,-6.536170483E0,6.337451935E0
1.839073233E0,-4.510675907E0,-6.505045891E0,6.351817131E0
1.841088304E0,-4.505887508E0,-6.490680695E0,6.370970726E0
1.843071914E0,-4.517858505E0,-6.490680695E0,6.370970726E0
1.845086445E0,-4.513070107E0,-6.490680695E0,6.361393929E0
1.847069824E0,-4.522646904E0,-6.481103897E0,6.344634533E0
1.849084201E0,-4.522646904E0,-6.459556103E0,6.323086739E0
1.851067657E0,-4.498704910E0,-6.445190907E0,6.313509941E0
1.853081420E0,-4.481945515E0,-6.416460514E0,6.313509941E0
1.855065182E0,-4.477157116E0,-6.411672115E0,6.315904140E0
1.857079253E0,-4.450820923E0,-6.392518520E0,6.301538944E0
1.859062709E0,-4.446032524E0,-6.361393929E0,6.291962147E0
1.861077163E0,-4.422090530E0,-6.339846134E0,6.287173748E0
1.863060234E0,-4.400542736E0,-6.308721542E0,6.275202751E0
1.865074997E0,-4.386177540E0,-6.289567947E0,6.272808552E0
1.867089683E0,-4.345476151E0,-6.265625954E0,6.253654957E0
1.869072754E0,-4.311957359E0,-6.244078159E0,6.210559368E0
1.871088208E0,-4.304774761E0,-6.234501362E0,6.193799973E0
1.873069433E0,-4.302380562E0,-6.184223175E0,6.169857979E0
1.875084504E0,-4.271255970E0,-6.145915985E0,6.145915985E0
1.877068728E0,-4.259284973E0,-6.126761913E0,6.126761913E0
1.879082029E0,-4.232948780E0,-6.093243122E0,6.076483727E0
1.881065946E0,-4.206612587E0,-6.038176537E0,6.026205540E0
1.883080401E0,-4.209006786E0,-6.014234543E0,6.019022942E0
1.885063472E0,-4.204218388E0,-5.975927353E0,6.004657745E0
1.887078542E0,-4.180276394E0,-5.944802761E0,5.985504150E0
1.889061921E0,-4.173093796E0,-5.937620163E0,5.975927353E0
1.891076376E0,-4.158728123E0,-5.913678169E0,5.932831764E0
1.893059754E0,-4.141968727E0,-5.904101372E0,5.920860767E0
1.895073363E0,-4.120420933E0,-5.884947777E0,5.899312973E0
1.897087511E0,-4.091690540E0,-5.858611584E0,5.880159378E0
1.899071427E0,-4.077325344E0,-5.839457989E0,5.863399982E0
1.901085959E0,-4.050989151E0,-5.822698593E0,5.820304394E0
1.903068953E0,-4.015076160E0,-5.822698593E0,5.796362400E0
1.905083485E0,-3.995922565E0,-5.803544998E0,5.786785603E0
1.907066171E0,-3.950432777E0,-5.784391403E0,5.758055210E0
1.909081010E0,-3.907337189E0,-5.784391403E0,5.738901615E0
1.911066543E0,-3.892971992E0,-5.760449409E0,5.717353821E0
1.913079383E0,-3.871424198E0,-5.746084213E0,5.693411827E0
1.915061838E0,-3.840299606E0,-5.748478413E0,5.679046631E0
1.917076370E0,-3.828328609E0,-5.741295815E0,5.667075634E0
1.919060287E0,-3.830722809E0,-5.748478413E0,5.638344765E0
1.921074434E0,-3.809175014E0,-5.738901615E0,5.623979568E0
1.923088966E0,-3.804386616E0,-5.736507416E0,5.612008572E0
1.925072037E0,-3.787626982E0,-5.738901615E0,5.556941986E0
1.927086107E0,-3.787626982E0,-5.738901615E0,5.532999992E0
1.929070794E0,-3.801992416E0,-5.714959621E0,5.518634796E0
1.931085479E0,-3.801992416E0,-5.707777023E0,5.494692802E0
1.933068011E0,-3.797203779E0,-5.695806026E0,5.475539207E0
1.935081852E0,-3.787626982E0,-5.688623428E0,5.420472622E0
1.937065845E0,-3.787626982E0,-5.650316238E0,5.398924828E0
1.939079608E0,-3.782838583E0,-5.645527840E0,5.391742229E0
1.941062756E0,-3.758896589E0,-5.633556366E0,5.372588634E0
1.943077210E0,-3.766079187E0,-5.604825974E0,5.351040840E0
1.945061127E0,-3.761290789E0,-5.602431774E0,5.339069843E0
1.947075582E0,-3.746925592E0,-5.607220173E0,5.331887245E0
1.949058422E0,-3.746925592E0,-5.590460777E0,5.351040840E0
1.951075262E0,-3.744531393E0,-5.588066578E0,5.341464043E0
1.953087024E0,-3.737348795E0,-5.602431774E0,5.324704647E0
1.955071018E0,-3.739742994E0,-5.600037575E0,5.307945251E0
1.957085089E0,-3.730166197E0,-5.604825974E0,5.298368454E0
1.959068159E0,-3.737348795E0,-5.626373768E0,5.284003258E0
1.961082922E0,-3.744531393E0,-5.638344765E0,5.284003258E0
1.963066301E0,-3.756502390E0,-5.664681435E0,5.262455463E0
1.965080448E0,-3.754108191E0,-5.657498837E0,5.209783077E0
1.967064519E0,-3.756502390E0,-5.657498837E0,5.185841084E0
1.969078896E0,-3.766079187E0,-5.664681435E0,5.193023682E0
1.971062660E0,-3.770867586E0,-5.681440830E0,5.190629482E0
1.973076731E0,-3.770867586E0,-5.686229229E0,5.183446884E0
1.975059877E0,-3.780444384E0,-5.686229229E0,5.178658485E0
1.977074025E0,-3.787626982E0,-5.681440830E0,5.202600479E0
1.979087558E0,-3.787626982E0,-5.693411827E0,5.224148273E0
1.981071858E0,-3.806780815E0,-5.717353821E0,5.245696068E0
1.983085929E0,-3.845088005E0,-5.765237808E0,5.255272865E0
1.985069922E0,-3.869029999E0,-5.777208805E0,5.272032261E0
1.987084455E0,-3.909731388E0,-5.820304394E0,5.303156853E0
1.989067449E0,-3.931279182E0,-5.861005783E0,5.341464043E0
1.991084057E0,-3.981557369E0,-5.882553577E0,5.360617638E0
1.993065974E0,-4.041412354E0,-5.954379559E0,5.425261021E0
1.995078815E0,-4.065354347E0,-5.983109951E0,5.458779812E0
1.997063115E0,-4.106055737E0,-6.026205540E0,5.530605793E0
1.999077263E0,-4.153939724E0,-6.074089527E0,5.585672379E0
2.001060719E0,-4.180276394E0,-6.110002518E0,5.633556366E0
2.003074789E0,-4.232948780E0,-6.193799973E0,5.717353821E0
2.005088706E0,-4.292803764E0,-6.272808552E0,5.770026207E0
2.007072622E0,-4.328716755E0,-6.308721542E0,5.798756599E0
2.009087385E0,-4.383783340E0,-6.373364925E0,5.882553577E0
2.011070764E0,-4.412513733E0,-6.447585106E0,5.971138954E0
2.013084603E0,-4.438849926E0,-6.485892296E0,5.999869347E0
2.015068289E0,-4.505887508E0,-6.538564682E0,6.076483727E0
2.017082206E0,-4.551377296E0,-6.584054470E0,6.157886982E0
2.019066199E0,-4.575319290E0,-6.605602264E0,6.208165169E0
2.021080578E0,-4.620809078E0,-6.677428722E0,6.315904140E0
2.023063726E0,-4.642356873E0,-6.708553314E0,6.373364925E0
2.025078180E0,-4.673481941E0,-6.763619900E0,6.478709698E0
2.027061790E0,-4.704606533E0,-6.845022678E0,6.545747280E0
2.029075398E0,-4.718971729E0,-6.871358871E0,6.586448669E0
2.031060853E0,-4.721365929E0,-6.926425457E0,6.646304131E0
2.033072924E0,-4.738125324E0,-6.981492043E0,6.675034523E0
2.035087302E0,-4.750096321E0,-7.007828236E0,6.677428722E0
2.037071681E0,-4.778826714E0,-7.048529625E0,6.689399719E0
2.039085520E0,-4.781220913E0,-7.077260017E0,6.698976517E0
2.041069129E0,-4.797980309E0,-7.096413612E0,6.720524311E0
2.043082969E0,-4.833893299E0,-7.134721279E0,6.775590897E0
2.045066732E0,-4.826710701E0,-7.192182064E0,6.842628479E0
2.047081802E0,-4.819528103E0,-7.218518257E0,6.868964672E0
2.049064796E0,-4.795586109E0,-7.259219646E0,6.763619900E0
2.051080482E0,-4.762067318E0,-7.261613846E0,6.136339188E0
2.053061784E0,-4.728548527E0,-7.237671852E0,5.662287235E0
2.055076854E0,-4.501099110E0,-7.264008045E0,5.104437828E0
2.057061078E0,-4.326322556E0,-7.369352818E0,5.274426460E0
2.059074303E0,-3.998316765E0,-7.687781811E0,6.438008308E0
2.061088450E0,-3.864241600E0,-8.063671112E0,7.623138428E0
2.063072136E0,-3.892971992E0,-8.188169479E0,7.948749542E0
2.065086361E0,-4.103661537E0,-8.303091049E0,8.195352554E0
2.067070046E0,-4.496310711E0,-8.267178535E0,8.259995461E0
2.069083809E0,-4.728548527E0,-8.231265068E0,8.317456245E0
2.071069111E0,-5.240907669E0,-8.195352554E0,8.554482460E0
2.073082873E0,-5.743690014E0,-8.166622162E0,8.817844391E0
2.075065406E0,-5.973533154E0,-8.161833763E0,8.848969460E0
2.077080092E0,-6.366182327E0,-8.166622162E0,8.741230011E0
2.079062931E0,-6.567295074E0,-8.169015884E0,8.497021675E0
2.081077002E0,-6.612784863E0,-8.152256966E0,8.350975990E0
2.083060995E0,-6.588842869E0,-8.075642586E0,8.092401505E0
2.085075143E0,-6.342240334E0,-7.972691536E0,7.915230751E0
2.087059137E0,-6.157886982E0,-7.905653954E0,7.855375767E0
2.089073899E0,-5.714959621E0,-7.773972988E0,7.769184589E0
2.091088124E0,-5.480327606E0,-7.697358608E0,7.723694801E0
2.093070887E0,-5.013458252E0,-7.580042362E0,7.620744228E0
2.095085265E0,-4.613626480E0,-7.469909191E0,7.529764175E0
2.097068644E0,-4.443638325E0,-7.422025204E0,7.486668587E0
2.099082790E0,-4.182670593E0,-7.352593422E0,7.357381821E0
2.101067169E0,-4.053383350E0,-7.311892033E0,7.220912457E0
2.103080702E0,-4.029441357E0,-7.273584843E0,7.144298077E0
2.105064618E0,-4.043806553E0,-7.218518257E0,6.979097843E0
2.107078765E0,-4.110844135E0,-7.165845871E0,6.830657482E0
2.109061298E0,-4.168305397E0,-7.139509678E0,6.758831501E0
2.111076983E0,-4.321534157E0,-7.086836815E0,6.670246124E0
2.113058746E0,-4.448426723E0,-7.043741226E0,6.598419666E0
2.115074741E0,-4.520252705E0,-7.015010834E0,6.572083473E0
2.117058503E0,-4.616020679E0,-6.957550049E0,6.512228489E0
2.119071728E0,-4.649539471E0,-6.909666061E0,6.454767704E0
2.121086105E0,-4.711789131E0,-6.885724068E0,6.438008308E0
2.123068945E0,-4.740519524E0,-6.866570473E0,6.397306919E0
2.125083939E0,-4.747702122E0,-6.876147270E0,6.385335922E0
2.127067702E0,-4.714183331E0,-6.902483463E0,6.354211330E0
2.129082696E0,-4.675876141E0,-6.933608055E0,6.330269337E0
2.131066151E0,-4.649539471E0,-6.952761650E0,6.306327343E0
2.133079683E0,-4.568136692E0,-6.998251438E0,6.265625954E0
2.135062753E0,-4.508281708E0,-7.007828236E0,6.248866558E0
2.137077439E0,-4.477157116E0,-7.005434036E0,6.241683960E0
2.139061433E0,-4.441244125E0,-7.000645638E0,6.200982571E0
2.141075658E0,-4.407725334E0,-6.986280441E0,6.145915985E0
2.143058343E0,-4.402936935E0,-6.967126846E0,6.117185116E0
2.145072491E0,-4.431667328E0,-6.907271862E0,6.086060524E0
2.147086716E0,-4.453215122E0,-6.837840080E0,6.059724331E0
2.149069709E0,-4.460397720E0,-6.789956093E0,6.047753334E0
2.151086933E0,-4.508281708E0,-6.706159115E0,6.042964935E0
2.153068850E0,-4.510675907E0,-6.619967937E0,6.052541733E0
2.155081997E0,-4.517858505E0,-6.576871872E0,6.054935932E0
2.157066684E0,-4.513070107E0,-6.478709698E0,6.021417141E0
2.159080523E0,-4.513070107E0,-6.428431511E0,6.002263546E0
2.161063824E0,-4.481945515E0,-6.361393929E0,5.963956356E0
2.163077972E0,-4.429273129E0,-6.284779549E0,5.932831764E0
2.165061427E0,-4.395754337E0,-6.239289761E0,5.913678169E0
2.167076113E0,-4.311957359E0,-6.189011574E0,5.868188381E0
2.169060722E0,-4.244919777E0,-6.124367714E0,5.839457989E0
2.171074562E0,-4.209006786E0,-6.088454723E0,5.825092793E0
2.173057633E0,-4.106055737E0,-6.038176537E0,5.772420406E0
2.175071241E0,-4.007893562E0,-5.959167957E0,5.698200226E0
2.177085696E0,-3.967192173E0,-5.908889771E0,5.662287235E0
2.179068998E0,-3.907337189E0,-5.832275391E0,5.590460777E0
2.181083222E0,-3.847482204E0,-5.750872612E0,5.518634796E0
2.183066601E0,-3.811569214E0,-5.702988625E0,5.489904404E0
2.185080748E0,-3.773261786E0,-5.604825974E0,5.427655220E0
2.187064665E0,-3.744531393E0,-5.571307182E0,5.389348030E0
2.189078274E0,-3.727771997E0,-5.470750809E0,5.319916248E0
2.191064422E0,-3.672705412E0,-5.384559631E0,5.250484467E0
2.193076107E0,-3.651157618E0,-5.346252441E0,5.219359875E0
2.195060409E0,-3.632004023E0,-5.267243862E0,5.164293289E0
2.197074556E0,-3.605667830E0,-5.207388878E0,5.121197224E0
2.199058165E0,-3.596091032E0,-5.176264286E0,5.097255230E0
2.201072697E0,-3.550601006E0,-5.123591423E0,5.037400246E0
2.203086229E0,-3.519476414E0,-5.068524837E0,4.975151062E0
2.205069608E0,-3.502717018E0,-5.049371243E0,4.948814869E0
2.207084371E0,-3.478775024E0,-5.015852451E0,4.910507679E0
2.209068364E0,-3.442862034E0,-4.989516258E0,4.896142483E0
2.211082819E0,-3.428496838E0,-4.967968464E0,4.891354084E0
2.213066429E0,-3.406949043E0,-4.941632271E0,4.862623692E0
2.215080268E0,-3.383007050E0,-4.936843872E0,4.833893299E0
2.217063723E0,-3.371036053E0,-4.948814869E0,4.817133904E0
2.219077793E0,-3.342305660E0,-4.920084476E0,4.795586109E0
2.221061480E0,-3.351882458E0,-4.910507679E0,4.781220913E0
2.223074704E0,-3.366247654E0,-4.924872875E0,4.750096321E0
2.225059005E0,-3.383007050E0,-4.924872875E0,4.711789131E0
2.227073153E0,-3.392583847E0,-4.924872875E0,4.699818134E0
2.229086993E0,-3.385401249E0,-4.944026470E0,4.699818134E0
2.231072909E0,-3.402160645E0,-4.946420670E0,4.692635536E0
2.233086057E0,-3.409343243E0,-4.955997467E0,4.685452938E0
2.235068281E0,-3.409343243E0,-4.979939461E0,4.644751072E0
2.237083583E0,-3.414131641E0,-5.032611847E0,4.625597477E0
2.239066653E0,-3.402160645E0,-5.051765442E0,4.616020679E0
2.241080493E0,-3.406949043E0,-5.080495834E0,4.608838081E0
2.243064564E0,-3.399766445E0,-5.111620426E0,4.606443882E0
2.245078942E0,-3.404554844E0,-5.130774021E0,4.599261284E0
2.247061781E0,-3.385401249E0,-5.176264286E0,4.584896088E0
2.249077083E0,-3.390189648E0,-5.209783077E0,4.584896088E0
2.251061154E0,-3.411737442E0,-5.216965675E0,4.592078686E0
2.253074070E0,-3.457227230E0,-5.257667065E0,4.606443882E0
2.255088833E0,-3.466804028E0,-5.274426460E0,4.618414879E0
2.257072134E0,-3.497928619E0,-5.295974255E0,4.630385876E0
2.259086590E0,-3.533841610E0,-5.319916248E0,4.627991676E0
2.261070045E0,-3.555389643E0,-5.331887245E0,4.632780075E0
2.263083577E0,-3.586514235E0,-5.346252441E0,4.651933670E0
2.265066647E0,-3.634398222E0,-5.355829239E0,4.692635536E0
2.267081334E0,-3.651157618E0,-5.377377033E0,4.711789131E0
2.269065019E0,-3.696647406E0,-5.401319027E0,4.781220913E0
2.271080705E0,-3.758896589E0,-5.425261021E0,4.869806290E0
2.273062621E0,-3.790021181E0,-5.442020416E0,4.910507679E0
2.275077385E0,-3.842693806E0,-5.494692802E0,5.001487255E0
2.277061379E0,-3.909731388E0,-5.568912983E0,5.094861031E0
2.279074526E0,-3.962403774E0,-5.607220173E0,5.142745018E0
2.281058597E0,-4.048594952E0,-5.683835030E0,5.250484467E0
2.283073360E0,-4.098873138E0,-5.767632008E0,5.348646641E0
2.285086584E0,-4.225766182E0,-5.820304394E0,5.401319027E0
2.287070578E0,-4.338293552E0,-5.937620163E0,5.506663799E0
2.289085571E0,-4.383783340E0,-5.995080948E0,5.561730385E0
2.291068949E0,-4.474762917E0,-6.100425720E0,5.652710438E0
2.293082559E0,-4.553771496E0,-6.215347767E0,5.758055210E0
2.295066552E0,-4.582501888E0,-6.270414352E0,5.829881191E0
2.297080315E0,-4.627991676E0,-6.356605530E0,5.918466568E0
2.299063770E0,-4.661510944E0,-6.445190907E0,6.011840343E0
2.301077302E0,-4.673481941E0,-6.505045891E0,6.054935932E0
2.303062142E0,-4.707000732E0,-6.593631268E0,6.133944988E0
2.305075674E0,-4.740519524E0,-6.684611320E0,6.210559368E0
2.307058821E0,-4.745307922E0,-6.727706909E0,6.241683960E0
2.309073277E0,-4.750096321E0,-6.816292286E0,6.318298340E0
2.311089578E0,-4.762067318E0,-6.880935669E0,6.402095318E0
2.313072033E0,-4.776432514E0,-6.912060261E0,6.440402508E0
2.315084950E0,-4.797980309E0,-6.979097843E0,6.473921299E0
2.317069174E0,-4.814739704E0,-7.017405033E0,6.478709698E0
2.319083629E0,-4.838681698E0,-7.041347027E0,6.512228489E0
2.321067393E0,-4.850652695E0,-7.077260017E0,6.533776283E0
2.323082078E0,-4.853046894E0,-7.094019413E0,6.545747280E0
2.325064226E0,-4.865017891E0,-7.149086475E0,6.581660271E0
2.327078450E0,-4.884171486E0,-7.199364662E0,6.598419666E0
2.329063597E0,-4.888959885E0,-7.223306656E0,6.605602264E0
2.331077515E0,-4.891354084E0,-7.247248650E0,6.634333134E0
2.333059892E0,-4.886565685E0,-7.311892033E0,6.655880928E0
2.335074655E0,-4.884171486E0,-7.340622425E0,6.665457726E0
2.337058111E0,-4.888959885E0,-7.352593422E0,6.701370716E0
2.339072796E0,-4.874594688E0,-7.383718014E0,6.646304131E0
2.341086713E0,-4.850652695E0,-7.400477409E0,6.459556103E0
2.343069707E0,-4.769249916E0,-7.371747017E0,5.679046631E0
2.345084547E0,-4.596867085E0,-7.362170219E0,5.094861031E0
2.347068156E0,-4.462791920E0,-7.417236805E0,5.255272865E0
2.349081687E0,-4.225766182E0,-7.697358608E0,6.332663536E0
2.351066912E0,-4.153939724E0,-7.869740963E0,6.931213856E0
2.353079214E0,-4.151545525E0,-8.137891769E0,7.671022415E0
2.355063515E0,-4.311957359E0,-8.195352554E0,7.850587368E0
2.357077662E0,-4.436455727E0,-8.169015884E0,7.893682957E0
2.359061426E0,-4.809951305E0,-8.058882713E0,8.085219383E0
2.361075188E0,-5.252878666E0,-7.953537941E0,8.362946510E0
2.363059490E0,-5.494692802E0,-7.908048153E0,8.451532364E0
2.365072714E0,-5.971138954E0,-7.845798969E0,8.427590370E0
2.367087169E0,-6.351817131E0,-7.824251175E0,8.240841866E0
2.369071547E0,-6.493074894E0,-7.817068577E0,8.111555099E0
2.371086540E0,-6.648698330E0,-7.805097580E0,7.869740963E0
2.373069304E0,-6.610390663E0,-7.790732384E0,7.642292023E0
2.375082605E0,-6.531382084E0,-7.754819393E0,7.548917770E0
2.377067214E0,-6.256049156E0,-7.661445618E0,7.393294811E0
2.379080131E0,-5.880159378E0,-7.548917770E0,7.309497833E0
2.381064125E0,-5.662287235E0,-7.484274387E0,7.285555840E0
2.383078810E0,-5.252878666E0,-7.347805023E0,7.237671852E0
2.385061650E0,-5.078101635E0,-7.287950039E0,7.225700855E0
2.387076413E0,-4.797980309E0,-7.189787865E0,7.216124058E0
2.389059176E0,-4.659116745E0,-7.117961884E0,7.173028469E0
2.391075093E0,-4.604049683E0,-7.086836815E0,7.141903877E0
2.393058855E0,-4.570530891E0,-7.036558628E0,7.094019413E0
2.395070772E0,-4.639962673E0,-7.026981831E0,7.029376030E0
2.397086766E0,-4.704606533E0,-7.022193432E0,6.991068840E0
2.399069298E0,-4.824316502E0,-6.983886242E0,6.890512466E0
2.401084061E0,-4.972756863E0,-6.931213856E0,6.813898087E0
2.403067747E0,-5.039794445E0,-6.892906666E0,6.789956093E0
2.405080586E0,-5.135562420E0,-6.811503887E0,6.746860504E0
2.407065196E0,-5.209783077E0,-6.754043102E0,6.744466305E0
2.409080650E0,-5.231330872E0,-6.710947514E0,6.734889507E0
2.411063414E0,-5.197812080E0,-6.622362137E0,6.746860504E0
2.413077177E0,-5.164293289E0,-6.596025467E0,6.732495308E0
2.415060247E0,-5.106832027E0,-6.588842869E0,6.718130112E0
2.417074702E0,-5.025429249E0,-6.581660271E0,6.660669327E0
2.419059004E0,-4.960785866E0,-6.562506676E0,6.629544735E0
2.421072612E0,-4.817133904E0,-6.533776283E0,6.562506676E0
2.423086991E0,-4.683058739E0,-6.521805286E0,6.481103897E0
2.425070369E0,-4.618414879E0,-6.519411087E0,6.440402508E0
2.427084901E0,-4.513070107E0,-6.493074894E0,6.358999729E0
2.429067280E0,-4.422090530E0,-6.457161903E0,6.299144745E0
2.431084273E0,-4.383783340E0,-6.445190907E0,6.265625954E0
2.433065421E0,-4.319139957E0,-6.414066315E0,6.212953568E0
2.435080568E0,-4.299986362E0,-6.375759125E0,6.162675381E0
2.437063869E0,-4.290409565E0,-6.354211330E0,6.157886982E0
2.439078632E0,-4.273650169E0,-6.296750546E0,6.119579315E0
2.441061703E0,-4.252102375E0,-6.248866558E0,6.078877926E0
2.443076466E0,-4.259284973E0,-6.224924564E0,6.054935932E0
2.445059229E0,-4.256890774E0,-6.167463779E0,6.014234543E0
2.447074068E0,-4.252102375E0,-6.114790916E0,5.992686749E0
2.449057447E0,-4.249708176E0,-6.088454723E0,5.956773758E0
2.451072441E0,-4.228160381E0,-6.040570736E0,5.908889771E0
2.453086664E0,-4.218583584E0,-6.011840343E0,5.872976780E0
2.455069658E0,-4.220977783E0,-5.954379559E0,5.805939198E0
2.457083268E0,-4.206612587E0,-5.899312973E0,5.758055210E0
2.459067261E0,-4.182670593E0,-5.875370979E0,5.738901615E0
2.461080793E0,-4.134786129E0,-5.844246387E0,5.698200226E0
2.463064709E0,-4.110844135E0,-5.813121796E0,5.669469833E0
2.465079165E0,-4.098873138E0,-5.793968201E0,5.640739441E0
2.467062543E0,-4.082113743E0,-5.755661011E0,5.595249176E0
2.469076075E0,-4.074931145E0,-5.724536419E0,5.547365189E0
2.471062530E0,-4.067748547E0,-5.710171223E0,5.525817394E0
2.473074601E0,-4.065354347E0,-5.686229229E0,5.504269600E0
2.475057902E0,-4.077325344E0,-5.655104637E0,5.482721806E0
2.477072358E0,-4.082113743E0,-5.635950565E0,5.461174011E0
2.479086812E0,-4.101267338E0,-5.604825974E0,5.451597214E0
2.481070191E0,-4.110844135E0,-5.590460777E0,5.442020416E0
2.483083800E0,-4.115632534E0,-5.585672379E0,5.418078423E0
2.485068024E0,-4.118026733E0,-5.566518784E0,5.391742229E0
2.487081864E0,-4.125209332E0,-5.547365189E0,5.379771233E0
2.489067089E0,-4.125209332E0,-5.511452198E0,5.360617638E0
2.491080390E0,-4.108449936E0,-5.492298603E0,5.341464043E0
2.493063153E0,-4.110844135E0,-5.477933407E0,5.315127850E0
2.495077608E0,-4.094084740E0,-5.451597214E0,5.276820660E0
2.497061294E0,-4.079719543E0,-5.430049419E0,5.262455463E0
2.499075749E0,-4.082113743E0,-5.403713226E0,5.252878666E0
2.501059359E0,-4.067748547E0,-5.384559631E0,5.240907669E0
2.503073505E0,-4.039018154E0,-5.394136429E0,5.207388878E0
2.505057192E0,-4.034229755E0,-5.396530628E0,5.193023682E0
2.507071031E0,-4.036623955E0,-5.367800236E0,5.147533417E0
2.509084871E0,-4.024652958E0,-5.372588634E0,5.104437828E0
2.511070480E0,-4.019864559E0,-5.377377033E0,5.087678432E0
2.513079935E0,-4.000710964E0,-5.391742229E0,5.070919037E0
2.515065852E0,-3.988739967E0,-5.398924828E0,5.075707436E0
2.517080538E0,-3.976768970E0,-5.386953831E0,5.090072632E0
2.519064531E0,-3.948038578E0,-5.422866821E0,5.087678432E0
2.521079064E0,-3.940855980E0,-5.446808815E0,5.075707436E0
2.523061826E0,-3.924096584E0,-5.494692802E0,5.051765442E0
2.525076205E0,-3.909731388E0,-5.540182590E0,5.011064053E0
2.527060583E0,-3.890577793E0,-5.554547787E0,4.996698856E0
2.529074730E0,-3.866635799E0,-5.609614372E0,4.958391666E0
2.531058416E0,-3.833117008E0,-5.631162167E0,4.915296078E0
2.533071641E0,-3.811569214E0,-5.650316238E0,4.888959885E0
2.535085480E0,-3.780444384E0,-5.686229229E0,4.841075897E0
2.537069782E0,-3.749319792E0,-5.698200226E0,4.817133904E0
2.539083314E0,-3.737348795E0,-5.710171223E0,4.802768707E0
2.541067308E0,-3.730166197E0,-5.717353821E0,4.788403511E0
2.543081379E0,-3.727771997E0,-5.755661011E0,4.783615112E0
2.545065679E0,-3.732560396E0,-5.765237808E0,4.786009312E0
2.547079904E0,-3.744531393E0,-5.779603004E0,4.795586109E0
2.549062898E0,-3.751713991E0,-5.791574001E0,4.781220913E0
2.551079199E0,-3.790021181E0,-5.791574001E0,4.752490520E0
2.553061347E0,-3.852270603E0,-5.803544998E0,4.750096321E0
2.555074879E0,-3.869029999E0,-5.801150799E0,4.754884720E0
2.557058949E0,-3.907337189E0,-5.841852188E0,4.757278919E0
2.559072789E0,-3.940855980E0,-5.877765179E0,4.781220913E0
2.561086936E0,-3.955221176E0,-5.882553577E0,4.790797710E0
2.563070622E0,-4.005499363E0,-5.894524574E0,4.821922302E0
2.565085309E0,-4.041412354E0,-5.911283970E0,4.876988888E0
2.567067840E0,-4.070142746E0,-5.932831764E0,4.905719280E0
2.569083219E0,-4.144362926E0,-5.975927353E0,4.972756863E0
2.571067213E0,-4.213795185E0,-5.995080948E0,5.039794445E0
2.573081052E0,-4.249708176E0,-6.007051945E0,5.066130638E0
2.575063430E0,-4.311957359E0,-6.050147533E0,5.111620426E0
2.577078270E0,-4.355052948E0,-6.083666325E0,5.176264286E0
2.579061264E0,-4.402936935E0,-6.105214119E0,5.221754074E0
2.581076335E0,-4.450820923E0,-6.138733387E0,5.307945251E0
2.583059712E0,-4.481945515E0,-6.155492783E0,5.355829239E0
2.585074475E0,-4.548983097E0,-6.222530365E0,5.451597214E0
2.587057623E0,-4.601655483E0,-6.277596951E0,5.544970989E0
2.589071155E0,-4.637568474E0,-6.313509941E0,5.590460777E0
2.591087764E0,-4.695029736E0,-6.363788128E0,5.686229229E0
2.593068373E0,-4.764461517E0,-6.409277916E0,5.793968201E0
2.595084290E0,-4.786009312E0,-6.438008308E0,5.858611584E0
2.597066745E0,-4.797980309E0,-6.488286495E0,5.971138954E0
2.599081277E0,-4.826710701E0,-6.531382084E0,6.050147533E0
2.601064578E0,-4.843470097E0,-6.562506676E0,6.090848923E0
2.603078803E0,-4.850652695E0,-6.600813866E0,6.169857979E0
2.605062796E0,-4.848258495E0,-6.658275127E0,6.268020153E0
2.607076944E0,-4.836287498E0,-6.698976517E0,6.315904140E0
2.609061169E0,-4.807557106E0,-6.773196697E0,6.414066315E0
2.611075700E0,-4.788403511E0,-6.828263283E0,6.454767704E0
2.613058386E0,-4.757278919E0,-6.864176273E0,6.528987885E0
2.615071995E0,-4.711789131E0,-6.933608055E0,6.581660271E0
2.617086681E0,-4.685452938E0,-6.986280441E0,6.598419666E0
2.619070060E0,-4.647145271E0,-7.046135426E0,6.634333134E0
2.621084207E0,-4.577713490E0,-7.098807812E0,6.694188118E0
2.623067585E0,-4.558559895E0,-7.137115479E0,6.710947514E0
2.625082348E0,-4.527435303E0,-7.175422668E0,6.746860504E0
2.627065418E0,-4.503493309E0,-7.208941460E0,6.777985096E0
2.629078951E0,-4.515464306E0,-7.206547260E0,6.751648903E0
2.631065483E0,-4.496310711E0,-7.206547260E0,6.375759125E0
2.633078707E0,-4.436455727E0,-7.149086475E0,5.530605793E0
2.635060855E0,-4.374206543E0,-7.117961884E0,5.202600479E0
2.637075540E0,-4.177882195E0,-7.204153061E0,5.391742229E0
2.639059534E0,-4.077325344E0,-7.489062786E0,6.610390663E0
2.641073451E0,-3.938461781E0,-7.656657219E0,7.240066051E0
2.643056829E0,-3.914519787E0,-7.891288757E0,7.931990147E0
2.645070977E0,-3.964797974E0,-7.931990147E0,8.003816605E0
2.647085355E0,-4.153939724E0,-7.884106159E0,7.989450932E0
2.649069656E0,-4.486733913E0,-7.778761387E0,8.113949776E0
2.651084419E0,-4.695029736E0,-7.723694801E0,8.197746277E0
2.653066567E0,-5.157110691E0,-7.620744228E0,8.281543732E0
2.655080791E0,-5.616796970E0,-7.560888767E0,8.183381081E0
2.657064093E0,-5.825092793E0,-7.544129372E0,8.111555099E0
2.659078624E0,-6.148310184E0,-7.544129372E0,8.008605003E0
2.661061695E0,-6.282385349E0,-7.560888767E0,7.881711960E0
2.663076151E0,-6.253654957E0,-7.553706169E0,7.793126583E0
2.665060067E0,-6.066906929E0,-7.467514992E0,7.553706169E0
2.667073984E0,-5.729324818E0,-7.354987621E0,7.412448406E0
2.669056978E0,-5.516240597E0,-7.285555840E0,7.402871609E0
2.671074279E0,-5.106832027E0,-7.163451672E0,7.422025204E0
2.673054888E0,-4.929661274E0,-7.046135426E0,7.429207802E0
2.675069573E0,-4.604049683E0,-6.988674641E0,7.388506413E0
2.677084029E0,-4.407725334E0,-6.914454460E0,7.261613846E0
2.679067715E0,-4.345476151E0,-6.880935669E0,7.196970463E0
2.681081862E0,-4.290409565E0,-6.818686485E0,7.065289021E0
2.683064933E0,-4.316745758E0,-6.775590897E0,6.926425457E0
2.685080388E0,-4.347870350E0,-6.761225700E0,6.859387875E0
2.687063458E0,-4.436455727E0,-6.734889507E0,6.746860504E0
2.689077837E0,-4.551377296E0,-6.698976517E0,6.653486729E0
2.691062216E0,-4.613626480E0,-6.684611320E0,6.619967937E0
2.693075670E0,-4.704606533E0,-6.658275127E0,6.579266071E0
2.695058741E0,-4.786009312E0,-6.619967937E0,6.564900875E0
2.697072580E0,-4.819528103E0,-6.598419666E0,6.562506676E0
2.699086805E0,-4.824316502E0,-6.576871872E0,6.593631268E0
2.701070414E0,-4.819528103E0,-6.550535679E0,6.627150536E0
2.703084330E0,-4.795586109E0,-6.538564682E0,6.641515732E0
2.705068555E0,-4.728548527E0,-6.555324078E0,6.663063526E0
2.707082165E0,-4.695029736E0,-6.562506676E0,6.653486729E0
2.709065773E0,-4.623203278E0,-6.569689274E0,6.636727333E0
2.711081229E0,-4.534617901E0,-6.598419666E0,6.607996464E0
2.713064298E0,-4.491522312E0,-6.593631268E0,6.586448669E0
2.715077523E0,-4.429273129E0,-6.598419666E0,6.545747280E0
2.717062056E0,-4.362235546E0,-6.586448669E0,6.497863293E0
2.719076279E0,-4.345476151E0,-6.574477673E0,6.461950302E0
2.721059889E0,-4.309563160E0,-6.548141479E0,6.438008308E0
2.723072883E0,-4.283226967E0,-6.521805286E0,6.414066315E0
2.725057184E0,-4.285621166E0,-6.514622688E0,6.387730122E0
2.727071562E0,-4.283226967E0,-6.469132900E0,6.387730122E0
2.729086324E0,-4.307168961E0,-6.426037312E0,6.363788128E0
2.731070011E0,-4.319139957E0,-6.414066315E0,6.356605530E0
2.733083312E0,-4.328716755E0,-6.387730122E0,6.342240334E0
2.735066998E0,-4.333505154E0,-6.354211330E0,6.303933144E0
2.737081146E0,-4.333505154E0,-6.323086739E0,6.284779549E0
2.739064832E0,-4.333505154E0,-6.277596951E0,6.248866558E0
2.741078979E0,-4.326322556E0,-6.227318764E0,6.229712963E0
2.743062665E0,-4.314351559E0,-6.210559368E0,6.189011574E0
2.745077044E0,-4.299986362E0,-6.162675381E0,6.155492783E0
2.747059883E0,-4.273650169E0,-6.143521786E0,6.133944988E0
2.749074338E0,-4.230554581E0,-6.107608318E0,6.102819920E0
2.751060101E0,-4.199429989E0,-6.095637321E0,6.045359135E0
2.753071864E0,-4.185064793E0,-6.078877926E0,6.033388138E0
2.755086858E0,-4.175487995E0,-6.040570736E0,5.980715752E0
2.757070235E0,-4.141968727E0,-6.007051945E0,5.911283970E0
2.759083845E0,-4.129997730E0,-5.999869347E0,5.877765179E0
2.761067839E0,-4.134786129E0,-5.975927353E0,5.825092793E0
2.763081601E0,-4.132391930E0,-5.956773758E0,5.753266811E0
2.765065595E0,-4.132391930E0,-5.928043365E0,5.717353821E0
2.767079742E0,-4.144362926E0,-5.875370979E0,5.638344765E0
2.769064351E0,-4.158728123E0,-5.846640587E0,5.585672379E0
2.771078807E0,-4.168305397E0,-5.827486992E0,5.566518784E0
2.773061338E0,-4.175487995E0,-5.808333397E0,5.542576790E0
2.775076025E0,-4.182670593E0,-5.793968201E0,5.530605793E0
2.777059173E0,-4.170699596E0,-5.777208805E0,5.501875401E0
2.779073550E0,-4.134786129E0,-5.746084213E0,5.470750809E0
2.781056698E0,-4.127603531E0,-5.738901615E0,5.468356609E0
2.783071154E0,-4.106055737E0,-5.714959621E0,5.432443619E0
2.785085300E0,-4.070142746E0,-5.686229229E0,5.401319027E0
2.787068987E0,-4.055777550E0,-5.674258232E0,5.386953831E0
2.789082749E0,-4.039018154E0,-5.631162167E0,5.353435040E0
2.791068897E0,-3.998316765E0,-5.643133640E0,5.339069843E0
2.793081583E0,-3.983951569E0,-5.640739441E0,5.339069843E0
2.795063961E0,-3.960009575E0,-5.626373768E0,5.327098846E0
2.797078801E0,-3.964797974E0,-5.623979568E0,5.317522049E0
2.799062180E0,-3.974374771E0,-5.619191170E0,5.305551052E0
2.801076634E0,-3.976768970E0,-5.643133640E0,5.276820660E0
2.803060243E0,-3.983951569E0,-5.657498837E0,5.245696068E0
2.805074161E0,-3.988739967E0,-5.664681435E0,5.226542473E0
2.807057846E0,-3.986345768E0,-5.702988625E0,5.193023682E0
2.809072224E0,-3.993528366E0,-5.722142220E0,5.185841084E0
2.811085833E0,-4.003105164E0,-5.738901615E0,5.169081688E0
2.813070442E0,-4.015076160E0,-5.767632008E0,5.149928093E0
2.815084205E0,-4.015076160E0,-5.781997204E0,5.135562420E0
2.817067660E0,-4.029441357E0,-5.813121796E0,5.104437828E0
2.819082039E0,-4.039018154E0,-5.827486992E0,5.094861031E0
2.821065186E0,-4.039018154E0,-5.834669590E0,5.090072632E0
2.823079872E0,-4.053383350E0,-5.822698593E0,5.080495834E0
2.825063635E0,-4.055777550E0,-5.837063789E0,5.066130638E0
2.827077705E0,-4.058171749E0,-5.839457989E0,5.049371243E0
2.829060776E0,-4.086902142E0,-5.849034786E0,5.027823448E0
2.831076847E0,-4.084507942E0,-5.844246387E0,4.991910458E0
2.833057763E0,-4.098873138E0,-5.841852188E0,4.982333660E0
2.835072834E0,-4.120420933E0,-5.832275391E0,4.939238071E0
2.837056136E0,-4.113238335E0,-5.832275391E0,4.924872875E0
2.839070052E0,-4.089296341E0,-5.837063789E0,4.898536682E0
2.841084815E0,-4.096478939E0,-5.815515995E0,4.879383087E0
2.843068732E0,-4.098873138E0,-5.805939198E0,4.886565685E0
2.845082648E0,-4.077325344E0,-5.791574001E0,4.876988888E0
2.847066565E0,-4.058171749E0,-5.801150799E0,4.881777287E0
2.849081327E0,-4.062960148E0,-5.808333397E0,4.886565685E0
2.851064475E0,-4.067748547E0,-5.808333397E0,4.886565685E0
2.853078238E0,-4.070142746E0,-5.825092793E0,4.905719280E0
2.855062539E0,-4.074931145E0,-5.829881191E0,4.915296078E0
2.857076149E0,-4.084507942E0,-5.832275391E0,4.953603268E0
2.859060143E0,-4.086902142E0,-5.832275391E0,4.979939461E0
2.861073366E0,-4.106055737E0,-5.839457989E0,4.991910458E0
2.863057591E0,-4.139574528E0,-5.868188381E0,5.018246651E0
2.865071815E0,-4.192247391E0,-5.896918774E0,5.056553841E0
2.867085347E0,-4.216189384E0,-5.906495571E0,5.070919037E0
2.869069341E0,-4.261679173E0,-5.937620163E0,5.109226227E0
2.871085334E0,-4.280832767E0,-5.997475147E0,5.157110691E0
2.873067790E0,-4.333505154E0,-6.021417141E0,5.197812080E0
2.875081015E0,-4.378994942E0,-6.052541733E0,5.284003258E0
2.877065008E0,-4.398148537E0,-6.064512730E0,5.324704647E0
2.879078540E0,-4.462791920E0,-6.117185116E0,5.401319027E0
2.881062842E0,-4.505887508E0,-6.165069580E0,5.492298603E0
2.883076681E0,-4.517858505E0,-6.184223175E0,5.530605793E0
2.885059983E0,-4.558559895E0,-6.241683960E0,5.602431774E0
2.887074206E0,-4.582501888E0,-6.296750546E0,5.681440830E0
2.889059047E0,-4.577713490E0,-6.323086739E0,5.719748020E0
2.891073194E0,-4.575319290E0,-6.399701118E0,5.784391403E0
2.893056572E0,-4.570530891E0,-6.449979305E0,5.858611584E0
2.895070181E0,-4.570530891E0,-6.485892296E0,5.889736176E0
2.897084560E0,-4.553771496E0,-6.538564682E0,5.954379559E0
2.899068245E0,-4.565742493E0,-6.572083473E0,5.992686749E0
2.901082393E0,-4.563348293E0,-6.586448669E0,6.021417141E0
2.903065771E0,-4.565742493E0,-6.641515732E0,6.069301128E0
2.905079996E0,-4.570530891E0,-6.665457726E0,6.095637321E0
2.907063682E0,-4.563348293E0,-6.672640324E0,6.126761913E0
2.909077213E0,-4.556165695E0,-6.706159115E0,6.162675381E0
2.911062746E0,-4.556165695E0,-6.720524311E0,6.198588371E0
2.913075355E0,-4.556165695E0,-6.761225700E0,6.253654957E0
2.915058964E0,-4.553771496E0,-6.792350292E0,6.291962147E0
2.917073727E0,-4.551377296E0,-6.813898087E0,6.301538944E0
2.919056875E0,-4.553771496E0,-6.849811077E0,6.330269337E0
2.921071022E0,-4.556165695E0,-6.890512466E0,6.356605530E0
2.923085400E0,-4.568136692E0,-6.907271862E0,6.363788128E0
2.925069162E0,-4.577713490E0,-6.924031258E0,6.399701118E0
2.927083849E0,-4.592078686E0,-6.940790653E0,6.445190907E0
2.929067535E0,-4.608838081E0,-6.945579052E0,6.471527100E0
2.931082297E0,-4.625597477E0,-6.945579052E0,6.368576527E0
2.933064830E0,-4.601655483E0,-6.909666061E0,5.846640587E0
2.935079208E0,-4.572925091E0,-6.890512466E0,5.489904404E0
2.937062355E0,-4.417302132E0,-6.864176273E0,5.166687489E0
2.939076118E0,-4.331110954E0,-6.921637058E0,5.386953831E0
2.941060189E0,-4.192247391E0,-7.156269073E0,6.327875137E0
2.943074336E0,-4.122815132E0,-7.378929615E0,7.134721279E0
2.945057946E0,-4.134786129E0,-7.438784599E0,7.345410824E0
2.947072092E0,-4.256890774E0,-7.465120792E0,7.510610580E0
2.949054856E0,-4.474762917E0,-7.393294811E0,7.639897823E0
2.951071850E0,-4.620809078E0,-7.354987621E0,7.738059998E0
2.953085304E0,-4.963180065E0,-7.273584843E0,7.920019150E0
2.955067452E0,-5.331887245E0,-7.206547260E0,7.876923561E0
2.957081908E0,-5.511452198E0,-7.184999466E0,7.802703381E0
2.959065362E0,-5.791574001E0,-7.180211067E0,7.675810814E0
2.961079510E0,-5.944802761E0,-7.192182064E0,7.553706169E0
2.963063195E0,-5.987898350E0,-7.192182064E0,7.481880188E0
2.965077651E0,-5.983109951E0,-7.146692276E0,7.316680431E0
2.967061260E0,-5.935225964E0,-7.077260017E0,7.187393665E0
2.969075792E0,-5.772420406E0,-7.024587631E0,7.144298077E0
2.971059786E0,-5.504269600E0,-6.873753071E0,7.098807812E0
2.973073011E0,-5.365406036E0,-6.806715488E0,7.094019413E0
2.975056927E0,-5.087678432E0,-6.696582317E0,7.091625214E0
2.977071074E0,-4.836287498E0,-6.639121532E0,7.079654217E0
2.979084991E0,-4.742913723E0,-6.619967937E0,7.062894821E0
2.981068600E0,-4.582501888E0,-6.612784863E0,7.029376030E0
2.983083132E0,-4.477157116E0,-6.617573261E0,6.950367451E0
2.985066818E0,-4.453215122E0,-6.622362137E0,6.912060261E0
2.987080581E0,-4.469974518E0,-6.629544735E0,6.821080685E0
2.989063960E0,-4.517858505E0,-6.617573261E0,6.742072105E0
2.991079722E0,-4.553771496E0,-6.598419666E0,6.696582317E0
2.993060947E0,-4.623203278E0,-6.550535679E0,6.624756336E0
2.995075325E0,-4.687847137E0,-6.502651691E0,6.581660271E0
2.997059395E0,-4.711789131E0,-6.476315498E0,6.567295074E0
2.999073851E0,-4.735731125E0,-6.426037312E0,6.550535679E0
3.001057536E0,-4.740519524E0,-6.390124321E0,6.545747280E0
3.003071299E0,-4.738125324E0,-6.368576527E0,6.550535679E0
3.005085832E0,-4.716577530E0,-6.356605530E0,6.526593685E0
3.007069209E0,-4.704606533E0,-6.349422932E0,6.528987885E0
3.009084203E0,-4.666299343E0,-6.339846134E0,6.507440090E0
3.011068197E0,-4.630385876E0,-6.354211330E0,6.452373505E0
3.013081190E0,-4.594472885E0,-6.366182327E0,6.414066315E0
3.015066107E0,-4.510675907E0,-6.373364925E0,6.354211330E0
3.017079639E0,-4.450820923E0,-6.385335922E0,6.313509941E0
3.019062710E0,-4.414907932E0,-6.390124321E0,6.303933144E0
3.021077165E0,-4.359841347E0,-6.392518520E0,6.284779549E0
3.023060774E0,-4.311957359E0,-6.373364925E0,6.270414352E0
3.025074614E0,-4.292803764E0,-6.366182327E0,6.263231754E0
3.027058300E0,-4.292803764E0,-6.361393929E0,6.239289761E0
3.029071832E0,-4.280832767E0,-6.315904140E0,6.222530365E0
3.031058980E0,-4.273650169E0,-6.303933144E0,6.208165169E0
3.033070897E0,-4.295197964E0,-6.272808552E0,6.198588371E0
3.035084120E0,-4.302380562E0,-6.236895561E0,6.186617374E0
3.037068499E0,-4.319139957E0,-6.217741966E0,6.169857979E0
3.039081723E0,-4.357447147E0,-6.179434776E0,6.157886982E0
3.041066255E0,-4.378994942E0,-6.160281181E0,6.138733387E0
3.043080788E0,-4.414907932E0,-6.143521786E0,6.110002518E0
3.045063858E0,-4.436455727E0,-6.107608318E0,6.088454723E0
3.047077621E0,-4.424484730E0,-6.093243122E0,6.071695328E0
3.049061307E0,-4.398148537E0,-6.078877926E0,6.054935932E0
3.051076454E0,-4.386177540E0,-6.081272125E0,6.011840343E0
3.053059756E0,-4.369418144E0,-6.071695328E0,5.985504150E0
3.055073595E0,-4.347870350E0,-6.038176537E0,5.954379559E0
3.057056974E0,-4.319139957E0,-6.047753334E0,5.916072369E0
3.059071121E0,-4.311957359E0,-6.035782337E0,5.911283970E0
3.061085268E0,-4.302380562E0,-6.004657745E0,5.863399982E0
3.063068647E0,-4.295197964E0,-5.980715752E0,5.832275391E0
3.065083410E0,-4.297592163E0,-5.961562157E0,5.822698593E0
3.067067095E0,-4.283226967E0,-5.932831764E0,5.789179802E0
3.069080397E0,-4.288015366E0,-5.904101372E0,5.772420406E0
3.071066160E0,-4.309563160E0,-5.899312973E0,5.760449409E0
3.073078538E0,-4.285621166E0,-5.880159378E0,5.738901615E0
3.075062840E0,-4.283226967E0,-5.875370979E0,5.741295815E0
3.077076910E0,-4.290409565E0,-5.834669590E0,5.726930618E0
3.079060288E0,-4.309563160E0,-5.815515995E0,5.714959621E0
3.081074205E0,-4.302380562E0,-5.808333397E0,5.712565422E0
3.083058198E0,-4.302380562E0,-5.784391403E0,5.695806026E0
3.085071962E0,-4.295197964E0,-5.760449409E0,5.664681435E0
3.087055417E0,-4.276044369E0,-5.762843609E0,5.645527840E0
3.089070795E0,-4.244919777E0,-5.760449409E0,5.619191170E0
3.091084943E0,-4.230554581E0,-5.738901615E0,5.607220173E0
3.093067706E0,-4.216189384E0,-5.736507416E0,5.600037575E0
3.095082468E0,-4.206612587E0,-5.724536419E0,5.595249176E0
3.097065462E0,-4.206612587E0,-5.719748020E0,5.578489780E0
3.099079993E0,-4.187458992E0,-5.724536419E0,5.571307182E0
3.101062757E0,-4.199429989E0,-5.722142220E0,5.571307182E0
3.103077212E0,-4.199429989E0,-5.731719017E0,5.559336185E0
3.105060898E0,-4.216189384E0,-5.731719017E0,5.547365189E0
3.107074968E0,-4.240131378E0,-5.738901615E0,5.521028996E0
3.109058424E0,-4.249708176E0,-5.746084213E0,5.518634796E0
3.111074648E0,-4.252102375E0,-5.770026207E0,5.509057999E0
3.113057719E0,-4.271255970E0,-5.791574001E0,5.499481201E0
3.115070019E0,-4.280832767E0,-5.805939198E0,5.501875401E0
3.117085090E0,-4.278438568E0,-5.822698593E0,5.499481201E0
3.119068469E0,-4.261679173E0,-5.834669590E0,5.511452198E0
3.121083231E0,-4.254496574E0,-5.841852188E0,5.509057999E0
3.123066687E0,-4.225766182E0,-5.851428986E0,5.475539207E0
3.125080835E0,-4.199429989E0,-5.851428986E0,5.463568211E0
3.127064443E0,-4.180276394E0,-5.858611584E0,5.451597214E0
3.129078668E0,-4.158728123E0,-5.863399982E0,5.420472622E0
3.131063200E0,-4.146757126E0,-5.872976780E0,5.384559631E0
3.133076501E0,-4.091690540E0,-5.870582581E0,5.372588634E0
3.135059803E0,-4.043806553E0,-5.844246387E0,5.346252441E0
3.137074334E0,-4.019864559E0,-5.841852188E0,5.331887245E0
3.139057636E0,-4.003105164E0,-5.858611584E0,5.303156853E0
3.141071476E0,-3.988739967E0,-5.861005783E0,5.291185856E0
3.143054854E0,-3.967192173E0,-5.865794182E0,5.274426460E0
3.145069309E0,-3.964797974E0,-5.877765179E0,5.260061264E0
3.147083534E0,-3.976768970E0,-5.882553577E0,5.272032261E0
3.149066912E0,-3.986345768E0,-5.870582581E0,5.264849663E0
3.151083136E0,-4.036623955E0,-5.889736176E0,5.264849663E0
3.153064437E0,-4.072536945E0,-5.892130375E0,5.279214859E0
3.155079816E0,-4.084507942E0,-5.904101372E0,5.279214859E0
3.157062887E0,-4.113238335E0,-5.932831764E0,5.288791656E0
3.159077033E0,-4.151545525E0,-5.959167957E0,5.300762653E0
3.161061027E0,-4.168305397E0,-5.956773758E0,5.317522049E0
3.163074868E0,-4.201824188E0,-5.944802761E0,5.360617638E0
3.165059091E0,-4.211400986E0,-5.963956356E0,5.374982834E0
3.167072701E0,-4.247313976E0,-5.968744755E0,5.453991413E0
3.169057541E0,-4.280832767E0,-6.004657745E0,5.513846397E0
3.171071995E0,-4.288015366E0,-6.019022942E0,5.535394192E0
3.173053912E0,-4.326322556E0,-6.057330132E0,5.571307182E0
3.175068367E0,-4.345476151E0,-6.102819920E0,5.623979568E0
3.177083130E0,-4.364629745E0,-6.129156113E0,5.645527840E0
3.179065894E0,-4.407725334E0,-6.184223175E0,5.686229229E0
3.181080040E0,-4.469974518E0,-6.258443356E0,5.724536419E0
3.183064034E0,-4.501099110E0,-6.291962147E0,5.734113216E0
3.185077798E0,-4.565742493E0,-6.320692539E0,5.767632008E0
3.187062098E0,-4.625597477E0,-6.370970726E0,5.813121796E0
3.189075400E0,-4.637568474E0,-6.397306919E0,5.844246387E0
3.191061239E0,-4.671087742E0,-6.440402508E0,5.877765179E0
3.193073541E0,-4.678270340E0,-6.461950302E0,5.906495571E0
3.195056612E0,-4.675876141E0,-6.471527100E0,5.923254967E0
3.197070759E0,-4.707000732E0,-6.502651691E0,5.966350555E0
3.199085445E0,-4.702212334E0,-6.521805286E0,5.980715752E0
3.201069208E0,-4.704606533E0,-6.521805286E0,6.002263546E0
3.203083893E0,-4.675876141E0,-6.538564682E0,6.030993938E0
3.205066964E0,-4.671087742E0,-6.543353081E0,6.045359135E0
3.207080496E0,-4.659116745E0,-6.564900875E0,6.064512730E0
3.209065721E0,-4.644751072E0,-6.567295074E0,6.069301128E0
3.211079945E0,-4.651933670E0,-6.560112476E0,6.074089527E0
3.213062092E0,-4.637568474E0,-6.562506676E0,6.069301128E0
3.215076548E0,-4.644751072E0,-6.576871872E0,6.062118530E0
3.217060157E0,-4.639962673E0,-6.581660271E0,6.050147533E0
3.219074689E0,-4.613626480E0,-6.572083473E0,6.057330132E0
3.221057760E0,-4.601655483E0,-6.579266071E0,6.028599739E0
3.223072215E0,-4.606443882E0,-6.581660271E0,6.030993938E0
3.225055824E0,-4.606443882E0,-6.586448669E0,6.023811340E0
3.227069356E0,-4.589684486E0,-6.581660271E0,5.997475147E0
3.229083580E0,-4.570530891E0,-6.574477673E0,5.983109951E0
3.231069343E0,-4.532223701E0,-6.564900875E0,5.959167957E0
3.233081029E0,-4.525041103E0,-6.572083473E0,5.944802761E0
3.235065099E0,-4.520252705E0,-6.555324078E0,5.930437565E0
3.237079786E0,-4.493916512E0,-6.548141479E0,5.925649166E0
3.239063241E0,-4.484339714E0,-6.545747280E0,5.932831764E0
3.241077080E0,-4.477157116E0,-6.533776283E0,5.954379559E0
3.243061074E0,-4.489128113E0,-6.540958881E0,5.940014362E0
3.245075222E0,-4.501099110E0,-6.557718277E0,5.925649166E0
3.247058907E0,-4.501099110E0,-6.548141479E0,5.753266811E0
3.249073978E0,-4.489128113E0,-6.514622688E0,5.329493046E0
3.251057356E0,-4.465186119E0,-6.509834290E0,5.099649429E0
3.253071119E0,-4.388571739E0,-6.538564682E0,4.994304657E0
3.255054882E0,-4.326322556E0,-6.672640324E0,5.501875401E0
3.257068645E0,-4.302380562E0,-6.768408298E0,5.827486992E0
3.259082869E0,-4.285621166E0,-6.895300865E0,6.272808552E0
3.261067402E0,-4.295197964E0,-6.933608055E0,6.380547523E0
3.263080933E0,-4.381389141E0,-6.909666061E0,6.380547523E0
3.265063466E0,-4.553771496E0,-6.854599476E0,6.406883717E0
3.267078459E0,-4.659116745E0,-6.840234280E0,6.481103897E0
3.269061530E0,-4.884171486E0,-6.823474884E0,6.708553314E0
3.271078447E0,-5.094861031E0,-6.833051682E0,6.806715488E0
3.273060594E0,-5.188235283E0,-6.833051682E0,6.782773495E0
3.275073280E0,-5.334281445E0,-6.854599476E0,6.658275127E0
3.277057582E0,-5.396530628E0,-6.859387875E0,6.502651691E0
3.279072036E0,-5.377377033E0,-6.845022678E0,6.438008308E0
3.281055646E0,-5.269638062E0,-6.809109688E0,6.344634533E0
3.283069486E0,-5.090072632E0,-6.737283707E0,6.306327343E0
3.285083633E0,-4.982333660E0,-6.703764915E0,6.289567947E0
3.287067396E0,-4.742913723E0,-6.639121532E0,6.229712963E0
3.289081850E0,-4.529829502E0,-6.598419666E0,6.193799973E0
3.291065537E0,-4.426878929E0,-6.576871872E0,6.189011574E0
3.293079685E0,-4.273650169E0,-6.505045891E0,6.162675381E0
3.295063370E0,-4.211400986E0,-6.478709698E0,6.145915985E0
3.297077518E0,-4.132391930E0,-6.483498096E0,6.133944988E0
3.299060204E0,-4.082113743E0,-6.469132900E0,6.112396717E0
3.301074736E0,-4.072536945E0,-6.469132900E0,6.095637321E0
3.303058730E0,-4.067748547E0,-6.481103897E0,6.093243122E0
3.305072184E0,-4.108449936E0,-6.461950302E0,6.088454723E0
3.307056793E0,-4.127603531E0,-6.457161903E0,6.083666325E0
3.309069788E0,-4.189853191E0,-6.442796707E0,6.069301128E0
3.311086396E0,-4.244919777E0,-6.438008308E0,6.081272125E0
3.313068236E0,-4.271255970E0,-6.440402508E0,6.083666325E0
3.315081999E0,-4.321534157E0,-6.421248913E0,6.088454723E0
3.317065992E0,-4.388571739E0,-6.416460514E0,6.117185116E0
3.319079602E0,-4.417302132E0,-6.409277916E0,6.141127586E0
3.321063826E0,-4.460397720E0,-6.404489517E0,6.205770969E0
3.323078281E0,-4.517858505E0,-6.402095318E0,6.258443356E0
3.325061429E0,-4.534617901E0,-6.411672115E0,6.272808552E0
3.327075883E0,-4.551377296E0,-6.452373505E0,6.299144745E0
3.329059877E0,-4.551377296E0,-6.457161903E0,6.318298340E0
3.331074256E0,-4.551377296E0,-6.500257492E0,6.354211330E0
3.333057018E0,-4.553771496E0,-6.543353081E0,6.394912720E0
3.335071243E0,-4.553771496E0,-6.555324078E0,6.411672115E0
3.337055545E0,-4.548983097E0,-6.588842869E0,6.433219910E0
3.339069307E0,-4.534617901E0,-6.615179062E0,6.440402508E0
3.341082839E0,-4.510675907E0,-6.619967937E0,6.454767704E0
3.343067140E0,-4.469974518E0,-6.605602264E0,6.464344501E0
3.345080750E0,-4.443638325E0,-6.603208065E0,6.471527100E0
3.347064128E0,-4.434061527E0,-6.593631268E0,6.478709698E0
3.349078813E0,-4.395754337E0,-6.564900875E0,6.485892296E0
3.351064654E0,-4.352658749E0,-6.574477673E0,6.466738701E0
3.353076725E0,-4.335899353E0,-6.560112476E0,6.447585106E0
3.355059794E0,-4.299986362E0,-6.528987885E0,6.428431511E0
3.357074558E0,-4.242525578E0,-6.524199486E0,6.442796707E0
3.359058782E0,-4.216189384E0,-6.526593685E0,6.449979305E0
3.361072006E0,-4.129997730E0,-6.521805286E0,6.435614109E0
3.363056308E0,-4.101267338E0,-6.526593685E0,6.433219910E0
3.365070532E0,-4.067748547E0,-6.514622688E0,6.414066315E0
3.367084680E0,-4.010287762E0,-6.514622688E0,6.385335922E0
3.369068674E0,-3.979163170E0,-6.519411087E0,6.385335922E0
3.371083051E0,-3.960009575E0,-6.528987885E0,6.358999729E0
3.373066430E0,-3.933673382E0,-6.548141479E0,6.351817131E0
3.375079347E0,-3.921702385E0,-6.562506676E0,6.344634533E0
3.377062801E0,-3.919308186E0,-6.591237068E0,6.351817131E0
3.379077795E0,-3.940855980E0,-6.593631268E0,6.373364925E0
3.381061251E0,-3.967192173E0,-6.619967937E0,6.380547523E0
3.383075629E0,-4.010287762E0,-6.641515732E0,6.404489517E0
3.385059084E0,-4.065354347E0,-6.660669327E0,6.423643112E0
3.387073231E0,-4.098873138E0,-6.665457726E0,6.435614109E0
3.389056302E0,-4.156333923E0,-6.691793919E0,6.430825710E0
3.391072834E0,-4.237737179E0,-6.703764915E0,6.454767704E0
3.393054366E0,-4.278438568E0,-6.696582317E0,6.459556103E0
3.395069129E0,-4.338293552E0,-6.696582317E0,6.473921299E0
3.397082431E0,-4.357447147E0,-6.687005520E0,6.478709698E0
3.399066962E0,-4.426878929E0,-6.687005520E0,6.471527100E0
3.401081187E0,-4.455609322E0,-6.675034523E0,6.464344501E0
3.403063642E0,-4.479551315E0,-6.672640324E0,6.466738701E0
3.405078020E0,-4.529829502E0,-6.689399719E0,6.454767704E0
3.407061783E0,-4.596867085E0,-6.689399719E0,6.469132900E0
3.409076776E0,-4.627991676E0,-6.679822922E0,6.471527100E0
3.411061155E0,-4.661510944E0,-6.677428722E0,6.473921299E0
3.413074918E0,-4.692635536E0,-6.696582317E0,6.485892296E0
3.415057757E0,-4.716577530E0,-6.701370716E0,6.473921299E0
3.417071828E0,-4.754884720E0,-6.701370716E0,6.454767704E0
3.419055284E0,-4.757278919E0,-6.715735912E0,6.416460514E0
3.421069662E0,-4.759673119E0,-6.727706909E0,6.394912720E0
3.423083886E0,-4.774038315E0,-6.739677906E0,6.330269337E0
3.425067572E0,-4.771644115E0,-6.744466305E0,6.251260757E0
3.427081412E0,-4.764461517E0,-6.739677906E0,6.212953568E0
3.429064713E0,-4.771644115E0,-6.725312710E0,6.157886982E0
3.431080476E0,-4.766855717E0,-6.718130112E0,6.145915985E0
3.433063854E0,-4.774038315E0,-6.694188118E0,6.121973515E0
3.435076387E0,-4.759673119E0,-6.670246124E0,6.098031521E0
3.437060764E0,-4.738125324E0,-6.667851925E0,6.095637321E0
3.439074220E0,-4.742913723E0,-6.663063526E0,6.093243122E0
3.441057982E0,-4.716577530E0,-6.646304131E0,6.100425720E0
3.443072745E0,-4.697423935E0,-6.643909931E0,6.100425720E0
3.445056124E0,-4.647145271E0,-6.639121532E0,6.121973515E0
3.447070194E0,-4.611232281E0,-6.643909931E0,6.138733387E0
3.449085573E0,-4.604049683E0,-6.653486729E0,6.143521786E0
3.451069567E0,-4.572925091E0,-6.653486729E0,6.131550789E0
3.453082175E0,-4.539406300E0,-6.639121532E0,6.136339188E0
3.455066784E0,-4.537012100E0,-6.636727333E0,6.133944988E0
3.457080393E0,-4.520252705E0,-6.619967937E0,6.121973515E0
3.459063464E0,-4.508281708E0,-6.610390663E0,6.117185116E0
3.461077304E0,-4.505887508E0,-6.607996464E0,6.107608318E0
3.463061528E0,-4.508281708E0,-6.581660271E0,6.107608318E0
3.465075752E0,-4.503493309E0,-6.564900875E0,6.102819920E0
3.467059669E0,-4.520252705E0,-6.526593685E0,6.107608318E0
3.469073201E0,-4.515464306E0,-6.495469093E0,6.129156113E0
3.471059118E0,-4.513070107E0,-6.469132900E0,6.143521786E0
3.473070727E0,-4.522646904E0,-6.433219910E0,6.148310184E0
3.475054105E0,-4.539406300E0,-6.385335922E0,6.155492783E0
3.477069176E0,-4.544194698E0,-6.366182327E0,6.160281181E0
3.479083631E0,-4.558559895E0,-6.325480938E0,6.179434776E0
3.481066471E0,-4.575319290E0,-6.282385349E0,6.205770969E0
3.483081157E0,-4.582501888E0,-6.256049156E0,6.229712963E0
3.485064535E0,-4.604049683E0,-6.217741966E0,6.260837555E0
3.487078759E0,-4.606443882E0,-6.193799973E0,6.282385349E0
3.489064215E0,-4.618414879E0,-6.189011574E0,6.299144745E0
3.491076900E0,-4.656722069E0,-6.165069580E0,6.320692539E0
3.493060587E0,-4.685452938E0,-6.155492783E0,6.332663536E0
3.495074349E0,-4.721365929E0,-6.133944988E0,6.349422932E0
3.497058420E0,-4.752490520E0,-6.112396717E0,6.358999729E0
3.499072260E0,-4.762067318E0,-6.100425720E0,6.363788128E0
3.501056176E0,-4.812345505E0,-6.098031521E0,6.342240334E0
3.503070401E0,-4.845864296E0,-6.086060524E0,6.315904140E0
3.505053472E0,-4.865017891E0,-6.081272125E0,6.318298340E0
3.507067234E0,-4.891354084E0,-6.064512730E0,6.313509941E0
3.509081689E0,-4.898536682E0,-6.052541733E0,6.344634533E0
3.511067607E0,-4.912901878E0,-6.052541733E0,6.356605530E0
3.513080215E0,-4.912901878E0,-6.062118530E0,6.373364925E0
3.515063209E0,-4.915296078E0,-6.054935932E0,6.394912720E0
3.517077356E0,-4.903325081E0,-6.040570736E0,6.406883717E0
3.519061427E0,-4.908113480E0,-6.030993938E0,6.399701118E0
3.521075575E0,-4.891354084E0,-6.026205540E0,6.382941723E0
3.523058644E0,-4.874594688E0,-6.026205540E0,6.370970726E0
3.525072792E0,-4.848258495E0,-6.033388138E0,6.339846134E0
3.527056786E0,-4.833893299E0,-6.030993938E0,6.320692539E0
3.529071549E0,-4.817133904E0,-6.016628742E0,6.279991150E0
3.531055773E0,-4.778826714E0,-5.995080948E0,6.224924564E0
3.533069075E0,-4.745307922E0,-5.975927353E0,6.205770969E0
3.535082914E0,-4.683058739E0,-5.937620163E0,6.148310184E0
3.537066216E0,-4.642356873E0,-5.906495571E0,6.078877926E0
3.539081286E0,-4.620809078E0,-5.913678169E0,6.045359135E0
3.541064434E0,-4.539406300E0,-5.872976780E0,5.971138954E0
3.543078505E0,-4.467580318E0,-5.868188381E0,5.947196960E0
3.545061882E0,-4.436455727E0,-5.870582581E0,5.937620163E0
3.547076338E0,-4.364629745E0,-5.877765179E0,5.887341976E0
3.549059716E0,-4.304774761E0,-5.887341976E0,5.815515995E0
3.551075709E0,-4.268861771E0,-5.906495571E0,5.777208805E0
3.553056703E0,-4.218583584E0,-5.923254967E0,5.743690014E0
3.555072389E0,-4.187458992E0,-5.932831764E0,5.714959621E0
3.557055767E0,-4.137180328E0,-5.944802761E0,5.700594425E0
3.559069838E0,-4.089296341E0,-5.954379559E0,5.657498837E0
3.561083754E0,-4.082113743E0,-5.956773758E0,5.643133640E0
3.563068056E0,-4.062960148E0,-5.949591160E0,5.631162167E0
3.565081588E0,-4.058171749E0,-5.944802761E0,5.619191170E0
3.567064966E0,-4.055777550E0,-5.942408562E0,5.621585369E0
3.569079652E0,-4.060565948E0,-5.951985359E0,5.643133640E0
3.571063954E0,-4.094084740E0,-5.951985359E0,5.616796970E0
3.573077563E0,-4.106055737E0,-5.954379559E0,5.600037575E0
3.575060633E0,-4.118026733E0,-5.951985359E0,5.573701382E0
3.577075011E0,-4.156333923E0,-5.956773758E0,5.571307182E0
3.579059082E0,-4.187458992E0,-5.956773758E0,5.580883980E0
3.581072230E0,-4.252102375E0,-5.985504150E0,5.607220173E0
3.583056223E0,-4.307168961E0,-5.995080948E0,5.626373768E0
3.585070678E0,-4.343081951E0,-6.007051945E0,5.655104637E0
3.587054134E0,-4.395754337E0,-6.054935932E0,5.710171223E0
3.589067665E0,-4.414907932E0,-6.088454723E0,5.736507416E0
3.591083659E0,-4.446032524E0,-6.100425720E0,5.789179802E0
3.593066960E0,-4.477157116E0,-6.131550789E0,5.841852188E0
3.595079877E0,-4.484339714E0,-6.138733387E0,5.858611584E0
3.597064256E0,-4.493916512E0,-6.174646378E0,5.887341976E0
3.599078095E0,-4.508281708E0,-6.212953568E0,5.930437565E0
3.601061474E0,-4.503493309E0,-6.222530365E0,5.961562157E0
3.603076237E0,-4.496310711E0,-6.234501362E0,6.026205540E0
3.605060153E0,-4.496310711E0,-6.265625954E0,6.086060524E0
3.607073455E0,-4.503493309E0,-6.272808552E0,6.102819920E0
3.609057449E0,-4.505887508E0,-6.277596951E0,6.114790916E0
3.611072442E0,-4.479551315E0,-6.291962147E0,6.121973515E0
3.613055513E0,-4.462791920E0,-6.289567947E0,6.102819920E0
3.615069044E0,-4.434061527E0,-6.268020153E0,6.083666325E0
3.617083500E0,-4.405331135E0,-6.256049156E0,6.069301128E0
3.619066955E0,-4.400542736E0,-6.253654957E0,6.064512730E0
3.621080794E0,-4.383783340E0,-6.246472359E0,6.028599739E0
3.623064711E0,-4.381389141E0,-6.234501362E0,6.019022942E0
3.625078859E0,-4.371812344E0,-6.210559368E0,5.997475147E0
3.627063160E0,-4.350264549E0,-6.193799973E0,5.985504150E0
3.629076385E0,-4.338293552E0,-6.196194172E0,5.980715752E0
3.631061608E0,-4.328716755E0,-6.186617374E0,5.980715752E0
3.633074218E0,-4.323928356E0,-6.177040577E0,5.975927353E0
3.635058596E0,-4.319139957E0,-6.172252178E0,5.975927353E0
3.637072051E0,-4.331110954E0,-6.177040577E0,5.978321552E0
3.639056122E0,-4.335899353E0,-6.167463779E0,5.997475147E0
3.641069885E0,-4.343081951E0,-6.148310184E0,5.990292549E0
3.643054186E0,-4.323928356E0,-6.148310184E0,5.968744755E0
3.645067718E0,-4.321534157E0,-6.148310184E0,5.973533154E0
3.647081942E0,-4.326322556E0,-6.153098583E0,5.975927353E0
3.649066859E0,-4.321534157E0,-6.167463779E0,5.973533154E0
3.651080392E0,-4.307168961E0,-6.165069580E0,5.992686749E0
3.653063769E0,-4.290409565E0,-6.169857979E0,6.007051945E0
3.655077532E0,-4.276044369E0,-6.167463779E0,6.052541733E0
3.657061526E0,-4.278438568E0,-6.172252178E0,6.074089527E0
3.659075058E0,-4.290409565E0,-6.179434776E0,6.110002518E0
3.661058206E0,-4.314351559E0,-6.210559368E0,6.133944988E0
3.663072661E0,-4.331110954E0,-6.217741966E0,6.138733387E0
3.665056885E0,-4.335899353E0,-6.248866558E0,6.162675381E0
3.667070802E0,-4.347870350E0,-6.260837555E0,6.198588371E0
3.669054796E0,-4.369418144E0,-6.253654957E0,6.208165169E0
3.671070789E0,-4.405331135E0,-6.244078159E0,6.217741966E0
3.673053552E0,-4.424484730E0,-6.256049156E0,6.234501362E0
3.675066161E0,-4.438849926E0,-6.251260757E0,6.239289761E0
3.677081232E0,-4.462791920E0,-6.234501362E0,6.234501362E0
3.679064610E0,-4.503493309E0,-6.224924564E0,6.222530365E0
3.681078065E0,-4.525041103E0,-6.220136166E0,6.212953568E0
3.683062674E0,-4.522646904E0,-6.220136166E0,6.200982571E0
3.685076591E0,-4.534617901E0,-6.210559368E0,6.203376770E0
3.687060200E0,-4.525041103E0,-6.200982571E0,6.205770969E0
3.689074732E0,-4.510675907E0,-6.208165169E0,6.208165169E0
3.691058725E0,-4.508281708E0,-6.208165169E0,6.205770969E0
3.693072565E0,-4.491522312E0,-6.217741966E0,6.208165169E0
3.695055329E0,-4.469974518E0,-6.224924564E0,6.215347767E0
3.697069091E0,-4.453215122E0,-6.227318764E0,6.217741966E0
3.699083546E0,-4.424484730E0,-6.253654957E0,6.203376770E0
3.701067540E0,-4.402936935E0,-6.251260757E0,6.205770969E0
3.703081457E0,-4.400542736E0,-6.239289761E0,6.203376770E0
3.705065143E0,-4.355052948E0,-6.210559368E0,6.193799973E0
3.707079213E0,-4.338293552E0,-6.186617374E0,6.184223175E0
3.709062591E0,-4.333505154E0,-6.172252178E0,6.172252178E0
3.711079508E0,-4.314351559E0,-6.165069580E0,6.160281181E0
3.713060501E0,-4.278438568E0,-6.145915985E0,6.155492783E0
3.715074034E0,-4.266467571E0,-6.141127586E0,6.153098583E0
3.717058951E0,-4.242525578E0,-6.110002518E0,6.138733387E0
3.719072175E0,-4.244919777E0,-6.086060524E0,6.143521786E0
3.721056400E0,-4.218583584E0,-6.081272125E0,6.150704384E0
3.723070855E0,-4.201824188E0,-6.057330132E0,6.177040577E0
3.725054233E0,-4.201824188E0,-6.047753334E0,6.189011574E0
3.727068688E0,-4.165910721E0,-6.057330132E0,6.227318764E0
3.729082912E0,-4.180276394E0,-6.090848923E0,6.246472359E0
3.731066906E0,-4.182670593E0,-6.105214119E0,6.251260757E0
3.733080439E0,-4.206612587E0,-6.124367714E0,6.275202751E0
3.735064047E0,-4.235342979E0,-6.124367714E0,6.315904140E0
3.737077656E0,-4.254496574E0,-6.141127586E0,6.332663536E0
3.739062496E0,-4.268861771E0,-6.167463779E0,6.337451935E0
3.741075797E0,-4.273650169E0,-6.157886982E0,6.339846134E0
3.743059791E0,-4.280832767E0,-6.155492783E0,6.337451935E0
3.745074169E0,-4.290409565E0,-6.153098583E0,6.347028732E0
3.747057009E0,-4.304774761E0,-6.143521786E0,6.351817131E0
3.749070849E0,-4.311957359E0,-6.143521786E0,6.351817131E0
3.751056919E0,-4.316745758E0,-6.145915985E0,6.358999729E0
3.753069528E0,-4.319139957E0,-6.145915985E0,6.356605530E0
3.755052369E0,-4.343081951E0,-6.148310184E0,6.358999729E0
3.757067054E0,-4.369418144E0,-6.165069580E0,6.387730122E0
3.759081279E0,-4.376600742E0,-6.167463779E0,6.390124321E0
3.761064580E0,-4.398148537E0,-6.196194172E0,6.404489517E0
3.763078804E0,-4.381389141E0,-6.224924564E0,6.404489517E0
3.765062798E0,-4.383783340E0,-6.248866558E0,6.416460514E0
3.767077176E0,-4.410119534E0,-6.258443356E0,6.418854713E0
3.769060554E0,-4.400542736E0,-6.253654957E0,6.423643112E0
3.771076318E0,-4.400542736E0,-6.244078159E0,6.430825710E0
3.773058464E0,-4.426878929E0,-6.268020153E0,6.416460514E0
3.775072305E0,-4.438849926E0,-6.265625954E0,6.390124321E0
3.777056299E0,-4.434061527E0,-6.263231754E0,6.375759125E0
3.779070445E0,-4.436455727E0,-6.232107162E0,6.358999729E0
3.781054363E0,-4.446032524E0,-6.227318764E0,6.318298340E0
3.783068279E0,-4.448426723E0,-6.217741966E0,6.303933144E0
3.785081811E0,-4.438849926E0,-6.227318764E0,6.299144745E0
3.787064882E0,-4.424484730E0,-6.239289761E0,6.294356346E0
3.789079952E0,-4.419696331E0,-6.222530365E0,6.287173748E0
3.791064869E0,-4.424484730E0,-6.200982571E0,6.277596951E0
3.793077171E0,-4.431667328E0,-6.196194172E0,6.287173748E0
3.795061471E0,-4.436455727E0,-6.198588371E0,6.313509941E0
3.797075619E0,-4.434061527E0,-6.217741966E0,6.320692539E0
3.799058998E0,-4.436455727E0,-6.217741966E0,6.311115742E0
3.801073760E0,-4.443638325E0,-6.196194172E0,6.296750546E0
3.803057139E0,-4.460397720E0,-6.205770969E0,6.306327343E0
3.805071209E0,-4.469974518E0,-6.208165169E0,6.308721542E0
3.807054280E0,-4.484339714E0,-6.198588371E0,6.323086739E0
3.809069658E0,-4.460397720E0,-6.196194172E0,6.327875137E0
3.811052805E0,-4.465186119E0,-6.189011574E0,6.335057735E0
3.813067184E0,-4.472368717E0,-6.181828976E0,6.344634533E0
3.815080485E0,-4.460397720E0,-6.179434776E0,6.349422932E0
3.817064171E0,-4.455609322E0,-6.177040577E0,6.356605530E0
3.819078626E0,-4.450820923E0,-6.167463779E0,6.349422932E0
3.821062236E0,-4.448426723E0,-6.169857979E0,6.351817131E0
3.823076382E0,-4.450820923E0,-6.172252178E0,6.373364925E0
3.825060377E0,-4.446032524E0,-6.148310184E0,6.404489517E0
3.827074523E0,-4.438849926E0,-6.157886982E0,6.423643112E0
3.829057364E0,-4.450820923E0,-6.141127586E0,6.454767704E0
3.831073281E0,-4.458003521E0,-6.112396717E0,6.469132900E0
3.833056735E0,-4.465186119E0,-6.100425720E0,6.469132900E0
3.835069268E0,-4.474762917E0,-6.088454723E0,6.485892296E0
3.837053339E0,-4.484339714E0,-6.078877926E0,6.507440090E0
3.839067485E0,-4.491522312E0,-6.066906929E0,6.509834290E0
3.841081249E0,-4.486733913E0,-6.042964935E0,6.481103897E0
3.843065011E0,-4.484339714E0,-6.052541733E0,6.478709698E0
3.845079697E0,-4.484339714E0,-6.052541733E0,6.490680695E0
3.847063460E0,-4.472368717E0,-6.045359135E0,6.519411087E0
3.849077607E0,-4.462791920E0,-6.033388138E0,6.528987885E0
3.851062217E0,-4.467580318E0,-6.038176537E0,6.521805286E0
3.853075057E0,-4.453215122E0,-6.054935932E0,6.473921299E0
3.855058742E0,-4.446032524E0,-6.045359135E0,6.447585106E0
3.857072659E0,-4.443638325E0,-6.054935932E0,6.433219910E0
3.859056346E0,-4.441244125E0,-6.071695328E0,6.433219910E0
3.861070723E0,-4.436455727E0,-6.076483727E0,6.423643112E0
3.863054179E0,-4.410119534E0,-6.088454723E0,6.409277916E0
3.865068864E0,-4.414907932E0,-6.107608318E0,6.394912720E0
3.867082704E0,-4.412513733E0,-6.110002518E0,6.387730122E0
3.869065775E0,-4.412513733E0,-6.126761913E0,6.380547523E0
3.871082460E0,-4.422090530E0,-6.131550789E0,6.356605530E0
3.873063070E0,-4.419696331E0,-6.121973515E0,6.351817131E0
3.875078371E0,-4.424484730E0,-6.110002518E0,6.344634533E0
3.877061518E0,-4.450820923E0,-6.093243122E0,6.303933144E0
3.879076282E0,-4.450820923E0,-6.083666325E0,6.294356346E0
3.881059890E0,-4.465186119E0,-6.081272125E0,6.296750546E0
3.883074422E0,-4.469974518E0,-6.071695328E0,6.303933144E0
3.885057493E0,-4.489128113E0,-6.057330132E0,6.313509941E0
3.887071025E0,-4.469974518E0,-6.040570736E0,6.315904140E0
3.889056250E0,-4.455609322E0,-6.040570736E0,6.308721542E0
3.891069705E0,-4.469974518E0,-6.026205540E0,6.313509941E0
3.893053160E0,-4.453215122E0,-6.007051945E0,6.313509941E0
3.895067538E0,-4.443638325E0,-5.997475147E0,6.311115742E0
3.897081377E0,-4.424484730E0,-5.999869347E0,6.325480938E0
3.899064756E0,-4.436455727E0,-6.023811340E0,6.335057735E0
3.901078596E0,-4.431667328E0,-6.028599739E0,6.337451935E0
3.903062051E0,-4.414907932E0,-5.990292549E0,6.323086739E0
3.905077352E0,-4.400542736E0,-5.978321552E0,6.315904140E0
3.907060731E0,-4.410119534E0,-5.971138954E0,6.311115742E0
3.909074878E0,-4.405331135E0,-5.968744755E0,6.301538944E0
3.911059487E0,-4.405331135E0,-5.956773758E0,6.282385349E0
3.913073404E0,-4.393360138E0,-5.959167957E0,6.284779549E0
3.915055551E0,-4.369418144E0,-5.951985359E0,6.277596951E0
3.917069622E0,-4.367023945E0,-5.944802761E0,6.279991150E0
3.919053924E0,-4.345476151E0,-5.930437565E0,6.306327343E0
3.921068148E0,-4.338293552E0,-5.932831764E0,6.320692539E0
3.923081988E0,-4.319139957E0,-5.942408562E0,6.330269337E0
3.925065981E0,-4.283226967E0,-5.944802761E0,6.332663536E0
3.927080129E0,-4.261679173E0,-5.951985359E0,6.332663536E0
3.929063738E0,-4.261679173E0,-5.968744755E0,6.339846134E0
3.931078270E0,-4.249708176E0,-5.959167957E0,6.342240334E0
3.933061571E0,-4.244919777E0,-5.963956356E0,6.349422932E0
3.935075718E0,-4.252102375E0,-5.971138954E0,6.361393929E0
3.937059097E0,-4.261679173E0,-5.966350555E0,6.387730122E0
3.939073629E0,-4.261679173E0,-5.966350555E0,6.404489517E0
3.941056699E0,-4.266467571E0,-5.966350555E0,6.423643112E0
3.943070847E0,-4.285621166E0,-5.954379559E0,6.433219910E0
3.945054533E0,-4.299986362E0,-5.961562157E0,6.433219910E0
3.947068911E0,-4.331110954E0,-5.956773758E0,6.440402508E0
3.949051982E0,-4.367023945E0,-5.940014362E0,6.426037312E0
3.951068591E0,-4.374206543E0,-5.940014362E0,6.421248913E0
3.953080584E0,-4.381389141E0,-5.942408562E0,6.411672115E0
3.955063117E0,-4.381389141E0,-5.923254967E0,6.404489517E0
3.957078494E0,-4.393360138E0,-5.908889771E0,6.399701118E0
3.959062796E0,-4.386177540E0,-5.896918774E0,6.390124321E0
3.961075944E0,-4.393360138E0,-5.908889771E0,6.370970726E0
3.963060245E0,-4.395754337E0,-5.899312973E0,6.361393929E0
3.965073854E0,-4.371812344E0,-5.896918774E0,6.351817131E0
3.967057463E0,-4.378994942E0,-5.906495571E0,6.358999729E0
3.969072302E0,-4.376600742E0,-5.906495571E0,6.347028732E0
3.971056296E0,-4.350264549E0,-5.899312973E0,6.323086739E0
3.973070137E0,-4.314351559E0,-5.901707172E0,6.291962147E0
3.975053514E0,-4.307168961E0,-5.896918774E0,6.279991150E0
3.977067277E0,-4.309563160E0,-5.875370979E0,6.268020153E0
3.979081809E0,-4.297592163E0,-5.851428986E0,6.239289761E0
3.981064880E0,-4.276044369E0,-5.841852188E0,6.227318764E0
3.983079643E0,-4.259284973E0,-5.827486992E0,6.215347767E0
3.985063251E0,-4.256890774E0,-5.822698593E0,6.217741966E0
3.987077092E0,-4.261679173E0,-5.796362400E0,6.200982571E0
3.989060240E0,-4.264073372E0,-5.784391403E0,6.174646378E0
3.991077079E0,-4.261679173E0,-5.777208805E0,6.162675381E0
3.993059227E0,-4.268861771E0,-5.767632008E0,6.131550789E0
3.995072835E0,-4.268861771E0,-5.758055210E0,6.098031521E0
3.997056521E0,-4.264073372E0,-5.765237808E0,6.086060524E0
3.999071284E0,-4.252102375E0,-5.748478413E0,6.064512730E0
4.001054277E0,-4.240131378E0,-5.729324818E0,6.054935932E0
4.003069118E0,-4.220977783E0,-5.722142220E0,6.059724331E0
4.005051496E0,-4.177882195E0,-5.731719017E0,6.057330132E0
4.007066643E0,-4.156333923E0,-5.714959621E0,6.042964935E0
4.009081099E0,-4.146757126E0,-5.710171223E0,6.030993938E0
4.011064708E0,-4.118026733E0,-5.710171223E0,6.004657745E0
4.013078547E0,-4.091690540E0,-5.714959621E0,5.990292549E0
4.015062233E0,-4.074931145E0,-5.719748020E0,5.999869347E0
4.017075842E0,-4.048594952E0,-5.717353821E0,6.007051945E0
4.019060067E0,-4.036623955E0,-5.705382824E0,6.007051945E0
4.021073061E0,-4.012681961E0,-5.700594425E0,6.004657745E0
4.023057592E0,-3.991134167E0,-5.695806026E0,5.985504150E0
4.025071740E0,-3.974374771E0,-5.691017628E0,5.980715752E0
4.027055811E0,-3.976768970E0,-5.683835030E0,5.975927353E0
4.029068958E0,-3.957615376E0,-5.667075634E0,5.980715752E0
4.031054490E0,-3.952826977E0,-5.657498837E0,5.978321552E0
4.033066252E0,-3.948038578E0,-5.664681435E0,5.971138954E0
4.035081631E0,-3.926490784E0,-5.655104637E0,5.937620163E0
4.037064010E0,-3.928884983E0,-5.638344765E0,5.932831764E0
4.039078849E0,-3.938461781E0,-5.628767967E0,5.913678169E0
4.041062458E0,-3.945644379E0,-5.609614372E0,5.896918774E0
4.043076914E0,-3.945644379E0,-5.604825974E0,5.896918774E0
4.045060368E0,-3.943250179E0,-5.602431774E0,5.892130375E0
4.047074516E0,-3.938461781E0,-5.585672379E0,5.887341976E0
4.049059126E0,-3.962403774E0,-5.590460777E0,5.880159378E0
4.051073580E0,-3.964797974E0,-5.592854977E0,5.904101372E0
4.053056266E0,-3.969586372E0,-5.597643375E0,5.913678169E0
4.055070106E0,-3.969586372E0,-5.595249176E0,5.918466568E0
4.057053792E0,-3.988739967E0,-5.604825974E0,5.930437565E0
4.059068324E0,-3.998316765E0,-5.604825974E0,5.937620163E0
4.061052010E0,-4.019864559E0,-5.616796970E0,5.940014362E0
4.063065465E0,-4.039018154E0,-5.580883980E0,5.911283970E0
4.065080228E0,-4.039018154E0,-5.576095581E0,5.896918774E0
4.067063375E0,-4.055777550E0,-5.578489780E0,5.896918774E0
4.069077446E0,-4.065354347E0,-5.566518784E0,5.887341976E0
4.071062439E0,-4.062960148E0,-5.568912983E0,5.880159378E0
4.073076587E0,-4.070142746E0,-5.549759388E0,5.861005783E0
4.075058427E0,-4.072536945E0,-5.542576790E0,5.839457989E0
4.077074113E0,-4.065354347E0,-5.537788391E0,5.829881191E0
4.079056568E0,-4.060565948E0,-5.544970989E0,5.813121796E0
4.081071331E0,-4.055777550E0,-5.549759388E0,5.801150799E0
4.083054632E0,-4.036623955E0,-5.535394192E0,5.796362400E0
4.085069165E0,-4.041412354E0,-5.532999992E0,5.772420406E0
4.087052851E0,-4.041412354E0,-5.540182590E0,5.758055210E0
4.089066921E0,-4.027047157E0,-5.537788391E0,5.755661011E0
4.091082376E0,-4.029441357E0,-5.556941986E0,5.767632008E0
4.093065139E0,-4.031835556E0,-5.552153587E0,5.762843609E0
4.095078902E0,-4.015076160E0,-5.568912983E0,5.770026207E0
4.097061973E0,-4.012681961E0,-5.571307182E0,5.781997204E0
4.099076120E0,-4.003105164E0,-5.568912983E0,5.781997204E0
4.101060114E0,-3.988739967E0,-5.566518784E0,5.772420406E0
4.103074954E0,-3.981557369E0,-5.568912983E0,5.750872612E0
4.105057947E0,-3.981557369E0,-5.561730385E0,5.736507416E0
4.107072171E0,-3.960009575E0,-5.556941986E0,5.712565422E0
