"Time (s)","Linear Acceleration x (m/s^2)","Linear Acceleration y (m/s^2)","Linear Acceleration z (m/s^2)"
1.507372900E-2,1.473210752E-3,9.366655350E-2,-1.302638054E-1
2.306970400E-2,1.159337163E-2,5.406856537E-2,-1.162481308E-1
3.106514000E-2,-1.070199385E-1,6.294822693E-2,-1.335420609E-1
3.909211500E-2,-2.209348381E-1,4.434394836E-2,-1.363530159E-1
4.708747300E-2,-2.786801159E-1,1.575803757E-2,-1.619930267E-1
5.508321800E-2,-2.449521422E-1,6.695318222E-2,-2.420086861E-1
6.307826900E-2,-1.972180903E-1,6.655502319E-2,-2.907977104E-1
7.107570500E-2,-1.155666113E-1,1.135807037E-1,-3.767232895E-1
7.907021800E-2,-3.007143736E-2,1.388101578E-1,-4.398884773E-1
8.706580800E-2,3.595365584E-2,1.435737610E-1,-4.570441246E-1
9.509162800E-2,5.143246055E-2,1.638021469E-1,-4.781899452E-1
1.030870650E-1,1.952919364E-2,2.390151024E-1,-4.823303223E-1
1.110821160E-1,1.779365540E-2,2.667818069E-1,-4.555187225E-1
1.190777830E-1,1.982325315E-2,2.886505127E-1,-4.276971817E-1
1.270739880E-1,-1.923170686E-2,3.203620911E-1,-3.517656326E-1
1.350696550E-1,-4.421675205E-2,3.099384308E-1,-3.341164589E-1
1.430650920E-1,-4.431760311E-2,3.528037071E-1,-3.823814392E-1
1.510927580E-1,-2.132245898E-2,3.639841080E-1,-4.245986938E-1
1.590865790E-1,-1.811853051E-2,3.847374916E-1,-4.722404480E-1
1.670819380E-1,2.002590895E-2,3.763370514E-1,-4.779376984E-1
1.750784510E-1,3.829303384E-2,3.864164352E-1,-4.177403450E-1
1.830729640E-1,2.285119891E-2,3.807897568E-1,-3.997607231E-1
1.910686310E-1,3.867790103E-2,3.734345436E-1,-4.466357231E-1
1.990952970E-1,4.189252853E-2,3.620862961E-1,-4.450597763E-1
2.070903490E-1,6.504425406E-2,3.121757507E-1,-4.235286713E-1
2.150869390E-1,3.738325834E-2,2.502183914E-1,-4.127368927E-1
2.230810680E-1,1.006186008E-2,1.547951698E-1,-3.414340019E-1
2.310792720E-1,-8.329868317E-3,1.243867874E-1,-2.852001190E-1
2.390727090E-1,-1.284027100E-2,4.224920273E-2,-2.049436569E-1
2.470690680E-1,-1.083037257E-2,-4.876804352E-2,-2.621650696E-3
2.550640430E-1,-3.491690755E-2,-9.800577164E-2,5.695390701E-2
2.630908630E-1,-1.195932627E-1,-8.043909073E-2,8.937072754E-2
2.710852220E-1,-1.356952190E-1,-7.528209686E-2,9.523200989E-2
2.790806580E-1,-1.548074782E-1,-7.474136353E-2,-1.528739929E-2
2.870771720E-1,-1.557887197E-1,-9.618377686E-2,-2.678213120E-1
2.950723000E-1,-1.158895195E-1,-1.144556999E-1,-3.270888329E-1
3.030678900E-1,-5.860146880E-2,-1.609210968E-1,-2.054419518E-1
3.110956340E-1,-3.822478652E-2,-1.568217278E-1,-1.156229973E-1
3.190894540E-1,-5.103579164E-2,-9.315252304E-2,-5.948162079E-2
3.270853520E-1,-3.909131885E-2,-3.686046600E-2,7.081794739E-2
3.350807880E-1,-1.505017877E-1,4.538536072E-2,1.051578522E-1
3.430761480E-1,-2.957862020E-1,8.389568329E-2,7.930564880E-2
3.510717370E-1,-3.497919738E-1,1.359610558E-1,5.781221390E-2
3.590674040E-1,-3.184352517E-1,1.490473747E-1,6.466817856E-2
3.670944550E-1,-2.751921117E-1,1.469750404E-1,8.052444458E-2
3.750895070E-1,-1.764335036E-1,8.239603043E-2,6.737184525E-2
3.830849430E-1,-1.069236398E-1,1.582717896E-2,1.129198074E-2
3.910827640E-1,-7.340490818E-2,-4.057884216E-2,-2.051115036E-2
3.990759690E-1,-5.762469769E-2,-2.218055725E-2,-9.737491608E-2
4.070715590E-1,1.541388035E-2,2.763175964E-2,-1.213159561E-1
4.150678410E-1,1.787526309E-1,1.042079926E-1,-1.688685417E-1
4.230937390E-1,3.096249700E-1,2.219419479E-1,-2.137203217E-1
4.310890210E-1,2.453504801E-1,3.685216904E-1,-1.196651459E-1
4.390840730E-1,3.572094440E-2,4.279246330E-1,5.029296875E-2
4.470798170E-1,-1.754111052E-1,3.939514160E-1,2.712450027E-1
4.550757140E-1,-3.033501506E-1,3.282375336E-1,3.057308197E-1
4.630713810E-1,-3.435608745E-1,3.016295433E-1,3.923583031E-1
4.710688940E-1,-2.953203917E-1,2.786836624E-1,3.853511810E-1
4.790937920E-1,-2.378216386E-1,2.235369682E-1,2.769260406E-1
4.870886120E-1,-1.679633856E-1,1.807804108E-1,1.735024452E-1
4.950833560E-1,-1.600418091E-1,1.623172760E-1,-2.360391617E-2
5.030795610E-1,-1.320477724E-1,1.544113159E-1,-1.845521927E-1
5.110749980E-1,-8.516293764E-2,1.285638809E-1,-3.401718140E-1
5.190706640E-1,5.800366402E-3,1.508932114E-1,-4.503827095E-1
5.270660230E-1,9.610766172E-2,2.393155098E-1,-4.634366035E-1
5.350927670E-1,1.092884541E-1,3.209328651E-1,-3.370809555E-1
5.430877420E-1,1.135910153E-1,2.709002495E-1,-1.339516640E-1
5.510849470E-1,3.356617689E-2,1.088991165E-1,-2.162933350E-3
5.590791520E-1,-1.618494391E-1,2.789974213E-3,1.159744263E-1
5.670750490E-1,-4.661751986E-1,-4.780292511E-2,2.275066376E-1
5.750711010E-1,-7.236404419E-1,-4.199075699E-2,2.332863808E-1
5.830658460E-1,-7.707387805E-1,-5.566453934E-2,3.118319511E-1
5.910919730E-1,-6.406288147E-1,-1.161870956E-1,2.630114555E-1
5.990876410E-1,-4.406142235E-1,-1.955299377E-1,2.051143646E-1
6.070829990E-1,-2.211370468E-1,-2.447128296E-1,-7.274627686E-3
6.150788980E-1,4.884362221E-3,-2.705860138E-1,-2.040171623E-1
6.230737180E-1,1.163711548E-1,-3.191871643E-1,-3.375840187E-1
6.310718470E-1,2.417228818E-1,-4.039082527E-1,-3.922429085E-1
6.390659740E-1,2.684824467E-1,-4.949827194E-1,-3.838596344E-1
6.470914110E-1,2.286979556E-1,-6.024594307E-1,-3.899736404E-1
6.550871540E-1,2.339932323E-1,-6.634063721E-1,-3.167266846E-1
6.630831290E-1,2.517345548E-1,-7.080011368E-1,-3.693766594E-1
6.710781800E-1,3.667795658E-1,-8.343005180E-1,-1.382966042E-1
6.790740780E-1,4.686782360E-1,-9.490957260E-1,3.053803444E-1
6.870703600E-1,4.807882309E-1,-9.208874702E-1,2.797865868E-1
6.950651040E-1,3.979546428E-1,-8.986396790E-1,-6.492614746E-3
7.030909240E-1,2.417690754E-1,-8.894371986E-1,-1.144337654E-1
7.110881300E-1,4.389548302E-2,-8.223452568E-1,-8.770322800E-2
7.190826430E-1,-6.089448929E-2,-7.795624733E-1,3.060817719E-3
7.270779250E-1,-3.123238087E-1,-6.865310669E-1,-8.916616440E-2
7.350732850E-1,-5.414652824E-1,-5.537137985E-1,-2.246980667E-1
7.430692590E-1,-7.160129547E-1,-3.694276810E-1,-4.501514435E-1
7.510646190E-1,-7.954870462E-1,-2.282357216E-1,-4.992227554E-1
7.590908240E-1,-9.521996975E-1,-1.557359695E-1,-3.112821579E-1
7.670864910E-1,-1.227232575E0,-1.000552177E-1,2.255277634E-1
7.750823880E-1,-9.983397722E-1,-5.482244492E-2,1.500358582E-1
7.830781320E-1,-2.518045902E-1,-8.089447021E-2,1.302213669E-1
7.910749520E-1,4.189252853E-1,-1.094260216E-1,-1.751451492E-1
7.990696970E-1,9.086875319E-1,-1.150836945E-1,-5.799655914E-1
8.070635170E-1,1.055216312E0,-9.979295731E-2,-8.726196289E-1
8.150894150E-1,1.143836617E0,-9.748697281E-2,-9.941358566E-1
8.230860040E-1,1.276764154E0,-1.237325668E-1,-1.039851665E0
8.310815950E-1,1.354394078E0,-1.691184044E-1,-1.021645069E0
8.390772610E-1,1.163557649E0,-2.768297195E-1,-8.969807625E-1
8.470720050E-1,8.400021195E-1,-3.514537811E-1,-9.703502655E-1
8.550676730E-1,4.665595293E-1,-5.240774155E-1,-7.893252373E-1
8.630639540E-1,2.028428316E-1,-8.396220207E-1,-5.215554237E-1
8.710910820E-1,2.386925220E-1,-1.147491455E0,-1.274232864E-1
8.790855190E-1,2.958688736E-1,-1.165442944E0,-4.709887505E-1
8.870814940E-1,2.248768806E-1,-1.015049934E0,-5.955834389E-1
8.950765450E-1,1.323584318E-1,-8.295588493E-1,-4.351296425E-1
9.030724430E-1,4.787147045E-2,-7.677774429E-1,-2.872905731E-1
9.110650320E-1,7.094407082E-2,-7.186164856E-1,-2.639122009E-1
9.190634690E-1,1.268510818E-1,-6.612148285E-1,-2.838325500E-2
9.270893660E-1,2.045794725E-1,-6.175308228E-1,1.167263985E-1
9.350853410E-1,1.933515072E-1,-5.105805397E-1,1.931171417E-1
9.430806230E-1,-6.976354122E-2,-2.519855499E-1,2.871928215E-1
9.510753670E-1,-3.801099062E-1,-7.879781723E-2,4.071207047E-1
9.590719560E-1,-5.726076365E-1,-3.464889526E-2,3.179259300E-1
9.670680080E-1,-6.416704655E-1,7.744789124E-3,2.013955116E-1
9.750627510E-1,-6.601848602E-1,2.571058273E-2,3.095383644E-1
9.830891880E-1,-6.410495043E-1,8.814620972E-2,4.619383812E-1
9.910866240E-1,-5.775501728E-1,2.328548431E-1,3.298749924E-1
9.990805220E-1,-4.019702673E-1,3.720574379E-1,-4.792213440E-3
1.007076188E0,-1.313139200E-1,5.189347267E-1,-1.822571754E-1
1.015071471E0,2.456722260E-1,6.031117439E-1,-1.777567863E-1
1.023067215E0,3.268759251E-1,5.390634537E-1,-1.580905914E-1
1.031095112E0,2.696975470E-1,4.178805351E-1,1.122369766E-1
1.039088933E0,-3.865909576E-2,3.922610283E-1,2.934331894E-1
1.047083676E0,-5.048574209E-1,4.180531502E-1,4.264268875E-1
1.055080344E0,-1.093192816E0,3.531432152E-1,7.801961899E-1
1.063075933E0,-1.449454546E0,1.148886681E-1,1.166762829E0
1.071073831E0,-1.691746831E0,-1.554369926E-1,1.424750805E0
1.079066728E0,-1.775962114E0,-2.649478912E-1,1.599598885E0
1.087061703E0,-1.833295345E0,-2.942276001E-1,1.602456570E0
1.095088447E0,-1.975126982E0,-7.046651840E-2,1.003445625E0
1.103083806E0,-1.800833702E0,1.872863770E-1,3.798241615E-1
1.111081011E0,-1.018125534E0,2.513718605E-1,-7.148265839E-2
1.119075448E0,-3.288999796E-1,1.617403030E-1,-1.608662605E-1
1.127070191E0,-2.064919472E-1,5.623626709E-2,-1.249909401E-1
1.135065935E0,-7.435550690E-1,8.287429810E-2,-6.082630157E-2
1.143061602E0,-1.319561005E0,2.043485641E-1,1.738138199E-1
1.151090115E0,-1.692977905E0,2.709531784E-1,3.390765190E-1
1.159083704E0,-1.581218243E0,2.137813568E-1,3.098821640E-1
1.167078449E0,-1.327140331E0,1.753206253E-1,2.360420227E-1
1.175074654E0,-1.228174448E0,1.707749367E-1,1.836171150E-1
1.183070628E0,-1.378045082E0,1.973233223E-1,8.959531784E-2
1.191068219E0,-1.597523451E0,1.709284782E-1,1.421451569E-2
1.199061347E0,-1.584451437E0,1.558446884E-1,-4.427862167E-2
1.207086860E0,-1.527156591E0,1.637721062E-1,-2.213239670E-1
1.215083219E0,-1.431742430E0,1.708002090E-1,-3.415241241E-1
1.223078886E0,-1.219370604E0,2.366671562E-1,-3.306879997E-1
1.231075783E0,-9.935297966E-1,2.795758247E-1,-1.784138680E-1
1.239069527E0,-8.590533733E-1,3.543438911E-1,-1.395559311E-1
1.247065194E0,-7.472417355E-1,4.730920792E-1,-2.586526871E-1
1.255091323E0,-5.062940121E-1,5.663523674E-1,-3.221101761E-1
1.263087297E0,-3.406786919E-2,7.295918465E-1,-5.362529755E-1
1.271084810E0,2.479937077E-1,8.533358574E-1,-5.844187737E-1
1.279078938E0,2.867062092E-1,8.662953377E-1,-2.789673805E-1
1.287073990E0,-1.055319309E-1,8.733539581E-1,-7.006120682E-2
1.295069733E0,-7.389912605E-1,9.205484390E-1,-1.675224304E-2
1.303065324E0,-1.221176386E0,9.271678925E-1,1.692090034E-1
1.311092144E0,-1.180383682E0,8.867907524E-1,1.480908394E-1
1.319087119E0,-7.397341728E-1,8.507008553E-1,1.298918724E-1
1.327082248E0,-3.277134895E-1,8.989682198E-1,3.274869919E-2
1.335077529E0,-4.233908653E-2,9.400568008E-1,3.896951675E-2
1.343072966E0,1.790516376E-1,1.017508507E0,-4.831981659E-2
1.351069786E0,2.617664337E-1,1.103565216E0,-1.802353859E-1
1.359064300E0,7.713460922E-2,1.127683163E0,-2.182536125E-1
1.367090350E0,-1.081073284E-1,8.952546120E-1,5.452013016E-2
1.375086095E0,-4.072237015E-2,6.655435562E-1,3.593611717E-1
1.383081453E0,1.710557938E-1,5.462317467E-1,5.836753845E-1
1.391079198E0,2.179703712E-1,5.431675911E-1,5.862040520E-1
1.399072479E0,7.240867615E-2,5.854520798E-1,4.498195648E-1
1.407067839E0,8.061313629E-2,5.038838387E-1,4.179534912E-1
1.415064659E0,2.673158646E-1,3.783917427E-1,3.865776062E-1
1.423090173E0,5.112307072E-1,3.134813309E-1,3.297166824E-1
1.431087762E0,7.260689735E-1,2.571825981E-1,3.268728256E-1
1.439080891E0,9.267549515E-1,1.622953415E-1,2.975702286E-1
1.447076865E0,1.012124300E0,1.317300797E-1,2.811822891E-1
1.455072301E0,9.911491871E-1,5.694580078E-2,3.020253181E-1
1.463068276E0,8.576946259E-1,-7.456922531E-2,3.267269135E-1
1.471065404E0,7.219753265E-1,-2.176814079E-1,3.573741913E-1
1.479090302E0,5.824134350E-1,-3.799591064E-1,4.859442711E-1
1.487085123E0,5.421798229E-1,-5.183029175E-1,6.344304085E-1
1.495080405E0,5.998146534E-1,-5.899915695E-1,6.705975533E-1
1.503076072E0,5.875999928E-1,-6.218075752E-1,6.385998726E-1
1.511073047E0,5.758154392E-1,-6.955070496E-1,6.415925026E-1
1.527063073E0,6.645865440E-1,-7.649335861E-1,4.922108650E-1
1.535089508E0,8.052031994E-1,-7.868275642E-1,4.616670609E-1
1.543085176E0,8.569247723E-1,-8.484458923E-1,4.246940613E-1
1.551082150E0,7.981984615E-1,-8.726744652E-1,2.189402580E-1
1.559075355E0,7.278823853E-1,-8.664789200E-1,8.444786072E-2
1.567071560E0,7.222635746E-1,-8.898620605E-1,3.524684906E-2
1.575067227E0,7.604320049E-1,-8.702874184E-1,-2.963542938E-2
1.583062895E0,7.405290604E-1,-8.238344193E-1,-1.055498123E-1
1.591091561E0,7.245497704E-1,-7.669520378E-1,-1.755614281E-1
1.599084689E0,6.773400307E-1,-6.564264297E-1,-3.156628609E-1
1.607080049E0,5.837750435E-1,-6.100621223E-1,-3.552861214E-1
1.615075485E0,6.075050831E-1,-5.804467201E-1,-4.044651985E-1
1.623071767E0,6.028134823E-1,-5.175838470E-1,-4.273204803E-1
1.631068665E0,5.720949173E-1,-4.410500526E-1,-4.457669258E-1
1.639062793E0,4.922952652E-1,-3.466310501E-1,-4.765625000E-1
1.647088537E0,3.844962120E-1,-2.192039490E-1,-5.488762856E-1
1.655083665E0,2.989604473E-1,-1.357674599E-1,-5.419282913E-1
1.663079948E0,2.626972198E-1,-8.337116241E-2,-5.516095161E-1
1.671077460E0,1.942036152E-1,7.513999939E-3,-5.970931053E-1
1.679071281E0,1.577348709E-1,1.298427582E-2,-6.469335556E-1
1.687066332E0,1.417624950E-1,1.946258545E-2,-7.270126343E-1
1.695062000E0,1.583285332E-1,6.072473526E-2,-7.412834167E-1
1.703088051E0,9.926891327E-2,5.314111710E-2,-7.305226326E-1
1.711085564E0,-4.685091972E-2,6.127166748E-2,-6.849226952E-1
1.719079384E0,-1.489524841E-1,3.754138947E-2,-5.781717300E-1
1.727074205E0,-2.508714199E-1,3.426170349E-2,-4.972333908E-1
1.735070795E0,-3.468570709E-1,3.786563873E-3,-3.948149681E-1
1.743066077E0,-4.543681145E-1,-1.368665695E-2,-2.335314751E-1
1.751063360E0,-5.945389271E-1,-3.248691559E-2,-1.376128197E-1
1.759087027E0,-7.230002880E-1,-9.385108948E-2,3.290176392E-3
1.767083617E0,-7.764813900E-1,-2.128415108E-1,1.579608917E-1
1.775079283E0,-7.664074898E-1,-3.295817375E-1,1.912331581E-1
1.783073951E0,-7.578666210E-1,-4.290394783E-1,2.696328163E-1
1.791071155E0,-7.343204021E-1,-4.650921822E-1,2.571725845E-1
1.799065361E0,-7.192661762E-1,-4.827752113E-1,2.263979912E-1
1.807060951E0,-7.091922760E-1,-4.079957008E-1,1.826543808E-1
1.815088002E0,-6.533150673E-1,-3.221879005E-1,1.741023064E-1
1.823083053E0,-5.994074345E-1,-2.111301422E-1,1.647534370E-1
1.831079952E0,-5.576741695E-1,-1.296720505E-1,1.472535133E-1
1.839073233E0,-5.145623684E-1,-5.385971069E-2,1.402420998E-1
1.847069824E0,-5.112190247E-1,-3.638648987E-2,1.362166405E-1
1.855065182E0,-4.521846771E-1,2.566385269E-2,1.085948944E-1
1.863060234E0,-3.639392853E-1,1.204428673E-1,6.697702408E-2
1.871088208E0,-2.588305473E-1,1.860337257E-1,-1.727485657E-2
1.879082029E0,-1.790218353E-1,3.184599876E-1,-1.385097504E-1
1.887078542E0,-1.185340881E-1,4.577302933E-1,-2.338380814E-1
1.895073363E0,-5.024385452E-2,5.083160400E-1,-3.240485191E-1
1.903068953E0,6.264543533E-2,5.625057220E-1,-4.303326607E-1
1.911066543E0,1.891589165E-1,6.193013191E-1,-5.120434761E-1
1.919060287E0,2.531390190E-1,6.285834312E-1,-5.926713943E-1
1.927086107E0,2.964799404E-1,6.381759644E-1,-6.978373528E-1
1.935081852E0,2.961194515E-1,6.908516884E-1,-8.081459999E-1
1.943077210E0,3.162829876E-1,7.793641090E-1,-8.736538887E-1
1.951075262E0,3.338820934E-1,8.035182953E-1,-8.782291412E-1
1.959068159E0,3.334553242E-1,7.755136490E-1,-9.300770760E-1
1.967064519E0,3.022215366E-1,7.577033043E-1,-1.022407055E0
1.975059877E0,2.620956898E-1,7.451915741E-1,-1.023364544E0
1.983085929E0,1.780204773E-1,6.852436066E-1,-9.395866394E-1
1.991084057E0,2.113246918E-2,5.893273354E-1,-8.251428604E-1
1.999077263E0,-1.696605682E-1,4.205827713E-1,-5.880737305E-1
2.007072622E0,-3.581383228E-1,2.090249062E-1,-3.594799042E-1
2.015068289E0,-5.414898396E-1,9.036064148E-4,-6.267786026E-2
2.023063726E0,-6.743900776E-1,-1.505985260E-1,2.562680244E-1
2.031060853E0,-7.403562069E-1,-3.549585342E-1,5.522255898E-1
2.039085520E0,-7.782936096E-1,-4.981727600E-1,6.275196075E-1
2.047081802E0,-7.912588120E-1,-6.362447739E-1,8.177561760E-1
2.055076854E0,-4.449191093E-1,-6.735415459E-1,-9.191455841E-1
2.063072136E0,1.668462753E-1,-1.586480141E0,1.939926147E0
2.071069111E0,-1.187626839E0,-1.589151382E0,2.546203136E0
2.079062931E0,-2.520980835E0,-1.563802242E0,2.482964516E0
2.087059137E0,-2.106349945E0,-1.309466839E0,1.834931374E0
2.095085265E0,-5.506248474E-1,-8.864459991E-1,1.503122330E0
2.103080702E0,4.274749756E-2,-7.038073540E-1,1.108927250E0
2.111076983E0,-2.417044640E-1,-5.307497978E-1,6.251568794E-1
2.119071728E0,-5.582547188E-1,-3.686256409E-1,4.011263847E-1
2.127067702E0,-6.072931290E-1,-3.785257339E-1,2.927079201E-1
2.135062753E0,-3.853397369E-1,-5.018234253E-1,1.789698601E-1
2.143058343E0,-2.668757439E-1,-4.786839485E-1,3.742265701E-2
2.151086933E0,-3.625812531E-1,-2.343692780E-1,-4.797124863E-2
2.159080523E0,-3.599138260E-1,2.687883377E-2,-1.010675430E-1
2.167076113E0,-1.525759697E-1,2.495160103E-1,-2.486162186E-1
2.175071241E0,1.558504105E-1,4.629168510E-1,-4.329047203E-1
2.183066601E0,3.543653488E-1,7.041354179E-1,-6.553492546E-1
2.191064422E0,4.944980145E-1,1.009762764E0,-9.072299004E-1
2.199058165E0,5.715472698E-1,1.207568169E0,-1.071039677E0
2.207084371E0,6.888022423E-1,1.359900475E0,-1.266178608E0
2.215080268E0,7.836356163E-1,1.433688641E0,-1.348808765E0
2.223074704E0,7.980360985E-1,1.443645000E0,-1.436268330E0
2.231072909E0,7.577424049E-1,1.423700333E0,-1.495026588E0
2.239066653E0,7.521142960E-1,1.323868752E0,-1.569743633E0
2.247061781E0,7.623071671E-1,1.208509922E0,-1.595845699E0
2.255088833E0,6.740193367E-1,1.123010635E0,-1.553843021E0
2.263083577E0,5.482008457E-1,1.066764832E0,-1.508240223E0
2.271080705E0,3.709352016E-1,1.006329536E0,-1.274257183E0
2.279074526E0,1.625776291E-1,8.456034660E-1,-9.822850227E-1
2.287070578E0,-2.188329697E-1,5.383696556E-1,-5.975971222E-1
2.295066552E0,-4.691858292E-1,2.294802666E-1,-2.530784607E-1
2.303062142E0,-6.001362801E-1,-7.031440735E-2,7.173490524E-2
2.311089578E0,-6.558780670E-1,-3.376865387E-1,3.609457016E-1
2.319083629E0,-7.274122238E-1,-4.825839996E-1,4.913916588E-1
2.327078450E0,-7.621674538E-1,-6.299090385E-1,5.966100693E-1
2.335074655E0,-7.463726997E-1,-7.651410103E-1,6.811399460E-1
2.343069707E0,-6.122384071E-1,-7.886848450E-1,-2.835831642E-1
2.351066912E0,5.491733551E-3,-1.275415421E0,9.827356339E-1
2.359061426E0,-6.554713249E-1,-1.458634377E0,2.139850140E0
2.367087169E0,-2.200469971E0,-1.224609852E0,2.292612076E0
2.375082605E0,-2.372035503E0,-1.161693096E0,1.599050999E0
2.383078810E0,-1.075086594E0,-7.655897141E-1,1.288648129E0
2.391075093E0,-4.084987640E-1,-5.172076225E-1,1.191464424E0
2.399069298E0,-6.150889397E-1,-4.274115562E-1,9.352264404E-1
2.407065196E0,-9.867286682E-1,-2.121720314E-1,7.829127312E-1
2.415060247E0,-8.676972389E-1,-6.412315369E-2,7.491965294E-1
2.423086991E0,-4.280576706E-1,-1.599931717E-2,5.028219223E-1
2.431084273E0,-1.158757210E-1,4.099941254E-2,2.752428055E-1
2.439078632E0,4.369258881E-3,1.694397926E-1,1.148047447E-1
2.447074068E0,3.448152542E-2,3.313894272E-1,-2.747631073E-2
2.455069658E0,7.424259186E-2,4.716663361E-1,-2.295737267E-1
2.463064709E0,1.935081482E-1,5.931010246E-1,-3.805937767E-1
2.471062530E0,2.458615303E-1,6.775245667E-1,-5.372285843E-1
2.479086812E0,2.221999168E-1,7.658700943E-1,-6.223030090E-1
2.487081864E0,2.082085609E-1,8.088164330E-1,-7.022385597E-1
2.495077608E0,2.487916946E-1,8.929448128E-1,-8.105926514E-1
2.503073505E0,3.116564751E-1,9.418458939E-1,-8.833694458E-1
2.511070480E0,3.358130455E-1,9.536018372E-1,-1.004707813E0
2.519064531E0,4.091758728E-1,9.067435265E-1,-1.005030155E0
2.527060583E0,4.643702507E-1,7.774405479E-1,-1.095160961E0
2.535085480E0,5.693972111E-1,6.515355110E-1,-1.248423100E0
2.543081379E0,6.148817539E-1,5.908894539E-1,-1.301862717E0
2.551079199E0,5.445058346E-1,5.659236908E-1,-1.327352524E0
2.559072789E0,3.858237267E-1,4.926834106E-1,-1.290650368E0
2.567067840E0,2.488107681E-1,4.526085854E-1,-1.155894756E0
2.575063430E0,-1.477718353E-3,3.520159721E-1,-9.383754730E-1
2.583059712E0,-1.799836159E-1,2.656621933E-1,-6.800866127E-1
2.591087764E0,-3.992962837E-1,7.806253433E-2,-3.320455551E-1
2.599081277E0,-5.328392982E-1,-6.888628006E-2,5.271434784E-2
2.607076944E0,-5.388450623E-1,-2.181429863E-1,3.408579826E-1
2.615071995E0,-4.085407257E-1,-4.377546310E-1,6.271376610E-1
2.623067585E0,-2.509837151E-1,-6.291408539E-1,7.728128433E-1
2.631065483E0,-1.845736504E-1,-6.883101463E-1,4.519171715E-1
2.639059534E0,2.367939949E-1,-9.610905647E-1,6.990146637E-1
2.647085355E0,1.576056480E-1,-1.352041245E0,2.080721378E0
2.655080791E0,-1.308941364E0,-1.031163216E0,2.269376278E0
2.663076151E0,-1.940895557E0,-1.032130241E0,1.873705387E0
2.671074279E0,-7.802376747E-1,-6.545295715E-1,1.498773098E0
2.679067715E0,-5.214214325E-3,-3.861708641E-1,1.268179893E0
2.687063458E0,-8.473730087E-2,-2.540140152E-1,8.112740517E-1
2.695058741E0,-4.213204384E-1,-1.536545753E-1,6.229586601E-1
2.703084330E0,-4.138507843E-1,-8.894538879E-2,6.939773560E-1
2.711081229E0,-1.350684166E-1,-1.673917770E-1,6.534819603E-1
2.719076279E0,6.871938705E-2,-1.625008583E-1,4.977378845E-1
2.727071562E0,1.406583786E-1,-7.578897476E-2,4.107074738E-1
2.735066998E0,9.548902512E-2,2.080774307E-2,3.111433983E-1
2.743062665E0,1.165027618E-1,1.460933685E-1,1.781144142E-1
2.751060101E0,2.306241989E-1,2.426509857E-1,1.451253891E-2
2.759083845E0,2.967519760E-1,3.211045265E-1,-1.736450195E-1
2.767079742E0,2.781176567E-1,4.303932190E-1,-4.320268631E-1
2.775076025E0,2.361850739E-1,4.989929199E-1,-5.556688309E-1
2.783071154E0,3.102917671E-1,5.673389435E-1,-6.666550636E-1
2.791068897E0,4.159803391E-1,6.307525635E-1,-7.701630592E-1
2.799062180E0,4.374585152E-1,6.488432884E-1,-8.114638329E-1
2.807057846E0,4.227252007E-1,5.618357658E-1,-9.292688370E-1
2.815084205E0,3.909440041E-1,4.825439453E-1,-9.892153740E-1
2.823079872E0,3.490610123E-1,4.444828033E-1,-1.044152737E0
2.831076847E0,3.131384850E-1,4.288802147E-1,-1.130097389E0
2.839070052E0,3.024277687E-1,4.450492859E-1,-1.218505383E0
2.847066565E0,3.261108398E-1,4.925727844E-1,-1.228664398E0
2.855062539E0,3.002843857E-1,4.778175354E-1,-1.187230110E0
2.863057591E0,2.249326706E-1,4.556984901E-1,-1.075187206E0
2.871085334E0,7.230901718E-2,3.448410034E-1,-9.252882004E-1
2.879078540E0,-1.207389832E-1,2.454323769E-1,-6.677899361E-1
2.887074206E0,-2.504334450E-1,8.714103699E-2,-3.724417686E-1
2.895070181E0,-2.472453117E-1,-8.071708679E-2,-1.479225159E-1
2.903065771E0,-2.494025230E-1,-2.158222198E-1,4.849863052E-2
2.911062746E0,-2.449049950E-1,-2.764544487E-1,1.938066483E-1
2.919056875E0,-2.459535599E-1,-3.900456429E-1,3.398990631E-1
2.927083849E0,-2.854070663E-1,-4.685263634E-1,4.675016403E-1
2.935079208E0,-2.617483139E-1,-4.061999321E-1,-4.714560509E-1
2.943074336E0,1.865806580E-1,-8.845033646E-1,1.183088779E0
2.951071850E0,-3.171439171E-1,-8.557891846E-1,1.787488937E0
2.959065362E0,-1.492175579E0,-6.817812920E-1,1.721319675E0
2.967061260E0,-1.630108833E0,-5.853137970E-1,1.229962826E0
2.975056927E0,-7.700791359E-1,-2.146835327E-1,1.132287025E0
2.983083132E0,-1.474828720E-1,-1.472759247E-1,9.871830940E-1
2.991079722E0,-2.134003639E-1,-1.404633522E-1,7.277998924E-1
2.999073851E0,-3.830261230E-1,1.802778244E-2,5.757241249E-1
3.007069209E0,-3.371920586E-1,7.820320129E-2,5.472068787E-1
3.015066107E0,-1.282768250E-1,3.641557693E-2,3.642458916E-1
3.023060774E0,8.271074295E-2,1.886129379E-2,2.706861496E-1
3.031058980E0,1.291112900E-1,7.191991806E-2,1.969614029E-1
3.039081723E0,5.022954941E-2,1.807041168E-1,1.336512566E-1
3.047077621E0,-1.323080063E-2,2.513718605E-1,3.372430801E-2
3.055073595E0,6.644058228E-2,2.915039062E-1,-9.701681137E-2
3.063068647E0,1.213173866E-1,3.355150223E-1,-2.315535545E-1
3.071066160E0,1.084547043E-1,4.054169655E-1,-3.142428398E-1
3.079060288E0,1.097335815E-1,4.797005653E-1,-3.686614037E-1
3.087055417E0,1.442556381E-1,5.250554085E-1,-4.449276924E-1
3.095082468E0,2.142381668E-1,5.581622124E-1,-5.001721382E-1
3.103077212E0,2.212824821E-1,5.478167534E-1,-5.394439697E-1
3.111074648E0,1.678743362E-1,5.080194473E-1,-5.917892456E-1
3.119068469E0,1.564402580E-1,4.435930252E-1,-5.905170441E-1
3.127064443E0,2.343387604E-1,4.217476845E-1,-6.507506371E-1
3.135059803E0,3.654732704E-1,4.403529167E-1,-7.555885315E-1
3.143054854E0,4.354896545E-1,4.252500534E-1,-8.255352974E-1
3.151083136E0,3.592195511E-1,4.099197388E-1,-8.311562538E-1
3.159077033E0,2.384467125E-1,3.510322571E-1,-7.885508537E-1
3.167072701E0,1.379852295E-1,3.536281586E-1,-6.260704994E-1
3.175068367E0,3.565740585E-2,2.332110405E-1,-4.448566437E-1
3.183064034E0,-1.240625381E-1,5.867433548E-2,-3.224000931E-1
3.191061239E0,-2.976989746E-1,-7.515430450E-2,-1.660318375E-1
3.199085445E0,-3.313851357E-1,-1.430006027E-1,-5.062866211E-2
3.207080496E0,-2.901229858E-1,-1.739621162E-1,4.469585419E-2
3.215076548E0,-2.767004967E-1,-1.753330231E-1,5.289030075E-2
3.223072215E0,-2.381935120E-1,-1.707897186E-1,3.186702728E-2
3.231069343E0,-1.628522873E-1,-1.454248428E-1,-2.993106842E-2
3.239063241E0,-1.132135391E-1,-1.181292534E-1,-4.624700546E-2
3.247058907E0,-1.269168854E-1,-1.125397682E-1,-2.149796486E-1
3.255054882E0,5.067253113E-2,-2.275166512E-1,-4.540200233E-1
3.263080933E0,-6.945133209E-3,-4.564585686E-1,4.315347672E-1
3.271078447E0,-7.263340950E-1,-3.747539520E-1,8.588795662E-1
3.279072036E0,-1.011340141E0,-3.854279518E-1,4.897522926E-1
3.287067396E0,-3.770627975E-1,-1.796579361E-1,2.811784744E-1
3.295063370E0,1.515851021E-1,-1.856803894E-2,1.960163116E-1
3.303058730E0,2.897100449E-1,-1.884651184E-2,1.415886879E-1
3.311086396E0,1.080899239E-1,2.676868439E-2,1.290998459E-1
3.319079602E0,-6.554126740E-2,5.726003647E-2,1.899552345E-1
3.327075883E0,-1.984505653E-1,1.433372498E-2,3.490095139E-1
3.335071243E0,-2.000899315E-1,-8.956336975E-2,4.610610008E-1
3.343067140E0,-1.182456017E-1,-1.412553787E-1,5.107679367E-1
3.351064654E0,-6.308555603E-3,-1.120080948E-1,5.071983337E-1
3.359058782E0,1.227278709E-1,-6.684398651E-2,4.820790291E-1
3.367084680E0,3.209867477E-1,-5.860614777E-2,4.078531265E-1
3.375079347E0,4.038043022E-1,-1.111450195E-1,3.579554558E-1
3.383075629E0,3.127398491E-1,-1.956057549E-1,4.101529121E-1
3.391072834E0,8.786678314E-2,-2.642097473E-1,4.554624557E-1
3.399066962E0,-9.363317490E-2,-2.550597191E-1,4.695720673E-1
3.407061783E0,-2.522139549E-1,-2.663240433E-1,4.659276009E-1
3.415057757E0,-3.586463928E-1,-2.882852554E-1,4.696598053E-1
3.423083886E0,-4.025354385E-1,-3.370575905E-1,3.247056007E-1
3.431080476E0,-3.828811646E-1,-3.260231018E-1,1.382417679E-1
3.439074220E0,-3.482913971E-1,-2.814722061E-1,8.217239380E-2
3.447070194E0,-2.087554932E-1,-2.730245590E-1,1.220550537E-1
3.455066784E0,-1.288695335E-1,-2.769193649E-1,1.097021103E-1
3.463061528E0,-9.500598907E-2,-2.333164215E-1,7.503604889E-2
3.471059118E0,-9.387016296E-2,-1.327219009E-1,1.027464867E-1
3.479083631E0,-1.317253113E-1,-1.576900482E-3,1.311483383E-1
3.487078759E0,-1.701941490E-1,1.172413826E-1,2.275662422E-1
3.495074349E0,-2.746596336E-1,1.642765999E-1,2.889275551E-1
3.503070401E0,-3.882875443E-1,1.991586685E-1,2.498993874E-1
3.511067607E0,-4.444899559E-1,2.191262245E-1,2.845492363E-1
3.519061427E0,-4.294028282E-1,2.259545326E-1,3.200526237E-1
3.527056786E0,-3.462753296E-1,2.102670670E-1,2.314953804E-1
3.535082914E0,-1.876444817E-1,2.876343727E-1,4.848670959E-2
3.543078505E0,3.480434418E-2,3.418884277E-1,-1.629486084E-1
3.551075709E0,2.404675484E-1,2.903146744E-1,-3.412775993E-1
3.559069838E0,4.276280403E-1,2.313518524E-1,-4.665937424E-1
3.567064966E0,4.706325531E-1,2.335925102E-1,-5.053234100E-1
3.575060633E0,4.192833900E-1,2.156400681E-1,-5.535821915E-1
3.583056223E0,2.408103943E-1,1.658487320E-1,-4.997372627E-1
3.591083659E0,1.107497215E-1,5.500888824E-2,-3.359122276E-1
3.599078095E0,5.344772339E-2,-6.195592880E-2,-1.954293251E-1
3.607073455E0,5.722761154E-2,-1.253018379E-1,-2.730226517E-2
3.615069044E0,1.198568344E-1,-1.229796410E-1,-5.397939682E-2
3.623064711E0,1.615128517E-1,-9.083127975E-2,-1.281509399E-1
3.631061608E0,2.021970749E-1,-4.357099533E-2,-1.759223938E-1
3.639056122E0,1.848139763E-1,-2.502870560E-2,-1.672658920E-1
3.647081942E0,1.876444817E-1,-1.141643524E-2,-1.945042610E-1
3.655077532E0,2.343764305E-1,-2.668190002E-2,-1.213798523E-1
3.663072661E0,1.782350540E-1,-7.801008224E-2,-3.701543808E-2
3.671070789E0,1.045842171E-1,-1.057744026E-1,4.098939896E-2
3.679064610E0,7.912635803E-3,-8.864879608E-2,4.485034943E-2
3.687060200E0,-1.240396500E-2,-6.704854965E-2,2.666616440E-2
3.695055329E0,4.253435135E-2,-9.326696396E-2,3.388738632E-2
3.703081457E0,1.091856956E-1,-1.092057228E-1,1.832914352E-2
3.711079508E0,1.893906593E-1,-3.572273254E-2,-2.985668182E-2
3.719072175E0,2.500090599E-1,4.337978363E-2,-5.292654037E-2
3.727068688E0,3.185172081E-1,7.276535034E-2,2.391433716E-2
3.735064047E0,2.384366989E-1,6.559371948E-3,1.056370735E-1
3.743059791E0,1.840119362E-1,-2.419281006E-2,1.211252213E-1
3.751056919E0,1.416268349E-1,-1.496791840E-2,1.376829147E-1
3.759081279E0,7.754850388E-2,-3.753805161E-2,1.647768021E-1
3.767077176E0,4.155206680E-2,-1.300201416E-1,1.902570724E-1
3.775072305E0,1.140356064E-2,-1.391811371E-1,1.585659981E-1
3.783068279E0,6.566047668E-4,-9.340190887E-2,6.947088242E-2
3.791064869E0,2.316236496E-2,-7.868432999E-2,4.010629654E-2
3.799058998E0,9.085655212E-3,-9.743976593E-2,7.016563416E-2
3.807054280E0,-4.131984711E-2,-8.044052124E-2,7.822990417E-2
3.815080485E0,-2.046394348E-2,-6.356096268E-2,1.001462936E-1
3.823076382E0,-1.460504532E-2,-5.885791779E-2,1.190237999E-1
3.831073281E0,-2.651309967E-2,-1.536846161E-3,2.089662552E-1
3.839067485E0,-6.595277786E-2,4.119634628E-2,2.427940369E-1
3.847063460E0,-5.372524261E-2,5.985450745E-2,2.446713448E-1
3.855058742E0,-3.471422195E-2,5.663776398E-2,1.645684242E-1
3.863054179E0,-5.340576172E-3,9.948253632E-3,1.181902885E-1
3.871082460E0,-2.255678177E-2,-3.690767288E-2,5.820751190E-2
3.879076282E0,-5.557203293E-2,7.271766663E-3,-1.061344147E-2
3.887071025E0,-7.857656479E-2,4.676580429E-2,4.774570465E-3
3.895067538E0,-5.649185181E-2,8.656597137E-2,-6.145000458E-3
3.903062051E0,-3.314113617E-2,9.086799622E-2,-6.780624390E-4
3.911059487E0,-3.013134003E-2,1.219696999E-1,-4.824638367E-2
3.919053924E0,2.211809158E-2,1.463799477E-1,-3.140163422E-2
3.927080129E0,9.773635864E-2,1.231474876E-1,-1.230573654E-2
3.935075718E0,9.888172150E-2,1.026258469E-1,9.330272675E-3
3.943070847E0,5.724859238E-2,1.179785728E-1,7.426214218E-2
3.951068591E0,-3.831815720E-2,1.303658485E-1,5.564308167E-2
3.959062796E0,-5.639886856E-2,1.709785461E-1,1.799440384E-2
3.967057463E0,-5.474233627E-2,1.584277153E-1,-1.970958710E-2
3.975053514E0,1.194858551E-2,1.650795937E-1,-1.049752235E-1
3.983079643E0,5.466794968E-2,2.318162918E-1,-1.756644249E-1
3.991077079E0,4.696512222E-2,2.796778679E-1,-2.342066765E-1
3.999071284E0,5.178213120E-2,3.063464165E-1,-3.375229836E-1
4.007066643E0,1.427211761E-1,3.387451172E-1,-3.633742332E-1
4.015062233E0,2.185583115E-1,3.338794708E-1,-4.102749825E-1
4.023057592E0,2.957086563E-1,3.589639664E-1,-4.280061722E-1
4.031054490E0,3.262801170E-1,3.996720314E-1,-4.380874634E-1
4.039078849E0,3.320527077E-1,4.320783615E-1,-5.049853325E-1
4.047074516E0,3.234949112E-1,4.798641205E-1,-5.325789452E-1
4.055070106E0,2.844543457E-1,4.756455421E-1,-5.016407967E-1
4.063065465E0,2.081232071E-1,4.958148003E-1,-5.078988075E-1
4.071062439E0,1.777186394E-1,5.141587257E-1,-5.372605324E-1
4.079056568E0,1.733927727E-1,5.452141762E-1,-6.019878387E-1
4.087052851E0,1.847934723E-1,5.583314896E-1,-6.542530060E-1
4.095078902E0,2.019653320E-1,5.394234657E-1,-6.389660835E-1
4.103074954E0,2.250399590E-1,5.506830215E-1,-6.542410851E-1
4.111071851E0,2.543759346E-1,5.777492523E-1,-7.237658501E-1
4.119065672E0,3.021411896E-1,5.921902657E-1,-8.135919571E-1
4.127060723E0,3.565025330E-1,6.015248299E-1,-8.370947838E-1
4.135056621E0,4.245483875E-1,6.442294121E-1,-9.066710472E-1
4.143052903E0,4.749715328E-1,6.774902344E-1,-9.646711349E-1
4.151079955E0,5.553753376E-1,7.277345657E-1,-1.085371017E0
4.159074390E0,6.368427277E-1,8.028135300E-1,-1.251420498E0
4.167069442E0,9.578859806E-1,8.704748154E-1,-2.594530344E0
4.175064801E0,1.615820408E0,5.221762657E-1,-1.553237438E0
4.183060160E0,1.246161699E0,5.986204147E-1,-1.086831093E0
4.191057673E0,2.407977581E-1,5.650515556E-1,-7.839994431E-1
4.199082263E0,-2.657799721E-1,5.274310112E-1,-8.049044609E-1
4.207077930E0,-2.633810043E-3,5.092887878E-1,-7.028832436E-1
4.215073982E0,3.590414524E-1,4.080338478E-1,-5.753560066E-1
4.223068725E0,2.684900761E-1,1.877975464E-1,-5.147771835E-1
4.231066469E0,-2.331852913E-1,-2.191839218E-1,-3.932490349E-1
4.239059444E0,-6.946675777E-1,-6.713719368E-1,-1.767759323E-1
4.247055726E0,-1.058760881E0,-9.931735992E-1,2.074112892E-1
4.255051009E0,-1.279227257E0,-1.212875843E0,5.635809898E-1
4.263077136E0,-1.470135927E0,-1.208004475E0,5.122413635E-1
4.271075265E0,-1.103366613E0,-2.035580158E0,2.094408989E0
4.279068470E0,-2.239255190E0,-3.408990860E0,5.190988064E0
4.287063907E0,-4.471155167E0,-2.573945522E0,3.760886192E0
4.295059804E0,-3.564085245E0,-8.051161766E-1,2.803835869E0
4.303054856E0,-1.141441822E0,1.452302933E-2,2.017861843E0
4.311082599E0,7.969686985E-1,9.796571732E-2,1.723500252E0
4.319077035E0,1.051864624E0,3.859901428E-2,1.554713726E0
4.327072086E0,5.019299984E-1,2.243442535E-1,1.289500237E0
4.335068677E0,2.975063324E-1,5.344920158E-1,8.745293617E-1
4.343063420E0,5.528926849E-1,5.908846855E-1,7.181372643E-1
4.351060318E0,9.771149158E-1,3.385982513E-1,4.830212593E-1
4.359054985E0,1.048582792E0,1.146922112E-1,2.572822571E-1
4.367080806E0,9.283108711E-1,1.201772690E-1,-4.740257263E-1
4.375077164E0,9.401981831E-1,3.342919350E-1,-5.608735085E-1
4.383072524E0,4.034712315E-1,2.979984283E-1,5.564117432E-2
4.391069730E0,-2.051737309E-1,3.435516357E-2,3.196187019E-1
4.399063242E0,-2.836551666E-1,-2.232680321E-1,2.825007439E-1
4.407058910E0,-2.134106159E-1,-5.817437172E-1,4.251146317E-1
4.415054807E0,-1.492073536E-1,-8.116397858E-1,4.497857094E-1
4.423080628E0,-1.043272018E-1,-8.911185265E-1,4.243068695E-1
4.431076986E0,2.850556374E-2,-7.875556946E-1,4.240159988E-1
4.439071346E0,8.681797981E-2,-6.728014946E-1,4.433946609E-1
4.447067012E0,-2.367925644E-2,-6.446237564E-1,4.344077110E-1
4.455062449E0,-1.584827900E-1,-6.291666031E-1,3.924241066E-1
4.463058423E0,-2.405436039E-1,-5.662736893E-1,2.965097427E-1
4.471055013E0,-2.537472248E-1,-4.386520386E-1,2.378106117E-1
4.479080526E0,-2.878711224E-1,-3.538308144E-1,1.822791100E-1
4.487075809E0,-3.756120205E-1,-3.385047913E-1,2.099165916E-1
4.495070936E0,-4.253306389E-1,-3.165321350E-1,2.544536591E-1
4.503066527E0,-5.186848640E-1,-3.075113297E-1,2.793354988E-1
4.511063809E0,-5.616712570E-1,-2.639641762E-1,2.510294914E-1
4.519057937E0,-5.150840282E-1,-2.314081192E-1,2.993936539E-1
4.527054451E0,-3.968153000E-1,-1.982865334E-1,2.404828072E-1
4.535080040E0,-2.711288929E-1,-1.857509613E-1,2.665119171E-1
4.543075708E0,-1.548960209E-1,-9.982442856E-2,1.913094521E-1
4.551072605E0,-9.552526474E-2,-4.795360565E-2,1.423931122E-1
4.559066426E0,-4.706287384E-2,8.518075943E-2,1.204652786E-1
4.567062631E0,-2.139520645E-2,2.281341553E-1,5.893135071E-2
4.575057760E0,-9.502029419E-2,2.711563110E-1,5.161905289E-2
4.583053426E0,-1.889262199E-1,2.523798943E-1,1.031322479E-1
4.591081632E0,-3.082098961E-1,2.526822090E-1,1.792211533E-1
4.599075221E0,-3.884134293E-1,2.260150909E-1,2.145709991E-1
4.607070888E0,-4.510855675E-1,2.388052940E-1,1.798543930E-1
4.615066555E0,-3.578157425E-1,2.193479538E-1,1.012578011E-1
4.623062145E0,-1.916503906E-1,2.091169357E-1,1.077876091E-1
4.631058504E0,-1.064968109E-1,1.846685410E-1,7.739305496E-2
4.639052940E0,-5.567646027E-2,1.966753006E-1,-6.300306320E-2
4.647079068E0,-9.558677673E-3,1.998777390E-1,-1.306581497E-1
4.655074120E0,1.155519485E-2,1.871051788E-1,-2.827901840E-1
4.663069710E0,4.362821579E-2,1.131291389E-1,-2.749209404E-1
4.671066992E0,2.543401718E-2,5.940389633E-2,-2.180299759E-1
4.679061044E0,-5.096483231E-2,7.114601135E-2,-1.655488014E-1
4.687057403E0,-8.062458038E-2,8.361005783E-2,-1.705102921E-1
4.695052147E0,-8.229923248E-2,5.837965012E-2,-1.537637711E-1
4.703078583E0,-6.778764725E-2,4.778718948E-2,-1.059432030E-1
4.711075173E0,-1.036839485E-1,1.788377762E-2,-4.632520676E-2
4.719069916E0,-1.034216881E-1,1.152038574E-2,-8.408069611E-3
4.727065199E0,-1.409282684E-1,1.651859283E-2,3.414821625E-2
4.735060635E0,-2.061672211E-1,2.584838867E-2,-4.409313202E-3
4.743056302E0,-2.295837402E-1,2.343177795E-2,-1.185808182E-1
4.751053430E0,-1.045823097E-1,1.031594276E-1,-2.248420715E-1
4.759078020E0,1.022148132E-1,1.194829941E-1,-2.689595222E-1
4.767073763E0,2.662601471E-1,9.188222885E-2,-3.273024559E-1
4.775070046E0,3.598399162E-1,1.116466522E-1,-3.893718719E-1
4.783064482E0,3.677654266E-1,1.449379921E-1,-4.209399223E-1
4.791061380E0,3.272404671E-1,2.267985344E-1,-4.722361565E-1
4.799056355E0,3.031635284E-1,2.564182281E-1,-4.762845039E-1
4.807051483E0,2.730011940E-1,2.763276100E-1,-4.509840012E-1
4.815077303E0,2.332229614E-1,2.887816429E-1,-3.828282356E-1
4.823073201E0,1.728014946E-1,3.463697433E-1,-3.542351723E-1
4.831069868E0,6.057024002E-2,4.390807152E-1,-3.632321358E-1
4.839064842E0,2.594232559E-2,5.551805496E-1,-4.286756516E-1
4.847059971E0,8.050775528E-2,6.404757500E-1,-5.476493835E-1
4.855055945E0,2.380313873E-1,7.989759445E-1,-7.555289268E-1
4.863050920E0,5.437138081E-1,9.604082108E-1,-9.769268036E-1
4.871077971E0,9.619512558E-1,1.024919987E0,-1.072170734E0
4.879073100E0,1.181092978E0,9.516086578E-1,-1.157461643E0
4.887068382E0,1.208745241E0,9.007310867E-1,-1.290958405E0
4.895063818E0,1.181024313E0,9.347953796E-1,-1.255611897E0
4.903059715E0,1.121363401E0,9.768147469E-1,-1.310613155E0
4.911056306E0,8.918385506E-1,9.572219849E-1,-1.160097599E0
4.919050818E0,6.358115673E-1,8.681302071E-1,-1.026666641E0
4.927076639E0,3.833122253E-1,7.502036095E-1,-8.192663193E-1
4.935072613E0,1.789231300E-1,6.491022110E-1,-6.596469879E-1
4.943067665E0,1.618394852E-1,5.646891594E-1,-5.780315399E-1
4.951065409E0,2.761144638E-1,5.263037682E-1,-5.935602188E-1
4.959058691E0,3.461756706E-1,5.266513824E-1,-6.524991989E-1
4.967054897E0,4.313030243E-1,4.983797073E-1,-7.570271492E-1
4.975050333E0,4.977629185E-1,4.746356010E-1,-7.847013474E-1
4.983076692E0,5.701997280E-1,3.900871277E-1,-7.341156006E-1
4.991072974E0,5.305154324E-1,2.728943825E-1,-6.311025620E-1
4.999067103E0,3.975203037E-1,2.135324478E-1,-5.410084724E-1
5.007063692E0,2.700734138E-1,1.735200882E-1,-4.579167366E-1
5.015059129E0,1.838345528E-1,1.172733307E-1,-3.305368423E-1
5.023054103E0,5.974721909E-2,1.285796165E-1,-3.064889908E-1
5.031051078E0,-3.058910370E-3,2.077775002E-1,-3.408527374E-1
5.039075975E0,8.623981476E-2,2.930874825E-1,-6.917920113E-1
5.047072181E0,4.294764996E-1,1.016726494E-1,-1.003512383E0
5.055066616E0,7.164242268E-1,4.383373260E-2,-2.607698441E-1
5.063062591E0,3.342688084E-1,1.987209320E-1,2.749257088E-1
5.071060104E0,-4.758739471E-1,5.482864380E-2,3.761596680E-1
5.079054540E0,-8.751502037E-1,-2.638773918E-1,3.072638512E-1
5.087049977E0,-5.993757248E-1,-4.446401596E-1,3.846211433E-1
5.095075720E0,-2.250044346E-1,-4.904756546E-1,3.698463440E-1
5.103071694E0,-1.213941574E-1,-4.907860756E-1,4.087491035E-1
5.111068054E0,-2.835299969E-1,-4.669466019E-1,4.002161026E-1
5.119062490E0,-3.921940327E-1,-4.990549088E-1,3.809647560E-1
5.127057849E0,-4.131045341E-1,-5.561132431E-1,3.991785049E-1
5.135053209E0,-4.287765026E-1,-5.371909142E-1,3.396382332E-1
5.143049183E0,-4.041519165E-1,-5.141024590E-1,3.717961311E-1
5.151076773E0,-2.547352314E-1,-4.952735901E-1,3.380155563E-2
5.159070978E0,-1.918313503E-1,-1.540266991E0,1.710522175E0
5.167065953E0,-1.331576109E0,-2.029755592E0,2.464584827E0
5.175061927E0,-2.156323910E0,-8.568191528E-1,1.927283287E0
5.183057363E0,-1.325139999E0,-7.668972015E-2,1.327553749E0
5.191053876E0,-2.425642014E-1,-3.591737747E-1,1.225069046E0
5.199048389E0,1.745076180E-1,-8.532800674E-1,1.357111931E0
5.207075363E0,-1.895048618E-1,-8.824701309E-1,1.280647755E0
5.215070185E0,-6.688694954E-1,-5.337896347E-1,1.222837925E0
5.223065543E0,-6.670429707E-1,-3.898077011E-1,1.079190731E0
5.231062441E0,-4.204301834E-1,-4.309606552E-1,9.999413490E-1
5.239057186E0,-1.954150200E-1,-4.336743355E-1,9.172325134E-1
5.247052467E0,-9.473061562E-2,-3.680834770E-1,8.238215446E-1
5.255048519E0,-1.312930584E-1,-3.341789246E-1,7.389154434E-1
5.263074262E0,-1.618030071E-1,-3.440899849E-1,6.142115593E-1
5.271070622E0,-1.697976589E-1,-2.875413895E-1,4.377045631E-1
5.279065904E0,-7.229518890E-2,-2.897496223E-1,3.995637894E-1
5.287061033E0,-9.013128281E-2,-3.742079735E-1,3.371300697E-1
5.295056314E0,-2.206370831E-1,-4.209728241E-1,2.939410210E-1
5.303052289E0,-1.952090263E-1,-3.655972481E-1,2.892270088E-1
5.311080033E0,-1.051583290E-1,-3.419580460E-1,2.847032547E-1
5.319073854E0,-1.784110069E-2,-3.257961273E-1,1.847662926E-1
5.327069443E0,1.261353493E-2,-2.904005051E-1,1.436886787E-1
5.335064880E0,-4.261684418E-2,-2.746596336E-1,1.431689262E-1
5.343060546E0,-7.869577408E-2,-2.309398651E-1,1.602072716E-1
5.351058060E0,-9.247946739E-2,-2.071580887E-1,2.263784409E-1
5.359051187E0,-1.272530556E-1,-2.298722267E-1,3.173823357E-1
5.367078009E0,-2.192955017E-1,-2.225179672E-1,2.821059227E-1
5.375073367E0,-2.878115177E-1,-1.731009483E-1,2.830066681E-1
5.383069035E0,-3.120503426E-1,-1.487736702E-1,2.931323051E-1
5.391065855E0,-3.073332310E-1,-1.157546043E-1,2.140073776E-1
5.399060599E0,-2.288019657E-1,-7.624006271E-2,1.914916039E-1
5.407056036E0,-1.466822624E-1,-5.112981796E-2,1.252164841E-1
5.415051394E0,-1.163401604E-1,2.227544785E-2,-1.566648483E-2
5.423076908E0,-3.921794891E-2,5.816364288E-2,-1.132011414E-1
5.431074420E0,6.119346619E-2,3.773307800E-2,-1.643424034E-1
5.439068164E0,1.106553078E-1,2.817106247E-2,-1.833367348E-1
5.447063523E0,1.094717979E-1,6.788444519E-2,-2.130036354E-1
5.455059883E0,1.442899704E-1,1.360373497E-1,-3.672575951E-1
5.463055241E0,3.295500278E-1,2.762966156E-1,-4.662880898E-1
5.471052678E0,4.827077389E-1,2.654738426E-1,-5.278019905E-1
5.479076960E0,5.149846077E-1,1.661210060E-1,-5.061435699E-1
5.487072935E0,4.487035275E-1,1.496353149E-1,-4.377465248E-1
5.495067986E0,3.492987156E-1,1.671566963E-1,-3.973112106E-1
5.503064038E0,2.601222992E-1,1.631937027E-1,-3.803157806E-1
5.511060319E0,2.212510109E-1,9.961462021E-2,-3.247375488E-1
5.519054371E0,1.789231300E-1,1.006636620E-1,-2.195787430E-1
5.527049808E0,1.255440712E-1,1.273550987E-1,-9.452629089E-2
5.535076782E0,3.018236160E-2,2.033629417E-1,-1.508321762E-1
5.543072448E0,-7.283115387E-2,3.072080612E-1,-2.250838280E-1
5.551069038E0,-5.930280685E-2,3.843297958E-1,-2.283825874E-1
5.559062860E0,1.159667969E-3,4.687051773E-1,-3.231835365E-1
5.567058526E0,1.514830589E-1,5.972580910E-1,-4.463410378E-1
5.575054578E0,3.560278416E-1,7.445192337E-1,-5.513291359E-1
5.583050167E0,5.963425636E-1,7.286911011E-1,-5.441665649E-1
5.591076988E0,6.850228310E-1,6.546788216E-1,-6.228909492E-1
5.599071655E0,6.493072510E-1,6.756348610E-1,-6.074309349E-1
5.607067938E0,5.106308460E-1,6.715421677E-1,-5.340738297E-1
5.615063373E0,3.518874645E-1,6.035332680E-1,-4.159259796E-1
5.623059348E0,1.858668327E-1,5.338997841E-1,-2.994551659E-1
5.631055553E0,1.011128426E-1,5.083446503E-1,-2.794184685E-1
5.639049374E0,6.308364868E-2,5.392360687E-1,-2.818708420E-1
5.647075579E0,1.168355942E-1,5.883040428E-1,-3.405799866E-1
5.655070862E0,1.412806511E-1,6.696467400E-1,-4.192261696E-1
5.663066836E0,1.951756477E-1,6.995763779E-1,-5.168380737E-1
5.671064118E0,1.914205551E-1,7.285413742E-1,-5.891723633E-1
5.679058554E0,2.405581474E-1,7.552108765E-1,-1.276521206E0
5.687054144E0,6.662945747E-1,6.689739227E-1,-1.737798214E0
5.695049273E0,9.054439068E-1,3.458151817E-1,-7.533664703E-1
5.703075709E0,7.180643082E-2,3.401484489E-1,-1.360278130E-1
5.711072222E0,-6.383614540E-1,2.496452332E-1,-8.682250977E-3
5.719066735E0,-8.211474419E-1,2.561111450E-1,-7.617712021E-2
5.727061479E0,-4.785254002E-1,3.491826057E-1,-1.490526199E-1
5.735057376E0,2.880048752E-2,4.309248924E-1,-2.358875275E-1
5.743053659E0,2.148201466E-1,3.974633217E-1,-3.893394470E-1
5.751049402E0,3.309586048E-1,4.555110931E-1,-4.840016365E-1
5.759074915E0,3.220469952E-1,5.231904984E-1,-5.882863998E-1
5.767070505E0,2.988920212E-1,5.403904915E-1,-6.373505592E-1
5.775065941E0,3.302137852E-1,4.833655357E-1,-6.122364998E-1
5.783061838E0,3.911042213E-1,5.123867989E-1,-5.136532784E-1
5.791058121E0,3.635187149E-1,5.984354019E-1,-4.428691864E-1
5.799052634E0,3.507184982E-1,6.019244194E-1,-3.668966293E-1
5.807048839E0,3.360314369E-1,4.568820000E-1,-1.386590004E-1
5.815074737E0,1.756801605E-1,1.887707710E-1,-6.086397171E-2
5.823070096E0,-5.976581573E-2,-1.176300049E-1,1.888346672E-1
5.831066070E0,-2.707006931E-1,-3.985629082E-1,3.277735710E-1
5.839061122E0,-1.467180252E-1,-1.100887299E0,1.160631180E-1
5.847057097E0,-4.447867870E-1,-2.687303543E0,3.637277603E0
5.855052379E0,-2.450369596E0,-2.863933086E0,3.622788429E0
5.863048354E0,-3.353420973E0,-1.662522793E0,2.534646034E0
5.871075482E0,-2.063005209E0,-5.119690895E-1,1.243627071E0
5.879069918E0,-2.983734608E-1,-1.491031647E-1,1.134729862E0
5.887064892E0,6.800048351E-1,5.226182938E-2,1.083703518E0
5.895060637E0,4.674305916E-1,1.075406075E-1,9.968113899E-1
5.903056534E0,1.867856979E-1,3.684759140E-2,9.654021263E-1
5.911052893E0,1.226196289E-1,-1.594800949E-1,9.673838615E-1
5.919047944E0,3.852708340E-1,-3.234400749E-1,7.861762047E-1
5.927073458E0,7.295949459E-1,-3.448734283E-1,6.640195847E-1
5.935069355E0,8.930859566E-1,-2.676253319E-1,5.644736290E-1
5.943064791E0,6.944794655E-1,-2.225804329E-1,5.328817368E-1
5.951061688E0,5.472605228E-1,1.706600189E-1,1.264328957E-1
5.959056048E0,4.836356640E-1,5.926804543E-1,-3.467512131E-2
5.967051485E0,1.329321861E-1,2.133235931E-1,4.312000275E-1
5.975047689E0,-3.735499382E-1,-4.542818069E-1,6.705965996E-1
5.983073279E0,-8.535315990E-1,-8.624892235E-1,7.219429016E-1
5.991069792E0,-8.533790112E-1,-7.135548592E-1,7.039480209E-1
5.999064921E0,-4.806830883E-1,-4.869313240E-1,5.690550804E-1
6.007059895E0,-3.755211830E-2,-3.423767090E-1,3.536486626E-1
6.015055024E0,2.023797035E-1,-3.244347572E-1,1.484084129E-1
6.023050614E0,2.959723473E-1,-2.674045563E-1,-8.334016800E-2
6.031048127E0,2.244400978E-1,-1.614403725E-1,-9.065008163E-2
6.039072409E0,1.902167797E-1,-1.482973099E-1,-1.693105698E-2
6.047068768E0,7.365036011E-2,-2.018322945E-1,-1.233277321E-1
6.055064050E0,-1.497583389E-1,-2.336392403E-1,-2.211999893E-1
6.063060333E0,-3.743042946E-1,-3.065376282E-1,-1.423807144E-1
6.071056307E0,-4.223890305E-1,-3.588986397E-1,2.599525452E-2
6.079051128E0,-2.886991501E-1,-3.785519600E-1,1.713323593E-1
6.087046102E0,-1.088619232E-1,-3.382573128E-1,1.675977707E-1
6.095072539E0,-1.708245277E-2,-2.301645279E-1,8.962821960E-2
6.103068205E0,-2.396821976E-3,-1.525373459E-1,-2.199649811E-2
6.111064488E0,4.267692566E-2,-7.699060440E-2,-9.537363052E-2
6.119059539E0,7.368421555E-2,-7.319831848E-2,-9.990978241E-2
6.127054360E0,1.867818832E-2,-7.964038849E-2,-3.019857407E-2
6.135050950E0,-1.237201691E-1,-5.594491959E-2,-6.793069839E-2
6.143046001E0,-3.229389191E-1,-3.851938248E-2,-1.522159576E-2
6.151073976E0,-4.005949497E-1,-3.702735901E-2,-1.891279221E-2
6.159068027E0,-4.045937061E-1,-9.837627411E-3,-7.950067520E-2
6.167063079E0,-3.158085346E-1,4.334545135E-2,-3.058195114E-2
6.175058822E0,-2.382924557E-1,7.755327225E-2,-1.045470238E-1
6.183053566E0,-2.144987583E-1,1.670732498E-1,-1.979885101E-1
6.191051617E0,-1.504068375E-1,2.163600922E-1,-2.552127838E-1
6.199075592E0,-7.662582397E-2,2.398452759E-1,-3.165397644E-1
6.207071028E0,3.739356995E-3,2.491827011E-1,-3.348593712E-1
6.215067618E0,4.044985771E-2,2.905001640E-1,-4.387950897E-1
6.223062900E0,4.992675781E-2,3.207893372E-1,-4.321608543E-1
6.231059567E0,3.238201141E-2,3.327665329E-1,-4.681630135E-1
6.239053926E0,6.638574600E-2,4.319300652E-1,-5.229954720E-1
6.247049593E0,9.895467758E-2,4.627852440E-1,-5.344924927E-1
6.255075490E0,1.302523613E-1,4.635224342E-1,-5.002803802E-1
6.263070850E0,1.246900558E-1,4.842934608E-1,-5.016918182E-1
6.271067978E0,9.977674484E-2,4.817867279E-1,-4.498777390E-1
6.279062491E0,3.435993195E-2,5.349216461E-1,-5.027003288E-1
6.287058082E0,-2.362871170E-2,5.452990532E-1,-4.472789764E-1
6.295053517E0,-4.337739944E-2,5.488376617E-1,-3.652105331E-1
6.303049108E0,-3.270626068E-2,6.273808479E-1,-4.767422676E-1
6.311076466E0,1.485967636E-1,7.435026169E-1,-6.140871048E-1
6.319070903E0,4.774930477E-1,8.048219681E-1,-7.844166756E-1
6.327065723E0,7.250976562E-1,7.948417664E-1,-9.078531265E-1
6.335062237E0,8.575351238E-1,7.944955826E-1,-9.212942123E-1
6.343057980E0,7.711048126E-1,8.205294609E-1,-9.912800789E-1
6.351054878E0,5.769062042E-1,8.367104530E-1,-9.427123070E-1
6.359048314E0,4.613068104E-1,7.949295044E-1,-8.334908485E-1
6.367075058E0,3.383300304E-1,6.757583618E-1,-6.676640511E-1
6.375069801E0,2.026796341E-1,5.606164932E-1,-5.093317032E-1
6.383066084E0,1.049809456E-1,4.686975479E-1,-3.095045090E-1
6.391063058E0,5.917692184E-2,3.924345970E-1,-1.885375977E-1
6.399056494E0,5.622243881E-2,3.744592667E-1,-1.656899452E-1
6.407052239E0,1.866354942E-1,4.288511276E-1,-2.447557449E-1
6.415048751E0,2.656528950E-1,4.217081070E-1,-3.069348335E-1
6.423074264E0,3.147447109E-1,4.226508141E-1,-3.960204124E-1
6.431071162E0,6.190159321E-1,5.299854279E-1,-2.347998619E0
6.439065291E0,1.051051378E0,3.979969025E-2,-5.311455727E-1
6.447060418E0,8.094518185E-1,-1.245498657E-2,-1.352715492E-1
6.455056393E0,-1.464688778E-1,-9.990882874E-2,1.861872673E-1
6.463051983E0,-6.627707481E-1,-1.076827049E-1,2.532424927E-1
6.471048650E0,-5.182824135E-1,4.451274872E-2,2.774238586E-1
6.479073163E0,-2.544403076E-2,1.424002647E-1,1.858668327E-1
6.487069753E0,4.022202492E-1,1.887774467E-1,7.711887360E-3
6.495065189E0,6.143116951E-1,2.306413651E-1,-2.000255585E-1
6.503060164E0,6.372983456E-1,3.221664429E-1,-2.475481033E-1
6.511056753E0,4.925491810E-1,3.647346497E-1,-3.254957199E-1
6.519051497E0,3.342549801E-1,3.024849892E-1,-2.569746971E-1
6.527046856E0,2.336959839E-1,2.232146263E-1,-1.246008873E-1
6.535042831E0,6.013560295E-2,1.502032280E-1,-1.834869385E-3
6.543069036E0,-2.543017864E-1,2.034473419E-2,3.559827805E-2
6.551066241E0,-5.322747231E-1,-1.936903000E-1,1.709914207E-1
6.559060292E0,-6.394276619E-1,-4.188413620E-1,3.552513123E-1
6.567055729E0,-6.245048046E-1,-5.991077423E-1,-4.046773911E-2
6.575050704E0,-6.307554245E-1,-1.754649639E0,2.685231686E0
6.583046755E0,-2.096775293E0,-2.605205536E0,3.571691513E0
6.591073422E0,-3.189764261E0,-1.615303993E0,1.944612026E0
6.599068781E0,-2.079323292E0,-4.717140198E-1,8.425621986E-1
6.607064448E0,-5.577158928E-2,2.146086693E-1,5.427565575E-1
6.615059807E0,8.818857670E-1,2.221193314E-1,9.905548096E-1
6.623055551E0,7.030923367E-1,2.039012909E-1,1.170025826E0
6.631052371E0,2.302489281E-1,2.915859222E-1,1.082873821E0
6.639046269E0,1.166403294E-1,2.495989799E-1,7.929735184E-1
6.647072320E0,4.094731808E-1,-3.578376770E-2,7.897291183E-1
6.655068372E0,5.765926838E-1,-2.213845253E-1,7.202773094E-1
6.663064269E0,4.474253654E-1,-2.850203514E-1,6.568012238E-1
6.671060860E0,1.054296494E-1,-2.672915459E-1,4.977273941E-1
6.679055295E0,-2.731964588E-1,-4.423332214E-2,9.250211716E-2
6.687050347E0,-2.979409695E-1,1.588706970E-1,4.594769478E-1
6.695046091E0,-5.202062130E-1,-1.464858055E-1,7.705950737E-1
6.703072527E0,-9.119253159E-1,-5.644054413E-1,8.013467789E-1
6.711068809E0,-9.838750362E-1,-5.991539955E-1,7.822270393E-1
6.719063168E0,-7.135665417E-1,-3.953976631E-1,6.288938522E-1
6.727058913E0,-3.588571548E-1,-2.761926651E-1,4.904336929E-1
6.735054887E0,-3.357195854E-2,-2.027821541E-1,3.776230812E-1
6.743050169E0,1.205091476E-1,-1.703696251E-1,2.676959038E-1
6.751046220E0,1.054801941E-1,-9.522676468E-2,1.427130699E-1
6.759071349E0,-1.786351204E-2,-1.017460823E-1,1.534175873E-2
6.767067400E0,-1.258108616E-1,-1.539731026E-1,1.682472229E-2
6.775062683E0,-1.779220104E-1,-2.209134102E-1,3.046274185E-2
6.783058657E0,-2.038600445E-1,-2.709903717E-1,9.059619904E-2
6.791054093E0,-1.883444786E-1,-2.322449684E-1,7.673740387E-2
6.799049683E0,-9.975862503E-2,-1.401791573E-1,-5.582332611E-3
6.807044735E0,-1.584172249E-2,-1.023950577E-1,-9.797191620E-2
6.815071247E0,1.394751072E-1,-4.449701309E-2,-1.464390755E-1
6.823066838E0,2.167823315E-1,-1.192235947E-2,-1.237258911E-1
6.831063427E0,2.001914978E-1,-2.662611008E-2,-1.159353256E-1
6.839057556E0,1.451380253E-1,-8.895444870E-2,-1.068449020E-2
6.847053915E0,8.189868927E-2,-1.320028305E-1,-3.369188309E-2
6.855049197E0,-4.803657532E-3,-1.199965477E-1,-3.004312515E-2
6.863044557E0,-1.098442078E-2,-1.271939278E-1,2.093696594E-2
6.871072300E0,-8.329939842E-2,-1.729483604E-1,7.078552246E-2
6.879066429E0,-1.260337830E-1,-2.092275620E-1,2.864551544E-2
6.887062095E0,-1.165237427E-1,-1.401782036E-1,-2.570056915E-2
6.895058070E0,-4.923081398E-2,-6.386709213E-2,-8.690547943E-2
6.903053044E0,3.061318398E-2,2.703285217E-2,-1.498780251E-1
6.911050558E0,9.945774078E-2,9.245967865E-2,-2.328901291E-1
6.919044070E0,1.552071571E-1,1.418099403E-1,-2.569403648E-1
6.927070892E0,1.237046719E-1,1.264376640E-1,-2.275500298E-1
6.935066866E0,6.740283966E-2,1.369538307E-1,-1.808772087E-1
6.943061533E0,5.024433136E-3,1.444187164E-1,-1.652770042E-1
6.951058507E0,-6.436800957E-2,1.344838142E-1,-1.070742607E-1
6.959053174E0,-1.390526295E-1,9.751558304E-2,-6.659173965E-2
6.967048225E0,-2.031657696E-1,9.603977203E-2,-6.085920334E-2
6.975043585E0,-2.449066639E-1,1.327815056E-1,-1.135931015E-1
6.983070097E0,-1.684398651E-1,1.843018532E-1,-1.715841293E-1
6.991066995E0,-6.657123566E-2,2.578859329E-1,-2.679014206E-1
6.999061431E0,4.678463936E-2,3.134002686E-1,-4.232692719E-1
7.007056483E0,2.248258591E-1,4.302115440E-1,-5.771679878E-1
7.015052996E0,3.962659836E-1,5.391063690E-1,-7.338523865E-1
7.023048355E0,5.519821644E-1,6.282262802E-1,-8.378806114E-1
7.031045022E0,6.014420986E-1,7.214140892E-1,-8.507742882E-1
7.039069612E0,6.239092350E-1,8.114566803E-1,-9.567565918E-1
7.047065202E0,6.066024303E-1,9.177384377E-1,-9.693522453E-1
7.055060253E0,6.005434990E-1,9.878120422E-1,-9.851274490E-1
7.063055690E0,5.825345516E-1,1.017295361E0,-1.045414925E0
7.071052817E0,6.179289818E-1,1.052378654E0,-1.016503334E0
7.079047869E0,6.315248013E-1,1.057288647E0,-1.047300339E0
7.087043228E0,7.361421585E-1,1.058214188E0,-1.128166676E0
7.095069049E0,8.289952278E-1,1.108316422E0,-1.189049244E0
7.103064408E0,8.873715401E-1,1.097647190E0,-1.274436951E0
7.111061998E0,9.006927013E-1,1.026170731E0,-1.258928776E0
7.119056049E0,8.750858307E-1,9.487714767E-1,-1.237574100E0
7.127051409E0,8.091118336E-1,8.936963081E-1,-1.988306046E0
7.135046845E0,1.108412504E0,6.062431335E-1,-1.827259541E0
7.143042819E0,9.341824055E-1,2.559666634E-1,-9.722843170E-1
7.151069870E0,2.486133575E-1,1.964244843E-1,-5.625267029E-1
7.159064307E0,-5.689110756E-1,3.357028961E-2,-2.381134033E-1
7.167059667E0,-8.494081497E-1,-3.707456589E-2,-2.731580734E-1
7.175055948E0,-5.458354950E-1,2.167224884E-3,-3.066434860E-1
7.183050693E0,-5.025291443E-2,4.912233353E-2,-3.053193092E-1
7.191048205E0,1.042237282E-1,8.522129059E-2,-4.777846336E-1
7.199072103E0,1.442384720E-1,1.292991638E-1,-4.929957390E-1
7.207068154E0,1.244544983E-1,1.613216400E-1,-3.459320068E-1
7.215063821E0,2.914571762E-2,1.752943993E-1,-1.666307449E-1
7.223059488E0,1.119875908E-2,1.015157700E-1,-1.208539009E-1
7.231056693E0,2.102231979E-2,-2.037048340E-3,8.801460266E-3
7.239051360E0,7.549166679E-2,-1.196718216E-1,-4.167571068E-1
7.247045566E0,4.232163429E-1,-9.701123238E-1,7.444958687E-1
7.255042155E0,-7.619144917E-1,-2.684674263E0,4.052556515E0
7.263067668E0,-2.669795752E0,-2.263550282E0,3.046278000E0
7.271065104E0,-2.599762678E0,-1.064152241E0,2.214151859E0
7.279058694E0,-9.194331169E-1,-2.849731445E-1,1.492891788E0
7.287053977E0,9.296488762E-2,-2.330222130E-1,1.665020466E0
7.295049336E0,-1.989688873E-1,-5.655102730E-1,1.912997723E0
7.303045695E0,-1.143988848E0,-8.055133820E-1,1.724990368E0
7.311073593E0,-1.414272547E0,-6.519908905E-1,1.395071507E0
7.319066875E0,-9.998075962E-1,-2.283067703E-1,1.231357098E0
7.327063080E0,-5.405154228E-1,-5.027914047E-2,1.124476433E0
7.335058209E0,-2.540931702E-1,1.578140259E-2,1.023776531E0
7.343054491E0,-2.882592678E-1,3.479862213E-2,9.850673676E-1
7.351051081E0,-2.561450005E-1,7.502508163E-2,8.895349503E-1
7.359045209E0,2.099299431E-2,1.693973541E-1,7.829556465E-1
7.367071645E0,3.242156506E-1,2.563695908E-1,7.297368050E-1
7.375067235E0,5.710678101E-1,1.917881966E-1,5.476198196E-1
7.383062594E0,5.590076447E-1,-3.492355347E-3,4.005479813E-1
7.391059492E0,3.179488182E-1,-2.154135704E-1,3.269715309E-1
7.399053697E0,5.075693130E-2,-2.503027916E-1,3.133087158E-1
7.407048748E0,-4.433274269E-2,-1.828708649E-1,2.988286018E-1
7.415045339E0,4.742717743E-2,-2.689504623E-2,-2.174243927E-1
7.423071159E0,1.448526382E-1,1.321840286E-2,-6.638050079E-2
7.431067442E0,7.598233223E-2,-8.368778229E-2,1.014270782E-1
7.439061800E0,-3.306379318E-1,-4.279880524E-1,1.177968979E-1
7.447057775E0,-6.225731373E-1,-5.930190086E-1,2.285971642E-1
7.455052827E0,-4.773147106E-1,-4.721813202E-1,2.094340324E-1
7.463049186E0,-2.861847878E-1,-3.905453682E-1,9.138584137E-2
7.471046315E0,-1.640877724E-1,-4.095306396E-1,3.822660446E-2
7.479070904E0,-7.882928848E-2,-4.304723740E-1,9.164810181E-4
7.487065725E0,-4.886436462E-2,-3.216123581E-1,-5.593347549E-2
7.495062545E0,-1.624655724E-2,-1.452322006E-1,-5.543041229E-2
7.503056751E0,3.793001175E-2,-6.882476807E-2,-6.225013733E-2
7.511053879E0,1.631047726E-1,2.564382553E-2,-1.766676903E-1
7.519048931E0,1.861371994E-1,5.454158783E-2,-1.547689438E-1
7.527044059E0,5.488824844E-2,6.423854828E-2,-1.152091026E-1
7.535069572E0,-1.728050709E-1,8.889770508E-2,-1.897239685E-2
7.543065777E0,-3.502385616E-1,7.736921310E-2,6.003856659E-2
7.551062983E0,-3.640682697E-1,5.464315414E-2,8.925867081E-2
7.559057495E0,-1.778581142E-1,2.698707581E-2,1.464991570E-1
7.567052855E0,6.951093674E-2,-1.375102997E-2,1.551022530E-1
7.575048215E0,2.100579739E-1,4.106950760E-2,7.991266251E-2
7.583043804E0,1.978306770E-1,1.696124077E-1,-5.493545532E-2
7.591070624E0,1.166040897E-1,2.347254753E-1,-1.153678894E-1
7.599065907E0,7.654285431E-2,2.334184647E-1,-1.228828430E-1
7.607060959E0,7.043743134E-2,1.486363411E-1,-5.000543594E-2
7.615056625E0,-9.128570557E-3,6.636810303E-2,5.051994324E-2
7.623052062E0,-1.772871017E-1,3.219604492E-3,1.349134445E-1
7.631048882E0,-3.626983166E-1,-5.537557602E-2,1.739091873E-1
7.639043319E0,-4.396388531E-1,-6.444025040E-2,2.188954353E-1
7.647069754E0,-4.860484600E-1,-4.566049576E-2,2.138338089E-1
7.655064806E0,-4.581780434E-1,-5.403423309E-2,2.079777718E-1
7.663060857E0,-4.098212719E-1,-4.381322861E-2,1.578011513E-1
7.671057140E0,-3.203964233E-1,-2.856254578E-3,6.766080856E-2
7.679051883E0,-1.615746021E-1,3.596067429E-2,-4.047679901E-2
7.687046935E0,-3.309249878E-4,1.498503685E-1,-1.683378220E-1
7.691046306E0,8.236169815E-2,2.385787964E-1,-2.434968948E-1
7.693059454E0,1.565821171E-1,2.888569832E-1,-2.961692810E-1
7.695043447E0,1.924951077E-1,2.888569832E-1,-3.153228760E-1
7.703069038E0,3.141305447E-1,3.765397072E-1,-4.500141144E-1
7.711065858E0,3.610243797E-1,3.842267990E-1,-5.380625725E-1
7.719060294E0,3.790116310E-1,4.553070068E-1,-5.077052116E-1
7.727055653E0,3.466763496E-1,4.914741516E-1,-5.313959122E-1
7.735051397E0,3.714616299E-1,4.712848663E-1,-5.685167313E-1
7.743046142E0,4.196493626E-1,4.881639481E-1,-6.215386391E-1
7.751043885E0,4.719491005E-1,5.278401375E-1,-6.282019615E-1
7.759068475E0,4.714107513E-1,6.069784164E-1,-6.242003441E-1
7.767064449E0,3.949322701E-1,7.087221146E-1,-5.612297058E-1
7.775058963E0,2.864613533E-1,7.803277969E-1,-5.322117805E-1
7.783056091E0,1.972482204E-1,8.216514587E-1,-5.103530884E-1
7.791052758E0,1.893117428E-1,8.639245033E-1,-4.932904243E-1
7.799045963E0,1.964862347E-1,9.409151077E-1,-5.702910423E-1
7.807042245E0,1.597495079E-1,9.863662720E-1,-6.481385231E-1
7.815068296E0,2.050623894E-1,1.070520878E0,-7.505059242E-1
7.823063733E0,3.359270096E-1,1.139352322E0,-8.244204521E-1
7.831061784E0,4.080705643E-1,1.135459900E0,-8.294610977E-1
7.839055374E0,4.845292568E-1,1.033846855E0,-8.260474205E-1
7.847050118E0,4.416284561E-1,9.252533913E-1,-8.593506813E-1
7.855046093E0,3.573639393E-1,8.067026138E-1,-7.495102882E-1
7.863042298E0,2.808685303E-1,6.988210678E-1,-8.127245903E-1
7.871068734E0,2.577190399E-1,6.156654358E-1,-7.834868431E-1
7.879063477E0,3.252432346E-1,6.174550056E-1,-2.036261082E0
7.887059452E0,5.546114445E-1,2.754821777E-1,-1.218576908E0
7.895054273E0,4.073810577E-1,2.837896347E-2,-3.810777664E-1
7.903050170E0,-4.475927353E-2,1.207199097E-1,-2.824077606E-1
7.911047376E0,-6.514923573E-1,4.854440689E-2,-2.669620514E-2
7.919041196E0,-8.887255192E-1,1.538705826E-2,-3.853416443E-2
7.927067095E0,-6.777057648E-1,4.832124710E-2,-1.306071281E-1
7.935062376E0,-2.049272060E-1,1.349267960E-1,-1.982178688E-1
7.943058120E0,7.137203217E-2,2.242856026E-1,-3.467864990E-1
7.951054941E0,2.340779305E-1,2.697653770E-1,-4.916219711E-1
7.959049377E0,2.618927956E-1,2.836914062E-1,-4.908599854E-1
7.967045044E0,2.165641785E-1,3.154978752E-1,-5.046801567E-1
7.975040711E0,1.526880264E-1,3.222203255E-1,-4.661402702E-1
7.983066608E0,5.530953407E-2,2.456927299E-1,-3.189554214E-1
7.991063429E0,-5.935144424E-2,1.141591072E-1,-2.627491951E-1
7.999058172E0,-1.460924149E-1,8.677959442E-3,-1.329178810E-1
8.007053609E0,-2.838344574E-1,-2.508935928E-1,1.480817795E-2
8.015049507E0,-1.434087753E-3,-1.003893375E0,1.448817253E-1
8.023044943E0,-5.116877556E-1,-2.270032883E0,3.067254543E0
8.031041533E0,-2.104748964E0,-2.346073151E0,2.798816681E0
8.039067045E0,-2.963678598E0,-1.657767773E0,2.303225040E0
8.047062328E0,-2.260316372E0,-9.032421112E-1,1.341239452E0
8.055057456E0,-7.299268246E-1,-5.912609100E-1,1.141033649E0
8.063053354E0,4.658985138E-2,-5.322184563E-1,1.140371323E0
8.071049020E0,7.869625092E-2,-4.804568291E-1,9.811515808E-1
8.079044380E0,-3.060183525E-1,-3.976707458E-1,8.872561455E-1
8.087040123E0,-5.263426304E-1,-2.608447075E-1,7.932252884E-1
8.095066175E0,-3.497221470E-1,-1.855506897E-1,7.463603020E-1
8.103062226E0,3.842949867E-2,-1.156373024E-1,6.499743462E-1
8.111058817E0,4.021031857E-1,6.875038147E-2,4.681806564E-1
8.119053252E0,6.505286694E-1,1.863279343E-1,2.290329933E-1
8.127047612E0,7.861683369E-1,2.646274567E-1,-3.173608780E-1
8.135043663E0,9.258615971E-1,3.995852470E-1,-6.677794456E-1
8.143039638E0,9.038183689E-1,3.969526291E-1,-1.358666420E-1
8.151066996E0,6.451475620E-1,1.519083977E-1,2.477717400E-1
8.159061433E0,3.432209492E-1,-5.916643143E-2,4.627904892E-1
8.167057022E0,-2.328896523E-2,-2.070789337E-1,6.681389809E-1
8.175052997E0,-2.542343140E-1,-2.979164124E-1,7.114567757E-1
8.183048357E0,-3.908350468E-1,-3.292303085E-1,7.687482834E-1
8.191045870E0,-3.941643238E-1,-3.659844398E-1,8.935332298E-1
8.199038845E0,-4.241333008E-1,-3.648533821E-1,9.077143669E-1
8.207065203E0,-4.200618267E-1,-3.564519882E-1,8.348731995E-1
8.215060947E0,-4.189438820E-1,-3.758282661E-1,6.610202789E-1
8.223056229E0,-4.264211655E-1,-3.671679497E-1,6.043901443E-1
8.231052896E0,-4.331257343E-1,-3.903241158E-1,5.810656548E-1
8.239047563E0,-3.654654026E-1,-3.850102425E-1,4.570908546E-1
8.247042999E0,-2.403631210E-1,-3.869829178E-1,3.043675423E-1
8.255038358E0,-6.738424301E-2,-3.649473190E-1,1.326823235E-1
8.263064718E0,1.197338104E-1,-2.995676994E-1,7.857179642E-2
8.271061076E0,1.625292301E-1,-2.744784355E-1,5.095338821E-2
8.279056051E0,1.327817440E-1,-2.367820740E-1,-5.026340485E-3
8.287052102E0,1.143155098E-1,-2.342329025E-1,-3.017425537E-3
8.295046846E0,6.362557411E-2,-2.765517235E-1,4.696035385E-2
8.303042821E0,-2.215218544E-2,-2.661213875E-1,1.200304031E-1
8.311069796E0,-6.484150887E-2,-2.511310577E-1,1.051774025E-1
8.319063923E0,-6.725764275E-2,-2.242112160E-1,1.005082130E-1
8.327059591E0,-5.871939659E-2,-2.163491249E-1,9.144353867E-2
8.335054643E0,-8.634853363E-2,-2.132272720E-1,9.759426117E-2
8.343051309E0,-1.085901260E-1,-2.244429588E-1,5.246067047E-2
8.351047822E0,-9.044766426E-2,-2.039098740E-1,-2.798128128E-2
8.359041643E0,-5.705332756E-2,-1.586036682E-1,-9.966039658E-2
8.367068695E0,-4.546189308E-2,-1.409263611E-1,-1.495471001E-1
8.375064053E0,-5.973052979E-2,-1.362476349E-1,-2.152338028E-1
8.383059105E0,-9.199094772E-2,-1.019458771E-1,-2.250037193E-1
8.391056695E0,-1.163785458E-1,-8.352231979E-2,-2.581877708E-1
8.399051054E0,-1.289162636E-1,-5.452156067E-2,-2.912292480E-1
8.407046413E0,-1.872587204E-1,9.139537811E-3,-3.552274704E-1
8.415042157E0,-1.773462296E-1,9.735155106E-2,-3.770728111E-1
8.423067900E0,-1.270854473E-1,1.590466499E-1,-3.585958481E-1
8.431063952E0,-4.960298538E-2,2.506222725E-1,-4.046258926E-1
8.439058696E0,2.812838554E-2,3.150320053E-1,-4.361114502E-1
8.447054671E0,4.452157021E-2,3.838372231E-1,-5.192093849E-1
8.455050645E0,1.007261276E-1,4.550876617E-1,-6.339149475E-1
8.463045927E0,1.349902153E-1,5.915231705E-1,-8.272767067E-1
8.471042210E0,2.258939743E-1,7.410573959E-1,-9.984035492E-1
8.479067184E0,3.793566227E-1,8.872418404E-1,-1.075955391E0
8.487062774E0,5.059568882E-1,9.726428986E-1,-1.149032593E0
8.495058210E0,5.702149868E-1,1.047766685E0,-1.286552429E0
8.503054416E0,6.203365326E-1,1.113046169E0,-1.346602917E0
8.511051697E0,6.295814514E-1,1.112072945E0,-1.384281635E0
8.519045211E0,6.394331455E-1,1.104761600E0,-1.413395405E0
8.527040877E0,6.831805706E-1,1.127056599E0,-1.395740032E0
8.535066929E0,6.931591034E-1,1.044919491E0,-1.329258442E0
8.543062057E0,6.427643299E-1,9.775991440E-1,-1.245699406E0
8.551059263E0,5.361135006E-1,9.011297226E-1,-1.159843445E0
8.559053929E0,4.368214607E-1,8.755722046E-1,-1.069686413E0
8.567049366E0,3.370151520E-1,8.963079453E-1,-1.008951664E0
8.575045340E0,3.105244637E-1,8.940572739E-1,-8.986444473E-1
8.583040622E0,2.687187195E-1,8.229174614E-1,-8.349299431E-1
8.591068289E0,1.862461567E-1,6.316518784E-1,-6.625318527E-1
8.599062187E0,4.995822906E-2,5.136384964E-1,-6.038861275E-1
8.607057776E0,-3.626418114E-2,4.827265739E-1,-1.142568588E0
8.615053751E0,2.188212872E-1,3.898668289E-1,-1.771886349E0
8.623049496E0,2.855091095E-1,5.413150787E-2,-2.111010551E-1
8.631044854E0,3.898000717E-2,9.188890457E-2,-1.014313698E-1
8.639039906E0,-4.774601460E-1,1.037321091E-1,4.425368309E-1
8.647065957E0,-9.503481388E-1,4.972505569E-2,3.884763718E-1
8.655061624E0,-1.119567871E0,2.960205078E-3,4.651517868E-1
8.663057060E0,-9.597554207E-1,1.190757751E-2,3.444962502E-1
8.671054189E0,-5.506739616E-1,8.619689941E-2,3.155937195E-1
8.679048624E0,-2.540132999E-1,1.415934563E-1,3.560976982E-1
8.687043676E0,-8.842992783E-2,1.818752289E-1,2.581524849E-1
8.695039420E0,-7.026004791E-2,1.857771873E-1,2.617654800E-1
8.703065856E0,-1.241679192E-1,1.886086464E-1,2.519860268E-1
8.711063369E0,-1.618123055E-1,1.452193260E-1,2.458209991E-1
8.719057190E0,-1.437430382E-1,4.884338379E-2,2.597308159E-1
8.727052856E0,-1.650638580E-1,-1.190953255E-1,4.202170372E-1
8.735047293E0,-2.047646046E-1,-2.631278038E-1,2.721705437E-1
8.743043498E0,-1.068370342E-1,-9.180693626E-1,7.656497955E-1
8.751039857E0,-4.909741879E-1,-1.800907612E0,2.509730816E0
8.759065985E0,-1.626662970E0,-1.915215492E0,2.451288700E0
8.767060729E0,-2.210129976E0,-1.282961369E0,1.878767014E0
8.775056012E0,-1.639518499E0,-7.081584930E-1,1.101195812E0
8.783051755E0,-4.093353748E-1,-3.132238388E-1,6.862883568E-1
8.791048884E0,3.171956539E-1,-1.890015602E-1,7.679047585E-1
8.799043397E0,5.086734295E-1,-2.440276146E-1,8.645772934E-1
8.807039064E0,1.849758625E-1,-2.583932877E-1,8.326296806E-1
8.815064884E0,-1.005151272E-1,-1.999588013E-1,7.247824669E-1
8.823060782E0,-1.652405262E-1,-1.483049393E-1,4.832730293E-1
8.831058602E0,4.101657867E-2,-9.788465500E-2,1.074204445E-1
8.839051577E0,3.579635620E-1,4.473304749E-2,-1.275839806E-1
8.847046936E0,6.118173599E-1,1.062078476E-1,-1.220116615E-1
8.855042603E0,6.778383255E-1,-2.168512344E-2,1.353387833E-1
8.863038500E0,4.599599838E-1,-1.612758636E-1,4.471492767E-2
8.871065322E0,3.511335850E-1,-1.555070877E-1,9.434175491E-2
8.879060603E0,3.647990227E-1,-2.378683090E-1,2.932562828E-1
8.887056040E0,2.511346340E-1,-4.094142914E-1,5.023369789E-1
8.895051629E0,-7.620120049E-2,-6.906261444E-1,6.391782761E-1
8.903046681E0,-2.963414192E-1,-7.643456459E-1,6.750922203E-1
8.911043348E0,-3.109419346E-1,-7.265625000E-1,7.760105133E-1
8.919037784E0,-2.934017181E-1,-6.080036163E-1,8.133559227E-1
8.927064451E0,-2.966043949E-1,-4.990105629E-1,7.910289764E-1
8.935060195E0,-2.648422718E-1,-3.748855591E-1,7.566895485E-1
8.943054939E0,-2.034220695E-1,-2.881274223E-1,6.862845421E-1
8.951051759E0,-1.003966331E-1,-1.902289391E-1,5.015316010E-1
8.959045965E0,3.267621994E-2,-7.794952393E-2,2.874903679E-1
8.967042170E0,1.174104214E-1,6.313800812E-3,1.004290581E-1
8.975036914E0,2.041170597E-1,5.308866501E-2,2.427911758E-2
8.983063734E0,2.580676079E-1,5.060768127E-2,1.297330856E-2
8.991060555E0,2.331736088E-1,6.601810455E-2,-4.150676727E-2
8.999054683E0,2.150588036E-1,7.779312134E-2,-7.249259949E-2
9.007050350E0,2.246391773E-1,9.791660309E-2,-1.019301414E-1
9.015046401E0,2.190034389E-1,9.283924103E-2,-1.249504089E-1
9.023041684E0,1.417191029E-1,6.932640076E-2,-5.037117004E-2
9.031038659E0,8.052301407E-2,2.210187912E-2,-5.730056763E-2
9.039063556E0,1.363480091E-1,-1.508426666E-2,-1.355743408E-2
9.047058299E0,1.874375343E-1,-4.202604294E-2,-1.925706863E-2
9.055054505E0,2.125897408E-1,-2.308416367E-2,5.479907990E-2
9.063049865E0,2.149503231E-1,-3.274631500E-2,5.315971375E-2
9.071046762E0,1.116542816E-1,4.410743713E-4,3.346252441E-2
9.079040968E0,2.755928040E-2,-4.107141495E-2,1.961231232E-2
9.087036326E0,-4.992461205E-2,-9.032201767E-2,3.746938705E-2
9.095063378E0,-9.525346756E-2,-1.112942696E-1,2.919054031E-2
9.103058429E0,-9.768605232E-2,-9.398269653E-2,-2.947521210E-2
9.111056250E0,-6.495380402E-2,-5.724573135E-2,-7.152128220E-2
9.119049686E0,-4.482507706E-3,-8.661270142E-2,-1.466684341E-1
9.127045046E0,9.996891022E-3,-6.171274185E-2,-2.419524193E-1
9.135040404E0,-2.056503296E-2,-7.071924210E-2,-3.467755318E-1
9.143036456E0,-2.374148369E-2,-4.726314545E-2,-3.393840790E-1
9.151063738E0,-4.373550415E-3,-7.238960266E-2,-4.061851501E-1
9.159057867E0,4.656457901E-2,-6.231451035E-2,-4.541687965E-1
9.167053302E0,1.377587318E-1,4.733085632E-3,-5.435094833E-1
9.175049277E0,2.108452320E-1,4.015254974E-2,-5.957789421E-1
9.183044945E0,2.297499180E-1,4.298400879E-2,-4.995636940E-1
9.191041457E0,1.643922329E-1,6.294107437E-2,-5.133843422E-1
9.199036278E0,1.162183285E-1,6.149530411E-2,-5.028395653E-1
9.207062098E0,7.158064842E-2,6.275129318E-2,-5.582876205E-1
9.215057689E0,5.699777603E-2,1.234159470E-1,-5.463352203E-1
9.223053355E0,7.908320427E-2,1.597251892E-1,-5.582857132E-1
9.231050253E0,3.725552559E-2,2.268009186E-1,-6.252188683E-1
9.239044458E0,-2.295947075E-2,2.889227867E-1,-6.559247971E-1
9.247040433E0,-1.229257584E-1,3.743305206E-1,-6.220793724E-1
9.255065869E0,-1.837277412E-1,4.424729347E-1,-6.265316010E-1
9.263061228E0,-2.552599907E-1,5.366387367E-1,-7.191047668E-1
9.271058741E0,-2.117393017E-1,6.258959770E-1,-7.470664978E-1
9.279052947E0,-9.532022476E-2,6.723442078E-1,-6.917500496E-1
9.287048228E0,2.996015549E-2,7.410621643E-1,-6.448230743E-1
9.295043973E0,1.041407585E-1,8.013787270E-1,-6.800866127E-1
9.303039639E0,2.110297680E-1,8.803539276E-1,-7.321166992E-1
9.311066383E0,3.079798222E-1,9.448132515E-1,-7.619352341E-1
9.319061357E0,4.391093254E-1,1.050986767E0,-1.985402107E0
9.327056717E0,9.796698093E-1,8.350453377E-1,-1.935026646E0
9.335052152E0,1.317748547E0,7.254672050E-1,-9.614744186E-1
9.343047820E0,1.106937885E0,8.862767220E-1,-8.961701393E-1
9.351044410E0,3.881018162E-1,7.667021751E-1,-2.411665916E-1
9.359039692E0,-2.019400597E-1,4.624366760E-1,-5.439043045E-2
9.367065282E0,-5.082471371E-1,2.554030418E-1,9.310579300E-2
9.375060025E0,-5.552759171E-1,2.326574326E-1,1.432924271E-1
9.383056308E0,-4.225335121E-1,3.290419579E-1,8.085536957E-2
9.391052898E0,-2.913577557E-1,3.853168488E-1,1.370620728E-2
9.399047642E0,-1.605274677E-1,3.805494308E-1,-7.940292358E-3
9.407042924E0,-1.096687317E-1,3.670043945E-1,4.617547989E-2
9.415038591E0,-7.075881958E-2,3.640542030E-1,6.287813187E-2
9.423064796E0,-2.371668816E-2,3.738713264E-1,1.558890343E-1
9.431061694E0,1.070332527E-2,3.465356827E-1,1.881322861E-1
9.439055514E0,5.585408211E-2,3.329420090E-1,1.455726624E-1
9.447051412E0,6.345677376E-2,2.500743866E-1,1.318297386E-1
9.455047078E0,-2.964973450E-2,4.970455170E-2,2.144951820E-1
9.463042746E0,-9.916424751E-2,-9.146308899E-2,2.316007614E-1
9.471039336E0,-7.727313042E-2,-1.490383148E-1,3.062496185E-1
9.479064233E0,-3.277659416E-2,-1.278042793E-1,3.215165138E-1
9.487059592E0,-6.367206573E-3,-1.997981071E-1,3.496217728E-1
9.495055567E0,-2.471542358E-2,-2.984657288E-1,2.441306114E-1
9.503051542E0,1.808359623E-1,-6.344280243E-1,2.102789879E-1
9.511047208E0,6.053972244E-2,-1.517153263E0,2.311501980E0
9.519042260E0,-1.162226200E0,-1.572634697E0,2.290634632E0
9.527037696E0,-1.975642920E0,-1.009620190E0,1.305031300E0
9.535063132E0,-1.546221495E0,-5.146975517E-1,1.024281025E0
9.543059491E0,-5.515484810E-1,-5.476894379E-1,1.143714428E0
9.551056312E0,4.666471481E-2,-6.732821465E-1,1.126394749E0
9.559050824E0,2.623844147E-2,-5.296807289E-1,7.296395302E-1
9.567046492E0,4.338169098E-2,-2.248544693E-1,4.527530670E-1
9.575040927E0,2.067775726E-1,1.214146614E-1,9.512948990E-2
9.583037518E0,4.114584923E-1,3.675260544E-1,-7.394313812E-2
9.591064569E0,5.464215279E-1,4.310140610E-1,-1.651039124E-1
9.599058928E0,4.912204742E-1,4.014511108E-1,-2.303786278E-1
9.607054056E0,2.941486835E-1,3.601093292E-1,-1.724252701E-1
9.615050570E0,8.759236336E-2,2.729349136E-1,-2.586507797E-2
9.623046006E0,-5.155968666E-2,1.816024780E-1,9.200572968E-2
9.631042288E0,-1.750462055E-1,8.749294281E-2,2.308826447E-1
9.639036417E0,-2.167055607E-1,4.020690918E-2,3.942484856E-1
9.647063391E0,-2.854034901E-1,-9.030628204E-2,5.566000938E-1
9.655058212E0,-3.759481907E-1,-2.994751930E-1,5.934596062E-1
9.663054186E0,-3.928394318E-1,-4.170951843E-1,6.366095543E-1
9.671051392E0,-4.091296196E-1,-4.692173004E-1,7.742047310E-1
9.679045520E0,-3.978695869E-1,-4.581909180E-1,8.064732552E-1
9.687041725E0,-3.024673462E-1,-3.905706406E-1,6.569681168E-1
9.695036161E0,-1.252617836E-1,-2.514424324E-1,4.843616486E-1
9.703062367E0,9.993505478E-2,-2.031483650E-1,4.086947441E-1
9.711059187E0,2.698156834E-1,-1.931185722E-1,4.368124008E-1
9.719053931E0,3.366086483E-1,-1.376652718E-1,4.609255791E-1
9.727049674E0,3.271043301E-1,-7.279253006E-2,4.932003021E-1
9.735045034E0,2.902007103E-1,-8.001708984E-2,4.599366188E-1
9.743039777E0,2.436649799E-1,-3.032207489E-2,4.285235405E-1
9.751037599E0,2.091162205E-1,-2.791881561E-3,3.773765564E-1
9.759062419E0,1.838092804E-1,1.269626617E-2,2.996993065E-1
9.767057548E0,1.320023537E-1,9.459495544E-3,1.698017120E-1
9.775053445E0,7.045078278E-2,-1.459932327E-2,7.657814026E-2
9.783049112E0,3.502058983E-2,-1.865386963E-3,-2.294301987E-2
9.791046087E0,1.831603050E-2,-2.412509918E-2,-1.097116470E-1
9.799040215E0,-4.856014252E-2,-5.296564102E-2,-1.262779236E-1
9.807035498E0,-6.280398369E-2,-1.459889412E-1,-1.255707741E-1
9.815063164E0,-7.820129395E-3,-2.073106766E-1,-8.602333069E-2
9.823056985E0,9.674739838E-2,-1.982450485E-1,-9.134006500E-2
9.831053651E0,2.263302803E-1,-1.921868324E-1,-1.362571716E-1
9.839048626E0,2.685184479E-1,-1.409850121E-1,-1.557941437E-1
9.847044600E0,2.484319210E-1,-1.095290184E-1,-2.237277031E-1
9.855039422E0,1.843278408E-1,-1.035499573E-1,-1.701579094E-1
9.863034780E0,1.483848095E-1,-7.120990753E-2,-1.681299210E-1
9.871062063E0,1.493580341E-1,-8.669900894E-2,-1.558604240E-1
9.879056806E0,1.170017719E-1,-7.368421555E-2,-1.197648048E-1
9.887052474E0,7.027029991E-2,-5.157184601E-2,-1.009221077E-1
9.895048448E0,5.691933632E-2,-5.562353134E-2,-1.968998909E-1
9.903043807E0,8.675599098E-2,-3.269147873E-2,-3.280639648E-1
9.911040167E0,1.340613365E-1,1.753854752E-2,-3.835902214E-1
9.919035525E0,1.820631027E-1,6.869697571E-2,-4.928150177E-1
9.927061653E0,2.373301983E-1,1.164374352E-1,-5.886120796E-1
9.935056705E0,2.374165058E-1,2.108502388E-1,-7.119917870E-1
9.943051450E0,3.132894039E-1,3.232932091E-1,-7.986445427E-1
9.951048577E0,4.161193371E-1,4.659814835E-1,-9.614109993E-1
9.959043091E0,6.190447807E-1,6.029310226E-1,-1.028615952E0
9.967038988E0,7.039666176E-1,6.506628990E-1,-1.103009224E0
9.975034348E0,6.461775303E-1,5.969157219E-1,-1.068984032E0
9.983060552E0,4.902367592E-1,5.540933609E-1,-1.050288200E0
9.991057758E0,4.066061974E-1,5.602054596E-1,-1.061306953E0
9.999051886E0,3.760597706E-1,6.200594902E-1,-1.027834415E0
1.000704686E1,4.048042297E-1,6.214427948E-1,-9.548969269E-1
1.001504284E1,3.340134621E-1,6.029372215E-1,-9.288592339E-1
1.002303796E1,2.019169331E-1,5.671787262E-1,-8.417458534E-1
1.003103517E1,4.260063171E-3,5.258145332E-1,-7.677812576E-1
1.003906038E1,-9.743976593E-2,4.403576851E-1,-6.897192001E-1
1.004705535E1,-1.289768219E-1,4.252109528E-1,-6.149592400E-1
1.005505109E1,-1.090562344E-1,3.841943741E-1,-5.628199577E-1
1.006304699E1,-9.210824966E-2,3.794245720E-1,-6.072864532E-1
1.007104304E1,2.469785213E-1,3.791670799E-1,-2.064907551E0
1.007903779E1,5.843954086E-1,-5.329751968E-2,-5.602178574E-1
1.008703345E1,1.149101257E-1,1.077127457E-2,-1.955924034E-1
1.009506012E1,-8.936901093E-1,1.492776871E-1,1.382441521E-1
1.010305432E1,-1.454683542E0,-8.023738861E-2,4.302396774E-1
1.011105215E1,-1.696911573E0,-3.795719147E-1,8.495664597E-1
1.011904620E1,-1.557190895E0,-4.105443954E-1,8.881645203E-1
1.012704163E1,-1.252889872E0,-2.640624046E-1,7.513794899E-1
1.013503761E1,-9.804677963E-1,-1.543922424E-1,6.151633263E-1
1.014306366E1,-8.055002689E-1,-9.555864334E-2,5.621128082E-1
1.015106025E1,-6.286890507E-1,-6.620597839E-2,6.477355957E-1
1.015905499E1,-5.496571064E-1,4.791259766E-3,7.209515572E-1
1.016705066E1,-4.795014858E-1,7.177209854E-2,6.931710243E-1
1.017504579E1,-3.866922855E-1,1.419487000E-1,6.149559021E-1
1.018304199E1,-2.399148941E-1,1.770839691E-1,5.679125786E-1
1.019103889E1,-3.625392914E-3,1.755700111E-1,3.707399368E-1
1.019903279E1,1.773929596E-1,1.362090111E-1,1.677112579E-1
1.020705884E1,3.853838444E-1,1.977739334E-1,-7.551431656E-2
1.021505481E1,6.095819473E-1,2.810497284E-1,-2.950363159E-1
1.022304994E1,8.767676353E-1,-2.257537842E-2,2.986116409E-1
1.023104746E1,4.557962418E-1,-5.415706635E-1,7.810254097E-1
1.023904058E1,-1.397843361E-1,-4.361324310E-1,5.104126930E-1
1.024703664E1,-1.984825134E-1,-1.597332954E-1,5.312943459E-1
1.025503200E1,8.621692657E-2,-2.915344238E-1,5.625863075E-1
1.026305866E1,2.950842381E-1,-5.476779938E-1,5.706028938E-1
1.027105556E1,2.306566238E-1,-6.122808456E-1,4.146938324E-1
1.027904969E1,2.146646976E-1,-4.974737167E-1,2.891736031E-1
1.028704505E1,2.459738255E-1,-2.411170006E-1,6.933164597E-2
1.029504071E1,3.334109783E-1,-1.196813583E-1,8.260011673E-2
1.030303676E1,4.260118008E-1,-1.369571686E-1,1.691484451E-2
1.031106413E1,4.980998039E-1,-2.296347618E-1,-3.665971756E-2
1.031905794E1,5.799887180E-1,-2.454009056E-1,7.271432877E-2
1.032705384E1,5.570557117E-1,-3.123869896E-1,8.199977875E-2
1.033504920E1,4.457626343E-1,-3.791832924E-1,1.170749664E-1
1.034304433E1,1.474204063E-1,-4.664049149E-1,2.100524902E-1
1.035104177E1,-2.139163017E-1,-4.877357483E-1,4.482040405E-1
1.035903620E1,-4.820902348E-1,-4.720754623E-1,8.554005623E-1
1.036706210E1,-5.333900452E-1,-4.712247849E-1,1.041355610E0
1.037505715E1,-5.042748451E-1,-4.404373169E-1,1.045664310E0
1.038305397E1,-4.952836037E-1,-3.835029602E-1,1.076250076E0
1.039105025E1,-4.874482155E-1,-3.145270348E-1,9.896440506E-1
1.039904446E1,-3.290193081E-1,-2.239408493E-1,8.510770798E-1
1.040703974E1,-1.120972633E-1,-1.425871849E-1,6.880278587E-1
1.041503510E1,7.816576958E-2,-8.168029785E-2,4.924187660E-1
1.042306131E1,2.236521244E-1,-6.731033325E-3,2.156643867E-1
1.043105851E1,2.943551540E-1,5.710792542E-2,-3.015661240E-2
1.043905295E1,4.305839539E-1,1.394147873E-1,-1.801228523E-1
1.044704831E1,5.008025169E-1,1.719074249E-1,-2.751655579E-1
1.045504420E1,4.301857948E-1,1.955156326E-1,-3.872900009E-1
1.046303933E1,3.576140404E-1,2.269506454E-1,-4.016542435E-1
1.047103585E1,2.953333855E-1,1.861786842E-1,-3.072037697E-1
1.047906082E1,2.629079819E-1,1.628103256E-1,-2.990393639E-1
1.048705641E1,2.382404804E-1,1.923670769E-1,-2.581934929E-1
1.049505185E1,2.877824306E-1,2.507696152E-1,-2.545967102E-1
1.050304751E1,3.301043510E-1,3.117561340E-1,-2.618417740E-1
1.051104441E1,3.874878883E-1,3.659763336E-1,-3.678245544E-1
1.051903908E1,4.634022713E-1,4.162797928E-1,-5.043840408E-1
1.052703413E1,4.753582478E-1,4.868931770E-1,-6.201672554E-1
1.053506095E1,4.651312828E-1,5.398039818E-1,-7.669129372E-1
1.054305600E1,4.092195034E-1,5.276818275E-1,-8.648066521E-1
1.055105321E1,3.288562298E-1,4.674468040E-1,-9.545931816E-1
1.055904764E1,1.593148708E-1,3.500065804E-1,-1.057381153E0
1.056704239E1,7.980775833E-2,3.265142441E-1,-1.115599155E0
1.057503890E1,1.272351742E-1,3.656044006E-1,-1.156655312E0
1.058303426E1,1.971125603E-1,4.070277214E-1,-1.179465771E0
1.059106131E1,2.451572418E-1,4.144778252E-1,-1.319208622E0
1.059905552E1,2.851860523E-1,3.854742050E-1,-1.389540672E0
1.060705118E1,2.528457642E-1,3.345146179E-1,-1.392524242E0
1.061504746E1,2.447316647E-1,2.754774094E-1,-1.335311890E0
1.062304282E1,3.110058308E-1,2.540016174E-1,-1.323142529E0
1.063103934E1,3.588652611E-1,2.176623344E-1,-1.266793251E0
1.063903354E1,3.069198132E-1,2.193174362E-1,-1.245032787E0
1.064705929E1,1.798269749E-1,2.323398590E-1,-1.209808350E0
1.065505618E1,8.638167381E-2,3.165035248E-1,-1.823725224E0
1.066305093E1,3.416092396E-1,9.738492966E-2,-1.642076015E0
1.067104783E1,1.009850502E-1,-2.495684624E-1,-4.378519058E-1
1.067904265E1,-5.585868359E-1,-5.391883850E-2,-4.598793983E-1
1.068703770E1,-1.214954615E0,-1.166658401E-1,1.181983948E-2
1.069503360E1,-1.373278618E0,-4.410462379E-1,3.742136955E-1
1.070305949E1,-1.278581142E0,-5.791912079E-1,5.309782028E-1
1.071105608E1,-1.054911375E0,-5.350012779E-1,5.807695389E-1
1.071904990E1,-8.096070290E-1,-5.086784363E-1,2.304468155E-1
1.072704611E1,-5.480666161E-1,-1.193153381E0,2.142751694E0
1.073504155E1,-1.551364183E0,-1.474794388E0,2.672248363E0
1.074303690E1,-2.381198883E0,-9.489455223E-1,2.269347191E0
1.075103373E1,-2.102633238E0,-3.094844818E-1,1.916368008E0
1.075905893E1,-1.128162622E0,-1.172580719E-1,1.829910755E0
1.076705490E1,-4.512903690E-1,-5.571794510E-2,1.607504368E0
1.077505026E1,-3.097219467E-1,-9.282112122E-3,1.429856777E0
1.078304539E1,-2.780480385E-1,1.149220467E-1,1.297417164E0
1.079104252E1,-2.353570461E-1,2.974696159E-1,1.074180603E0
1.079903726E1,-1.581377983E-1,4.911642075E-1,5.571403503E-1
1.080703232E1,1.034238338E-1,7.051558495E-1,-2.778353691E-1
1.081505906E1,6.104426384E-1,6.365323067E-1,-4.378194809E-1
1.082305442E1,9.516150951E-1,4.016427994E-1,-1.607904434E-1
1.083105101E1,1.038857222E0,2.847056389E-1,-2.609844208E-1
1.083904544E1,1.102042437E0,3.174643517E-1,-1.543607712E-1
1.084704026E1,1.144798279E0,3.303751945E-1,-2.570657730E-1
1.085503686E1,1.015045166E0,3.260493279E-1,-2.011036873E-1
1.086303221E1,6.164612770E-1,3.100318909E-1,2.625098228E-1
1.087105950E1,1.209313869E-1,3.670573235E-1,6.384601593E-1
1.087905393E1,-5.498180389E-1,4.466147423E-1,1.122969627E0
1.088704868E1,-9.810409546E-1,5.926170349E-1,1.186696529E0
1.089504442E1,-1.086516857E0,6.689424515E-1,1.126505375E0
1.090304063E1,-9.324445724E-1,6.900515556E-1,8.978519440E-1
1.091103783E1,-7.464013100E-1,6.555995941E-1,8.563876152E-1
1.091903173E1,-3.448963165E-1,7.927560806E-1,2.398853302E-1
1.092705786E1,-1.276621819E-1,7.395243645E-1,2.044191360E-1
1.093505314E1,3.585338593E-3,6.181292534E-1,2.178759575E-1
1.094304911E1,6.622743607E-2,5.466012955E-1,-2.111816406E-2
1.095104547E1,-6.556510925E-3,4.147849083E-1,-7.760334015E-2
1.095904045E1,-1.867976189E-1,2.247638702E-1,-1.002182961E-1
1.096703558E1,-1.879515648E-1,6.975173950E-2,4.674959183E-2
1.097503094E1,-2.337174416E-1,6.256580353E-3,-3.983163834E-2
1.098305706E1,-1.997251511E-1,1.578330994E-4,-1.779060364E-1
1.099105358E1,-2.595448494E-1,3.082513809E-2,-2.140979767E-1
1.099904801E1,-3.855924606E-1,5.621147156E-2,-3.260898590E-1
1.100704368E1,-5.139207840E-1,-3.233528137E-2,-2.933850288E-1
1.101504065E1,-5.695452690E-1,-2.061805725E-1,-2.592315674E-1
1.102303532E1,-5.127048492E-1,-3.944864273E-1,-3.832979202E-1
1.103103222E1,-3.223547935E-1,-4.182229042E-1,-5.803198814E-1
1.103905658E1,-6.924819946E-2,-2.994832993E-1,-8.780941963E-1
1.104705309E1,9.994602203E-2,-2.142987251E-1,-8.991312981E-1
1.105504753E1,2.955446243E-1,-1.823101044E-1,-1.129772663E0
1.106304358E1,4.391853809E-1,-1.632061005E-1,-1.383168221E0
1.107103986E1,5.511600971E-1,-2.033281326E-1,-1.551598072E0
1.107903491E1,7.438998222E-1,-1.840405464E-1,-1.573889256E0
1.108703050E1,8.689610958E-1,-1.852693558E-1,-1.520354748E0
1.109505671E1,9.840657711E-1,-1.289548874E-1,-1.647923946E0
1.110305199E1,1.035182238E0,-1.326370239E-1,-1.613754272E0
1.111104889E1,1.067300797E0,-1.872472763E-1,-1.685259819E0
1.111904278E1,1.084193707E0,-2.636075020E-1,-1.698286533E0
1.112703960E1,1.189876556E0,-4.332084656E-1,-2.300717831E0
1.113503404E1,1.149029255E0,-5.878739357E-1,-2.768507481E0
1.114302979E1,1.023045063E0,-4.358816147E-1,-1.225480556E0
1.115105768E1,6.247856617E-1,-2.579565048E-1,-3.529772758E-1
1.115905181E1,-3.810811043E-2,-6.252303123E-1,-1.052007675E0
1.116704755E1,-4.498820305E-1,-7.764415741E-1,-1.123050690E0
1.117504291E1,-2.287390232E-1,-7.173414230E-1,-8.066229820E-1
1.118303827E1,7.122206688E-2,-5.964269638E-1,-4.977078438E-1
1.119103571E1,1.814970970E-1,-5.705018044E-1,-6.063103676E-1
1.119902930E1,2.545435429E-1,-5.588397980E-1,-7.873282433E-1
1.120705543E1,4.839510918E-1,-5.187940598E-1,-8.547253609E-1
1.121505133E1,6.073615551E-1,-4.746794701E-1,-7.978796959E-1
1.122304699E1,5.980498791E-1,-4.385280609E-1,-6.674246788E-1
1.123104297E1,4.715566635E-1,-4.560518265E-1,-4.844284058E-1
1.123903810E1,3.826489449E-1,-4.754900932E-1,-3.496022224E-1
1.124703346E1,2.815852165E-1,-5.331468582E-1,-1.482348442E-1
1.125502904E1,3.825297356E-1,-5.671911240E-1,3.674650192E-2
1.126305517E1,4.071385860E-1,-4.509940147E-1,2.009582520E-2
1.127105184E1,1.754012108E-1,-2.843122482E-1,-5.031566620E-1
1.127904658E1,-8.225965500E-2,-3.106875420E-1,4.757165909E-2
1.128704217E1,-5.836751461E-1,-5.724959373E-1,2.852134705E-1
1.129503753E1,-8.300273418E-1,-6.211309433E-1,2.759046555E-1
1.130303289E1,-1.132766724E0,-7.323489189E-1,7.729010582E-1
1.131106064E1,-1.455729961E0,-9.370651245E-1,1.343879223E0
1.131905476E1,-1.376845837E0,-1.073032379E0,1.581430912E0
1.132705035E1,-6.185035706E-1,-9.042096138E-1,1.401184082E0
1.133504610E1,5.219531059E-2,-5.083689690E-1,1.160892963E0
1.134304176E1,5.202400684E-1,-1.365113258E-1,8.490681648E-1
1.135103774E1,7.521719933E-1,1.489534378E-1,3.044590950E-1
1.135903218E1,7.854092121E-1,2.733383179E-1,-6.691360474E-2
1.136705915E1,8.918056488E-1,2.626357079E-1,-2.821221352E-1
1.137505428E1,9.294073582E-1,9.733152390E-2,-2.591819763E-1
1.138305048E1,6.689994335E-1,-1.887178421E-2,-1.691255569E-1
1.139104676E1,3.275432587E-1,1.122903824E-2,-3.090934753E-1
1.139904066E1,-3.229529858E-1,1.219310760E-1,4.162979126E-2
1.140703656E1,-6.236526966E-1,1.391491890E-1,-7.373094559E-2
1.141503254E1,-5.166027546E-1,2.115602493E-1,-2.253460884E-1
1.142305843E1,-2.222063541E-1,2.011475563E-1,-6.069707870E-2
1.143105533E1,-3.152203560E-2,1.821165085E-1,1.898455620E-1
1.143904946E1,4.837751389E-3,2.571530342E-1,-4.960107803E-2
1.144704505E1,-4.004075527E-1,3.976736069E-1,-2.915158272E-1
1.145504102E1,-9.483571053E-1,3.730115891E-1,-9.886598587E-2
1.146303646E1,-1.324106216E0,1.704020500E-1,2.355604172E-1
1.147103305E1,-1.363059998E0,-7.952499390E-2,4.314303398E-1
1.147905795E1,-1.242425919E0,-1.809048653E-1,3.121404648E-1
1.148705323E1,-1.019825459E0,-1.272888184E-1,8.631372452E-2
1.149504866E1,-9.445681572E-1,-1.545457840E-1,-1.465263367E-1
1.150304487E1,-9.489336014E-1,-3.062715530E-1,-9.206342697E-2
1.151104154E1,-7.595195770E-1,-4.176750183E-1,-1.240015030E-1
1.151903620E1,-2.569322586E-1,-4.483294487E-1,-1.575460434E-1
1.152703133E1,-2.553462982E-2,-4.479112625E-1,-1.631007195E-1
1.153505777E1,-2.812743187E-1,-5.541601181E-1,1.226711273E-2
1.154305282E1,-8.629331589E-1,-6.351542473E-1,1.671028137E-1
1.155105033E1,-1.326381683E0,-7.477355003E-1,3.573946953E-1
1.155904438E1,-1.527830601E0,-8.637681007E-1,6.497645378E-1
1.156703951E1,-1.564202785E0,-8.369240761E-1,7.494487762E-1
1.157503549E1,-1.587361813E0,-7.211303711E-1,7.171325684E-1
1.158303054E1,-1.565405369E0,-5.620784760E-1,5.387692451E-1
1.159105844E1,-1.384251118E0,-4.410004616E-1,3.546714783E-1
1.159905264E1,-9.714508057E-1,-2.328128815E-1,1.539525986E-1
1.160704854E1,-6.066246033E-1,-4.742193222E-2,1.083660126E-2
1.161504367E1,-2.778601646E-1,7.531499863E-2,-1.123881340E-1
1.162303933E1,-8.058977127E-2,1.074643135E-1,-2.072939873E-1
1.163103623E1,1.049852371E-1,1.841149330E-1,-1.069498062E-1
1.163903067E1,1.479706764E-1,4.327564240E-1,-2.381014824E-1
1.164705641E1,-1.231288910E-1,7.118248940E-1,-3.102960587E-1
1.165505239E1,-4.897847176E-1,9.227304459E-1,-2.857470512E-1
1.166304805E1,-5.602250099E-1,8.988251686E-1,-2.535724640E-2
1.167104526E1,-3.523926735E-1,7.701148987E-1,2.008080482E-1
1.167903885E1,-1.052246094E-1,6.944189072E-1,3.750901222E-1
1.168703482E1,6.400394440E-2,7.395620346E-1,3.930039406E-1
1.169502988E1,1.966829300E-1,8.650426865E-1,2.862076759E-1
1.170305623E1,2.251420021E-1,9.319896698E-1,1.230096817E-1
1.171105321E1,2.982292175E-1,9.723711014E-1,-2.129936218E-2
1.171904788E1,4.317836761E-1,1.020447254E0,-1.039009094E-1
1.172704300E1,6.562337875E-1,1.038772106E0,-1.460175514E-1
1.173503836E1,6.511859894E-1,1.034874439E0,-2.762351036E-1
1.174303465E1,3.501167297E-1,1.096146107E0,-3.662762642E-1
1.175103085E1,-4.873275757E-4,1.161855221E0,-4.651865959E-1
1.175905521E1,-1.899809837E-1,1.104688644E0,-4.247913361E-1
1.176705118E1,-3.069067001E-1,8.932871819E-1,-3.264718056E-1
1.177504770E1,-3.051409721E-1,5.868477821E-1,-2.575397491E-3
1.178304221E1,-1.478657722E-1,3.354206085E-1,2.837281227E-1
1.179103872E1,1.254668236E-1,2.040014267E-1,4.002523422E-1
1.179903354E1,3.431744576E-1,1.741838455E-1,3.653721809E-1
1.180702921E1,5.558152199E-1,1.201186180E-1,3.048391342E-1
1.181505626E1,7.159881592E-1,2.961730957E-2,1.207027435E-1
1.182305124E1,9.228186607E-1,-7.185411453E-2,6.377506256E-2
1.183104783E1,1.117920637E0,-1.138291359E-1,-1.955604553E-2
1.183904203E1,1.099649191E0,-8.389139175E-2,-2.106995583E-1
1.184703793E1,8.424973488E-1,-2.463436127E-2,-4.031143188E-1
1.185503267E1,4.560136795E-1,1.252985001E-2,-4.769301414E-1
1.186302873E1,-1.178641319E-1,-8.213138580E-2,-3.822531700E-1
1.187105670E1,-4.183125496E-1,-3.191704750E-1,-1.327633858E-1
1.187905114E1,-3.827877045E-1,-5.812292099E-1,1.865353584E-1
1.188704650E1,-5.272388458E-2,-8.168067932E-1,4.165377617E-1
1.189504208E1,2.765908241E-1,-8.760843277E-1,4.606122971E-1
1.190303691E1,5.999050140E-1,-7.362279892E-1,3.631930351E-1
1.191103411E1,7.853696346E-1,-5.473122597E-1,1.271939278E-1
1.191902878E1,8.566188812E-1,-3.187603951E-1,-7.352924347E-2
1.192705491E1,9.060535431E-1,-2.138800621E-1,-1.311926842E-1
1.193505034E1,9.532747269E-1,-1.763029099E-1,-1.081461906E-1
1.194304532E1,9.961864948E-1,-1.302361488E-1,-3.400325775E-2
1.195104221E1,9.486901760E-1,-6.429052353E-2,3.781080246E-2
1.195903696E1,8.073205948E-1,2.100944519E-2,1.895771027E-1
1.196703293E1,5.277154446E-1,9.872770309E-2,1.483573914E-1
1.197502806E1,2.910866737E-1,1.283483505E-1,1.148343086E-1
1.198305388E1,1.396656036E-1,1.906547546E-1,2.462577820E-2
1.199105201E1,1.042628288E-1,1.935553551E-1,-1.262378693E-2
1.199904552E1,1.645789146E-1,1.666865349E-1,2.078819275E-2
1.200704111E1,2.567899227E-1,1.704678535E-1,-6.230783463E-2
1.201503678E1,2.690432072E-1,1.193790436E-1,-1.481361389E-1
1.202303245E1,2.696342468E-1,1.307010651E-3,-1.426196098E-1
1.203102942E1,1.949160099E-1,-7.120943069E-2,-1.575984955E-1
1.203905370E1,3.643798828E-2,-1.846852303E-1,-1.998944283E-1
1.204704906E1,-1.904845238E-2,-2.861857414E-1,-3.817472458E-1
1.205504473E1,7.483100891E-2,-3.216586113E-1,-3.673853874E-1
1.206304063E1,-4.075789452E-2,-3.345713615E-1,-2.312679291E-1
1.207103722E1,-2.240586281E-1,-3.658347130E-1,-2.973217964E-1
1.207903165E1,-2.931888103E-1,-3.989992142E-1,-2.890281677E-1
1.208702678E1,-1.631987095E-1,-4.606075287E-1,-2.792625427E-1
1.209505322E1,6.855535507E-2,-4.655957222E-1,-4.056239128E-1
1.210304912E1,1.940011978E-1,-4.842119217E-1,5.763387680E-2
1.211104640E1,9.016132355E-2,-5.591554642E-1,3.820424080E-1
1.211904045E1,-3.856267929E-1,-5.809526443E-1,4.445476532E-1
1.212703496E1,-6.197624207E-1,-5.348949432E-1,3.864893913E-1
1.213503094E1,-4.822785854E-1,-2.951130867E-1,1.453175545E-1
1.214302683E1,-1.544101238E-1,-1.497297287E-1,1.149463654E-2
1.215105481E1,1.346204281E-1,-6.398344040E-2,-1.008696556E-1
1.215904871E1,1.813800335E-1,-5.923652649E-2,-6.222629547E-2
1.216704376E1,1.195366383E-1,-6.968975067E-2,3.391695023E-2
1.217503935E1,8.897161484E-2,-6.294918060E-2,1.629633904E-1
1.218303532E1,1.415345669E-1,-3.913593292E-2,2.595858574E-1
1.219103199E1,1.390979290E-1,-9.719371796E-3,3.496093750E-1
1.219902635E1,8.508253098E-2,-2.922582626E-2,4.590930939E-1
1.220705255E1,-1.907587051E-3,-3.278636932E-2,5.616116524E-1
1.221504791E1,-1.167027950E-1,-7.115221024E-2,7.861638069E-1
1.222304389E1,-2.110674381E-1,-7.543897629E-2,9.097027779E-1
1.223104048E1,-1.998767853E-1,-5.698204041E-4,9.757733345E-1
1.223903453E1,-7.799315453E-2,1.357479095E-1,1.189451218E0
1.224703027E1,2.620198727E-1,2.404255867E-1,1.352213860E0
1.225505602E1,6.209840775E-1,3.454833031E-1,1.507937431E0
1.226305176E1,1.037024021E0,3.908982277E-1,1.589329243E0
1.227104889E1,1.581724882E0,4.130487442E-1,1.607211590E0
1.227904363E1,1.839865208E0,3.836250305E-1,1.875105381E0
1.228703845E1,1.913807154E0,3.761367798E-1,2.266602993E0
1.229503535E1,1.702538729E0,4.266691208E-1,2.782387257E0
1.230302940E1,1.373316765E0,4.258346558E-1,3.136426449E0
1.231105684E1,1.165049314E0,3.004207611E-1,3.607956886E0
1.231905127E1,1.203118086E0,1.766929626E-1,3.884990215E0
1.232704663E1,1.159645319E0,1.811313629E-1,3.935470104E0
1.233504322E1,9.184186459E-1,3.364510536E-1,3.779017925E0
1.234303851E1,5.833952427E-1,4.941782951E-1,3.535228729E0
1.235103540E1,2.530479431E-1,6.034870148E-1,3.151824951E0
1.235902984E1,1.287574768E-1,6.280641556E-1,2.777663708E0
1.236705597E1,2.119350433E-1,6.205477715E-1,2.474889755E0
1.237505102E1,3.628838062E-1,6.312589645E-1,2.330609798E0
1.238304676E1,4.682826996E-1,6.197743416E-1,2.148233891E0
1.239104266E1,4.704203606E-1,6.049823761E-1,1.987161160E0
1.239903748E1,3.561434746E-1,6.105260849E-1,1.812873363E0
1.240703346E1,1.796135902E-1,6.219458580E-1,1.493068218E0
1.241502912E1,1.358675957E-2,5.697793961E-1,1.330948830E0
1.242305548E1,-1.891787052E-1,4.945263863E-1,8.441042900E-1
1.243105207E1,-3.103544712E-1,3.732867241E-1,4.302597046E-1
1.243904651E1,-3.429803848E-1,3.282995224E-1,4.043149948E-2
1.244704225E1,-3.154499531E-1,3.564324379E-1,-4.382772446E-1
1.245503700E1,-2.420544624E-1,4.364638329E-1,-8.701300621E-1
1.246303320E1,-6.513333321E-2,5.528883934E-1,-1.332949638E0
1.247102918E1,1.253597736E-1,6.371531487E-1,-1.670310020E0
1.247905507E1,3.476412296E-1,7.584428787E-1,-2.009171009E0
1.248704974E1,4.550409317E-1,8.802185059E-1,-2.212049961E0
1.249504610E1,4.748673439E-1,9.081406593E-1,-2.493692875E0
1.250304176E1,4.991569519E-1,8.352699280E-1,-2.596827984E0
1.251103866E1,4.244239330E-1,6.985692978E-1,-2.665669918E0
1.251903248E1,2.762978077E-1,5.574793816E-1,-2.736786366E0
1.252702807E1,4.454874992E-2,3.756608963E-1,-2.753307343E0
1.253505451E1,-1.452696323E-1,1.070532799E-1,-2.827616215E0
1.254304995E1,-3.538401127E-1,-1.983008385E-1,-2.901617050E0
1.255104623E1,-6.179039478E-1,-4.540534019E-1,-2.873843670E0
1.255904090E1,-9.598097801E-1,-7.761540413E-1,-2.885635853E0
1.256703695E1,-1.242699623E0,-1.045712948E0,-2.858478069E0
1.257503200E1,-1.358821392E0,-1.163216591E0,-2.831536293E0
1.258302767E1,-1.228714466E0,-1.185993671E0,-2.879775524E0
1.259105526E1,-1.064995766E0,-1.123356819E0,-2.797865391E0
1.259904946E1,-8.952093124E-1,-1.130993366E0,-2.832888126E0
1.260704567E1,-8.179409504E-1,-1.117551804E0,-2.794871330E0
1.261504079E1,-6.925790310E-1,-1.084122181E0,-2.710630894E0
1.262303638E1,-6.255939007E-1,-1.101492405E0,-2.506830692E0
1.263103274E1,-5.642168522E-1,-1.100010872E0,-2.227644920E0
1.263902710E1,-5.374245644E-1,-1.167231560E0,-1.966946125E0
1.264705300E1,-5.470187664E-1,-1.199432850E0,-1.686735630E0
1.265504859E1,-6.077024937E-1,-1.211400986E0,-1.489182949E0
1.266304487E1,-6.832618713E-1,-1.177045345E0,-1.373733997E0
1.267104154E1,-7.557814121E-1,-1.040957451E0,-1.313519001E0
1.267903567E1,-7.736747265E-1,-8.594427109E-1,-1.595719337E0
1.268703195E1,-7.030045986E-1,-8.475947380E-1,-1.329140663E0
1.269502754E1,-6.063296795E-1,-9.315528870E-1,-9.188380241E-1
1.270305313E1,-2.939882278E-1,-8.990793228E-1,-7.792167664E-1
1.271104964E1,-5.164194107E-2,-8.172950745E-1,-8.002691269E-1
1.271904346E1,6.967616081E-2,-6.722493172E-1,-8.178348541E-1
1.272703982E1,9.435129166E-2,-5.242409706E-1,-7.463316917E-1
1.273503511E1,1.138534546E-1,-3.855743408E-1,-7.083544731E-1
1.274303077E1,1.178545952E-1,-2.972660065E-1,-6.200718880E-1
1.275102705E1,-4.117417336E-2,-2.970657349E-1,-6.195669174E-1
1.275905257E1,-7.544684410E-2,-3.059382439E-1,-4.003772736E-1
1.276704831E1,1.629574299E-1,-2.486114502E-1,-2.560663223E-2
1.277504398E1,3.046576977E-1,-1.706948280E-1,5.764250755E-1
1.278303934E1,2.913365364E-1,-8.302402496E-2,5.707669258E-1
1.279103646E1,2.020697594E-1,1.326856613E-1,-3.021907806E-2
1.279903098E1,2.540531158E-1,2.346515656E-1,4.035663605E-2
1.280702626E1,4.926195145E-1,2.408351898E-1,3.171315193E-1
1.281505270E1,4.605975151E-1,3.332710266E-1,3.095002174E-1
1.282304836E1,2.725570202E-1,3.312792778E-1,2.431101799E-1
1.283104503E1,1.543900967E-1,-2.122879028E-3,6.105575562E-1
1.283903908E1,5.182075500E-2,-3.022365570E-1,4.335813522E-1
1.284703483E1,-2.024033070E-1,-6.454944611E-1,1.053512573E0
1.285502988E1,-4.683125019E-1,-8.461918831E-1,1.076004982E0
1.286302639E1,-4.298746586E-1,-9.533624649E-1,1.151878357E0
1.287105252E1,-4.596812725E-1,-9.388847351E-1,1.074862957E0
1.287904726E1,-6.537137032E-1,-8.636126518E-1,1.043302536E0
1.288704239E1,-7.220535278E-1,-8.685836792E-1,8.409981728E-1
1.289503867E1,-3.441836834E-1,-8.794050217E-1,6.691250801E-1
1.290303403E1,5.435180664E-1,-8.453845978E-1,5.072879791E-1
1.291103116E1,1.434575796E0,-8.905658722E-1,5.015211105E-1
1.291902537E1,1.682956696E0,-9.977622032E-1,4.298901558E-1
1.292705142E1,1.251064777E0,-1.083960533E0,5.548915863E-1
1.293504747E1,6.382255554E-1,-1.033656597E0,7.669076920E-1
1.294304221E1,-1.395630836E-2,-9.323921204E-1,1.057894707E0
1.295103819E1,-5.272505283E-1,-9.030184746E-1,1.225356579E0
1.295903408E1,-7.324700356E-1,-9.211974144E-1,1.317636490E0
1.296702944E1,-8.285579681E-1,-9.908914566E-1,1.430442810E0
1.297502488E1,-7.882535458E-1,-9.729404449E-1,1.391163826E0
1.298305124E1,-6.216547489E-1,-7.973461151E-1,1.118933678E0
1.299104760E1,-2.996094227E-1,-6.571912766E-1,1.386010647E0
1.299904196E1,4.622077942E-2,-5.816040039E-1,1.291763306E0
1.300703762E1,1.999256611E-1,-6.869463921E-1,1.450100899E0
1.301503360E1,4.273936749E-1,-9.355297089E-1,1.817302704E0
1.302302842E1,3.753838539E-1,-8.337960243E-1,1.229595661E0
1.303102555E1,-4.406833649E-2,-4.362816811E-1,2.146711349E-1
1.303905044E1,-8.915019035E-2,-3.688478470E-2,1.964278221E-1
1.304704642E1,-5.718660355E-2,-4.093027115E-2,5.082664490E-1
1.305504124E1,-4.051327705E-1,-1.843376160E-1,6.375813484E-1
1.306303714E1,-4.438610077E-1,-1.732749939E-1,8.456726074E-1
1.307103434E1,-9.066867828E-2,1.444053650E-2,6.525588036E-1
1.307902878E1,3.567450047E-1,1.124472618E-1,5.156936646E-1
1.308702383E1,4.375019073E-1,6.106805801E-2,6.010150909E-1
1.309505004E1,2.360579967E-1,2.262401581E-2,6.007275581E-1
1.310304563E1,-1.850316525E-1,1.265859604E-2,7.963943481E-1
1.311104252E1,-5.301020145E-1,4.377126694E-2,6.686220169E-1
1.311903727E1,-8.622562885E-1,1.274943352E-1,3.844170570E-1
1.312703263E1,-8.960950375E-1,3.436574936E-1,5.998086929E-2
1.313502829E1,-7.575747967E-1,5.289416313E-1,-2.065968513E-1
1.314302304E1,-5.701014996E-1,5.592446327E-1,4.040956497E-2
1.315105017E1,-3.340225220E-1,5.518970490E-1,2.737960815E-1
1.315904576E1,-7.026863098E-2,4.637641907E-1,4.048490524E-1
1.316704088E1,1.702632904E-1,3.979825974E-1,4.773211479E-1
1.317503686E1,4.135613441E-1,3.921966553E-1,5.989499092E-1
1.318303191E1,5.565106869E-1,4.895572662E-1,3.673501015E-1
1.319102912E1,6.438395977E-1,5.765905380E-1,1.883668900E-1
1.319902347E1,7.176578045E-1,8.127818108E-1,8.870601654E-2
1.320704960E1,7.705733776E-1,1.086605072E0,-2.964034081E-1
1.321504496E1,7.272269726E-1,1.452283859E0,-7.528214455E-1
1.322304009E1,5.800180435E-1,1.640243530E0,-7.819542885E-1
1.323103760E1,2.965660095E-1,1.660772800E0,-3.490200043E-1
1.323903166E1,1.555190086E-1,1.521845341E0,1.937541962E-1
1.324702740E1,1.579904556E-1,1.378912926E0,5.771112442E-1
1.325502276E1,2.420010567E-1,1.269961834E0,5.680432320E-1
1.326304889E1,4.198837280E-1,1.247914314E0,3.732581139E-1
1.327104548E1,8.277626038E-1,1.238820553E0,3.537378311E-1
1.327904045E1,1.179582357E0,1.132373810E0,4.789042473E-1
1.328703558E1,1.155072451E0,9.851136208E-1,3.802123070E-1
1.329503155E1,7.820115089E-1,8.324465752E-1,1.209659576E-1
1.330302653E1,4.852709770E-1,8.168296814E-1,-3.685040474E-1
1.331102343E1,1.207504272E-1,9.910058975E-1,-1.008488655E0
1.331904894E1,1.737356186E-2,1.176440716E0,-1.175726414E0
1.332704399E1,2.334513664E-1,1.226297855E0,-8.843865395E-1
1.333503966E1,7.421147823E-1,1.098942757E0,-3.181476593E-1
1.334303502E1,1.125933409E0,9.044160843E-1,3.513517380E-1
1.335103191E1,1.285580873E0,7.238864899E-1,5.434122086E-1
1.335902635E1,1.217575312E0,6.133246422E-1,5.776553154E-1
1.336705194E1,1.038757086E0,4.992804527E-1,6.135702133E-1
1.337504791E1,8.127493858E-1,4.910445213E-1,5.858435631E-1
1.338304358E1,6.218292713E-1,5.161333084E-1,6.645140648E-1
1.339104040E1,5.330097675E-1,6.234946251E-1,5.439620018E-1
1.339903491E1,5.606424809E-1,6.832385063E-1,5.042228699E-1
1.340702997E1,5.630590916E-1,7.162394524E-1,4.060282707E-1
1.341502617E1,6.101238728E-1,7.136669159E-1,7.817745209E-3
1.342305230E1,6.211316586E-1,6.200675964E-1,-2.240281105E-1
1.343104835E1,5.594861507E-1,4.302234650E-1,-2.160801888E-1
1.343904310E1,4.080276489E-1,2.865552902E-1,-2.089514732E-1
1.344703869E1,2.037024498E-1,2.437453270E-1,-3.292026520E-1
1.345503412E1,1.135091782E-1,3.095974922E-1,-5.657019615E-1
1.346303010E1,4.818630219E-2,4.105567932E-1,-8.426876068E-1
1.347102699E1,-7.265090942E-2,4.633650780E-1,-8.847088814E-1
1.347905181E1,-3.593068123E-1,4.782457352E-1,-7.873988152E-1
1.348704779E1,-9.004039764E-1,4.158854485E-1,-4.655289650E-1
1.349504323E1,-1.261853695E0,3.987331390E-1,-3.185958862E-1
1.350303858E1,-1.429719925E0,3.291563988E-1,3.279161453E-2
1.351103487E1,-1.429493904E0,2.815785408E-1,3.598394394E-1
1.351902892E1,-1.380784512E0,3.525466919E-1,6.977019310E-1
1.352702459E1,-1.361875057E0,6.633887291E-1,8.809504509E-1
1.353505110E1,-1.434481144E0,1.138393879E0,8.752298355E-1
1.354304638E1,-1.375936508E0,1.582944155E0,9.663839340E-1
1.355104366E1,-9.434909821E-1,1.753681183E0,1.313621998E0
1.355903810E1,-1.702632904E-1,1.629333019E0,1.058441639E0
1.356703407E1,3.673238754E-1,1.384416819E0,1.331776142E0
1.357502912E1,1.566576958E-1,1.246549845E0,1.324778557E0
1.358302510E1,-3.334345818E-1,1.101047993E0,1.003219604E0
1.359105215E1,-3.552179337E-1,8.869347572E-1,1.005853653E0
1.359904628E1,-3.551721573E-2,6.792778969E-1,1.651379585E0
1.360704133E1,1.959762573E-1,5.169315338E-1,2.004862309E0
1.361503669E1,3.467836380E-1,4.518232346E-1,2.262505054E0
1.362303320E1,6.736350060E-1,4.032645226E-1,2.502528191E0
1.363102956E1,1.120067120E0,3.593072891E-1,2.657428741E0
1.363902400E1,1.648770571E0,2.804384232E-1,2.531650543E0
1.364705036E1,2.105074644E0,1.445932388E-1,2.341793060E0
1.365504579E1,2.667355776E0,-8.073806763E-3,1.993308544E0
1.366304138E1,3.114243269E0,-1.969442368E-1,1.772026062E0
1.367103805E1,3.396571636E0,-3.313879967E-1,1.551822186E0
1.367903218E1,3.576974392E0,-5.215864182E-1,1.242134571E0
1.368702869E1,3.524851799E0,-7.933216095E-1,1.046187401E0
1.369502413E1,3.236387253E0,-1.124807358E0,6.060409546E-1
1.370304964E1,2.780767441E0,-1.509076118E0,2.546305656E-1
1.371104677E1,2.327839136E0,-1.801169872E0,-1.806445122E-1
1.371904059E1,1.712462664E0,-2.088087082E0,-4.549093246E-1
1.372703687E1,1.095854044E0,-2.263116837E0,-4.624319077E-1
1.373503223E1,3.578095436E-1,-2.372487545E0,-6.036553383E-1
1.374302767E1,-3.530306816E-1,-2.508484840E0,-5.498695374E-1
1.375102449E1,-1.004551888E0,-2.593728542E0,-4.989213943E-1
1.375904938E1,-1.418700695E0,-2.734292507E0,-3.322772980E-1
1.376704513E1,-1.624077797E0,-2.795629501E0,-3.044095039E-1
1.377504110E1,-1.766321182E0,-2.809859276E0,-4.866061211E-1
1.378303639E1,-1.807877541E0,-2.676730633E0,-7.408232689E-1
1.379103305E1,-1.679981232E0,-2.405214787E0,-1.244689941E0
1.379902741E1,-1.356884956E0,-2.142971516E0,-1.600231171E0
1.380702285E1,-1.017549515E0,-1.956173420E0,-1.929951191E0
1.381504959E1,-7.876167297E-1,-1.835173607E0,-2.151184082E0
1.382304518E1,-7.029514313E-1,-1.710518360E0,-2.214669228E0
1.383104154E1,-5.586404800E-1,-1.413853645E0,-2.329289436E0
1.383903528E1,-4.603471756E-1,-1.015514851E0,-2.099974155E0
1.384703095E1,-5.868687630E-1,-7.531733513E-1,-1.897757053E0
1.385502731E1,-7.210741043E-1,-5.226039886E-1,-1.581747055E0
1.386302267E1,-7.828674316E-1,-3.034944534E-1,-1.377836704E0
1.387104941E1,-9.089818001E-1,-5.781936646E-2,-1.220476151E0
1.387904346E1,-1.044132233E0,1.648950577E-1,-1.110521793E0
1.388703913E1,-1.150053978E0,3.263268471E-1,-1.067298412E0
1.389503488E1,-1.079053402E0,4.385638237E-1,-1.157041073E0
1.390303108E1,-8.767123222E-1,5.569386482E-1,-1.257584572E0
1.391102806E1,-6.093726158E-1,5.977697372E-1,-1.267843723E0
1.391902157E1,-4.943337440E-1,6.469488144E-1,-1.324982166E0
1.392704854E1,-4.954767227E-1,6.961350441E-1,-1.328448772E0
1.393504306E1,-5.275368690E-1,8.246774673E-1,-1.303496361E0
1.394303934E1,-5.815720558E-1,9.108352661E-1,-1.203325272E0
1.395103593E1,-7.108511925E-1,9.902596474E-1,-1.115653038E0
1.395903067E1,-6.711745262E-1,1.058558464E0,-1.092866421E0
1.396702603E1,-5.296931267E-1,1.116367340E0,-9.454021454E-1
1.397502139E1,-3.661770821E-1,1.188117504E0,-9.127621651E-1
1.398304775E1,-2.069468498E-1,1.217019081E0,-9.536929131E-1
1.399104442E1,-1.044163704E-1,1.295331478E0,-1.047821999E0
1.399903908E1,-1.262025833E-1,1.363142967E0,-1.110215187E0
1.400703414E1,-3.213500977E-1,1.445048809E0,-1.108821869E0
1.401503042E1,-5.111761093E-1,1.552996635E0,-1.103993893E0
1.402302585E1,-6.846213341E-1,1.759189606E0,-1.081538677E0
1.403102183E1,-8.520412445E-1,1.903563976E0,-8.404574394E-1
1.403904757E1,-8.934183121E-1,1.869565964E0,-5.015554428E-1
1.404704262E1,-7.368254662E-1,1.782523632E0,-1.953363419E-1
1.405503860E1,-5.287547112E-1,1.723040104E0,-6.161785126E-2
1.406303457E1,-3.148937225E-1,1.651841640E0,7.295846939E-2
1.407103147E1,-1.661796570E-1,1.652154446E0,2.523608208E-1
1.407902529E1,-1.521048546E-1,1.654239178E0,5.794978142E-1
1.408702134E1,-1.136622429E-1,1.672451019E0,6.415810585E-1
1.409504647E1,-9.385251999E-2,1.669686794E0,8.902006149E-1
1.410304244E1,-2.136707306E-3,1.688583374E0,1.114667416E0
1.411104034E1,1.988224983E-1,1.620014191E0,1.244050503E0
1.411903324E1,4.249329567E-1,1.504614830E0,1.326368809E0
1.412702944E1,6.159796715E-1,1.384971142E0,1.435487747E0
1.413502511E1,6.661410332E-1,1.227875710E0,1.372372627E0
1.414302024E1,4.884939194E-1,1.086724281E0,1.309039593E0
1.415104814E1,2.385258675E-1,8.935971260E-1,1.280207157E0
1.415904257E1,8.851528168E-3,6.405372620E-1,1.372946739E0
1.416703793E1,-5.347299576E-2,4.304246902E-1,1.557882786E0
1.417503368E1,-7.281303406E-2,2.769937515E-1,1.694550514E0
1.418302904E1,-1.621723175E-1,1.447215080E-1,1.809203625E0
1.419102647E1,-1.528644562E-1,1.537752151E-2,2.002299786E0
1.419901945E1,-2.788934708E-1,-1.958212852E-1,2.088956833E0
1.420704611E1,-4.836330414E-1,-2.814307213E-1,2.203623295E0
1.421504216E1,-6.569027901E-1,-3.731307983E-1,2.340254307E0
1.422303714E1,-6.735773087E-1,-5.651617050E-1,2.349174500E0
1.423103381E1,-5.368223190E-1,-7.596163750E-1,2.354201317E0
1.423902816E1,-3.554706573E-1,-9.629793167E-1,2.249222279E0
1.424702445E1,-1.652507782E-1,-1.129101753E0,2.070929527E0
1.425505027E1,-1.482248306E-2,-1.238034725E0,1.897869587E0
1.426304570E1,2.117872238E-2,-1.316240788E0,1.647760391E0
1.427104260E1,1.245374680E-1,-1.368642330E0,1.429965496E0
1.427903635E1,3.518190384E-1,-1.400114536E0,1.123432636E0
1.428703232E1,6.175112724E-1,-1.381099701E0,9.111514091E-1
1.429502860E1,8.682451248E-1,-1.418795109E0,6.461634636E-1
1.430302373E1,1.033247471E0,-1.459812641E0,4.372844696E-1
1.431105132E1,1.009321690E0,-1.484714508E0,2.532906532E-1
1.431904514E1,7.990760803E-1,-1.441103458E0,9.404468536E-2
1.432704058E1,6.007323265E-1,-1.415911198E0,-1.083593369E-1
1.433503624E1,4.955911636E-1,-1.365645409E0,-3.420400620E-1
1.434303130E1,4.887213707E-1,-1.401581764E0,-4.984650612E-1
1.435102881E1,4.986033440E-1,-1.401895523E0,-6.889710426E-1
1.435902317E1,4.568090439E-1,-1.340037823E0,-9.376592636E-1
1.436704937E1,3.950810432E-1,-1.232313633E0,-1.033979416E0
1.437504442E1,1.854677200E-1,-1.097238541E0,-1.194418430E0
1.438304071E1,-8.303165436E-3,-9.585242271E-1,-1.286417007E0
1.439103691E1,-2.593669891E-1,-8.573002815E-1,-1.433916092E0
1.439903204E1,-3.575234413E-1,-7.377161980E-1,-1.514452934E0
1.440702709E1,-4.539442062E-1,-5.722970963E-1,-1.408225536E0
1.441502245E1,-6.296095848E-1,-3.939542770E-1,-1.267460346E0
1.442304850E1,-8.068771362E-1,-2.258830070E-1,-1.322523594E0
1.443104602E1,-9.400682449E-1,-4.598760605E-2,-1.414138794E0
1.443903984E1,-1.009833336E0,9.889078140E-2,-1.356341362E0
1.444703620E1,-1.115737915E0,2.380580902E-1,-1.310144424E0
1.445503148E1,-1.144833088E0,3.843288422E-1,-1.264362812E0
1.446302722E1,-1.160647869E0,4.859671593E-1,-1.252800465E0
1.447102374E1,-1.177113533E0,6.365685463E-1,-1.143426418E0
1.447904894E1,-1.171869755E0,7.264313698E-1,-1.100659370E0
1.448704399E1,-1.161080360E0,8.323750496E-1,-1.076108932E0
1.449503943E1,-1.140853405E0,9.356055260E-1,-1.042162895E0
1.450303479E1,-1.142248631E0,9.114122391E-1,-9.948544502E-1
1.451103199E1,-1.020584583E0,9.730424881E-1,-8.997311592E-1
1.451902697E1,-8.380942345E-1,1.113558292E0,-7.749528885E-1
1.452702210E1,-6.746540070E-1,1.330866814E0,-6.106290817E-1
1.453504761E1,-6.338872910E-1,1.543546915E0,-4.336285591E-1
1.454304358E1,-7.560429573E-1,1.734244823E0,-2.896056175E-1
1.455104071E1,-9.223809242E-1,1.925902605E0,-2.644805908E-1
1.455903422E1,-1.047242641E0,1.978863955E0,-2.616572380E-1
1.456702997E1,-1.126397610E0,1.982891321E0,-2.231154442E-1
1.457502586E1,-1.144115925E0,1.914757013E0,-1.585092545E-1
1.458302099E1,-1.117651939E0,1.826316595E0,-5.906343460E-2
1.459104951E1,-1.024494648E0,1.754764080E0,1.404967308E-1
1.459904310E1,-9.108958244E-1,1.776341677E0,4.135804176E-1
1.460703876E1,-7.633180618E-1,1.794908762E0,5.969762802E-1
1.461503443E1,-5.964579582E-1,1.774972200E0,5.709505081E-1
1.462303010E1,-2.690248489E-1,1.730273008E0,5.952281952E-1
1.463102692E1,7.373523712E-2,1.663054228E0,5.281124115E-1
1.463902143E1,3.769197464E-1,1.583217382E0,5.486736298E-1
1.464704725E1,5.466737747E-1,1.509825468E0,5.577149391E-1
1.465504284E1,5.969672203E-1,1.436568499E0,6.634674072E-1
1.466303851E1,6.479554176E-1,1.403185129E0,8.950119019E-1
1.467103518E1,7.278742790E-1,1.346752405E0,9.665493965E-1
1.467902961E1,7.633752823E-1,1.268599272E0,1.120283127E0
1.468702489E1,8.655810356E-1,1.191158056E0,1.192873478E0
1.469502118E1,1.018832207E0,1.108279943E0,1.298922062E0
1.470304677E1,1.203047276E0,1.011383772E0,1.354622841E0
1.471104389E1,1.332584858E0,8.803126812E-1,1.332772255E0
1.471903802E1,1.483278751E0,6.573977470E-1,1.219450474E0
1.472703438E1,1.568847656E0,4.567179680E-1,1.077390671E0
1.473502966E1,1.636211395E0,2.267155647E-1,9.634122849E-1
1.474302418E1,1.642591476E0,5.945634842E-2,6.886491776E-1
1.475102108E1,1.548018456E0,-4.988718033E-2,5.024423599E-1
1.475904620E1,1.394734859E0,-2.093615532E-1,3.941802979E-1
1.476704249E1,1.359970570E0,-3.781993389E-1,4.026718140E-1
1.477503761E1,1.404117584E0,-6.441094875E-1,4.082369804E-1
1.478303328E1,1.474121571E0,-8.840177059E-1,4.190287590E-1
1.479103018E1,1.518634319E0,-1.118579865E0,4.446048737E-1
1.479902362E1,1.544750452E0,-1.399370432E0,4.763131142E-1
1.480701936E1,1.570626020E0,-1.669926405E0,5.410308838E-1
1.481504518E1,1.600398540E0,-1.932660818E0,5.827074051E-1
1.482304177E1,1.610020638E0,-2.121608734E0,5.692095757E-1
1.483103797E1,1.622284651E0,-2.326462269E0,4.693107605E-1
1.483903302E1,1.615206480E0,-2.439599991E0,2.775449753E-1
1.484702839E1,1.633627176E0,-2.480678082E0,2.036457062E-1
1.485502405E1,1.735124111E0,-2.513786316E0,1.265835762E-1
1.486301887E1,1.793214083E0,-2.558175564E0,7.132053375E-2
1.487104646E1,1.822634935E0,-2.656045437E0,-5.147838593E-2
1.487904098E1,1.797666788E0,-2.807390690E0,-5.365037918E-2
1.488703656E1,1.768903017E0,-2.912396908E0,3.920125961E-2
1.489503200E1,1.764329910E0,-3.020168304E0,-1.116514206E-2
1.490302767E1,1.721739769E0,-3.070428371E0,5.262231827E-2
1.491102487E1,1.806007385E0,-3.111078262E0,1.003170013E-2
1.491901900E1,1.895239115E0,-3.147632122E0,4.984998703E-2
1.492704536E1,2.095984936E0,-3.228378773E0,3.357744217E-2
1.493504072E1,2.334609032E0,-3.263652325E0,-1.119394302E-1
1.494303608E1,2.486294270E0,-3.262691975E0,-2.056851387E-1
1.495103298E1,2.629998922E0,-3.319099903E0,-3.613286018E-1
1.495902710E1,2.527452230E0,-3.401008606E0,-5.730867386E-1
1.496702277E1,2.321299553E0,-3.619944096E0,-7.969117165E-1
1.497501821E1,2.043490410E0,-3.780327797E0,-1.019900799E0
1.498304372E1,1.806645513E0,-3.875237465E0,-1.155065536E0
1.499104093E1,1.558840752E0,-3.965263844E0,-1.192821503E0
1.499903559E1,1.322437763E0,-4.021761417E0,-1.105328560E0
1.500703134E1,9.471850395E-1,-3.992473602E0,-1.028840065E0
1.501502724E1,6.157844067E-1,-3.937476158E0,-9.245724678E-1
1.502302267E1,3.379378319E-1,-3.842903137E0,-1.028394699E0
1.503101949E1,2.309672832E-1,-3.770797729E0,-1.174924850E0
1.503904416E1,2.746460438E-1,-3.763834000E0,-1.310635090E0
1.504704013E1,3.106260300E-1,-3.682536602E0,-1.494132519E0
1.505503572E1,2.483608723E-1,-3.588582039E0,-1.685636520E0
1.506303054E1,6.190776825E-2,-3.450843811E0,-1.781114578E0
1.507102775E1,-1.189794540E-1,-3.334472656E0,-1.839642525E0
1.507902242E1,-2.723472118E-1,-3.188999176E0,-1.896956921E0
1.508701778E1,-4.092597961E-1,-3.066662312E0,-1.916213036E0
1.509504398E1,-6.346049309E-1,-2.932981014E0,-1.890198231E0
1.510303957E1,-9.455721378E-1,-2.768095970E0,-1.846939564E0
1.511103654E1,-1.269568443E0,-2.612565994E0,-1.797864914E0
1.511903160E1,-1.473156452E0,-2.442508221E0,-1.803054333E0
1.512702626E1,-1.579845667E0,-2.160702229E0,-1.775237083E0
1.513502139E1,-1.570112228E0,-1.913726330E0,-1.765727520E0
1.514301698E1,-1.577398777E0,-1.669321060E0,-1.756649017E0
1.515104411E1,-1.633526325E0,-1.460801125E0,-1.749309540E0
1.515903885E1,-1.671022415E0,-1.226899624E0,-1.730828285E0
1.516703452E1,-1.697856903E0,-9.071264267E-1,-1.732221127E0
1.517502957E1,-1.665289164E0,-6.536521912E-1,-1.675703049E0
1.518302493E1,-1.628849030E0,-4.191389084E-1,-1.551979542E0
1.519102329E1,-1.557854176E0,-2.486591339E-1,-1.385540485E0
1.519901711E1,-1.484102726E0,-6.370115280E-2,-1.193939686E0
1.520704332E1,-1.308153629E0,1.434974670E-1,-9.131116867E-1
1.521503860E1,-1.143445730E0,3.906016350E-1,-7.231860161E-1
1.522303373E1,-9.416990280E-1,6.770019531E-1,-6.021194458E-1
1.523103124E1,-7.568049431E-1,8.447408676E-1,-4.741196632E-1
1.523902498E1,-6.090028286E-1,1.033294678E0,-3.897466660E-1
1.524702096E1,-5.389108658E-1,1.085866928E0,-3.310689926E-1
1.525501701E1,-6.047561169E-1,1.164218426E0,-2.257266045E-1
1.526304252E1,-8.375785351E-1,1.280692577E0,-1.690320969E-1
1.527103911E1,-1.104872704E0,1.372686863E0,-1.139874458E-1
1.527903347E1,-1.502407074E0,1.430488586E0,5.752372742E-2
1.528702945E1,-1.745851040E0,1.472810268E0,2.247834206E-1
1.529502511E1,-1.909376621E0,1.484272003E0,4.548306465E-1
1.530302017E1,-1.903703690E0,1.483523846E0,6.206755638E-1
1.531104760E1,-1.836063862E0,1.437892914E0,6.392288208E-1
1.531904204E1,-1.647819519E0,1.417443275E0,6.023135185E-1
1.532703824E1,-1.364452839E0,1.339231014E0,4.865717888E-1
1.533503306E1,-1.029489517E0,1.315988541E0,3.576292992E-1
1.534302927E1,-7.473807335E-1,1.281874657E0,2.574238777E-1
1.535102586E1,-5.732436180E-1,1.248378277E0,1.872348785E-1
1.535902060E1,-5.201044083E-1,1.168619633E0,1.512718201E-1
1.536704581E1,-4.963569641E-1,1.121768475E0,1.550254822E-1
1.537504178E1,-4.843459129E-1,1.118326664E0,2.150735855E-1
1.538303691E1,-5.256490707E-1,1.122202396E0,2.278366089E-1
1.539103442E1,-5.769071579E-1,1.167348385E0,3.622050285E-1
1.539902817E1,-5.022854805E-1,1.168095827E0,5.254230499E-1
1.540702383E1,-4.051065445E-1,1.179425001E0,6.267886162E-1
1.541501927E1,-1.956415176E-1,1.227030754E0,6.672501564E-1
1.542304540E1,2.974939346E-2,1.304555416E0,6.859617233E-1
1.543104199E1,3.063306808E-1,1.307737350E0,6.568861008E-1
1.543903704E1,5.455517769E-1,1.330498457E0,6.123232841E-1
1.544703240E1,6.977648735E-1,1.283217669E0,4.882192612E-1
1.545502776E1,7.799320221E-1,1.244790316E0,4.275197983E-1
1.546302373E1,8.532423973E-1,1.204959631E0,4.019126892E-1
1.547102125E1,8.933973312E-1,1.095491171E0,4.869165421E-1
1.547904576E1,8.371348381E-1,9.914138317E-1,5.682582855E-1
1.548704027E1,7.625684738E-1,8.231091499E-1,6.236310005E-1
1.549503686E1,7.786836624E-1,6.552128792E-1,6.474390030E-1
1.550303160E1,8.745427132E-1,4.956324100E-1,6.966266632E-1
1.551102881E1,1.061743259E0,4.028818607E-1,6.901707649E-1
1.551902294E1,1.254262447E0,3.207859993E-1,6.600694656E-1
1.552701861E1,1.441100359E0,2.429723740E-1,6.098566055E-1
1.553504435E1,1.608633518E0,1.269109249E-1,5.810508728E-1
1.554304032E1,1.676972866E0,-1.048398018E-2,5.364365578E-1
1.555103784E1,1.663936615E0,-1.854009628E-1,4.506387711E-1
1.555903112E1,1.649391890E0,-3.358328342E-1,3.814969063E-1
1.556702732E1,1.594057798E0,-5.049569607E-1,4.049005508E-1
1.557502307E1,1.551299810E0,-6.161653996E-1,4.694719315E-1
1.558301843E1,1.543783903E0,-7.145922184E-1,4.812664986E-1
1.559104517E1,1.493944883E0,-8.876507282E-1,5.945377350E-1
1.559903992E1,1.402990103E0,-9.872987270E-1,5.371170044E-1
1.560703550E1,1.307293653E0,-1.146564245E0,5.159182549E-1
1.561503094E1,1.255201101E0,-1.234600067E0,4.597716331E-1
1.562302653E1,1.268693209E0,-1.265884638E0,4.073104858E-1
1.563102381E1,1.357844830E0,-1.326229334E0,3.862791061E-1
1.563901756E1,1.416304588E0,-1.348378181E0,3.363313675E-1
1.564704438E1,1.450297117E0,-1.434246778E0,2.837944031E-1
1.565503881E1,1.424518347E0,-1.521246433E0,1.573467255E-1
1.566303510E1,1.382887125E0,-1.673847675E0,7.243251801E-2
1.567103199E1,1.369999886E0,-1.847139359E0,2.231979370E-2
1.567902582E1,1.383497238E0,-1.924266338E0,-4.352331161E-2
1.568702179E1,1.387181044E0,-1.956549168E0,-2.764129639E-2
1.569501715E1,1.371331692E0,-2.004841805E0,-6.711816788E-2
1.570304412E1,1.373931408E0,-2.100665092E0,-7.376813889E-2
1.571103979E1,1.351781130E0,-2.144373417E0,-1.056146622E-1
1.571903430E1,1.349112749E0,-2.198396206E0,-1.250534058E-1
1.572703020E1,1.388297558E0,-2.314926147E0,-1.923894882E-1
1.573502533E1,1.406179667E0,-2.422812462E0,-1.814627647E-1
1.574302130E1,1.441705704E0,-2.579754353E0,-9.818029404E-2
1.575101843E1,1.430022001E0,-2.770759583E0,-1.040139198E-1
1.575904371E1,1.386551738E0,-2.944070339E0,-1.822834015E-1
1.576703838E1,1.377478957E0,-3.129556179E0,-2.707872391E-1
1.577503412E1,1.425597429E0,-3.266895294E0,-3.951768875E-1
1.578303041E1,1.533985019E0,-3.356443882E0,-5.613179207E-1
1.579102607E1,1.684663892E0,-3.442973137E0,-6.894450188E-1
1.579902143E1,1.820771813E0,-3.478614330E0,-8.355865479E-1
1.580701679E1,1.867633939E0,-3.535646915E0,-9.893651009E-1
1.581504292E1,1.763212562E0,-3.620790482E0,-1.128995895E0
1.582303828E1,1.507947326E0,-3.689409256E0,-1.223747253E0
1.583103549E1,1.179140449E0,-3.719318390E0,-1.248080730E0
1.583902992E1,8.175280094E-1,-3.757634640E0,-1.289128780E0
1.584702467E1,6.343610287E-1,-3.791748524E0,-1.259724617E0
1.585502118E1,4.955494404E-1,-3.789943218E0,-1.198683739E0
1.586301592E1,4.225792885E-1,-3.704233170E0,-1.154644966E0
1.587104359E1,4.015450478E-1,-3.608873844E0,-1.123453140E0
1.587903802E1,3.189041615E-1,-3.494245529E0,-1.237048626E0
1.588703369E1,2.587807178E-1,-3.386321068E0,-1.399317265E0
1.589502944E1,2.543942928E-1,-3.304225922E0,-1.499413967E0
1.590302410E1,2.333598137E-1,-3.300444126E0,-1.646795750E0
1.591102100E1,1.972482204E-1,-3.269359112E0,-1.748469353E0
1.591901551E1,1.213543415E-1,-3.214591026E0,-1.784204006E0
1.592704164E1,-6.813979149E-2,-3.149543762E0,-1.766617298E0
1.593503754E1,-3.451702595E-1,-3.066388607E0,-1.763736248E0
1.594303297E1,-5.522129536E-1,-2.980743408E0,-1.740425587E0
1.595103018E1,-7.207787037E-1,-2.867669106E0,-1.661601067E0
1.595902400E1,-8.823795319E-1,-2.725148678E0,-1.594574451E0
1.596701936E1,-9.988172054E-1,-2.592121601E0,-1.513350010E0
1.597501557E1,-1.098591805E0,-2.449240685E0,-1.470383644E0
1.598304146E1,-1.151039839E0,-2.373937607E0,-1.403973579E0
