"Time (s)","Gyroscope x (rad/s)","Gyroscope y (rad/s)","Gyroscope z (rad/s)"
4.543079000E-3,-1.221730490E-3,-1.356120855E-1,1.771509275E-2
6.588619000E-3,-1.221730490E-3,-1.356120855E-1,1.771509275E-2
8.693006000E-3,-1.221730490E-3,-1.356120855E-1,1.771509275E-2
1.067662400E-2,-1.221730490E-3,-1.356120855E-1,1.771509275E-2
1.269078000E-2,-1.221730490E-3,-1.356120855E-1,1.771509275E-2
1.467485900E-2,-1.221730490E-3,-1.356120855E-1,1.771509275E-2
1.668901500E-2,-1.221730490E-3,-1.356120855E-1,1.771509275E-2
1.867201700E-2,-1.221730490E-3,-1.356120855E-1,1.771509275E-2
2.068678900E-2,-1.221730490E-3,-1.356120855E-1,1.771509275E-2
2.266986800E-2,-1.221730490E-3,-1.356120855E-1,1.771509275E-2
2.468379300E-2,-1.221730490E-3,-1.356120855E-1,1.771509275E-2
2.666802600E-2,-1.221730490E-3,-1.356120855E-1,1.771509275E-2
2.868195100E-2,-1.221730490E-3,-1.356120855E-1,1.771509275E-2
3.066656800E-2,-1.221730490E-3,-1.356120855E-1,1.771509275E-2
3.267949400E-2,-1.221730490E-3,-1.356120855E-1,1.771509275E-2
3.469418900E-2,-1.221730490E-3,-1.356120855E-1,1.771509275E-2
3.667788300E-2,-1.221730490E-3,-1.356120855E-1,1.771509275E-2
3.869234600E-2,-1.221730490E-3,-1.356120855E-1,1.771509275E-2
4.067727200E-2,-1.221730490E-3,-1.356120855E-1,1.771509275E-2
4.269081300E-2,-1.221730490E-3,-1.356120855E-1,1.771509275E-2
4.467396900E-2,-1.221730490E-3,-1.356120855E-1,1.771509275E-2
4.668750900E-2,-1.221730490E-3,-1.356120855E-1,1.771509275E-2
4.867112700E-2,-1.221730490E-3,-1.356120855E-1,1.771509275E-2
5.068559000E-2,-1.221730490E-3,-1.356120855E-1,1.771509275E-2
5.266959200E-2,-1.221730490E-3,-1.356120855E-1,1.771509275E-2
5.468436400E-2,-1.221730490E-3,-1.356120855E-1,1.771509275E-2
5.666775100E-2,-1.221730490E-3,-1.356120855E-1,1.771509275E-2
5.868075300E-2,-1.221730490E-3,-1.356120855E-1,1.771509275E-2
6.069575500E-2,-1.221730490E-3,-1.356120855E-1,1.771509275E-2
6.267921900E-2,-1.221730490E-3,-1.356120855E-1,1.771509275E-2
6.469275900E-2,-1.221730490E-3,-1.356120855E-1,1.771509275E-2
6.667737800E-2,-1.221730490E-3,-1.356120855E-1,1.771509275E-2
6.869153300E-2,1.038470957E-2,-1.221730490E-3,2.443460980E-3
7.067368900E-2,1.038470957E-2,1.221730490E-3,3.054326167E-3
7.268930700E-2,1.160643995E-2,6.108652451E-4,1.832595794E-3
7.467277000E-2,8.552113548E-3,6.108652451E-4,1.832595794E-3
7.668692700E-2,1.099557430E-2,-1.221730490E-3,4.276056774E-3
7.867054400E-2,1.038470957E-2,1.221730490E-3,4.276056774E-3
8.068500800E-2,6.719517522E-3,-6.108652451E-4,3.054326167E-3
8.266777900E-2,6.719517522E-3,1.221730490E-3,3.054326167E-3
8.468293500E-2,7.941247895E-3,0.000000000E0,6.108652451E-4
8.666562900E-2,6.719517522E-3,-1.221730490E-3,6.108652451E-4
8.867978600E-2,4.886921961E-3,-1.832595794E-3,-6.108652451E-4
9.069425000E-2,3.054326167E-3,-3.054326167E-3,-1.221730490E-3
9.267771300E-2,3.665191587E-3,-3.054326167E-3,1.221730490E-3
9.469210000E-2,3.054326167E-3,-1.832595794E-3,-1.221730490E-3
9.667548700E-2,2.443460980E-3,-4.886921961E-3,0.000000000E0
9.868964300E-2,3.054326167E-3,-6.719517522E-3,-1.832595794E-3
1.006742610E-1,1.221730490E-3,-6.108652335E-3,-6.108652451E-4
1.026878010E-1,4.886921961E-3,-7.330383174E-3,-6.108652451E-4
1.046702650E-1,2.443460980E-3,-5.497787148E-3,-3.054326167E-3
1.066850360E-1,2.443460980E-3,-7.941247895E-3,-1.832595794E-3
1.086684230E-1,1.832595794E-3,-8.552113548E-3,-1.221730490E-3
1.106841180E-1,3.665191587E-3,-8.552113548E-3,-3.054326167E-3
1.126666580E-1,3.665191587E-3,-9.773843922E-3,-1.221730490E-3
1.146817370E-1,4.276056774E-3,-8.552113548E-3,-6.108652451E-4
1.166648160E-1,4.886921961E-3,-1.099557430E-2,-1.832595794E-3
1.186792800E-1,2.443460980E-3,-1.221730467E-2,0.000000000E0
1.206939750E-1,2.443460980E-3,-9.162978269E-3,-1.221730490E-3
1.226761310E-1,3.665191587E-3,-1.282817032E-2,-1.221730490E-3
1.246909790E-1,6.108652335E-3,-1.588249579E-2,-6.108652451E-4
1.266745970E-1,4.276056774E-3,-1.588249579E-2,-1.832595794E-3
1.286887520E-1,4.886921961E-3,-1.710422710E-2,-1.832595794E-3
1.306722160E-1,3.665191587E-3,-2.260201424E-2,-3.054326167E-3
1.326860650E-1,4.276056774E-3,-1.954768784E-2,-4.886921961E-3
1.346706060E-1,4.276056774E-3,-2.015855350E-2,-5.497787148E-3
1.366839150E-1,4.886921961E-3,-2.504547499E-2,-4.886921961E-3
1.386675330E-1,6.108652335E-3,-2.321287990E-2,-5.497787148E-3
1.406835350E-1,4.886921961E-3,-2.321287990E-2,-4.276056774E-3
1.426648440E-1,6.719517522E-3,-2.443460934E-2,-4.276056774E-3
1.446792320E-1,7.330383174E-3,-2.138028294E-2,-5.497787148E-3
1.466943880E-1,7.330383174E-3,-2.260201424E-2,-4.886921961E-3
1.486774670E-1,6.108652335E-3,-2.015855350E-2,-3.665191587E-3
1.506913150E-1,6.719517522E-3,-2.076941915E-2,-4.886921961E-3
1.526749320E-1,5.497787148E-3,-1.832595654E-2,-4.276056774E-3
1.546900120E-1,6.719517522E-3,-1.588249579E-2,-6.719517522E-3
1.566730910E-1,7.330383174E-3,-1.527163107E-2,-5.497787148E-3
1.586876320E-1,8.552113548E-3,-1.343903504E-2,-3.665191587E-3
1.606712490E-1,7.330383174E-3,-1.038470957E-2,-2.443460980E-3
1.626847890E-1,6.719517522E-3,-9.773843922E-3,-5.497787148E-3
1.646694840E-1,6.719517522E-3,-8.552113548E-3,-1.832595794E-3
1.666827180E-1,7.941247895E-3,-8.552113548E-3,-4.886921961E-3
1.686667200E-1,6.108652335E-3,-7.941247895E-3,-1.832595794E-3
1.706804910E-1,5.497787148E-3,-6.719517522E-3,-2.443460980E-3
1.726949540E-1,5.497787148E-3,-7.330383174E-3,-1.832595794E-3
1.746792640E-1,4.276056774E-3,-9.162978269E-3,-3.054326167E-3
1.766928820E-1,3.665191587E-3,-9.773843922E-3,-1.221730490E-3
1.786761920E-1,6.719517522E-3,-1.099557430E-2,-2.443460980E-3
1.806919630E-1,5.497787148E-3,-1.221730467E-2,6.108652451E-4
1.826746580E-1,3.665191587E-3,-1.160643995E-2,-6.108652451E-4
1.846878900E-1,4.276056774E-3,-1.221730467E-2,-6.108652451E-4
1.866725080E-1,4.886921961E-3,-1.282817032E-2,2.443460980E-3
1.886866650E-1,3.665191587E-3,-1.160643995E-2,6.108652451E-4
1.906692050E-1,5.497787148E-3,-1.282817032E-2,1.832595794E-3
1.926836690E-1,3.054326167E-3,-1.099557430E-2,6.108652451E-4
1.946679780E-1,1.832595794E-3,-1.282817032E-2,2.443460980E-3
1.966817500E-1,0.000000000E0,-8.552113548E-3,2.443460980E-3
1.986657520E-1,-6.108652451E-4,-6.719517522E-3,1.221730490E-3
2.006802930E-1,-1.832595794E-3,-5.497787148E-3,4.886921961E-3
2.026938340E-1,-1.832595794E-3,-6.719517522E-3,3.665191587E-3
2.046781430E-1,0.000000000E0,-6.719517522E-3,4.276056774E-3
2.066925300E-1,-1.221730490E-3,-4.886921961E-3,3.665191587E-3
2.086750700E-1,-3.054326167E-3,-7.941247895E-3,3.665191587E-3
2.106895350E-1,-1.832595794E-3,-7.941247895E-3,4.276056774E-3
2.126725370E-1,-4.276056774E-3,-7.330383174E-3,3.054326167E-3
2.146876160E-1,-3.054326167E-3,-7.941247895E-3,4.886921961E-3
2.166710020E-1,-5.497787148E-3,-1.038470957E-2,3.054326167E-3
2.186851580E-1,-3.054326167E-3,-9.773843922E-3,3.054326167E-3
2.206700830E-1,-3.054326167E-3,-1.099557430E-2,4.886921961E-3
2.226830860E-1,-1.832595794E-3,-8.552113548E-3,4.886921961E-3
2.246660880E-1,-3.054326167E-3,-9.773843922E-3,3.665191587E-3
2.266814750E-1,-2.443460980E-3,-1.099557430E-2,3.054326167E-3
2.286944000E-1,-3.665191587E-3,-1.404990070E-2,3.665191587E-3
2.306778640E-1,-2.443460980E-3,-1.221730467E-2,2.443460980E-3
2.326922510E-1,-1.832595794E-3,-1.527163107E-2,1.832595794E-3
2.346774840E-1,-4.276056774E-3,-1.099557430E-2,2.443460980E-3
2.366907940E-1,-3.054326167E-3,-1.404990070E-2,2.443460980E-3
2.386738730E-1,-5.497787148E-3,-1.404990070E-2,3.665191587E-3
2.406892590E-1,-5.497787148E-3,-1.221730467E-2,1.832595794E-3
2.426720300E-1,-4.276056774E-3,-1.343903504E-2,3.665191587E-3
2.446868030E-1,-3.054326167E-3,-1.404990070E-2,2.443460980E-3
2.466689590E-1,-1.221730490E-3,-1.649336144E-2,1.832595794E-3
2.486839610E-1,-1.221730490E-3,-1.832595654E-2,2.443460980E-3
2.506679630E-1,0.000000000E0,-1.893682219E-2,2.443460980E-3
2.526815030E-1,3.054326167E-3,-1.893682219E-2,1.221730490E-3
2.546661980E-1,3.054326167E-3,-1.893682219E-2,3.665191587E-3
2.566797390E-1,1.832595794E-3,-2.076941915E-2,4.886921961E-3
2.586932790E-1,3.665191587E-3,-2.138028294E-2,4.276056774E-3
2.606778200E-1,2.443460980E-3,-2.687807009E-2,5.497787148E-3
2.626910530E-1,2.443460980E-3,-2.382374369E-2,6.108652335E-3
2.646744390E-1,2.443460980E-3,-2.443460934E-2,6.108652335E-3
2.666898270E-1,3.054326167E-3,-2.260201424E-2,6.719517522E-3
2.686732130E-1,1.832595794E-3,-2.443460934E-2,7.330383174E-3
2.706868310E-1,1.221730490E-3,-2.565634064E-2,8.552113548E-3
2.726702170E-1,0.000000000E0,-2.443460934E-2,6.719517522E-3
2.746859120E-1,0.000000000E0,-2.443460934E-2,9.773843922E-3
2.766686830E-1,-1.221730490E-3,-2.138028294E-2,9.162978269E-3
2.786822240E-1,-6.108652451E-4,-2.015855350E-2,9.773843922E-3
2.806674570E-1,-1.832595794E-3,-1.832595654E-2,1.221730467E-2
2.826799980E-1,-3.054326167E-3,-1.649336144E-2,1.099557430E-2
2.846960000E-1,-1.832595794E-3,-1.588249579E-2,1.404990070E-2
2.866782320E-1,-4.886921961E-3,-1.527163107E-2,1.099557430E-2
2.886929280E-1,-4.276056774E-3,-1.282817032E-2,1.221730467E-2
2.906757760E-1,-5.497787148E-3,-7.941247895E-3,1.527163107E-2
2.926899320E-1,-5.497787148E-3,-9.773843922E-3,1.282817032E-2
2.946738570E-1,-6.108652335E-3,-3.054326167E-3,1.221730467E-2
2.966880900E-1,-7.330383174E-3,-6.108652451E-4,1.649336144E-2
2.986717070E-1,-6.108652335E-3,6.108652451E-4,1.282817032E-2
3.006861720E-1,-4.276056774E-3,5.497787148E-3,1.466076635E-2
3.026696350E-1,-4.886921961E-3,4.886921961E-3,1.588249579E-2
3.046831760E-1,-4.886921961E-3,8.552113548E-3,1.527163107E-2
3.066677160E-1,-4.276056774E-3,1.160643995E-2,1.160643995E-2
3.086821800E-1,-4.886921961E-3,1.160643995E-2,1.588249579E-2
3.106641060E-1,-4.276056774E-3,1.710422710E-2,1.404990070E-2
3.126798000E-1,-4.276056774E-3,1.954768784E-2,1.221730467E-2
3.146942630E-1,-3.665191587E-3,1.954768784E-2,1.466076635E-2
3.166770350E-1,-3.054326167E-3,2.015855350E-2,1.221730467E-2
3.186911910E-1,-3.054326167E-3,2.138028294E-2,1.343903504E-2
3.206748850E-1,-3.665191587E-3,2.260201424E-2,1.160643995E-2
3.226887340E-1,-1.221730490E-3,2.443460934E-2,1.221730467E-2
3.246733510E-1,-6.108652451E-4,2.382374369E-2,1.160643995E-2
3.266874300E-1,1.832595794E-3,2.321287990E-2,1.282817032E-2
3.286702790E-1,3.054326167E-3,2.382374369E-2,1.221730467E-2
3.306843570E-1,3.665191587E-3,2.382374369E-2,1.221730467E-2
3.326686680E-1,4.886921961E-3,2.138028294E-2,9.773843922E-3
3.346819780E-1,4.276056774E-3,2.260201424E-2,8.552113548E-3
3.366665180E-1,6.719517522E-3,2.138028294E-2,1.099557430E-2
3.386801360E-1,7.330383174E-3,2.015855350E-2,8.552113548E-3
3.406957530E-1,9.162978269E-3,2.138028294E-2,7.941247895E-3
3.426785240E-1,9.773843922E-3,2.199114859E-2,7.330383174E-3
3.446911430E-1,1.038470957E-2,2.138028294E-2,6.108652335E-3
3.466760680E-1,1.160643995E-2,2.138028294E-2,4.276056774E-3
3.486896850E-1,1.099557430E-2,2.138028294E-2,4.886921961E-3
3.506736870E-1,1.160643995E-2,2.015855350E-2,4.276056774E-3
3.526881510E-1,1.343903504E-2,1.832595654E-2,1.832595794E-3
3.546712310E-1,1.282817032E-2,1.771509275E-2,3.054326167E-3
3.566853100E-1,1.404990070E-2,1.527163107E-2,1.221730490E-3
3.586696190E-1,1.282817032E-2,1.466076635E-2,6.108652451E-4
3.606840830E-1,1.343903504E-2,1.527163107E-2,-1.832595794E-3
3.626666230E-1,1.221730467E-2,1.343903504E-2,-6.108652451E-4
3.646819330E-1,1.343903504E-2,1.404990070E-2,-2.443460980E-3
3.666641670E-1,1.282817032E-2,1.038470957E-2,-1.221730490E-3
3.686797840E-1,9.773843922E-3,1.466076635E-2,-1.832595794E-3
3.706930940E-1,1.038470957E-2,1.404990070E-2,-3.054326167E-3
3.726764800E-1,1.038470957E-2,1.527163107E-2,-3.054326167E-3
3.746915590E-1,9.773843922E-3,1.282817032E-2,-2.443460980E-3
3.766751770E-1,9.162978269E-3,1.404990070E-2,-6.108652451E-4
3.786890260E-1,9.773843922E-3,1.160643995E-2,-2.443460980E-3
3.806730280E-1,5.497787148E-3,1.099557430E-2,-1.832595794E-3
3.826866450E-1,4.886921961E-3,8.552113548E-3,0.000000000E0
3.846699550E-1,4.886921961E-3,4.886921961E-3,1.832595794E-3
3.866856490E-1,2.443460980E-3,1.832595794E-3,0.000000000E0
3.886684990E-1,3.054326167E-3,-6.108652451E-4,3.054326167E-3
3.906816540E-1,6.108652451E-4,-2.443460980E-3,6.719517522E-3
3.926958870E-1,-6.108652451E-4,6.108652451E-4,7.941247895E-3
3.946804280E-1,-1.221730490E-3,-1.832595794E-3,8.552113548E-3
3.966943530E-1,-4.886921961E-3,-3.054326167E-3,1.038470957E-2
3.986782780E-1,-5.497787148E-3,-1.221730490E-3,1.527163107E-2
4.006928190E-1,-5.497787148E-3,-1.221730490E-3,1.527163107E-2
4.026758210E-1,-7.330383174E-3,-1.221730490E-3,1.588249579E-2
4.046915160E-1,-7.941247895E-3,-3.665191587E-3,1.771509275E-2
4.066736710E-1,-9.162978269E-3,-3.665191587E-3,1.710422710E-2
4.086879040E-1,-1.099557430E-2,-4.276056774E-3,2.076941915E-2
4.106712920E-1,-9.773843922E-3,-5.497787148E-3,2.260201424E-2
4.126848320E-1,-1.038470957E-2,-6.719517522E-3,2.138028294E-2
4.146690650E-1,-8.552113548E-3,-7.330383174E-3,2.321287990E-2
4.166829900E-1,-9.773843922E-3,-6.108652335E-3,2.382374369E-2
4.186666840E-1,-8.552113548E-3,-7.330383174E-3,2.382374369E-2
4.206823020E-1,-7.330383174E-3,-7.330383174E-3,2.321287990E-2
4.226647660E-1,-7.941247895E-3,-7.941247895E-3,2.199114859E-2
4.246786910E-1,-8.552113548E-3,-6.719517522E-3,2.076941915E-2
4.266928470E-1,-7.941247895E-3,-3.665191587E-3,2.260201424E-2
4.286762340E-1,-6.108652335E-3,-3.665191587E-3,2.076941915E-2
4.306906210E-1,-6.719517522E-3,-2.443460980E-3,2.015855350E-2
4.326743160E-1,-6.108652335E-3,-3.054326167E-3,2.015855350E-2
4.346887790E-1,-5.497787148E-3,-1.221730490E-3,1.771509275E-2
4.366724740E-1,-3.054326167E-3,-3.054326167E-3,1.588249579E-2
4.386866300E-1,-2.443460980E-3,-2.443460980E-3,1.710422710E-2
4.406709390E-1,-2.443460980E-3,-3.665191587E-3,1.832595654E-2
4.426838640E-1,-6.108652451E-4,-6.719517522E-3,1.771509275E-2
4.446688670E-1,-1.832595794E-3,-6.108652335E-3,1.832595654E-2
4.466823310E-1,1.221730490E-3,-8.552113548E-3,1.893682219E-2
4.486654870E-1,1.832595794E-3,-6.108652335E-3,1.771509275E-2
4.506798730E-1,2.443460980E-3,-2.443460980E-3,1.832595654E-2
4.526937220E-1,2.443460980E-3,0.000000000E0,1.832595654E-2
4.546778000E-1,1.221730490E-3,6.108652335E-3,1.771509275E-2
4.566916500E-1,3.054326167E-3,8.552113548E-3,1.710422710E-2
4.586755750E-1,6.108652451E-4,1.221730467E-2,1.832595654E-2
4.606912690E-1,-1.832595794E-3,1.771509275E-2,1.527163107E-2
4.626740400E-1,-1.221730490E-3,1.527163107E-2,1.466076635E-2
4.646875810E-1,-3.054326167E-3,1.710422710E-2,1.771509275E-2
4.666715840E-1,0.000000000E0,1.832595654E-2,1.466076635E-2
4.686857400E-1,-4.276056774E-3,2.443460934E-2,1.710422710E-2
4.706685110E-1,-6.108652335E-3,2.871066704E-2,1.832595654E-2
4.726830510E-1,-4.886921961E-3,2.932153270E-2,1.832595654E-2
4.746670530E-1,-6.108652335E-3,3.298672289E-2,2.015855350E-2
4.766808240E-1,-7.330383174E-3,3.909537569E-2,1.710422710E-2
4.786947510E-1,-6.719517522E-3,3.665191308E-2,2.015855350E-2
4.806790600E-1,-7.330383174E-3,4.459316283E-2,2.076941915E-2
4.826934470E-1,-7.330383174E-3,4.825835302E-2,2.076941915E-2
4.846771410E-1,-4.886921961E-3,5.192354694E-2,2.138028294E-2
4.866909890E-1,-1.038470957E-2,5.192354694E-2,2.382374369E-2
4.886743770E-1,-9.162978269E-3,5.497787148E-2,2.443460934E-2
4.906883020E-1,-1.099557430E-2,5.681046844E-2,2.443460934E-2
4.926725350E-1,-9.773843922E-3,5.619960278E-2,2.626720630E-2
4.946867680E-1,-1.221730467E-2,5.925392732E-2,2.809980139E-2
4.966695390E-1,-9.162978269E-3,5.558873713E-2,2.993239649E-2
4.986836950E-1,-9.773843922E-3,5.864306539E-2,3.054326214E-2
5.006683130E-1,-9.162978269E-3,6.047565863E-2,3.298672289E-2
5.026818540E-1,-9.162978269E-3,6.108652428E-2,3.054326214E-2
5.046648560E-1,-7.330383174E-3,5.742133409E-2,3.115412779E-2
5.066799340E-1,-6.108652335E-3,5.864306539E-2,3.176499158E-2
5.086929360E-1,-6.719517522E-3,6.047565863E-2,2.932153270E-2
5.106777860E-1,-4.886921961E-3,5.742133409E-2,3.054326214E-2
5.126914030E-1,-4.276056774E-3,5.803219974E-2,3.054326214E-2
5.146757130E-1,-6.108652451E-4,5.436700583E-2,2.871066704E-2
5.166892530E-1,-1.221730490E-3,5.314527452E-2,2.748893574E-2
5.186725630E-1,-1.221730490E-3,5.253441259E-2,2.626720630E-2
5.206876420E-1,6.108652451E-4,5.070181563E-2,2.809980139E-2
5.226713370E-1,1.221730490E-3,4.703662544E-2,2.504547499E-2
5.246858010E-1,3.665191587E-3,4.276056588E-2,2.565634064E-2
5.266692640E-1,3.665191587E-3,3.909537569E-2,2.199114859E-2
5.286834200E-1,5.497787148E-3,3.359758854E-2,2.199114859E-2
5.306661910E-1,7.941247895E-3,2.932153270E-2,2.076941915E-2
5.326808860E-1,7.330383174E-3,2.382374369E-2,2.076941915E-2
5.346953500E-1,5.497787148E-3,2.382374369E-2,1.893682219E-2
5.366791210E-1,6.719517522E-3,1.588249579E-2,1.649336144E-2
5.386925850E-1,7.330383174E-3,9.162978269E-3,1.466076635E-2
5.406768950E-1,7.330383174E-3,7.330383174E-3,1.588249579E-2
5.426904350E-1,7.330383174E-3,3.054326167E-3,1.160643995E-2
5.446735150E-1,6.108652335E-3,-1.832595794E-3,1.282817032E-2
5.466889020E-1,5.497787148E-3,-4.276056774E-3,9.773843922E-3
5.486722880E-1,4.276056774E-3,-7.941247895E-3,8.552113548E-3
5.506855980E-1,2.443460980E-3,-1.282817032E-2,6.719517522E-3
5.526692150E-1,4.276056774E-3,-1.404990070E-2,6.719517522E-3
5.546839870E-1,2.443460980E-3,-2.015855350E-2,5.497787148E-3
5.566677590E-1,1.221730490E-3,-2.382374369E-2,7.330383174E-3
5.586818380E-1,6.108652451E-4,-2.382374369E-2,8.552113548E-3
5.606668400E-1,-2.443460980E-3,-2.199114859E-2,6.108652335E-3
5.626793800E-1,-4.886921961E-3,-2.199114859E-2,9.162978269E-3
5.646941510E-1,-4.886921961E-3,-2.199114859E-2,9.773843922E-3
5.666782310E-1,-6.719517522E-3,-2.321287990E-2,1.221730467E-2
5.686920030E-1,-7.330383174E-3,-2.076941915E-2,1.160643995E-2
5.706750820E-1,-1.038470957E-2,-2.321287990E-2,1.404990070E-2
5.726896220E-1,-9.162978269E-3,-2.504547499E-2,1.771509275E-2
5.746738550E-1,-1.221730467E-2,-2.504547499E-2,1.954768784E-2
5.766868570E-1,-1.343903504E-2,-2.015855350E-2,1.893682219E-2
5.786705520E-1,-1.527163107E-2,-1.649336144E-2,2.321287990E-2
5.806864770E-1,-1.649336144E-2,-1.343903504E-2,2.382374369E-2
5.826684020E-1,-2.015855350E-2,-7.330383174E-3,2.443460934E-2
5.846816350E-1,-1.954768784E-2,-1.832595794E-3,2.809980139E-2
5.866967140E-1,-2.076941915E-2,0.000000000E0,2.748893574E-2
5.886801020E-1,-2.199114859E-2,6.719517522E-3,2.932153270E-2
5.906945650E-1,-2.321287990E-2,1.160643995E-2,3.237585723E-2
5.926781830E-1,-2.321287990E-2,1.221730467E-2,3.298672289E-2
5.946921080E-1,-2.382374369E-2,1.588249579E-2,3.298672289E-2
5.966757250E-1,-2.504547499E-2,1.832595654E-2,3.237585723E-2
5.986899580E-1,-2.443460934E-2,2.321287990E-2,3.420845419E-2
6.006738840E-1,-2.565634064E-2,2.565634064E-2,3.359758854E-2
6.026883470E-1,-2.443460934E-2,2.748893574E-2,3.420845419E-2
6.046727340E-1,-2.382374369E-2,3.054326214E-2,3.604105115E-2
6.066862740E-1,-2.443460934E-2,3.481931984E-2,3.481931984E-2
6.086689690E-1,-2.443460934E-2,3.237585723E-2,3.298672289E-2
6.106843560E-1,-2.382374369E-2,3.420845419E-2,3.420845419E-2
6.126675120E-1,-2.260201424E-2,3.726277873E-2,3.237585723E-2
6.146818990E-1,-2.199114859E-2,3.909537569E-2,3.176499158E-2
6.166650550E-1,-2.015855350E-2,3.787364438E-2,3.237585723E-2
6.186798260E-1,-1.893682219E-2,3.604105115E-2,3.054326214E-2
6.206948280E-1,-1.710422710E-2,3.848451003E-2,3.054326214E-2
6.226772930E-1,-1.710422710E-2,3.604105115E-2,2.809980139E-2
6.246914480E-1,-1.771509275E-2,3.726277873E-2,2.871066704E-2
6.266763730E-1,-1.649336144E-2,3.848451003E-2,2.748893574E-2
6.286899140E-1,-1.221730467E-2,3.604105115E-2,2.809980139E-2
6.306723770E-1,-1.099557430E-2,3.298672289E-2,2.748893574E-2
6.326878410E-1,-1.221730467E-2,3.665191308E-2,2.504547499E-2
6.346702290E-1,-6.108652335E-3,3.481931984E-2,2.809980139E-2
6.366850770E-1,-6.108652335E-3,3.481931984E-2,2.809980139E-2
6.386684630E-1,-4.886921961E-3,3.604105115E-2,2.687807009E-2
6.406829270E-1,-6.108652335E-3,3.726277873E-2,2.626720630E-2
6.426665440E-1,-3.665191587E-3,3.787364438E-2,2.809980139E-2
6.446807780E-1,-3.665191587E-3,3.665191308E-2,2.993239649E-2
6.466946260E-1,-2.443460980E-3,3.787364438E-2,2.687807009E-2
6.486773980E-1,-1.832595794E-3,3.848451003E-2,2.809980139E-2
6.506924000E-1,0.000000000E0,3.787364438E-2,2.932153270E-2
6.526755550E-1,6.108652451E-4,3.726277873E-2,2.871066704E-2
6.546900190E-1,-6.108652451E-4,3.787364438E-2,2.932153270E-2
6.566739450E-1,6.108652451E-4,3.543018550E-2,2.993239649E-2
6.586875620E-1,0.000000000E0,3.787364438E-2,2.932153270E-2
6.606724870E-1,0.000000000E0,3.726277873E-2,2.871066704E-2
6.626860280E-1,3.054326167E-3,3.787364438E-2,2.871066704E-2
6.646687990E-1,1.832595794E-3,3.970624134E-2,2.809980139E-2
6.666841870E-1,-1.221730490E-3,3.909537569E-2,2.748893574E-2
6.686668810E-1,-2.443460980E-3,3.420845419E-2,2.687807009E-2
6.706816520E-1,0.000000000E0,3.115412779E-2,2.871066704E-2
6.726958850E-1,-1.832595794E-3,2.932153270E-2,2.809980139E-2
6.746792720E-1,-1.832595794E-3,2.932153270E-2,2.748893574E-2
6.766940430E-1,-1.221730490E-3,2.565634064E-2,2.748893574E-2
6.786771230E-1,-2.443460980E-3,2.504547499E-2,2.748893574E-2
6.806924330E-1,-3.665191587E-3,2.443460934E-2,2.748893574E-2
6.826748960E-1,-3.054326167E-3,2.687807009E-2,2.443460934E-2
6.846899750E-1,-2.443460980E-3,2.260201424E-2,2.626720630E-2
6.866727460E-1,-6.108652335E-3,2.443460934E-2,2.260201424E-2
6.886875950E-1,-4.886921961E-3,2.565634064E-2,2.260201424E-2
6.906702900E-1,-6.719517522E-3,2.321287990E-2,2.382374369E-2
6.926848300E-1,-6.719517522E-3,1.954768784E-2,2.076941915E-2
6.946684480E-1,-6.108652335E-3,1.771509275E-2,2.321287990E-2
6.966822960E-1,-7.330383174E-3,1.282817032E-2,2.138028294E-2
6.986656820E-1,-5.497787148E-3,8.552113548E-3,2.321287990E-2
7.006807620E-1,-6.719517522E-3,5.497787148E-3,2.076941915E-2
7.026943800E-1,-6.719517522E-3,3.665191587E-3,1.954768784E-2
7.046777660E-1,-5.497787148E-3,3.054326167E-3,1.893682219E-2
7.066925380E-1,-7.330383174E-3,0.000000000E0,1.466076635E-2
7.086764630E-1,-6.108652335E-3,-3.054326167E-3,2.015855350E-2
7.106887720E-1,-8.552113548E-3,-4.886921961E-3,1.710422710E-2
7.126743140E-1,-6.719517522E-3,-6.108652335E-3,1.832595654E-2
7.146884700E-1,-9.773843922E-3,-7.941247895E-3,1.588249579E-2
7.166710100E-1,-9.162978269E-3,-1.038470957E-2,1.832595654E-2
7.186853970E-1,-6.719517522E-3,-1.038470957E-2,1.832595654E-2
7.206697060E-1,-9.162978269E-3,-1.099557430E-2,1.649336144E-2
7.226833250E-1,-8.552113548E-3,-1.221730467E-2,1.710422710E-2
7.246678650E-1,-8.552113548E-3,-1.282817032E-2,1.710422710E-2
7.266811750E-1,-7.330383174E-3,-1.466076635E-2,1.527163107E-2
7.286953310E-1,-6.719517522E-3,-1.466076635E-2,1.527163107E-2
7.306789480E-1,-6.719517522E-3,-1.527163107E-2,1.527163107E-2
7.326934120E-1,-6.108652335E-3,-1.771509275E-2,1.527163107E-2
7.346768760E-1,-4.886921961E-3,-1.832595654E-2,1.527163107E-2
7.366912630E-1,-4.276056774E-3,-2.076941915E-2,1.160643995E-2
7.386749570E-1,-5.497787148E-3,-2.138028294E-2,1.038470957E-2
7.406894210E-1,-6.108652335E-3,-2.076941915E-2,1.099557430E-2
7.426725000E-1,-3.054326167E-3,-2.443460934E-2,8.552113548E-3
7.446857340E-1,-3.054326167E-3,-2.687807009E-2,9.162978269E-3
7.466704280E-1,-3.665191587E-3,-2.809980139E-2,5.497787148E-3
7.486842760E-1,-6.108652335E-3,-3.054326214E-2,2.443460980E-3
7.506678930E-1,-4.886921961E-3,-3.237585723E-2,3.665191587E-3
7.526824340E-1,-4.276056774E-3,-3.726277873E-2,-6.108652451E-4
7.546657440E-1,-3.054326167E-3,-3.970624134E-2,-4.276056774E-3
7.566799000E-1,-4.276056774E-3,-4.337143153E-2,-3.665191587E-3
7.586940560E-1,-4.276056774E-3,-4.886921868E-2,-4.276056774E-3
7.606786740E-1,6.108652451E-4,-5.436700583E-2,-3.665191587E-3
7.626913680E-1,0.000000000E0,-5.864306539E-2,-6.719517522E-3
7.646762160E-1,-6.108652451E-4,-6.352998316E-2,-1.160643995E-2
7.666898340E-1,-6.108652451E-4,-6.780604273E-2,-1.099557430E-2
7.686737600E-1,1.832595794E-3,-7.330382615E-2,-1.710422710E-2
7.706873770E-1,3.054326167E-3,-8.063421398E-2,-1.649336144E-2
7.726706870E-1,2.443460980E-3,-8.124507964E-2,-1.649336144E-2
7.746858430E-1,6.719517522E-3,-9.040805697E-2,-1.710422710E-2
7.766695370E-1,7.330383174E-3,-9.162978828E-2,-1.954768784E-2
7.786830010E-1,1.038470957E-2,-9.651670605E-2,-1.832595654E-2
7.806676960E-1,1.221730467E-2,-1.020144969E-1,-2.015855350E-2
7.826821590E-1,1.404990070E-2,-1.069014147E-1,-2.076941915E-2
7.846637000E-1,1.649336144E-2,-1.099557430E-1,-2.138028294E-2
7.866797020E-1,1.466076635E-2,-1.136209369E-1,-2.260201424E-2
7.886932420E-1,1.710422710E-2,-1.191187203E-1,-2.199114859E-2
7.906756300E-1,2.199114859E-2,-1.227839142E-1,-2.382374369E-2
7.926910930E-1,2.260201424E-2,-1.270599663E-1,-2.321287990E-2
7.946744800E-1,2.382374369E-2,-1.276708394E-1,-2.443460934E-2
7.966882510E-1,2.626720630E-2,-1.350012124E-1,-2.321287990E-2
7.986719450E-1,2.748893574E-2,-1.392772794E-1,-2.565634064E-2
8.006871020E-1,2.809980139E-2,-1.411098689E-1,-2.138028294E-2
8.026698740E-1,2.932153270E-2,-1.435533315E-1,-2.443460934E-2
8.046848760E-1,3.115412779E-2,-1.429424733E-1,-2.504547499E-2
8.066682620E-1,3.054326214E-2,-1.404990107E-1,-2.321287990E-2
8.086821870E-1,3.420845419E-2,-1.368338168E-1,-2.138028294E-2
8.106655740E-1,3.420845419E-2,-1.325577646E-1,-2.260201424E-2
8.126791150E-1,3.359758854E-2,-1.307251602E-1,-2.199114859E-2
8.146941170E-1,3.665191308E-2,-1.276708394E-1,-1.954768784E-2
8.166775810E-1,4.092797264E-2,-1.240056455E-1,-1.832595654E-2
8.186920440E-1,3.909537569E-2,-1.221730486E-1,-1.893682219E-2
8.206766620E-1,4.031710699E-2,-1.172861308E-1,-1.771509275E-2
8.226901260E-1,4.459316283E-2,-1.130100712E-1,-1.343903504E-2
8.246726670E-1,4.459316283E-2,-1.081231460E-1,-1.221730467E-2
8.266874380E-1,4.581489414E-2,-1.044579595E-1,-1.282817032E-2
8.286711320E-1,4.520402849E-2,-9.957103431E-2,-1.221730467E-2
8.306846730E-1,4.520402849E-2,-9.407325089E-2,-1.099557430E-2
8.326692130E-1,4.703662544E-2,-8.918632567E-2,-9.162978269E-3
8.346836780E-1,4.581489414E-2,-8.674286306E-2,-1.099557430E-2
8.366664490E-1,4.520402849E-2,-7.880161703E-2,-8.552113548E-3
8.386809900E-1,4.398229718E-2,-7.635815442E-2,-7.941247895E-3
8.406953760E-1,4.337143153E-2,-6.963863969E-2,-9.773843922E-3
8.426790710E-1,4.153883830E-2,-6.414084882E-2,-5.497787148E-3
8.446935350E-1,3.909537569E-2,-6.047565863E-2,-5.497787148E-3
8.466769990E-1,3.909537569E-2,-5.681046844E-2,-4.886921961E-3
8.486905390E-1,3.787364438E-2,-5.375614017E-2,-5.497787148E-3
8.506736180E-1,3.787364438E-2,-5.192354694E-2,-4.276056774E-3
8.526880820E-1,3.848451003E-2,-5.192354694E-2,-3.665191587E-3
8.546723140E-1,3.604105115E-2,-4.642575979E-2,-4.886921961E-3
8.566864710E-1,3.420845419E-2,-4.398229718E-2,-1.221730490E-3
8.586696270E-1,3.298672289E-2,-4.153883830E-2,-3.665191587E-3
8.606855520E-1,3.115412779E-2,-3.970624134E-2,-4.276056774E-3
8.626680930E-1,2.932153270E-2,-3.543018550E-2,-1.221730490E-3
8.646816330E-1,2.748893574E-2,-3.420845419E-2,-4.276056774E-3
8.666960200E-1,2.504547499E-2,-2.932153270E-2,-3.665191587E-3
8.686794070E-1,2.565634064E-2,-2.871066704E-2,-3.054326167E-3
8.706936400E-1,2.382374369E-2,-2.504547499E-2,-1.221730490E-3
8.726769500E-1,2.199114859E-2,-2.382374369E-2,-1.221730490E-3
8.746917210E-1,2.138028294E-2,-2.321287990E-2,-1.221730490E-3
8.766748770E-1,2.138028294E-2,-2.260201424E-2,6.108652451E-4
8.786890340E-1,2.015855350E-2,-2.138028294E-2,-6.108652451E-4
8.806736510E-1,2.015855350E-2,-1.710422710E-2,1.832595794E-3
8.826868070E-1,1.954768784E-2,-1.649336144E-2,-3.054326167E-3
8.846711940E-1,1.588249579E-2,-1.282817032E-2,-6.108652451E-4
8.866849650E-1,1.710422710E-2,-1.588249579E-2,6.108652451E-4
8.886681210E-1,1.710422710E-2,-1.710422710E-2,6.108652451E-4
8.906828160E-1,1.588249579E-2,-1.404990070E-2,-1.832595794E-3
8.926662790E-1,1.466076635E-2,-1.282817032E-2,-1.221730490E-3
8.946807430E-1,1.343903504E-2,-1.282817032E-2,-1.221730490E-3
8.966948990E-1,1.771509275E-2,-1.343903504E-2,-2.443460980E-3
8.986785930E-1,1.466076635E-2,-1.160643995E-2,6.108652451E-4
9.006933650E-1,1.343903504E-2,-9.773843922E-3,-6.108652451E-4
9.026757520E-1,1.282817032E-2,-1.038470957E-2,-6.108652451E-4
9.046896000E-1,1.099557430E-2,-8.552113548E-3,1.221730490E-3
9.066739100E-1,1.282817032E-2,-7.941247895E-3,0.000000000E0
9.086875270E-1,1.404990070E-2,-7.330383174E-3,1.221730490E-3
9.106715290E-1,1.282817032E-2,-7.330383174E-3,3.054326167E-3
9.126856090E-1,1.160643995E-2,-8.552113548E-3,4.886921961E-3
9.146693800E-1,1.343903504E-2,-6.108652335E-3,5.497787148E-3
9.166837670E-1,1.160643995E-2,0.000000000E0,8.552113548E-3
9.186680770E-1,1.221730467E-2,6.108652451E-4,1.099557430E-2
9.206829250E-1,1.221730467E-2,3.054326167E-3,1.099557430E-2
9.226656190E-1,1.343903504E-2,7.330383174E-3,1.221730467E-2
9.246791610E-1,1.282817032E-2,8.552113548E-3,1.282817032E-2
9.266927780E-1,1.404990070E-2,1.221730467E-2,1.221730467E-2
9.286767030E-1,1.221730467E-2,1.527163107E-2,1.527163107E-2
9.306909360E-1,1.221730467E-2,1.832595654E-2,1.466076635E-2
9.326749380E-1,9.773843922E-3,2.015855350E-2,1.221730467E-2
9.346894030E-1,9.773843922E-3,2.138028294E-2,1.527163107E-2
9.366733280E-1,1.038470957E-2,2.260201424E-2,1.343903504E-2
9.386868680E-1,8.552113548E-3,2.260201424E-2,1.282817032E-2
9.406724090E-1,9.773843922E-3,2.076941915E-2,1.282817032E-2
9.426850260E-1,7.941247895E-3,2.138028294E-2,1.221730467E-2
9.446677970E-1,6.719517522E-3,2.199114859E-2,1.221730467E-2
9.466832620E-1,6.108652335E-3,1.893682219E-2,1.038470957E-2
9.486663410E-1,6.108652335E-3,1.832595654E-2,1.099557430E-2
9.506798810E-1,3.054326167E-3,2.138028294E-2,9.773843922E-3
9.526945750E-1,3.054326167E-3,1.832595654E-2,9.162978269E-3
9.546786540E-1,2.443460980E-3,1.893682219E-2,7.941247895E-3
9.566928110E-1,4.276056774E-3,1.527163107E-2,7.941247895E-3
9.586764290E-1,2.443460980E-3,1.466076635E-2,4.886921961E-3
9.606908920E-1,4.886921961E-3,1.221730467E-2,6.108652335E-3
9.626734330E-1,2.443460980E-3,1.160643995E-2,5.497787148E-3
9.646888190E-1,4.886921961E-3,9.773843922E-3,8.552113548E-3
9.666718210E-1,4.886921961E-3,7.941247895E-3,6.108652335E-3
9.686856700E-1,2.443460980E-3,5.497787148E-3,5.497787148E-3
9.706693650E-1,6.719517522E-3,1.832595794E-3,4.276056774E-3
9.726835970E-1,4.886921961E-3,-2.443460980E-3,2.443460980E-3
9.746672150E-1,6.719517522E-3,-3.665191587E-3,-6.108652451E-4
9.766813710E-1,6.719517522E-3,-4.276056774E-3,-2.443460980E-3
9.786955280E-1,7.330383174E-3,-9.773843922E-3,-6.108652335E-3
9.806801450E-1,8.552113548E-3,-1.282817032E-2,-6.719517522E-3
9.826934550E-1,8.552113548E-3,-1.588249579E-2,-8.552113548E-3
9.846765340E-1,9.162978269E-3,-1.832595654E-2,-9.773843922E-3
9.866906890E-1,1.099557430E-2,-2.443460934E-2,-1.038470957E-2
9.886743840E-1,9.773843922E-3,-2.504547499E-2,-1.282817032E-2
9.906885410E-1,1.099557430E-2,-2.809980139E-2,-1.466076635E-2
9.926722350E-1,1.343903504E-2,-2.993239649E-2,-1.527163107E-2
9.946872370E-1,1.649336144E-2,-3.420845419E-2,-1.771509275E-2
9.966707000E-1,1.588249579E-2,-3.726277873E-2,-2.015855350E-2
9.986842410E-1,1.343903504E-2,-3.970624134E-2,-2.138028294E-2
1.000668781E0,1.710422710E-2,-4.337143153E-2,-2.138028294E-2
1.002682631E0,1.649336144E-2,-4.581489414E-2,-2.260201424E-2
1.004666940E0,1.588249579E-2,-4.581489414E-2,-2.321287990E-2
1.006680250E0,1.832595654E-2,-4.948008433E-2,-2.260201424E-2
1.008694637E0,1.832595654E-2,-5.314527452E-2,-2.443460934E-2
1.010678023E0,1.893682219E-2,-5.681046844E-2,-2.443460934E-2
1.012692488E0,1.649336144E-2,-5.986479297E-2,-2.687807009E-2
1.014675567E0,1.527163107E-2,-6.108652428E-2,-2.443460934E-2
1.016690338E0,1.771509275E-2,-6.169738993E-2,-2.504547499E-2
1.018673109E0,1.588249579E-2,-6.352998316E-2,-2.626720630E-2
1.020689496E0,1.466076635E-2,-6.536258012E-2,-2.871066704E-2
1.022671267E0,1.527163107E-2,-6.414084882E-2,-2.687807009E-2
1.024685501E0,1.404990070E-2,-6.536258012E-2,-2.504547499E-2
1.026670733E0,1.588249579E-2,-6.536258012E-2,-2.504547499E-2
1.028683659E0,1.282817032E-2,-6.780604273E-2,-2.504547499E-2
1.030666661E0,1.282817032E-2,-6.536258012E-2,-2.443460934E-2
1.032681816E0,1.221730467E-2,-6.658431143E-2,-2.382374369E-2
1.034695050E0,1.343903504E-2,-6.597344577E-2,-2.504547499E-2
1.036678975E0,1.282817032E-2,-6.230825558E-2,-2.321287990E-2
1.038693439E0,1.160643995E-2,-6.230825558E-2,-2.382374369E-2
1.040677441E0,1.038470957E-2,-6.108652428E-2,-2.199114859E-2
1.042691058E0,1.099557430E-2,-5.864306539E-2,-2.138028294E-2
1.044674753E0,1.160643995E-2,-5.925392732E-2,-1.893682219E-2
1.046689140E0,1.038470957E-2,-5.497787148E-2,-1.954768784E-2
1.048672527E0,8.552113548E-3,-5.192354694E-2,-1.649336144E-2
1.050686990E0,8.552113548E-3,-4.948008433E-2,-1.588249579E-2
1.052670069E0,7.941247895E-3,-4.703662544E-2,-1.527163107E-2
1.054684917E0,6.719517522E-3,-4.337143153E-2,-1.466076635E-2
1.056667920E0,6.719517522E-3,-3.909537569E-2,-1.038470957E-2
1.058682384E0,4.886921961E-3,-3.604105115E-2,-7.941247895E-3
1.060666155E0,5.497787148E-3,-3.298672289E-2,-1.221730467E-2
1.062680542E0,3.054326167E-3,-2.993239649E-2,-7.330383174E-3
1.064693775E0,3.054326167E-3,-2.748893574E-2,-5.497787148E-3
1.066678161E0,1.832595794E-3,-2.138028294E-2,-6.719517522E-3
1.068692318E0,2.443460980E-3,-1.893682219E-2,-1.832595794E-3
1.070675397E0,1.221730490E-3,-1.282817032E-2,-1.221730490E-3
1.072689861E0,1.832595794E-3,-1.282817032E-2,-1.221730490E-3
1.074673863E0,1.832595794E-3,-8.552113548E-3,2.443460980E-3
1.076687711E0,3.054326167E-3,-1.832595794E-3,3.054326167E-3
1.078671098E0,3.665191587E-3,0.000000000E0,4.276056774E-3
1.080686100E0,3.665191587E-3,4.886921961E-3,6.108652335E-3
1.082669487E0,3.665191587E-3,7.941247895E-3,7.330383174E-3
1.084683720E0,1.221730490E-3,1.282817032E-2,6.719517522E-3
1.086667952E0,3.054326167E-3,1.588249579E-2,7.330383174E-3
1.088680878E0,4.276056774E-3,1.771509275E-2,6.108652335E-3
1.090694727E0,4.886921961E-3,2.076941915E-2,5.497787148E-3
1.092678421E0,4.276056774E-3,2.504547499E-2,6.108652335E-3
1.094693808E0,4.886921961E-3,2.687807009E-2,7.941247895E-3
1.096676656E0,4.276056774E-3,3.054326214E-2,8.552113548E-3
1.098691427E0,4.886921961E-3,3.420845419E-2,1.038470957E-2
1.100675968E0,6.719517522E-3,3.665191308E-2,8.552113548E-3
1.102688355E0,3.054326167E-3,3.848451003E-2,9.162978269E-3
1.104671973E0,5.497787148E-3,4.337143153E-2,1.160643995E-2
1.106687667E0,4.886921961E-3,4.459316283E-2,1.404990070E-2
1.108670515E0,5.497787148E-3,4.581489414E-2,1.221730467E-2
1.110683979E0,5.497787148E-3,5.070181563E-2,1.588249579E-2
1.112668058E0,6.108652335E-3,5.253441259E-2,1.404990070E-2
1.114682753E0,5.497787148E-3,5.375614017E-2,1.527163107E-2
1.116665601E0,6.108652335E-3,5.375614017E-2,1.588249579E-2
1.118679680E0,6.719517522E-3,5.864306539E-2,1.466076635E-2
1.120695066E0,5.497787148E-3,6.047565863E-2,1.710422710E-2
1.122678145E0,8.552113548E-3,6.047565863E-2,1.588249579E-2
1.124692918E0,8.552113548E-3,6.475171447E-2,1.832595654E-2
1.126676689E0,7.330383174E-3,6.352998316E-2,1.832595654E-2
1.128689537E0,9.773843922E-3,6.658431143E-2,1.771509275E-2
1.130672924E0,9.162978269E-3,6.658431143E-2,1.893682219E-2
1.132686772E0,7.941247895E-3,6.719517708E-2,1.649336144E-2
1.134670544E0,8.552113548E-3,6.414084882E-2,1.710422710E-2
1.136685931E0,7.941247895E-3,6.780604273E-2,1.771509275E-2
1.138668933E0,9.773843922E-3,6.841690838E-2,1.832595654E-2
1.140684319E0,9.162978269E-3,6.536258012E-2,1.710422710E-2
1.142666167E0,1.038470957E-2,6.352998316E-2,1.710422710E-2
1.144680400E0,1.038470957E-2,6.230825558E-2,1.832595654E-2
1.146694172E0,7.941247895E-3,6.291911751E-2,1.771509275E-2
1.148679098E0,8.552113548E-3,5.864306539E-2,1.771509275E-2
1.150692407E0,7.330383174E-3,5.558873713E-2,1.771509275E-2
1.152676409E0,7.330383174E-3,5.497787148E-2,1.588249579E-2
1.154690873E0,7.330383174E-3,5.131268129E-2,1.404990070E-2
1.156674876E0,6.719517522E-3,4.886921868E-2,1.588249579E-2
1.158689032E0,7.330383174E-3,4.337143153E-2,1.588249579E-2
1.160672726E0,7.330383174E-3,4.153883830E-2,1.710422710E-2
1.162686497E0,9.162978269E-3,3.543018550E-2,1.282817032E-2
1.164670499E0,5.497787148E-3,3.237585723E-2,1.221730467E-2
1.166684040E0,7.330383174E-3,2.626720630E-2,1.221730467E-2
1.168667504E0,7.330383174E-3,2.382374369E-2,1.343903504E-2
1.170681583E0,6.719517522E-3,1.893682219E-2,1.038470957E-2
1.172696739E0,7.330383174E-3,1.404990070E-2,9.773843922E-3
1.174680049E0,4.886921961E-3,1.404990070E-2,7.941247895E-3
1.176693974E0,6.719517522E-3,1.099557430E-2,8.552113548E-3
1.178677283E0,5.497787148E-3,4.276056774E-3,8.552113548E-3
1.180693594E0,6.108652335E-3,2.443460980E-3,7.941247895E-3
1.182675519E0,6.108652335E-3,1.221730490E-3,6.108652335E-3
1.184689675E0,7.941247895E-3,0.000000000E0,6.108652335E-3
1.186672985E0,6.719517522E-3,-1.221730490E-3,3.665191587E-3
1.188687756E0,7.330383174E-3,-2.443460980E-3,3.665191587E-3
1.190669913E0,8.552113548E-3,-3.665191587E-3,5.497787148E-3
1.192685376E0,7.941247895E-3,-7.330383174E-3,7.330383174E-3
1.194668994E0,9.162978269E-3,-6.108652335E-3,4.886921961E-3
1.196682611E0,9.773843922E-3,-5.497787148E-3,2.443460980E-3
1.198667459E0,7.941247895E-3,-4.886921961E-3,3.054326167E-3
1.200681923E0,9.162978269E-3,-6.108652335E-3,5.497787148E-3
1.202695849E0,1.160643995E-2,-6.719517522E-3,3.054326167E-3
1.204679774E0,9.773843922E-3,-1.832595794E-3,3.054326167E-3
1.206693007E0,1.038470957E-2,-2.443460980E-3,3.054326167E-3
1.208676470E0,1.038470957E-2,-6.108652451E-4,2.443460980E-3
1.210690242E0,1.038470957E-2,6.108652451E-4,3.665191587E-3
1.212674552E0,1.160643995E-2,2.443460980E-3,5.497787148E-3
1.214688708E0,1.282817032E-2,3.054326167E-3,6.719517522E-3
1.216671864E0,9.162978269E-3,1.221730490E-3,6.108652335E-3
1.218686558E0,1.038470957E-2,0.000000000E0,5.497787148E-3
1.220670945E0,7.941247895E-3,-6.108652335E-3,4.276056774E-3
1.222684485E0,8.552113548E-3,-1.404990070E-2,5.497787148E-3
1.224667181E0,3.665191587E-3,-1.710422710E-2,5.497787148E-3
1.226681644E0,3.665191587E-3,-2.443460934E-2,4.276056774E-3
1.228695262E0,0.000000000E0,-2.993239649E-2,3.665191587E-3
1.230679571E0,-6.108652451E-4,-3.481931984E-2,6.108652335E-3
1.232693958E0,-5.497787148E-3,-3.787364438E-2,3.054326167E-3
1.234677653E0,-9.162978269E-3,-4.153883830E-2,3.665191587E-3
1.236691501E0,-7.941247895E-3,-4.153883830E-2,1.832595794E-3
1.238674273E0,-9.773843922E-3,-3.848451003E-2,3.054326167E-3
1.240690659E0,-1.221730467E-2,-4.092797264E-2,4.886921961E-3
1.242672738E0,-1.527163107E-2,-3.848451003E-2,3.054326167E-3
1.244687817E0,-1.404990070E-2,-3.481931984E-2,3.665191587E-3
1.246670589E0,-1.466076635E-2,-3.237585723E-2,5.497787148E-3
1.248685053E0,-1.282817032E-2,-3.054326214E-2,6.108652335E-3
1.250668516E0,-1.282817032E-2,-2.748893574E-2,9.773843922E-3
1.252682595E0,-1.282817032E-2,-2.565634064E-2,1.099557430E-2
1.254666905E0,-1.160643995E-2,-2.076941915E-2,1.160643995E-2
1.256680446E0,-1.160643995E-2,-1.649336144E-2,1.099557430E-2
1.258694602E0,-1.038470957E-2,-1.527163107E-2,1.099557430E-2
1.260678989E0,-7.330383174E-3,-1.160643995E-2,1.099557430E-2
1.262693068E0,-6.719517522E-3,-6.108652335E-3,1.038470957E-2
1.264675608E0,-5.497787148E-3,-4.886921961E-3,1.038470957E-2
1.266691610E0,-6.108652335E-3,-1.221730490E-3,9.773843922E-3
1.268673998E0,-3.665191587E-3,4.276056774E-3,7.941247895E-3
1.270687539E0,-3.054326167E-3,4.276056774E-3,6.719517522E-3
1.272672156E0,-1.221730490E-3,7.330383174E-3,4.886921961E-3
1.274686081E0,-1.221730490E-3,9.773843922E-3,3.054326167E-3
1.276669160E0,-1.221730490E-3,9.773843922E-3,3.054326167E-3
1.278684162E0,1.221730490E-3,9.773843922E-3,2.443460980E-3
1.280667934E0,0.000000000E0,6.719517522E-3,1.832595794E-3
1.282681705E0,-6.108652451E-4,6.108652335E-3,-1.832595794E-3
1.284696784E0,-1.221730490E-3,4.276056774E-3,0.000000000E0
1.286679325E0,-1.221730490E-3,6.108652451E-4,1.221730490E-3
1.288693173E0,1.221730490E-3,-6.108652451E-4,-2.443460980E-3
1.290677407E0,0.000000000E0,-1.221730490E-3,-1.221730490E-3
1.292691255E0,-1.221730490E-3,-4.276056774E-3,-3.054326167E-3
1.294675334E0,6.108652451E-4,-6.108652335E-3,-6.108652451E-4
1.296688874E0,1.221730490E-3,-6.108652335E-3,-1.221730490E-3
1.298671953E0,0.000000000E0,-6.108652335E-3,0.000000000E0
1.300687955E0,1.832595794E-3,-2.443460980E-3,6.108652451E-4
1.302671574E0,4.886921961E-3,-1.832595794E-3,-2.443460980E-3
1.304684576E0,3.665191587E-3,0.000000000E0,-2.443460980E-3
1.306668808E0,3.054326167E-3,4.276056774E-3,-6.108652451E-4
1.308683041E0,5.497787148E-3,1.160643995E-2,6.108652451E-4
1.310665735E0,4.886921961E-3,1.221730467E-2,-1.221730490E-3
1.312680277E0,6.719517522E-3,1.893682219E-2,0.000000000E0
1.314695279E0,4.886921961E-3,2.565634064E-2,-6.108652451E-4
1.316678435E0,6.108652335E-3,2.809980139E-2,6.108652451E-4
1.318692821E0,6.719517522E-3,3.115412779E-2,3.054326167E-3
1.320676285E0,9.162978269E-3,3.359758854E-2,3.054326167E-3
1.322690056E0,5.497787148E-3,3.909537569E-2,4.886921961E-3
1.324674059E0,4.276056774E-3,4.092797264E-2,3.665191587E-3
1.326688215E0,5.497787148E-3,4.214970022E-2,4.276056774E-3
1.328671371E0,3.054326167E-3,4.581489414E-2,3.665191587E-3
1.330685219E0,5.497787148E-3,4.581489414E-2,4.886921961E-3
1.332669760E0,3.054326167E-3,4.398229718E-2,3.665191587E-3
1.334684300E0,3.054326167E-3,4.398229718E-2,2.443460980E-3
1.336667303E0,1.832595794E-3,4.031710699E-2,3.054326167E-3
1.338681228E0,-6.108652451E-4,3.909537569E-2,3.665191587E-3
1.340696538E0,-6.108652451E-4,3.665191308E-2,3.665191587E-3
1.342679001E0,-6.108652451E-4,3.298672289E-2,1.832595794E-3
1.344693157E0,-6.108652451E-4,3.176499158E-2,2.443460980E-3
1.346677545E0,-1.221730490E-3,2.748893574E-2,3.054326167E-3
1.348690701E0,6.108652451E-4,2.443460934E-2,1.832595794E-3
1.350674087E0,-6.108652451E-4,1.954768784E-2,2.443460980E-3
1.352688551E0,-1.221730490E-3,1.527163107E-2,1.221730490E-3
1.354672861E0,-6.108652451E-4,1.282817032E-2,0.000000000E0
1.356687016E0,-6.108652451E-4,8.552113548E-3,6.108652451E-4
1.358670789E0,6.108652451E-4,3.665191587E-3,-6.108652451E-4
1.360684560E0,1.832595794E-3,0.000000000E0,-1.221730490E-3
1.362668331E0,-6.108652451E-4,-3.054326167E-3,0.000000000E0
1.364683102E0,0.000000000E0,-5.497787148E-3,0.000000000E0
1.366665874E0,1.832595794E-3,-6.719517522E-3,-1.221730490E-3
1.368679415E0,-6.108652451E-4,-6.108652335E-3,-6.108652451E-4
1.370693571E0,6.108652451E-4,-6.719517522E-3,-1.221730490E-3
1.372677496E0,6.108652451E-4,-4.276056774E-3,-1.832595794E-3
1.374692344E0,2.443460980E-3,-5.497787148E-3,-4.276056774E-3
1.376675654E0,6.108652451E-4,-4.886921961E-3,-3.665191587E-3
1.378689887E0,6.108652451E-4,-3.665191587E-3,-2.443460980E-3
1.380674120E0,6.108652451E-4,-3.054326167E-3,0.000000000E0
1.382688584E0,-1.832595794E-3,-6.108652451E-4,-6.108652451E-4
1.384670740E0,-6.108652451E-4,3.665191587E-3,1.832595794E-3
1.386686126E0,1.832595794E-3,3.054326167E-3,6.108652451E-4
1.388668898E0,0.000000000E0,6.719517522E-3,3.054326167E-3
1.390682824E0,-4.276056774E-3,9.773843922E-3,3.054326167E-3
1.392667056E0,-3.665191587E-3,1.099557430E-2,3.665191587E-3
1.394681520E0,-3.665191587E-3,1.038470957E-2,3.054326167E-3
1.396695676E0,-1.221730490E-3,1.221730467E-2,7.330383174E-3
1.398679062E0,-1.832595794E-3,1.404990070E-2,4.276056774E-3
1.400694141E0,-1.221730490E-3,1.343903504E-2,3.054326167E-3
1.402677529E0,-1.221730490E-3,1.466076635E-2,4.886921961E-3
1.404691146E0,0.000000000E0,1.527163107E-2,3.054326167E-3
1.406674764E0,1.832595794E-3,1.404990070E-2,5.497787148E-3
1.408688381E0,1.221730490E-3,1.221730467E-2,4.276056774E-3
1.410672614E0,6.108652451E-4,1.099557430E-2,1.221730490E-3
1.412686463E0,6.108652451E-4,1.099557430E-2,1.832595794E-3
1.414670234E0,2.443460980E-3,8.552113548E-3,2.443460980E-3
1.416684083E0,3.054326167E-3,7.941247895E-3,3.665191587E-3
1.418668008E0,1.832595794E-3,6.108652335E-3,1.221730490E-3
1.420683394E0,5.497787148E-3,4.276056774E-3,1.832595794E-3
1.422666165E0,2.443460980E-3,6.719517522E-3,2.443460980E-3
1.424679707E0,3.054326167E-3,4.276056774E-3,2.443460980E-3
1.426694786E0,1.221730490E-3,4.276056774E-3,6.108652451E-4
1.428678557E0,4.886921961E-3,4.886921961E-3,6.108652451E-4
1.430691405E0,1.832595794E-3,4.276056774E-3,0.000000000E0
1.432676330E0,1.832595794E-3,3.665191587E-3,3.054326167E-3
1.434689640E0,3.665191587E-3,3.665191587E-3,1.221730490E-3
1.436673566E0,6.108652451E-4,4.276056774E-3,3.054326167E-3
1.438687491E0,0.000000000E0,3.054326167E-3,1.832595794E-3
1.440672032E0,0.000000000E0,3.054326167E-3,0.000000000E0
1.442685957E0,2.443460980E-3,6.719517522E-3,1.832595794E-3
1.444669343E0,6.108652451E-4,7.330383174E-3,6.108652451E-4
1.446683808E0,0.000000000E0,7.330383174E-3,0.000000000E0
1.448666271E0,1.221730490E-3,9.773843922E-3,2.443460980E-3
1.450680658E0,-6.108652451E-4,9.773843922E-3,0.000000000E0
1.452695199E0,-6.108652451E-4,1.038470957E-2,-6.108652451E-4
1.454678816E0,-6.108652451E-4,1.343903504E-2,6.108652451E-4
1.456692972E0,-1.221730490E-3,1.282817032E-2,-1.221730490E-3
1.458676436E0,0.000000000E0,1.038470957E-2,-1.221730490E-3
1.460692361E0,0.000000000E0,1.221730467E-2,-1.832595794E-3
1.462674286E0,1.221730490E-3,1.466076635E-2,1.221730490E-3
1.464688058E0,0.000000000E0,1.343903504E-2,-1.221730490E-3
1.466672137E0,1.832595794E-3,1.588249579E-2,-1.221730490E-3
1.468685986E0,1.221730490E-3,1.649336144E-2,1.221730490E-3
1.470669680E0,6.108652451E-4,1.588249579E-2,-6.108652451E-4
1.472684682E0,0.000000000E0,1.649336144E-2,6.108652451E-4
1.474667838E0,1.221730490E-3,1.649336144E-2,1.221730490E-3
1.476681994E0,0.000000000E0,1.649336144E-2,-1.221730490E-3
1.478696765E0,0.000000000E0,1.099557430E-2,0.000000000E0
1.480680383E0,0.000000000E0,1.282817032E-2,1.832595794E-3
1.482693693E0,0.000000000E0,8.552113548E-3,1.832595794E-3
1.484678003E0,-1.221730490E-3,7.941247895E-3,2.443460980E-3
1.486691851E0,0.000000000E0,3.054326167E-3,2.443460980E-3
1.488675776E0,-6.108652451E-4,6.108652451E-4,1.221730490E-3
1.490689394E0,-4.276056774E-3,6.108652451E-4,2.443460980E-3
1.492673089E0,-1.832595794E-3,6.108652451E-4,2.443460980E-3
1.494687475E0,-3.054326167E-3,-6.108652451E-4,2.443460980E-3
1.496670939E0,-1.221730490E-3,-6.108652451E-4,1.221730490E-3
1.498685018E0,-4.886921961E-3,-3.665191587E-3,1.832595794E-3
1.500669712E0,-3.665191587E-3,-4.276056774E-3,3.054326167E-3
1.502683254E0,-2.443460980E-3,-4.886921961E-3,1.832595794E-3
1.504666640E0,-4.276056774E-3,-6.719517522E-3,4.276056774E-3
1.506681104E0,-3.665191587E-3,-6.108652335E-3,3.054326167E-3
1.508695490E0,-3.054326167E-3,-5.497787148E-3,1.221730490E-3
1.510678262E0,-3.665191587E-3,-7.941247895E-3,6.108652335E-3
1.512693033E0,-1.832595794E-3,-9.162978269E-3,4.276056774E-3
1.514677036E0,-2.443460980E-3,-6.108652335E-3,1.221730490E-3
1.516690653E0,-2.443460980E-3,-7.330383174E-3,4.276056774E-3
1.518674271E0,-6.108652451E-4,-6.719517522E-3,4.276056774E-3
1.520689734E0,-6.108652451E-4,-4.886921961E-3,1.832595794E-3
1.522672121E0,-1.832595794E-3,-6.108652335E-3,3.665191587E-3
1.524686970E0,0.000000000E0,-5.497787148E-3,1.221730490E-3
1.526669972E0,-1.832595794E-3,-4.886921961E-3,2.443460980E-3
1.528683282E0,-3.054326167E-3,-4.276056774E-3,6.108652335E-3
1.530667591E0,-2.443460980E-3,-4.886921961E-3,3.665191587E-3
1.532681055E0,-3.054326167E-3,-2.443460980E-3,1.221730490E-3
1.534696518E0,-3.665191587E-3,-4.886921961E-3,2.443460980E-3
1.536679906E0,-3.665191587E-3,-6.719517522E-3,4.886921961E-3
1.538693985E0,-5.497787148E-3,-6.108652335E-3,1.832595794E-3
1.540678064E0,-3.665191587E-3,-5.497787148E-3,2.443460980E-3
1.542692143E0,-4.276056774E-3,-4.276056774E-3,2.443460980E-3
1.544674914E0,-4.886921961E-3,-6.719517522E-3,-6.108652451E-4
1.546689763E0,-3.665191587E-3,-7.330383174E-3,0.000000000E0
1.548672765E0,-3.054326167E-3,-6.108652335E-3,6.108652451E-4
1.550686613E0,-2.443460980E-3,-6.719517522E-3,-1.832595794E-3
1.552670692E0,-3.665191587E-3,-7.941247895E-3,-1.221730490E-3
1.554685156E0,-1.832595794E-3,-7.941247895E-3,-2.443460980E-3
1.556667850E0,-3.054326167E-3,-8.552113548E-3,-3.054326167E-3
1.558683238E0,-2.443460980E-3,-9.162978269E-3,-1.832595794E-3
1.560667855E0,6.108652451E-4,-9.773843922E-3,-1.221730490E-3
1.562680857E0,-1.832595794E-3,-8.552113548E-3,-3.665191587E-3
1.564695859E0,-1.832595794E-3,-8.552113548E-3,-1.221730490E-3
1.566678630E0,0.000000000E0,-8.552113548E-3,-2.443460980E-3
1.568692557E0,1.221730490E-3,-9.162978269E-3,-3.054326167E-3
1.570676559E0,1.221730490E-3,-7.941247895E-3,-2.443460980E-3
1.572690022E0,0.000000000E0,-6.108652335E-3,-1.832595794E-3
1.574674716E0,1.832595794E-3,-6.108652335E-3,-3.054326167E-3
1.576687872E0,2.443460980E-3,-6.719517522E-3,0.000000000E0
1.578671259E0,1.221730490E-3,-3.665191587E-3,-3.054326167E-3
1.580687339E0,3.054326167E-3,-3.665191587E-3,-3.054326167E-3
1.582669725E0,1.832595794E-3,-1.221730490E-3,-2.443460980E-3
1.584683343E0,1.221730490E-3,1.221730490E-3,0.000000000E0
1.586667653E0,3.665191587E-3,1.221730490E-3,0.000000000E0
1.588681808E0,1.832595794E-3,3.054326167E-3,-1.221730490E-3
1.590694657E0,4.276056774E-3,4.886921961E-3,-1.221730490E-3
1.592679352E0,5.497787148E-3,3.665191587E-3,6.108652451E-4
1.594693508E0,4.276056774E-3,5.497787148E-3,0.000000000E0
1.596677125E0,5.497787148E-3,6.108652335E-3,-1.832595794E-3
1.598691050E0,3.054326167E-3,7.941247895E-3,-1.221730490E-3
1.600675668E0,3.054326167E-3,7.941247895E-3,0.000000000E0
1.602689517E0,3.665191587E-3,6.108652335E-3,-3.665191587E-3
1.604673211E0,3.054326167E-3,8.552113548E-3,-1.221730490E-3
1.606686982E0,3.665191587E-3,6.719517522E-3,-2.443460980E-3
1.608670446E0,3.054326167E-3,6.719517522E-3,-1.832595794E-3
1.610683986E0,0.000000000E0,8.552113548E-3,-6.108652451E-4
1.612668527E0,2.443460980E-3,4.276056774E-3,-2.443460980E-3
1.614683068E0,1.221730490E-3,4.886921961E-3,-1.221730490E-3
1.616665532E0,3.054326167E-3,2.443460980E-3,-2.443460980E-3
1.618680226E0,1.832595794E-3,3.665191587E-3,-6.108652451E-4
1.620695920E0,0.000000000E0,3.054326167E-3,-1.221730490E-3
1.622678692E0,0.000000000E0,3.665191587E-3,-1.832595794E-3
1.624691695E0,0.000000000E0,6.108652451E-4,-1.832595794E-3
1.626675927E0,-3.665191587E-3,2.443460980E-3,-2.443460980E-3
1.628689852E0,-1.221730490E-3,0.000000000E0,-1.832595794E-3
1.630673778E0,-3.665191587E-3,-6.108652451E-4,-2.443460980E-3
1.632687703E0,-2.443460980E-3,1.221730490E-3,-3.665191587E-3
1.634671320E0,-4.276056774E-3,-1.832595794E-3,-2.443460980E-3
1.636686169E0,-3.665191587E-3,-1.221730490E-3,-1.832595794E-3
1.638669248E0,-4.276056774E-3,-6.108652451E-4,-3.054326167E-3
1.640684558E0,-3.665191587E-3,-2.443460980E-3,-4.276056774E-3
1.642667637E0,-3.665191587E-3,-3.665191587E-3,-3.054326167E-3
1.644682177E0,-3.665191587E-3,-3.665191587E-3,-4.276056774E-3
1.646695949E0,-3.054326167E-3,-2.443460980E-3,-4.276056774E-3
1.648679413E0,-1.832595794E-3,-2.443460980E-3,-3.054326167E-3
1.650693877E0,-3.665191587E-3,-3.665191587E-3,-1.221730490E-3
1.652676648E0,-3.054326167E-3,-1.221730490E-3,-3.665191587E-3
1.654691650E0,-2.443460980E-3,-3.665191587E-3,0.000000000E0
1.656675113E0,-3.054326167E-3,-1.221730490E-3,-1.832595794E-3
1.658688886E0,-6.108652451E-4,-1.221730490E-3,-1.221730490E-3
1.660673811E0,-3.665191587E-3,-1.832595794E-3,-1.221730490E-3
1.662687351E0,-3.054326167E-3,1.221730490E-3,0.000000000E0
1.664669892E0,0.000000000E0,0.000000000E0,1.221730490E-3
1.666685817E0,-6.108652451E-4,-6.108652451E-4,-3.054326167E-3
1.668668665E0,-1.221730490E-3,0.000000000E0,-1.221730490E-3
1.670681899E0,1.832595794E-3,0.000000000E0,-1.221730490E-3
1.672696901E0,1.221730490E-3,1.221730490E-3,-1.832595794E-3
1.674679980E0,0.000000000E0,1.832595794E-3,-1.221730490E-3
1.676694751E0,1.832595794E-3,6.108652451E-4,-1.832595794E-3
1.678677522E0,2.443460980E-3,6.108652451E-4,-2.443460980E-3
1.680692910E0,3.054326167E-3,1.832595794E-3,-1.832595794E-3
1.682676065E0,3.054326167E-3,2.443460980E-3,0.000000000E0
1.684691144E0,3.054326167E-3,1.832595794E-3,-6.108652451E-4
1.686673531E0,1.221730490E-3,1.832595794E-3,-1.832595794E-3
1.688688071E0,3.665191587E-3,3.054326167E-3,-1.832595794E-3
1.690671458E0,2.443460980E-3,1.221730490E-3,-1.221730490E-3
1.692684615E0,2.443460980E-3,6.108652451E-4,0.000000000E0
1.694669617E0,-6.108652451E-4,3.054326167E-3,6.108652451E-4
1.696683080E0,2.443460980E-3,2.443460980E-3,-6.108652451E-4
1.698667775E0,2.443460980E-3,1.221730490E-3,0.000000000E0
1.700682238E0,6.108652451E-4,1.221730490E-3,-2.443460980E-3
1.702695780E0,-1.221730490E-3,6.108652451E-4,-1.221730490E-3
1.704678243E0,-1.221730490E-3,1.221730490E-3,0.000000000E0
1.706693015E0,-1.221730490E-3,1.832595794E-3,0.000000000E0
1.708677017E0,-2.443460980E-3,3.665191587E-3,2.443460980E-3
1.710691403E0,-3.665191587E-3,1.832595794E-3,6.108652451E-4
1.712674482E0,-3.054326167E-3,3.665191587E-3,-1.832595794E-3
1.714689562E0,0.000000000E0,1.832595794E-3,-1.221730490E-3
1.716672410E0,-1.832595794E-3,0.000000000E0,-3.665191587E-3
1.718686489E0,-1.832595794E-3,-6.108652451E-4,0.000000000E0
1.720671183E0,-1.221730490E-3,2.443460980E-3,-6.108652451E-4
1.722683801E0,-2.443460980E-3,3.054326167E-3,-6.108652451E-4
1.724669034E0,-2.443460980E-3,1.221730490E-3,-3.054326167E-3
1.726681575E0,-1.832595794E-3,2.443460980E-3,-1.221730490E-3
1.728695808E0,-6.108652451E-4,0.000000000E0,-1.221730490E-3
1.730679810E0,-6.108652451E-4,6.108652451E-4,-1.832595794E-3
1.732694196E0,6.108652451E-4,2.443460980E-3,-6.108652451E-4
1.734678506E0,6.108652451E-4,1.221730490E-3,-6.108652451E-4
1.736691432E0,6.108652451E-4,2.443460980E-3,-2.443460980E-3
1.738675511E0,-6.108652451E-4,1.221730490E-3,-1.832595794E-3
1.740690282E0,-1.832595794E-3,3.665191587E-3,-1.832595794E-3
1.742673669E0,6.108652451E-4,1.221730490E-3,-1.832595794E-3
1.744687210E0,-6.108652451E-4,0.000000000E0,0.000000000E0
1.746671212E0,0.000000000E0,1.832595794E-3,-1.832595794E-3
1.748685061E0,6.108652451E-4,6.108652451E-4,-1.832595794E-3
1.750668370E0,1.832595794E-3,1.832595794E-3,-1.832595794E-3
1.752683219E0,6.108652451E-4,6.108652451E-4,0.000000000E0
1.754667221E0,6.108652451E-4,-1.221730490E-3,-1.221730490E-3
1.756681299E0,0.000000000E0,1.221730490E-3,0.000000000E0
1.758695533E0,1.221730490E-3,-3.665191587E-3,1.832595794E-3
1.760680074E0,0.000000000E0,-3.054326167E-3,2.443460980E-3
1.762692691E0,-6.108652451E-4,-3.054326167E-3,0.000000000E0
1.764677616E0,-1.221730490E-3,-4.276056774E-3,-1.221730490E-3
1.766690618E0,6.108652451E-4,-4.886921961E-3,-3.054326167E-3
1.768674312E0,-6.108652451E-4,-6.108652335E-3,-3.054326167E-3
1.770688700E0,-1.832595794E-3,-6.108652335E-3,-2.443460980E-3
1.772671241E0,-3.054326167E-3,-7.330383174E-3,-1.832595794E-3
1.774686627E0,-1.832595794E-3,-7.330383174E-3,-3.054326167E-3
1.776670322E0,0.000000000E0,-9.162978269E-3,-3.054326167E-3
1.778684400E0,-1.832595794E-3,-6.719517522E-3,-3.054326167E-3
1.780668788E0,-2.443460980E-3,-7.941247895E-3,-2.443460980E-3
1.782681944E0,-1.832595794E-3,-6.719517522E-3,-2.443460980E-3
1.784695561E0,-1.221730490E-3,-7.330383174E-3,-4.276056774E-3
1.786680179E0,-1.221730490E-3,-6.108652335E-3,-4.276056774E-3
1.788694258E0,-1.832595794E-3,-6.719517522E-3,-4.886921961E-3
1.790678260E0,0.000000000E0,-7.941247895E-3,-2.443460980E-3
1.792691801E0,6.108652451E-4,-8.552113548E-3,-1.221730490E-3
1.794675495E0,6.108652451E-4,-4.886921961E-3,-4.276056774E-3
1.796689728E0,1.832595794E-3,-7.330383174E-3,-6.108652451E-4
1.798672730E0,-1.832595794E-3,-5.497787148E-3,-3.054326167E-3
1.800688501E0,-1.221730490E-3,-7.330383174E-3,-1.221730490E-3
1.802671811E0,-2.443460980E-3,-5.497787148E-3,-1.832595794E-3
1.804685045E0,-1.832595794E-3,-5.497787148E-3,-4.276056774E-3
1.806669047E0,-2.443460980E-3,-7.330383174E-3,-2.443460980E-3
1.808683510E0,-1.832595794E-3,-4.886921961E-3,0.000000000E0
1.810667512E0,6.108652451E-4,-8.552113548E-3,-1.832595794E-3
1.812680438E0,-1.221730490E-3,-7.330383174E-3,0.000000000E0
1.814695287E0,-3.665191587E-3,-7.330383174E-3,-1.221730490E-3
1.816678673E0,-1.221730490E-3,-7.330383174E-3,-2.443460980E-3
1.818692829E0,0.000000000E0,-6.719517522E-3,-1.221730490E-3
1.820677447E0,-1.221730490E-3,-6.719517522E-3,-2.443460980E-3
1.822690679E0,-1.221730490E-3,-9.162978269E-3,-6.108652451E-4
1.824673374E0,-1.221730490E-3,-7.941247895E-3,0.000000000E0
1.826687915E0,-1.221730490E-3,-9.162978269E-3,-1.221730490E-3
1.828672532E0,-6.108652451E-4,-8.552113548E-3,1.832595794E-3
1.830685688E0,-1.221730490E-3,-9.773843922E-3,-6.108652451E-4
1.832670383E0,-1.832595794E-3,-9.773843922E-3,-6.108652451E-4
1.834685077E0,-6.108652451E-4,-9.773843922E-3,-6.108652451E-4
1.836667926E0,-6.108652451E-4,-1.038470957E-2,-1.832595794E-3
1.838681467E0,6.108652451E-4,-1.160643995E-2,6.108652451E-4
1.840696546E0,-1.832595794E-3,-1.160643995E-2,-1.832595794E-3
1.842680548E0,-6.108652451E-4,-1.038470957E-2,-1.832595794E-3
1.844694703E0,-2.443460980E-3,-1.221730467E-2,-2.443460980E-3
1.846678013E0,0.000000000E0,-1.343903504E-2,-1.832595794E-3
1.848691862E0,-2.443460980E-3,-1.404990070E-2,-2.443460980E-3
1.850675249E0,-1.221730490E-3,-1.404990070E-2,-2.443460980E-3
1.852689174E0,-6.108652451E-4,-1.343903504E-2,-3.665191587E-3
1.854673484E0,-1.221730490E-3,-1.404990070E-2,-3.054326167E-3
1.856687870E0,-1.221730490E-3,-1.649336144E-2,-2.443460980E-3
1.858670642E0,-1.221730490E-3,-1.649336144E-2,-1.221730490E-3
1.860686029E0,-2.443460980E-3,-1.710422710E-2,-3.665191587E-3
1.862668570E0,-2.443460980E-3,-1.893682219E-2,-2.443460980E-3
1.864682648E0,-3.665191587E-3,-2.076941915E-2,-4.276056774E-3
1.866696804E0,-3.054326167E-3,-1.771509275E-2,-3.665191587E-3
1.868680576E0,-2.443460980E-3,-1.954768784E-2,-3.054326167E-3
1.870694425E0,-1.832595794E-3,-1.893682219E-2,-4.886921961E-3
1.872678427E0,-6.108652335E-3,-1.954768784E-2,-4.886921961E-3
1.874692890E0,-3.054326167E-3,-2.015855350E-2,-4.276056774E-3
1.876675662E0,-3.665191587E-3,-1.893682219E-2,-2.443460980E-3
1.878690740E0,-1.221730490E-3,-1.954768784E-2,-3.665191587E-3
1.880675051E0,-2.443460980E-3,-1.954768784E-2,-5.497787148E-3
1.882687899E0,-3.665191587E-3,-1.771509275E-2,-2.443460980E-3
1.884672286E0,-2.443460980E-3,-1.710422710E-2,-1.832595794E-3
1.886686134E0,-2.443460980E-3,-1.710422710E-2,-3.054326167E-3
1.888669213E0,-3.054326167E-3,-1.588249579E-2,-2.443460980E-3
1.890683600E0,-2.443460980E-3,-1.710422710E-2,-3.665191587E-3
1.892667064E0,-1.832595794E-3,-1.404990070E-2,-1.832595794E-3
1.894681835E0,-1.221730490E-3,-1.282817032E-2,-2.443460980E-3
1.896695914E0,0.000000000E0,-1.282817032E-2,-1.221730490E-3
1.898678763E0,-6.108652451E-4,-1.282817032E-2,-1.832595794E-3
1.900694765E0,-6.108652451E-4,-1.038470957E-2,-1.832595794E-3
1.902677767E0,-6.108652451E-4,-1.038470957E-2,6.108652451E-4
1.904691077E0,6.108652451E-4,-7.330383174E-3,0.000000000E0
1.906676310E0,1.221730490E-3,-8.552113548E-3,-6.108652451E-4
1.908689543E0,6.108652451E-4,-9.162978269E-3,0.000000000E0
1.910672006E0,0.000000000E0,-8.552113548E-3,-1.832595794E-3
1.912687085E0,-6.108652451E-4,-4.886921961E-3,1.221730490E-3
1.914671088E0,2.443460980E-3,-5.497787148E-3,-6.108652451E-4
1.916685244E0,-1.221730490E-3,-3.665191587E-3,-1.832595794E-3
1.918668631E0,0.000000000E0,-1.832595794E-3,-1.221730490E-3
1.920683710E0,6.108652451E-4,-1.832595794E-3,-2.443460980E-3
1.922666096E0,6.108652451E-4,-6.108652451E-4,-1.832595794E-3
1.924680944E0,3.054326167E-3,-1.221730490E-3,-1.221730490E-3
1.926694409E0,1.832595794E-3,1.832595794E-3,-4.276056774E-3
1.928678796E0,1.221730490E-3,6.108652451E-4,-3.054326167E-3
1.930692259E0,2.443460980E-3,6.108652451E-4,-1.832595794E-3
1.932676569E0,0.000000000E0,3.665191587E-3,-3.665191587E-3
1.934690186E0,1.832595794E-3,0.000000000E0,-6.108652451E-4
1.936673805E0,1.832595794E-3,4.276056774E-3,-1.832595794E-3
1.938688037E0,6.108652451E-4,3.665191587E-3,-1.221730490E-3
1.940672962E0,-6.108652451E-4,2.443460980E-3,-1.832595794E-3
1.942685888E0,1.832595794E-3,3.054326167E-3,-4.276056774E-3
1.944668659E0,0.000000000E0,3.665191587E-3,-4.276056774E-3
1.946684045E0,6.108652451E-4,4.276056774E-3,-6.108652451E-4
1.948667433E0,6.108652451E-4,4.276056774E-3,-1.832595794E-3
1.950681820E0,1.832595794E-3,3.665191587E-3,-2.443460980E-3
1.952694822E0,6.108652451E-4,4.276056774E-3,-3.054326167E-3
1.954679747E0,2.443460980E-3,1.221730490E-3,-4.276056774E-3
1.956693518E0,2.443460980E-3,3.054326167E-3,-1.832595794E-3
1.958677521E0,3.665191587E-3,1.221730490E-3,-1.832595794E-3
1.960691984E0,1.832595794E-3,6.108652451E-4,-1.221730490E-3
1.962675371E0,4.886921961E-3,1.832595794E-3,-1.832595794E-3
1.964689835E0,2.443460980E-3,1.832595794E-3,-1.832595794E-3
1.966672606E0,4.276056774E-3,6.108652451E-4,-3.054326167E-3
1.968686531E0,3.054326167E-3,1.221730490E-3,-3.665191587E-3
1.970670457E0,1.221730490E-3,6.108652451E-4,-2.443460980E-3
1.972684305E0,3.054326167E-3,-1.221730490E-3,-6.108652451E-4
1.974668384E0,1.832595794E-3,-1.221730490E-3,-2.443460980E-3
1.976682463E0,1.221730490E-3,-1.832595794E-3,-1.221730490E-3
1.978696311E0,2.443460980E-3,-4.276056774E-3,-1.832595794E-3
1.980681006E0,-6.108652451E-4,-3.665191587E-3,0.000000000E0
1.982693932E0,0.000000000E0,-6.108652335E-3,-3.054326167E-3
1.984677626E0,1.221730490E-3,-9.162978269E-3,-2.443460980E-3
1.986692705E0,-1.221730490E-3,-8.552113548E-3,-1.221730490E-3
1.988676630E0,6.108652451E-4,-8.552113548E-3,-1.221730490E-3
1.990689632E0,1.221730490E-3,-1.038470957E-2,1.221730490E-3
1.992673327E0,6.108652451E-4,-1.221730467E-2,-6.108652451E-4
1.994688714E0,-6.108652451E-4,-1.160643995E-2,0.000000000E0
1.996672408E0,6.108652451E-4,-1.282817032E-2,-1.832595794E-3
1.998686256E0,-3.665191587E-3,-1.527163107E-2,0.000000000E0
2.000669874E0,-3.665191587E-3,-1.527163107E-2,-1.221730490E-3
2.002683491E0,-1.832595794E-3,-1.710422710E-2,-2.443460980E-3
2.004667417E0,-1.832595794E-3,-1.832595654E-2,-6.108652451E-4
2.006682265E0,-6.108652451E-4,-1.527163107E-2,-1.221730490E-3
2.008695806E0,-1.221730490E-3,-1.771509275E-2,-6.108652451E-4
2.010678885E0,-2.443460980E-3,-1.954768784E-2,-4.276056774E-3
2.012692733E0,-6.108652451E-4,-1.588249579E-2,-1.221730490E-3
2.014677274E0,-1.832595794E-3,-1.832595654E-2,-3.054326167E-3
2.016691430E0,-2.443460980E-3,-1.710422710E-2,-1.832595794E-3
2.018674817E0,-3.665191587E-3,-1.710422710E-2,-1.221730490E-3
2.020689280E0,-3.665191587E-3,-1.588249579E-2,0.000000000E0
2.022673282E0,-6.108652451E-4,-1.588249579E-2,0.000000000E0
2.024686284E0,-1.832595794E-3,-1.527163107E-2,-2.443460980E-3
2.026669980E0,-1.832595794E-3,-1.343903504E-2,-6.108652451E-4
2.028684443E0,0.000000000E0,-1.282817032E-2,-1.221730490E-3
2.030668138E0,-6.108652451E-4,-1.221730467E-2,1.832595794E-3
2.032682217E0,0.000000000E0,-1.038470957E-2,-1.832595794E-3
2.034696757E0,6.108652451E-4,-1.038470957E-2,0.000000000E0
2.036680068E0,1.221730490E-3,-7.941247895E-3,-1.832595794E-3
2.038693993E0,1.221730490E-3,-9.162978269E-3,-1.221730490E-3
2.040679533E0,6.108652451E-4,-6.719517522E-3,-6.108652451E-4
2.042692689E0,2.443460980E-3,-6.108652335E-3,0.000000000E0
2.044676383E0,1.832595794E-3,-4.276056774E-3,-1.832595794E-3
2.046690232E0,1.221730490E-3,-3.054326167E-3,6.108652451E-4
2.048673619E0,6.108652451E-4,-2.443460980E-3,-6.108652451E-4
2.050687160E0,-1.221730490E-3,6.108652451E-4,1.221730490E-3
2.052671162E0,0.000000000E0,1.832595794E-3,0.000000000E0
2.054686317E0,1.832595794E-3,1.832595794E-3,6.108652451E-4
2.056669319E0,2.443460980E-3,3.665191587E-3,1.221730490E-3
2.058683552E0,1.832595794E-3,5.497787148E-3,-1.221730490E-3
2.060667248E0,1.221730490E-3,7.330383174E-3,-1.221730490E-3
2.062681327E0,1.221730490E-3,8.552113548E-3,-6.108652451E-4
2.064695252E0,3.054326167E-3,5.497787148E-3,0.000000000E0
2.066679484E0,3.665191587E-3,6.719517522E-3,-6.108652451E-4
2.068693409E0,3.665191587E-3,7.941247895E-3,6.108652451E-4
2.070676720E0,1.832595794E-3,8.552113548E-3,-6.108652451E-4
2.072690645E0,1.832595794E-3,7.941247895E-3,-1.221730490E-3
2.074674647E0,1.832595794E-3,7.941247895E-3,0.000000000E0
2.076688803E0,6.108652451E-4,9.773843922E-3,-6.108652451E-4
2.078672728E0,6.108652451E-4,1.160643995E-2,1.832595794E-3
2.080686961E0,2.443460980E-3,1.038470957E-2,6.108652451E-4
2.082670349E0,3.665191587E-3,9.773843922E-3,2.443460980E-3
2.084685120E0,1.221730490E-3,1.221730467E-2,2.443460980E-3
2.086667814E0,3.665191587E-3,8.552113548E-3,1.221730490E-3
2.088681662E0,3.054326167E-3,1.160643995E-2,3.665191587E-3
2.090696433E0,3.665191587E-3,1.099557430E-2,3.665191587E-3
2.092679821E0,3.054326167E-3,1.343903504E-2,1.832595794E-3
2.094694362E0,2.443460980E-3,1.099557430E-2,1.832595794E-3
2.096677979E0,4.886921961E-3,1.282817032E-2,2.443460980E-3
2.098691289E0,4.276056774E-3,1.282817032E-2,6.108652451E-4
2.100677137E0,1.832595794E-3,1.221730467E-2,2.443460980E-3
2.102690062E0,1.832595794E-3,1.221730467E-2,0.000000000E0
2.104673065E0,3.665191587E-3,1.221730467E-2,6.108652451E-4
2.106687221E0,2.443460980E-3,1.221730467E-2,-6.108652451E-4
2.108671300E0,3.054326167E-3,1.160643995E-2,6.108652451E-4
2.110684532E0,5.497787148E-3,1.099557430E-2,-6.108652451E-4
2.112668765E0,3.054326167E-3,1.160643995E-2,0.000000000E0
2.114682999E0,1.832595794E-3,1.160643995E-2,0.000000000E0
2.116697770E0,3.054326167E-3,8.552113548E-3,-1.221730490E-3
2.118680541E0,3.054326167E-3,7.941247895E-3,-6.108652451E-4
2.120696236E0,3.054326167E-3,7.941247895E-3,-1.221730490E-3
2.122678930E0,4.276056774E-3,5.497787148E-3,-1.221730490E-3
2.124693778E0,2.443460980E-3,6.719517522E-3,-3.665191587E-3
2.126676166E0,3.054326167E-3,4.886921961E-3,6.108652451E-4
2.128691014E0,1.832595794E-3,4.276056774E-3,-2.443460980E-3
2.130674401E0,2.443460980E-3,3.665191587E-3,-3.054326167E-3
2.132688480E0,2.443460980E-3,1.832595794E-3,-1.832595794E-3
2.134672251E0,3.054326167E-3,1.221730490E-3,-1.832595794E-3
2.136686714E0,1.221730490E-3,6.108652451E-4,6.108652451E-4
2.138669410E0,2.443460980E-3,-2.443460980E-3,-6.108652451E-4
2.140685104E0,0.000000000E0,-1.832595794E-3,-3.054326167E-3
2.142667644E0,6.108652451E-4,-6.108652335E-3,-3.665191587E-3
2.144681723E0,0.000000000E0,-6.719517522E-3,-3.054326167E-3
2.146696187E0,0.000000000E0,-6.108652335E-3,-3.665191587E-3
2.148679575E0,0.000000000E0,-9.773843922E-3,-2.443460980E-3
2.150693115E0,6.108652451E-4,-1.099557430E-2,-3.665191587E-3
2.152678425E0,1.221730490E-3,-1.282817032E-2,-4.276056774E-3
2.154692196E0,6.108652451E-4,-1.343903504E-2,-3.665191587E-3
2.156675660E0,-1.221730490E-3,-1.404990070E-2,-2.443460980E-3
2.158689123E0,1.221730490E-3,-1.771509275E-2,-3.665191587E-3
2.160673511E0,1.221730490E-3,-1.771509275E-2,-6.108652335E-3
2.162687282E0,-6.108652451E-4,-1.954768784E-2,-4.886921961E-3
2.164671592E0,-1.832595794E-3,-1.832595654E-2,-2.443460980E-3
2.166686132E0,1.832595794E-3,-2.076941915E-2,-3.665191587E-3
2.168668826E0,6.108652451E-4,-2.015855350E-2,-3.665191587E-3
2.170682983E0,-1.832595794E-3,-1.771509275E-2,-4.886921961E-3
2.172696601E0,3.054326167E-3,-2.199114859E-2,-4.276056774E-3
2.174681218E0,6.108652451E-4,-1.893682219E-2,-5.497787148E-3
2.176694682E0,6.108652451E-4,-1.954768784E-2,-6.108652335E-3
2.178678684E0,6.108652451E-4,-1.527163107E-2,-4.276056774E-3
2.180693147E0,1.221730490E-3,-1.527163107E-2,-3.054326167E-3
2.182676842E0,1.221730490E-3,-1.343903504E-2,-4.276056774E-3
2.184690152E0,0.000000000E0,-1.710422710E-2,-2.443460980E-3
2.186674462E0,1.832595794E-3,-1.527163107E-2,-2.443460980E-3
2.188688002E0,6.108652451E-4,-1.221730467E-2,-4.276056774E-3
2.190671697E0,1.221730490E-3,-1.160643995E-2,-4.276056774E-3
2.192685777E0,0.000000000E0,-1.160643995E-2,-4.886921961E-3
2.194669779E0,1.221730490E-3,-1.038470957E-2,-4.276056774E-3
2.196684242E0,6.108652451E-4,-9.162978269E-3,-3.665191587E-3
2.198667321E0,0.000000000E0,-7.330383174E-3,-3.665191587E-3
2.200682785E0,1.832595794E-3,-5.497787148E-3,-3.054326167E-3
2.202695940E0,2.443460980E-3,-6.108652335E-3,-1.832595794E-3
2.204680251E0,1.221730490E-3,-4.276056774E-3,-3.665191587E-3
2.206693868E0,-6.108652451E-4,-1.221730490E-3,-2.443460980E-3
2.208676947E0,-6.108652451E-4,-1.832595794E-3,-1.221730490E-3
2.210690719E0,6.108652451E-4,0.000000000E0,-4.276056774E-3
2.212675413E0,1.832595794E-3,6.108652451E-4,-4.886921961E-3
2.214689570E0,-2.443460980E-3,6.108652451E-4,-3.665191587E-3
2.216672879E0,-6.108652451E-4,1.832595794E-3,-3.054326167E-3
2.218687958E0,-6.108652451E-4,1.221730490E-3,-7.330383174E-3
2.220671653E0,1.832595794E-3,-6.108652451E-4,-4.886921961E-3
2.222684886E0,6.108652451E-4,-6.108652451E-4,-5.497787148E-3
2.224668657E0,6.108652451E-4,0.000000000E0,-4.276056774E-3
2.226683044E0,0.000000000E0,1.832595794E-3,-6.108652335E-3
2.228697893E0,-1.221730490E-3,-6.108652451E-4,-3.054326167E-3
2.230680048E0,1.221730490E-3,1.832595794E-3,-4.886921961E-3
2.232695358E0,6.108652451E-4,6.108652451E-4,-5.497787148E-3
2.234678745E0,6.108652451E-4,-2.443460980E-3,-1.221730490E-3
2.236692593E0,-6.108652451E-4,-1.221730490E-3,-3.054326167E-3
2.238676596E0,1.221730490E-3,1.221730490E-3,-3.665191587E-3
2.240691675E0,6.108652451E-4,-6.108652451E-4,-3.665191587E-3
2.242674446E0,1.832595794E-3,-2.443460980E-3,-3.054326167E-3
2.244688986E0,6.108652451E-4,-2.443460980E-3,-5.497787148E-3
2.246672604E0,1.832595794E-3,-1.221730490E-3,-2.443460980E-3
2.248686145E0,1.832595794E-3,-3.054326167E-3,-3.054326167E-3
2.250669301E0,3.054326167E-3,-2.443460980E-3,-1.221730490E-3
2.252683995E0,1.832595794E-3,-2.443460980E-3,-3.665191587E-3
2.254667382E0,1.221730490E-3,-3.054326167E-3,-4.276056774E-3
2.256681615E0,1.832595794E-3,-1.221730490E-3,-2.443460980E-3
2.258696002E0,6.108652451E-4,-1.832595794E-3,-3.665191587E-3
2.260680081E0,4.886921961E-3,-4.276056774E-3,-1.832595794E-3
2.262693853E0,3.665191587E-3,-4.886921961E-3,-4.886921961E-3
2.264676393E0,3.665191587E-3,-6.108652335E-3,-2.443460980E-3
2.266690549E0,1.832595794E-3,-6.719517522E-3,-4.886921961E-3
2.268674859E0,2.443460980E-3,-9.162978269E-3,-1.832595794E-3
2.270688708E0,2.443460980E-3,-8.552113548E-3,-3.054326167E-3
2.272672633E0,4.276056774E-3,-1.038470957E-2,-3.054326167E-3
2.274687173E0,2.443460980E-3,-1.099557430E-2,-3.665191587E-3
2.276670252E0,1.832595794E-3,-1.099557430E-2,-5.497787148E-3
2.278684639E0,6.108652451E-4,-1.343903504E-2,-1.832595794E-3
2.280669564E0,3.054326167E-3,-1.160643995E-2,-3.054326167E-3
2.282683105E0,1.832595794E-3,-1.282817032E-2,-3.665191587E-3
2.284697261E0,6.108652451E-4,-1.404990070E-2,-3.665191587E-3
2.286680340E0,1.832595794E-3,-1.588249579E-2,-3.054326167E-3
2.288694265E0,1.221730490E-3,-1.649336144E-2,-3.054326167E-3
2.290678498E0,0.000000000E0,-1.649336144E-2,-3.054326167E-3
2.292692117E0,-1.832595794E-3,-1.832595654E-2,-1.832595794E-3
2.294676349E0,0.000000000E0,-1.832595654E-2,0.000000000E0
2.296689967E0,-2.443460980E-3,-1.649336144E-2,-3.665191587E-3
2.298674584E0,-2.443460980E-3,-1.954768784E-2,-1.221730490E-3
2.300688663E0,-3.665191587E-3,-1.832595654E-2,-2.443460980E-3
2.302671742E0,-3.054326167E-3,-1.588249579E-2,-2.443460980E-3
2.304685668E0,-2.443460980E-3,-1.771509275E-2,0.000000000E0
2.306670285E0,-4.276056774E-3,-1.771509275E-2,-3.054326167E-3
2.308683826E0,-2.443460980E-3,-1.710422710E-2,-1.221730490E-3
2.310666289E0,-2.443460980E-3,-1.771509275E-2,-1.832595794E-3
2.312681676E0,-3.054326167E-3,-1.771509275E-2,-3.665191587E-3
2.314696063E0,-4.886921961E-3,-1.466076635E-2,-1.832595794E-3
2.316679758E0,-3.665191587E-3,-1.710422710E-2,-1.832595794E-3
2.318693683E0,-4.276056774E-3,-1.343903504E-2,-3.054326167E-3
2.320678531E0,-4.276056774E-3,-1.466076635E-2,-1.832595794E-3
2.322691533E0,-4.886921961E-3,-1.466076635E-2,6.108652451E-4
2.324675151E0,-4.276056774E-3,-1.404990070E-2,-3.665191587E-3
2.326689000E0,-6.108652451E-4,-1.343903504E-2,-1.832595794E-3
2.328673079E0,-2.443460980E-3,-9.773843922E-3,-1.832595794E-3
2.330686311E0,-2.443460980E-3,-9.773843922E-3,-3.665191587E-3
2.332670621E0,-2.443460980E-3,-1.038470957E-2,-6.108652451E-4
2.334685008E0,-6.108652451E-4,-9.773843922E-3,-6.108652451E-4
2.336668087E0,3.054326167E-3,-9.773843922E-3,-1.221730490E-3
2.338683167E0,0.000000000E0,-9.162978269E-3,-3.054326167E-3
2.340697707E0,1.221730490E-3,-9.162978269E-3,6.108652451E-4
2.342679863E0,6.108652451E-4,-9.162978269E-3,-1.832595794E-3
2.344693942E0,1.221730490E-3,-7.941247895E-3,-1.221730490E-3
2.346677021E0,4.276056774E-3,-9.162978269E-3,-3.054326167E-3
2.348692408E0,1.832595794E-3,-3.665191587E-3,-3.665191587E-3
2.350676180E0,4.276056774E-3,-5.497787148E-3,-2.443460980E-3
2.352689951E0,4.276056774E-3,-5.497787148E-3,-1.221730490E-3
2.354674030E0,6.719517522E-3,-3.054326167E-3,-3.054326167E-3
2.356687186E0,4.886921961E-3,-1.221730490E-3,-3.054326167E-3
2.358671495E0,6.108652335E-3,0.000000000E0,-2.443460980E-3
2.360686883E0,6.108652335E-3,-1.221730490E-3,-2.443460980E-3
2.362669654E0,6.719517522E-3,1.221730490E-3,0.000000000E0
2.364683887E0,4.886921961E-3,4.886921961E-3,-3.054326167E-3
2.366667812E0,6.719517522E-3,3.665191587E-3,-1.832595794E-3
2.368680814E0,6.719517522E-3,5.497787148E-3,-2.443460980E-3
2.370695279E0,4.886921961E-3,5.497787148E-3,6.108652451E-4
2.372679511E0,8.552113548E-3,6.108652335E-3,6.108652451E-4
2.374693360E0,7.330383174E-3,6.108652335E-3,6.108652451E-4
2.376677054E0,6.719517522E-3,8.552113548E-3,6.108652451E-4
2.378690979E0,4.886921961E-3,9.773843922E-3,-6.108652451E-4
2.380675596E0,4.886921961E-3,1.038470957E-2,6.108652451E-4
2.382689138E0,7.941247895E-3,1.099557430E-2,0.000000000E0
2.384672140E0,6.719517522E-3,1.038470957E-2,0.000000000E0
2.386687603E0,5.497787148E-3,7.941247895E-3,-2.443460980E-3
2.388671221E0,4.886921961E-3,8.552113548E-3,-1.221730490E-3
2.390684146E0,5.497787148E-3,7.941247895E-3,-6.108652451E-4
2.392667917E0,6.108652335E-3,7.330383174E-3,-1.832595794E-3
2.394681766E0,4.886921961E-3,4.276056774E-3,-6.108652451E-4
2.396696845E0,4.886921961E-3,2.443460980E-3,-1.832595794E-3
2.398680155E0,4.886921961E-3,1.832595794E-3,-2.443460980E-3
2.400695541E0,3.054326167E-3,1.221730490E-3,-2.443460980E-3
2.402678928E0,3.665191587E-3,-1.221730490E-3,-3.054326167E-3
2.404693162E0,3.054326167E-3,-2.443460980E-3,-2.443460980E-3
2.406675933E0,3.054326167E-3,-4.886921961E-3,-3.054326167E-3
2.408689474E0,1.221730490E-3,-3.665191587E-3,-3.054326167E-3
2.410673706E0,0.000000000E0,-7.330383174E-3,-1.832595794E-3
2.412687631E0,1.221730490E-3,-7.330383174E-3,-3.054326167E-3
2.414671864E0,1.221730490E-3,-7.941247895E-3,-4.886921961E-3
2.416685098E0,6.108652451E-4,-8.552113548E-3,-1.832595794E-3
2.418669177E0,1.832595794E-3,-9.162978269E-3,1.221730490E-3
2.420684179E0,1.221730490E-3,-9.773843922E-3,-1.832595794E-3
2.422667642E0,2.443460980E-3,-1.099557430E-2,-3.054326167E-3
2.424680798E0,-1.221730490E-3,-1.038470957E-2,-1.832595794E-3
2.426693801E0,0.000000000E0,-1.282817032E-2,-3.054326167E-3
2.428679034E0,0.000000000E0,-1.282817032E-2,-1.221730490E-3
2.430692882E0,-1.221730490E-3,-1.038470957E-2,-6.108652451E-4
2.432676577E0,6.108652451E-4,-1.649336144E-2,-2.443460980E-3
2.434690963E0,1.221730490E-3,-1.466076635E-2,-4.276056774E-3
2.436674657E0,6.108652451E-4,-1.649336144E-2,-1.832595794E-3
2.438689122E0,1.221730490E-3,-1.466076635E-2,-1.832595794E-3
2.440672893E0,-2.443460980E-3,-1.404990070E-2,-4.276056774E-3
2.442686357E0,0.000000000E0,-1.404990070E-2,-1.832595794E-3
2.444670974E0,0.000000000E0,-1.588249579E-2,-4.276056774E-3
2.446685130E0,-1.221730490E-3,-1.710422710E-2,-3.054326167E-3
2.448667978E0,1.832595794E-3,-1.588249579E-2,-1.832595794E-3
2.450681443E0,-2.443460980E-3,-1.649336144E-2,-2.443460980E-3
2.452695983E0,6.108652451E-4,-1.771509275E-2,-1.832595794E-3
2.454680524E0,-1.832595794E-3,-1.710422710E-2,-3.665191587E-3
2.456694064E0,1.832595794E-3,-1.893682219E-2,-3.665191587E-3
2.458678682E0,-6.108652451E-4,-1.649336144E-2,-3.054326167E-3
2.460693223E0,0.000000000E0,-1.710422710E-2,-3.665191587E-3
2.462675610E0,-6.108652451E-4,-1.771509275E-2,-1.221730490E-3
2.464689150E0,-1.221730490E-3,-1.588249579E-2,-3.054326167E-3
2.466673767E0,-6.108652451E-4,-1.588249579E-2,0.000000000E0
2.468687923E0,0.000000000E0,-1.466076635E-2,-3.665191587E-3
2.470670156E0,0.000000000E0,-1.588249579E-2,-2.443460980E-3
2.472686082E0,6.108652451E-4,-1.527163107E-2,-4.276056774E-3
2.474669853E0,6.108652451E-4,-1.588249579E-2,-1.832595794E-3
2.476683009E0,2.443460980E-3,-1.832595654E-2,-5.497787148E-3
2.478697857E0,3.054326167E-3,-2.015855350E-2,-3.054326167E-3
2.480682167E0,4.886921961E-3,-2.138028294E-2,-3.054326167E-3
2.482695632E0,4.886921961E-3,-1.771509275E-2,-4.276056774E-3
2.484679634E0,4.886921961E-3,-1.527163107E-2,-3.665191587E-3
2.486692943E0,2.443460980E-3,-1.404990070E-2,-4.276056774E-3
2.488676638E0,4.886921961E-3,-1.466076635E-2,-3.054326167E-3
2.490690101E0,3.054326167E-3,-1.221730467E-2,-2.443460980E-3
2.492674488E0,2.443460980E-3,-1.282817032E-2,-3.054326167E-3
2.494689183E0,4.276056774E-3,-1.160643995E-2,-2.443460980E-3
2.496672339E0,4.886921961E-3,-1.099557430E-2,-1.832595794E-3
2.498686803E0,4.886921961E-3,-7.941247895E-3,1.221730490E-3
2.500670189E0,3.665191587E-3,-6.719517522E-3,1.221730490E-3
2.502685191E0,7.330383174E-3,-6.108652335E-3,-6.108652451E-4
2.504667656E0,6.108652335E-3,-4.276056774E-3,-1.221730490E-3
2.506680965E0,4.886921961E-3,-1.221730490E-3,1.832595794E-3
2.508695429E0,6.108652335E-3,-3.054326167E-3,-1.221730490E-3
2.510679354E0,5.497787148E-3,0.000000000E0,1.832595794E-3
2.512693895E0,7.941247895E-3,6.108652451E-4,6.108652451E-4
2.514677897E0,4.276056774E-3,4.886921961E-3,-6.108652451E-4
2.516691746E0,4.276056774E-3,4.276056774E-3,-6.108652451E-4
2.518675363E0,6.108652335E-3,6.108652335E-3,6.108652451E-4
2.520690442E0,6.108652335E-3,4.276056774E-3,-1.832595794E-3
2.522673213E0,4.886921961E-3,6.108652335E-3,-1.221730490E-3
2.524688061E0,2.443460980E-3,7.941247895E-3,-1.221730490E-3
2.526670756E0,1.832595794E-3,9.773843922E-3,-2.443460980E-3
2.528685913E0,3.665191587E-3,6.719517522E-3,1.221730490E-3
2.530668299E0,2.443460980E-3,1.038470957E-2,-1.832595794E-3
2.532683378E0,4.886921961E-3,8.552113548E-3,-2.443460980E-3
2.534698149E0,3.054326167E-3,7.941247895E-3,1.221730490E-3
2.536680305E0,3.665191587E-3,6.719517522E-3,-1.221730490E-3
2.538694154E0,3.054326167E-3,4.886921961E-3,-1.221730490E-3
2.540680310E0,1.832595794E-3,6.108652335E-3,6.108652451E-4
2.542693004E0,1.221730490E-3,4.276056774E-3,-6.108652451E-4
2.544675468E0,4.886921961E-3,2.443460980E-3,-1.832595794E-3
2.546691085E0,4.276056774E-3,6.108652451E-4,6.108652451E-4
2.548674780E0,1.832595794E-3,1.832595794E-3,1.221730490E-3
2.550687706E0,2.443460980E-3,-6.108652451E-4,-6.108652451E-4
2.552672016E0,4.276056774E-3,-1.221730490E-3,-1.832595794E-3
2.554686171E0,2.443460980E-3,0.000000000E0,-2.443460980E-3
2.556670250E0,4.886921961E-3,-3.054326167E-3,-2.443460980E-3
2.558683175E0,4.276056774E-3,-3.054326167E-3,-3.665191587E-3
2.560699409E0,3.665191587E-3,-3.665191587E-3,-4.276056774E-3
2.562681950E0,3.665191587E-3,-3.054326167E-3,-6.108652451E-4
2.564696413E0,3.665191587E-3,-7.330383174E-3,-2.443460980E-3
2.566679107E0,3.054326167E-3,-6.719517522E-3,0.000000000E0
2.568693879E0,3.665191587E-3,-7.330383174E-3,-1.832595794E-3
2.570677573E0,1.221730490E-3,-9.162978269E-3,6.108652451E-4
2.572691807E0,6.108652451E-4,-7.941247895E-3,-6.108652451E-4
2.574675424E0,3.054326167E-3,-1.221730467E-2,-1.221730490E-3
2.576689349E0,0.000000000E0,-9.773843922E-3,-6.108652451E-4
2.578673044E0,1.832595794E-3,-1.282817032E-2,-6.108652451E-4
2.580688123E0,1.832595794E-3,-1.343903504E-2,-6.108652451E-4
2.582670818E0,6.108652451E-4,-1.160643995E-2,-6.108652451E-4
2.584684128E0,6.108652451E-4,-1.466076635E-2,0.000000000E0
2.586668745E0,3.054326167E-3,-1.404990070E-2,-2.443460980E-3
2.588682593E0,2.443460980E-3,-1.404990070E-2,-1.832595794E-3
2.590696441E0,2.443460980E-3,-1.160643995E-2,-1.221730490E-3
2.592680674E0,1.221730490E-3,-1.160643995E-2,-1.221730490E-3
2.594694831E0,1.221730490E-3,-1.038470957E-2,-1.832595794E-3
2.596677987E0,3.054326167E-3,-1.282817032E-2,-1.221730490E-3
2.598692373E0,0.000000000E0,-1.038470957E-2,-1.221730490E-3
2.600677068E0,1.832595794E-3,-1.160643995E-2,0.000000000E0
2.602690223E0,1.221730490E-3,-9.162978269E-3,-6.108652451E-4
2.604674841E0,6.108652451E-4,-1.038470957E-2,-1.221730490E-3
2.606687844E0,2.443460980E-3,-1.038470957E-2,1.221730490E-3
2.608671154E0,2.443460980E-3,-1.099557430E-2,0.000000000E0
2.610685386E0,6.108652451E-4,-1.160643995E-2,-6.108652451E-4
2.612669311E0,6.108652451E-4,-1.466076635E-2,-1.221730490E-3
2.614684390E0,1.832595794E-3,-1.160643995E-2,-1.832595794E-3
2.616667547E0,-6.108652451E-4,-1.282817032E-2,0.000000000E0
2.618681703E0,-1.221730490E-3,-1.527163107E-2,-1.832595794E-3
2.620696782E0,-1.221730490E-3,-1.404990070E-2,-6.108652451E-4
2.622679246E0,-1.221730490E-3,-1.282817032E-2,-6.108652451E-4
2.624692709E0,0.000000000E0,-1.282817032E-2,-6.108652451E-4
2.626677403E0,-1.221730490E-3,-1.099557430E-2,-1.832595794E-3
2.628692714E0,-1.832595794E-3,-9.162978269E-3,-6.108652451E-4
2.630674639E0,-6.108652451E-4,-9.773843922E-3,-1.221730490E-3
2.632689718E0,-2.443460980E-3,-9.773843922E-3,-1.832595794E-3
2.634672797E0,-1.221730490E-3,-9.162978269E-3,-1.221730490E-3
2.636687261E0,0.000000000E0,-7.941247895E-3,-6.108652451E-4
2.638670571E0,-1.832595794E-3,-6.719517522E-3,-6.108652451E-4
2.640685650E0,1.221730490E-3,-7.941247895E-3,6.108652451E-4
2.642668421E0,1.832595794E-3,-6.719517522E-3,-1.221730490E-3
2.644683808E0,0.000000000E0,-7.941247895E-3,-6.108652451E-4
2.646696810E0,-6.108652451E-4,-7.941247895E-3,-1.832595794E-3
2.648680504E0,-6.108652451E-4,-7.330383174E-3,-1.832595794E-3
2.650694661E0,1.221730490E-3,-5.497787148E-3,-2.443460980E-3
2.652678279E0,0.000000000E0,-5.497787148E-3,-2.443460980E-3
2.654692434E0,6.108652451E-4,-7.330383174E-3,-1.221730490E-3
2.656676513E0,-1.221730490E-3,-7.941247895E-3,-1.221730490E-3
2.658689746E0,1.221730490E-3,-7.941247895E-3,-3.665191587E-3
2.660673980E0,1.221730490E-3,-6.108652335E-3,-1.832595794E-3
2.662688751E0,1.832595794E-3,-7.330383174E-3,-1.221730490E-3
2.664670984E0,1.221730490E-3,-7.941247895E-3,-1.221730490E-3
2.666685447E0,2.443460980E-3,-6.108652335E-3,-1.221730490E-3
2.668668834E0,6.108652451E-4,-7.941247895E-3,0.000000000E0
2.670683298E0,3.054326167E-3,-9.773843922E-3,-2.443460980E-3
2.672697993E0,6.108652451E-4,-8.552113548E-3,-1.221730490E-3
2.674681380E0,1.221730490E-3,-9.162978269E-3,-6.108652451E-4
2.676694997E0,6.108652451E-4,-9.162978269E-3,6.108652451E-4
2.678679537E0,3.054326167E-3,-9.162978269E-3,-2.443460980E-3
2.680694078E0,2.443460980E-3,-1.038470957E-2,6.108652451E-4
2.682677081E0,0.000000000E0,-1.160643995E-2,6.108652451E-4
2.684691621E0,2.443460980E-3,-1.160643995E-2,-3.054326167E-3
2.686674931E0,3.054326167E-3,-8.552113548E-3,-1.832595794E-3
2.688688856E0,1.221730490E-3,-1.099557430E-2,-1.832595794E-3
2.690672550E0,2.443460980E-3,-9.773843922E-3,-1.221730490E-3
2.692686937E0,6.108652451E-4,-9.162978269E-3,-1.832595794E-3
2.694670940E0,1.221730490E-3,-7.330383174E-3,-2.443460980E-3
2.696684557E0,-6.108652451E-4,-6.719517522E-3,6.108652451E-4
2.698668252E0,1.832595794E-3,-5.497787148E-3,6.108652451E-4
2.700683638E0,3.054326167E-3,-3.665191587E-3,-1.221730490E-3
2.702696794E0,1.832595794E-3,-4.886921961E-3,-1.221730490E-3
2.704679950E0,6.108652451E-4,-4.276056774E-3,-6.108652451E-4
2.706695030E0,1.832595794E-3,-4.276056774E-3,0.000000000E0
2.708678340E0,1.832595794E-3,6.108652451E-4,-6.108652451E-4
2.710691573E0,2.443460980E-3,6.108652451E-4,6.108652451E-4
2.712675267E0,6.108652451E-4,-6.108652451E-4,1.221730490E-3
2.714690115E0,6.108652451E-4,6.108652451E-4,0.000000000E0
2.716673426E0,1.832595794E-3,0.000000000E0,0.000000000E0
2.718687658E0,3.054326167E-3,2.443460980E-3,6.108652451E-4
2.720672891E0,3.665191587E-3,6.108652451E-4,6.108652451E-4
2.722685124E0,1.221730490E-3,6.108652451E-4,-6.108652451E-4
2.724670049E0,-6.108652451E-4,3.665191587E-3,-1.221730490E-3
2.726683359E0,6.108652451E-4,1.221730490E-3,-2.443460980E-3
2.728697439E0,2.443460980E-3,1.832595794E-3,-2.443460980E-3
2.730681133E0,6.108652451E-4,1.832595794E-3,-1.832595794E-3
2.732695058E0,2.443460980E-3,2.443460980E-3,-1.221730490E-3
2.734679675E0,2.443460980E-3,6.108652451E-4,-1.221730490E-3
2.736693524E0,6.108652451E-4,1.832595794E-3,-3.054326167E-3
2.738676911E0,3.054326167E-3,0.000000000E0,-6.108652451E-4
2.740690990E0,2.443460980E-3,1.221730490E-3,0.000000000E0
2.742674377E0,6.108652451E-4,1.221730490E-3,-1.221730490E-3
2.744688225E0,2.443460980E-3,-6.108652451E-4,-1.221730490E-3
2.746672919E0,3.054326167E-3,6.108652451E-4,-6.108652451E-4
2.748686767E0,5.497787148E-3,-4.276056774E-3,6.108652451E-4
2.750670386E0,6.108652335E-3,-6.108652335E-3,6.108652451E-4
2.752684234E0,6.108652335E-3,-5.497787148E-3,0.000000000E0
2.754699005E0,4.886921961E-3,-3.054326167E-3,-2.443460980E-3
2.756683007E0,4.886921961E-3,-4.276056774E-3,-2.443460980E-3
2.758695702E0,5.497787148E-3,-6.108652335E-3,-3.054326167E-3
2.760680628E0,3.665191587E-3,-7.330383174E-3,-4.886921961E-3
2.762694399E0,4.276056774E-3,-6.719517522E-3,-1.832595794E-3
2.764677862E0,4.276056774E-3,-1.099557430E-2,-5.497787148E-3
2.766692864E0,2.443460980E-3,-1.282817032E-2,-3.665191587E-3
2.768675097E0,3.665191587E-3,-1.527163107E-2,-4.276056774E-3
2.770689792E0,2.443460980E-3,-1.221730467E-2,-3.054326167E-3
2.772673179E0,3.665191587E-3,-1.404990070E-2,-3.054326167E-3
2.774687720E0,6.108652451E-4,-1.466076635E-2,-3.665191587E-3
2.776671106E0,0.000000000E0,-1.099557430E-2,-3.054326167E-3
2.778685570E0,6.108652451E-4,-1.038470957E-2,-6.108652451E-4
2.780670187E0,-2.443460980E-3,-1.099557430E-2,-1.832595794E-3
2.782683112E0,6.108652451E-4,-1.099557430E-2,-1.832595794E-3
2.784696654E0,-1.221730490E-3,-1.099557430E-2,-1.221730490E-3
2.786681579E0,-1.832595794E-3,-1.099557430E-2,-1.221730490E-3
2.788695735E0,-6.108652451E-4,-9.773843922E-3,-6.108652451E-4
2.790677890E0,0.000000000E0,-1.221730467E-2,0.000000000E0
2.792693200E0,3.054326167E-3,-8.552113548E-3,1.221730490E-3
2.794677511E0,-1.221730490E-3,-9.162978269E-3,0.000000000E0
2.796690821E0,-6.108652451E-4,-8.552113548E-3,6.108652451E-4
2.798674515E0,-1.221730490E-3,-6.719517522E-3,1.221730490E-3
2.800689209E0,0.000000000E0,-6.108652335E-3,1.221730490E-3
2.802672904E0,-2.443460980E-3,-5.497787148E-3,6.108652451E-4
2.804686829E0,-6.108652451E-4,-4.886921961E-3,6.108652451E-4
2.806670832E0,-2.443460980E-3,-3.054326167E-3,-1.221730490E-3
2.808684372E0,-1.832595794E-3,-4.276056774E-3,0.000000000E0
2.810667451E0,-1.221730490E-3,-4.276056774E-3,1.832595794E-3
2.812682145E0,-6.108652451E-4,-4.276056774E-3,6.108652451E-4
2.814695455E0,6.108652451E-4,-3.665191587E-3,-1.221730490E-3
2.816679996E0,-6.108652451E-4,-5.497787148E-3,0.000000000E0
2.818693922E0,-1.221730490E-3,-3.054326167E-3,-1.832595794E-3
2.820678539E0,-1.832595794E-3,-3.665191587E-3,-1.832595794E-3
2.822692618E0,-1.221730490E-3,-1.221730490E-3,-1.221730490E-3
2.824675081E0,-6.108652451E-4,-6.108652451E-4,-1.221730490E-3
2.826690160E0,1.221730490E-3,-1.221730490E-3,-1.221730490E-3
2.828673240E0,6.108652451E-4,6.108652451E-4,-3.054326167E-3
2.830687704E0,3.054326167E-3,6.108652451E-4,-2.443460980E-3
2.832670783E0,3.054326167E-3,6.108652451E-4,-6.108652451E-4
2.834685554E0,6.108652451E-4,3.054326167E-3,-2.443460980E-3
2.836668710E0,3.054326167E-3,1.832595794E-3,-2.443460980E-3
2.838682251E0,3.665191587E-3,6.108652451E-4,0.000000000E0
2.840697869E0,2.443460980E-3,3.665191587E-3,-6.108652451E-4
2.842680409E0,4.886921961E-3,1.221730490E-3,1.832595794E-3
2.844695488E0,3.665191587E-3,3.054326167E-3,-1.221730490E-3
2.846678259E0,4.276056774E-3,1.832595794E-3,6.108652451E-4
2.848692723E0,3.054326167E-3,1.832595794E-3,0.000000000E0
2.850676034E0,4.276056774E-3,1.221730490E-3,-6.108652451E-4
2.852690805E0,4.276056774E-3,1.832595794E-3,6.108652451E-4
2.854674191E0,3.054326167E-3,1.832595794E-3,0.000000000E0
2.856689040E0,3.665191587E-3,1.221730490E-3,-1.832595794E-3
2.858671503E0,3.665191587E-3,2.443460980E-3,-6.108652451E-4
2.860687120E0,6.108652451E-4,3.054326167E-3,6.108652451E-4
2.862670585E0,1.221730490E-3,1.221730490E-3,-1.221730490E-3
2.864683125E0,1.221730490E-3,0.000000000E0,0.000000000E0
2.866698589E0,-1.221730490E-3,0.000000000E0,6.108652451E-4
2.868682822E0,-2.443460980E-3,0.000000000E0,6.108652451E-4
2.870695516E0,6.108652451E-4,1.221730490E-3,-6.108652451E-4
2.872680058E0,-3.054326167E-3,0.000000000E0,0.000000000E0
2.874694213E0,-1.832595794E-3,0.000000000E0,-6.108652451E-4
2.876677292E0,-6.108652451E-4,1.221730490E-3,0.000000000E0
2.878691833E0,-3.054326167E-3,-2.443460980E-3,1.221730490E-3
2.880675835E0,-4.276056774E-3,0.000000000E0,0.000000000E0
2.882689914E0,-3.665191587E-3,3.054326167E-3,1.832595794E-3
2.884673378E0,-3.054326167E-3,0.000000000E0,2.443460980E-3
2.886687765E0,-4.886921961E-3,3.665191587E-3,6.108652451E-4
2.888670305E0,-1.832595794E-3,0.000000000E0,6.108652451E-4
2.890685077E0,-3.054326167E-3,2.443460980E-3,1.832595794E-3
2.892668079E0,-2.443460980E-3,1.832595794E-3,1.832595794E-3
2.894682851E0,-3.665191587E-3,3.054326167E-3,-1.221730490E-3
2.896696776E0,-2.443460980E-3,3.665191587E-3,-1.221730490E-3
2.898680393E0,-2.443460980E-3,4.276056774E-3,0.000000000E0
2.900695549E0,-1.832595794E-3,3.054326167E-3,1.832595794E-3
2.902678244E0,-1.832595794E-3,1.832595794E-3,2.443460980E-3
2.904691861E0,0.000000000E0,1.221730490E-3,0.000000000E0
2.906676710E0,-2.443460980E-3,2.443460980E-3,6.108652451E-4
2.908690327E0,-1.832595794E-3,6.108652451E-4,-1.221730490E-3
2.910673945E0,-6.108652451E-4,1.832595794E-3,-1.221730490E-3
2.912688101E0,-1.221730490E-3,3.665191587E-3,-1.221730490E-3
2.914672487E0,-1.221730490E-3,3.054326167E-3,-1.832595794E-3
2.916686875E0,-1.221730490E-3,3.665191587E-3,-2.443460980E-3
2.918669723E0,0.000000000E0,3.054326167E-3,-3.054326167E-3
2.920683802E0,-1.221730490E-3,2.443460980E-3,-4.886921961E-3
2.922698573E0,1.832595794E-3,-6.108652451E-4,-4.276056774E-3
2.924682037E0,1.832595794E-3,-1.221730490E-3,-3.054326167E-3
2.926696731E0,1.832595794E-3,-1.832595794E-3,-3.054326167E-3
2.928680119E0,2.443460980E-3,-3.665191587E-3,-3.054326167E-3
2.930693044E0,1.221730490E-3,-3.054326167E-3,-4.276056774E-3
2.932676815E0,1.832595794E-3,-1.221730490E-3,-3.054326167E-3
2.934691279E0,4.276056774E-3,-2.443460980E-3,-3.665191587E-3
2.936675511E0,2.443460980E-3,-4.886921961E-3,-4.276056774E-3
2.938689360E0,3.054326167E-3,-5.497787148E-3,-2.443460980E-3
2.940673363E0,3.665191587E-3,-3.054326167E-3,-5.497787148E-3
2.942687211E0,4.276056774E-3,-5.497787148E-3,-3.054326167E-3
2.944670597E0,3.665191587E-3,-5.497787148E-3,-2.443460980E-3
2.946685061E0,3.054326167E-3,-6.719517522E-3,-2.443460980E-3
2.948668755E0,1.832595794E-3,-6.719517522E-3,0.000000000E0
2.950682066E0,3.054326167E-3,-5.497787148E-3,-2.443460980E-3
2.952696529E0,2.443460980E-3,-3.054326167E-3,-3.665191587E-3
2.954680531E0,3.054326167E-3,-5.497787148E-3,-2.443460980E-3
2.956694072E0,1.832595794E-3,-7.330383174E-3,-2.443460980E-3
2.958678689E0,1.221730490E-3,-6.719517522E-3,-1.832595794E-3
2.960693076E0,6.108652451E-4,-7.941247895E-3,-3.054326167E-3
2.962676233E0,1.221730490E-3,-8.552113548E-3,-2.443460980E-3
2.964691235E0,1.221730490E-3,-7.330383174E-3,-1.221730490E-3
2.966674083E0,1.221730490E-3,-8.552113548E-3,6.108652451E-4
2.968687931E0,1.221730490E-3,-1.099557430E-2,-1.221730490E-3
2.970672472E0,-6.108652451E-4,-9.162978269E-3,-1.832595794E-3
2.972685167E0,0.000000000E0,-1.038470957E-2,-3.054326167E-3
2.974670092E0,-6.108652451E-4,-1.221730467E-2,-1.221730490E-3
2.976683555E0,-1.832595794E-3,-1.038470957E-2,-2.443460980E-3
2.978697173E0,-3.054326167E-3,-1.282817032E-2,-3.054326167E-3
2.980682713E0,-1.832595794E-3,-1.160643995E-2,-1.832595794E-3
2.982696254E0,-1.221730490E-3,-9.773843922E-3,-1.832595794E-3
2.984678411E0,-1.221730490E-3,-1.038470957E-2,-2.443460980E-3
2.986693413E0,-1.832595794E-3,-1.038470957E-2,-3.665191587E-3
2.988676568E0,1.221730490E-3,-1.221730467E-2,-2.443460980E-3
2.990691570E0,-1.832595794E-3,-9.773843922E-3,-1.832595794E-3
2.992674649E0,-6.108652451E-4,-1.038470957E-2,-1.832595794E-3
2.994688883E0,-6.108652451E-4,-1.038470957E-2,-1.221730490E-3
2.996672578E0,0.000000000E0,-1.282817032E-2,-6.108652451E-4
2.998686426E0,0.000000000E0,-1.099557430E-2,-1.832595794E-3
3.000671351E0,0.000000000E0,-1.099557430E-2,0.000000000E0
3.002684507E0,-1.832595794E-3,-1.038470957E-2,-1.832595794E-3
3.004668509E0,0.000000000E0,-9.162978269E-3,-1.832595794E-3
3.006682435E0,0.000000000E0,-1.099557430E-2,6.108652451E-4
3.008696591E0,-6.108652451E-4,-9.162978269E-3,-3.665191587E-3
3.010680285E0,0.000000000E0,-7.941247895E-3,-1.221730490E-3
3.012693748E0,0.000000000E0,-7.330383174E-3,-1.832595794E-3
3.014678366E0,-2.443460980E-3,-4.886921961E-3,-3.054326167E-3
3.016692523E0,-1.221730490E-3,-6.719517522E-3,-3.054326167E-3
3.018675602E0,-1.221730490E-3,-7.330383174E-3,-2.443460980E-3
3.020692296E0,-1.221730490E-3,-4.886921961E-3,-1.832595794E-3
3.022673759E0,-1.832595794E-3,-5.497787148E-3,-1.832595794E-3
3.024687069E0,6.108652451E-4,-7.330383174E-3,-2.443460980E-3
3.026672840E0,-1.832595794E-3,-6.108652335E-3,-1.221730490E-3
3.028686997E0,0.000000000E0,-6.108652335E-3,-1.221730490E-3
3.030668538E0,-1.832595794E-3,-3.665191587E-3,-3.665191587E-3
3.032683924E0,-6.108652451E-4,-6.108652335E-3,-3.054326167E-3
3.034697849E0,-3.054326167E-3,-2.443460980E-3,-2.443460980E-3
3.036680928E0,-1.221730490E-3,-4.886921961E-3,-2.443460980E-3
3.038696007E0,-1.221730490E-3,-4.276056774E-3,-3.054326167E-3
3.040679703E0,-1.832595794E-3,-3.054326167E-3,-3.665191587E-3
3.042693166E0,-6.108652451E-4,-3.054326167E-3,-2.443460980E-3
3.044677168E0,0.000000000E0,-3.665191587E-3,-3.054326167E-3
3.046691093E0,-1.221730490E-3,-5.497787148E-3,-1.221730490E-3
3.048675095E0,2.443460980E-3,-1.832595794E-3,0.000000000E0
3.050688944E0,0.000000000E0,-3.054326167E-3,6.108652451E-4
3.052672562E0,6.108652451E-4,-3.054326167E-3,-3.054326167E-3
3.054686179E0,0.000000000E0,-1.832595794E-3,-1.832595794E-3
3.056670181E0,1.221730490E-3,-2.443460980E-3,-3.054326167E-3
3.058684568E0,2.443460980E-3,-1.221730490E-3,-1.221730490E-3
3.060699724E0,1.832595794E-3,-6.108652451E-4,-6.108652451E-4
3.062682188E0,6.108652451E-4,-1.832595794E-3,1.221730490E-3
3.064696036E0,1.832595794E-3,-1.832595794E-3,-1.221730490E-3
3.066680269E0,1.832595794E-3,-4.276056774E-3,-3.054326167E-3
3.068694117E0,3.054326167E-3,-4.276056774E-3,-6.108652451E-4
3.070677812E0,3.665191587E-3,-3.665191587E-3,-1.832595794E-3
3.072692353E0,3.665191587E-3,-4.276056774E-3,-1.832595794E-3
3.074675970E0,6.108652451E-4,-4.276056774E-3,-1.221730490E-3
3.076689895E0,3.665191587E-3,-3.665191587E-3,-2.443460980E-3
3.078673590E0,6.108652451E-4,-3.665191587E-3,-1.832595794E-3
3.080688361E0,6.108652451E-4,-3.665191587E-3,6.108652451E-4
3.082671363E0,2.443460980E-3,-1.832595794E-3,-1.832595794E-3
3.084685212E0,3.054326167E-3,-3.665191587E-3,-1.221730490E-3
3.086669522E0,1.832595794E-3,-4.886921961E-3,-1.221730490E-3
3.088683985E0,2.443460980E-3,-1.221730490E-3,-1.832595794E-3
3.090697526E0,6.108652451E-4,-2.443460980E-3,-1.221730490E-3
3.092680913E0,1.221730490E-3,6.108652451E-4,6.108652451E-4
3.094695762E0,2.443460980E-3,1.221730490E-3,1.221730490E-3
3.096678841E0,1.221730490E-3,-1.832595794E-3,-1.221730490E-3
3.098692689E0,1.832595794E-3,1.832595794E-3,-1.221730490E-3
3.100677537E0,2.443460980E-3,6.108652451E-4,0.000000000E0
3.102691077E0,1.832595794E-3,2.443460980E-3,1.832595794E-3
3.104673849E0,1.221730490E-3,1.832595794E-3,-1.832595794E-3
3.106689005E0,2.443460980E-3,1.832595794E-3,0.000000000E0
3.108673007E0,0.000000000E0,5.497787148E-3,-6.108652451E-4
3.110685548E0,-6.108652451E-4,4.276056774E-3,1.221730490E-3
3.112670473E0,0.000000000E0,3.054326167E-3,-6.108652451E-4
3.114684398E0,1.832595794E-3,2.443460980E-3,-1.221730490E-3
3.116698246E0,0.000000000E0,2.443460980E-3,-1.221730490E-3
3.118681942E0,6.108652451E-4,4.276056774E-3,-1.832595794E-3
3.120696097E0,-1.221730490E-3,3.665191587E-3,6.108652451E-4
3.122680022E0,-1.221730490E-3,1.832595794E-3,-1.832595794E-3
3.124694255E0,-6.108652451E-4,3.054326167E-3,-3.054326167E-3
3.126677873E0,-6.108652451E-4,1.832595794E-3,-3.054326167E-3
3.128692030E0,-2.443460980E-3,1.832595794E-3,0.000000000E0
3.130674570E0,-1.832595794E-3,6.108652451E-4,-6.108652451E-4
3.132689649E0,-1.221730490E-3,1.221730490E-3,-2.443460980E-3
3.134673882E0,-1.221730490E-3,-1.221730490E-3,-2.443460980E-3
3.136687191E0,-1.221730490E-3,0.000000000E0,0.000000000E0
3.138671116E0,0.000000000E0,-1.221730490E-3,-2.443460980E-3
3.140686889E0,-1.832595794E-3,-1.832595794E-3,-1.221730490E-3
3.142669352E0,-1.221730490E-3,-3.054326167E-3,-1.221730490E-3
3.144682585E0,-1.221730490E-3,-3.665191587E-3,-6.108652451E-4
3.146697895E0,-3.054326167E-3,-2.443460980E-3,-1.221730490E-3
3.148681051E0,-3.665191587E-3,-3.665191587E-3,-1.221730490E-3
3.150695515E0,-3.054326167E-3,-3.665191587E-3,-6.108652451E-4
3.152678594E0,0.000000000E0,-6.719517522E-3,-1.832595794E-3
3.154693365E0,-3.054326167E-3,-7.330383174E-3,-1.221730490E-3
3.156676983E0,-1.832595794E-3,-7.330383174E-3,-1.221730490E-3
3.158689985E0,6.108652451E-4,-6.719517522E-3,-1.832595794E-3
3.160675141E0,-1.221730490E-3,-6.108652335E-3,-2.443460980E-3
3.162688759E0,0.000000000E0,-4.276056774E-3,-2.443460980E-3
3.164672684E0,-2.443460980E-3,-6.719517522E-3,-1.221730490E-3
3.166686532E0,-2.443460980E-3,-5.497787148E-3,0.000000000E0
3.168669919E0,1.832595794E-3,-6.719517522E-3,-1.221730490E-3
3.170684152E0,2.443460980E-3,-4.886921961E-3,-2.443460980E-3
3.172698001E0,0.000000000E0,-4.886921961E-3,-6.108652451E-4
3.174682233E0,6.108652451E-4,-4.886921961E-3,0.000000000E0
3.176695774E0,6.108652451E-4,-6.108652335E-3,-1.221730490E-3
3.178679545E0,3.054326167E-3,-3.665191587E-3,-1.221730490E-3
3.180694239E0,1.221730490E-3,-4.276056774E-3,-2.443460980E-3
3.182678011E0,1.221730490E-3,-2.443460980E-3,-3.054326167E-3
3.184692091E0,1.832595794E-3,-6.719517522E-3,0.000000000E0
3.186676093E0,0.000000000E0,-3.665191587E-3,-1.221730490E-3
3.188690018E0,1.221730490E-3,-3.665191587E-3,-6.108652451E-4
3.190673327E0,3.665191587E-3,-4.886921961E-3,0.000000000E0
3.192687483E0,6.108652451E-4,-3.665191587E-3,0.000000000E0
3.194671562E0,0.000000000E0,-4.276056774E-3,-6.108652451E-4
3.196685411E0,-1.832595794E-3,-4.276056774E-3,0.000000000E0
3.198669106E0,6.108652451E-4,-4.886921961E-3,0.000000000E0
3.200683877E0,6.108652451E-4,-4.276056774E-3,-6.108652451E-4
3.202697033E0,0.000000000E0,-5.497787148E-3,-3.054326167E-3
3.204680727E0,-6.108652451E-4,-3.054326167E-3,-3.054326167E-3
3.206695269E0,6.108652451E-4,-3.665191587E-3,-3.054326167E-3
3.208679271E0,0.000000000E0,-3.054326167E-3,-3.054326167E-3
3.210693119E0,1.832595794E-3,-4.886921961E-3,-1.221730490E-3
3.212675890E0,-6.108652451E-4,-3.054326167E-3,-6.108652451E-4
3.214690969E0,1.221730490E-3,-3.054326167E-3,-1.832595794E-3
3.216673971E0,-1.832595794E-3,-1.221730490E-3,-1.221730490E-3
3.218688205E0,1.832595794E-3,-5.497787148E-3,0.000000000E0
3.220672130E0,0.000000000E0,-3.054326167E-3,-2.443460980E-3
3.222686670E0,6.108652451E-4,-2.443460980E-3,-3.665191587E-3
3.224669057E0,-1.832595794E-3,-3.054326167E-3,-1.221730490E-3
3.226684443E0,-1.832595794E-3,-2.443460980E-3,-3.054326167E-3
3.228698677E0,6.108652451E-4,-3.054326167E-3,-1.832595794E-3
3.230681987E0,-1.832595794E-3,-1.221730490E-3,0.000000000E0
3.232695835E0,-1.832595794E-3,-6.108652451E-4,-3.054326167E-3
3.234680222E0,0.000000000E0,-1.832595794E-3,-1.832595794E-3
3.236693070E0,0.000000000E0,-2.443460980E-3,-6.108652451E-4
3.238676764E0,-6.108652451E-4,-2.443460980E-3,-4.276056774E-3
3.240691921E0,-2.443460980E-3,-3.054326167E-3,-3.054326167E-3
3.242674615E0,-6.108652451E-4,-4.886921961E-3,-3.665191587E-3
3.244689771E0,-1.221730490E-3,-4.886921961E-3,-2.443460980E-3
3.246672542E0,-1.832595794E-3,-5.497787148E-3,-2.443460980E-3
3.248687237E0,-3.054326167E-3,-6.719517522E-3,-2.443460980E-3
3.250671008E0,-3.665191587E-3,-7.330383174E-3,-3.054326167E-3
3.252684242E0,-2.443460980E-3,-9.162978269E-3,-3.665191587E-3
3.254698628E0,-1.832595794E-3,-7.941247895E-3,-3.665191587E-3
3.256682630E0,-1.832595794E-3,-8.552113548E-3,-1.832595794E-3
3.258696248E0,-2.443460980E-3,-9.773843922E-3,-1.832595794E-3
3.260681481E0,-2.443460980E-3,-9.162978269E-3,-4.886921961E-3
3.262695560E0,-6.108652451E-4,-1.221730467E-2,-3.665191587E-3
3.264677409E0,0.000000000E0,-1.038470957E-2,-3.054326167E-3
3.266693103E0,-2.443460980E-3,-8.552113548E-3,-1.832595794E-3
3.268676490E0,0.000000000E0,-9.773843922E-3,-1.221730490E-3
3.270689722E0,-1.832595794E-3,-9.162978269E-3,-1.832595794E-3
3.272673494E0,0.000000000E0,-9.773843922E-3,-3.665191587E-3
3.274687881E0,6.108652451E-4,-7.330383174E-3,-1.832595794E-3
3.276671652E0,1.832595794E-3,-7.941247895E-3,-1.221730490E-3
3.278686116E0,6.108652451E-4,-5.497787148E-3,-6.108652451E-4
3.280670041E0,1.221730490E-3,-3.665191587E-3,-1.221730490E-3
3.282684581E0,1.832595794E-3,-3.054326167E-3,-1.832595794E-3
3.284698661E0,1.221730490E-3,-1.832595794E-3,-1.221730490E-3
3.286682125E0,6.108652451E-4,-3.665191587E-3,-2.443460980E-3
3.288695665E0,4.276056774E-3,-1.221730490E-3,-3.054326167E-3
3.290679360E0,2.443460980E-3,0.000000000E0,-1.832595794E-3
3.292693516E0,1.832595794E-3,6.108652451E-4,-2.443460980E-3
3.294676902E0,2.443460980E-3,-1.221730490E-3,-3.665191587E-3
3.296691059E0,3.665191587E-3,3.665191587E-3,6.108652451E-4
3.298674676E0,6.108652451E-4,6.108652451E-4,6.108652451E-4
3.300689832E0,-6.108652451E-4,2.443460980E-3,-1.832595794E-3
3.302673219E0,1.832595794E-3,1.832595794E-3,-2.443460980E-3
3.304686067E0,6.108652451E-4,2.443460980E-3,1.221730490E-3
3.306670378E0,0.000000000E0,2.443460980E-3,-6.108652451E-4
3.308684534E0,6.108652451E-4,3.054326167E-3,-1.221730490E-3
3.310698459E0,0.000000000E0,4.886921961E-3,-1.221730490E-3
3.312682461E0,6.108652451E-4,4.276056774E-3,-1.832595794E-3
3.314696232E0,2.443460980E-3,1.221730490E-3,6.108652451E-4
3.316680542E0,-6.108652451E-4,4.276056774E-3,-6.108652451E-4
3.318694391E0,0.000000000E0,1.832595794E-3,1.832595794E-3
3.320679008E0,-6.108652451E-4,1.832595794E-3,1.832595794E-3
3.322692549E0,1.832595794E-3,3.054326167E-3,6.108652451E-4
3.324675705E0,-1.221730490E-3,3.054326167E-3,6.108652451E-4
3.326690399E0,-1.221730490E-3,1.221730490E-3,1.832595794E-3
3.328673478E0,-6.108652451E-4,2.443460980E-3,-6.108652451E-4
3.330688558E0,-1.221730490E-3,3.054326167E-3,2.443460980E-3
3.332671329E0,-1.221730490E-3,2.443460980E-3,6.108652451E-4
3.334686485E0,6.108652451E-4,0.000000000E0,6.108652451E-4
3.336670102E0,-2.443460980E-3,3.665191587E-3,-6.108652451E-4
3.338683412E0,-1.832595794E-3,3.054326167E-3,6.108652451E-4
3.340698799E0,-2.443460980E-3,3.665191587E-3,-1.832595794E-3
3.342682109E0,-1.832595794E-3,4.276056774E-3,-1.832595794E-3
3.344695034E0,-3.054326167E-3,2.443460980E-3,0.000000000E0
3.346679652E0,-6.108652451E-4,2.443460980E-3,-1.221730490E-3
3.348693500E0,-1.832595794E-3,3.054326167E-3,-2.443460980E-3
3.350676348E0,-2.443460980E-3,2.443460980E-3,-1.832595794E-3
3.352691736E0,-6.108652451E-4,0.000000000E0,0.000000000E0
3.354675122E0,-3.054326167E-3,3.054326167E-3,-1.832595794E-3
3.356689586E0,-6.108652451E-4,6.108652451E-4,-2.443460980E-3
3.358672049E0,1.832595794E-3,-1.221730490E-3,-2.443460980E-3
3.360687359E0,0.000000000E0,-1.221730490E-3,6.108652451E-4
3.362671054E0,2.443460980E-3,6.108652451E-4,0.000000000E0
3.364685518E0,1.221730490E-3,1.832595794E-3,1.221730490E-3
3.366668597E0,2.443460980E-3,1.832595794E-3,0.000000000E0
3.368681906E0,3.054326167E-3,6.108652451E-4,-1.221730490E-3
3.370696293E0,3.054326167E-3,6.108652451E-4,0.000000000E0
3.372679757E0,3.054326167E-3,-6.108652451E-4,1.221730490E-3
3.374694760E0,2.443460980E-3,0.000000000E0,-3.054326167E-3
3.376677915E0,3.665191587E-3,6.108652451E-4,0.000000000E0
3.378692917E0,2.443460980E-3,-1.832595794E-3,1.221730490E-3
3.380676304E0,3.665191587E-3,-1.221730490E-3,1.221730490E-3
3.382690152E0,3.665191587E-3,-6.108652451E-4,6.108652451E-4
3.384672694E0,3.665191587E-3,-2.443460980E-3,1.221730490E-3
3.386688311E0,4.276056774E-3,-5.497787148E-3,-1.221730490E-3
3.388671775E0,3.665191587E-3,-4.276056774E-3,-3.665191587E-3
3.390685623E0,1.221730490E-3,-4.276056774E-3,-2.443460980E-3
3.392669317E0,-1.832595794E-3,-5.497787148E-3,-3.665191587E-3
3.394683473E0,6.108652451E-4,-7.330383174E-3,-3.054326167E-3
3.396697014E0,1.221730490E-3,-7.330383174E-3,-1.832595794E-3
3.398681016E0,-1.221730490E-3,-6.108652335E-3,-5.497787148E-3
3.400695711E0,0.000000000E0,-4.276056774E-3,-6.108652451E-4
3.402679174E0,6.108652451E-4,-4.886921961E-3,-6.108652451E-4
3.404694176E0,-1.832595794E-3,-7.941247895E-3,-3.054326167E-3
3.406677024E0,0.000000000E0,-6.108652335E-3,-3.665191587E-3
3.408690489E0,-1.221730490E-3,-4.276056774E-3,-4.886921961E-3
3.410674260E0,-3.054326167E-3,-2.443460980E-3,-2.443460980E-3
3.412688339E0,-6.108652451E-4,-4.886921961E-3,0.000000000E0
3.414672418E0,-2.443460980E-3,-4.276056774E-3,-3.665191587E-3
3.416687112E0,-1.832595794E-3,-4.886921961E-3,-3.665191587E-3
3.418670192E0,-3.054326167E-3,-6.108652335E-3,-3.054326167E-3
3.420685656E0,-2.443460980E-3,-4.886921961E-3,-3.054326167E-3
3.422668658E0,-3.054326167E-3,-3.054326167E-3,-1.221730490E-3
3.424681968E0,-2.443460980E-3,-3.665191587E-3,-1.832595794E-3
3.426696431E0,-3.054326167E-3,-3.054326167E-3,-3.054326167E-3
3.428680741E0,-3.054326167E-3,-4.886921961E-3,-1.221730490E-3
3.430693282E0,-1.832595794E-3,-3.054326167E-3,-1.832595794E-3
3.432677900E0,-3.665191587E-3,-3.665191587E-3,-5.497787148E-3
3.434692748E0,0.000000000E0,-3.054326167E-3,-4.886921961E-3
3.436675442E0,-3.665191587E-3,-5.497787148E-3,-3.054326167E-3
3.438689290E0,-1.832595794E-3,-5.497787148E-3,-4.886921961E-3
3.440673986E0,-1.832595794E-3,-4.886921961E-3,-3.665191587E-3
3.442688141E0,0.000000000E0,-5.497787148E-3,-2.443460980E-3
3.444672143E0,0.000000000E0,-9.162978269E-3,-3.054326167E-3
3.446685376E0,6.108652451E-4,-8.552113548E-3,-1.221730490E-3
3.448668686E0,0.000000000E0,-7.941247895E-3,-4.276056774E-3
3.450683534E0,-6.108652451E-4,-8.552113548E-3,-1.832595794E-3
3.452696999E0,-6.108652451E-4,-9.773843922E-3,-2.443460980E-3
3.454681078E0,-6.108652451E-4,-8.552113548E-3,-3.665191587E-3
3.456695464E0,0.000000000E0,-7.941247895E-3,-3.054326167E-3
3.458678005E0,6.108652451E-4,-9.773843922E-3,-3.054326167E-3
3.460694314E0,-6.108652451E-4,-8.552113548E-3,-2.443460980E-3
3.462676779E0,-6.108652451E-4,-9.162978269E-3,-2.443460980E-3
3.464690627E0,6.108652451E-4,-1.160643995E-2,-4.886921961E-3
3.466674552E0,-1.221730490E-3,-8.552113548E-3,-3.054326167E-3
3.468688477E0,6.108652451E-4,-7.941247895E-3,-1.832595794E-3
3.470672095E0,-1.221730490E-3,-9.162978269E-3,0.000000000E0
3.472686327E0,2.443460980E-3,-9.162978269E-3,-2.443460980E-3
3.474670253E0,1.832595794E-3,-8.552113548E-3,-4.886921961E-3
3.476684717E0,1.832595794E-3,-7.941247895E-3,-3.054326167E-3
3.478697950E0,1.221730490E-3,-6.719517522E-3,-3.665191587E-3
3.480682875E0,1.221730490E-3,-7.330383174E-3,-6.108652451E-4
3.482695877E0,6.108652451E-4,-5.497787148E-3,-4.276056774E-3
3.484679803E0,-1.221730490E-3,-6.108652335E-3,-2.443460980E-3
3.486693959E0,0.000000000E0,-7.941247895E-3,-6.108652451E-4
3.488677345E0,0.000000000E0,-6.719517522E-3,-1.832595794E-3
3.490691194E0,-1.832595794E-3,-8.552113548E-3,-2.443460980E-3
3.492675503E0,-2.443460980E-3,-6.719517522E-3,0.000000000E0
3.494689736E0,0.000000000E0,-6.719517522E-3,1.221730490E-3
3.496672739E0,6.108652451E-4,-5.497787148E-3,0.000000000E0
3.498686972E0,-6.108652451E-4,-6.108652335E-3,1.221730490E-3
3.500672512E0,-2.443460980E-3,-4.886921961E-3,-6.108652451E-4
3.502685053E0,-1.832595794E-3,-4.886921961E-3,0.000000000E0
3.504698901E0,-1.832595794E-3,-4.276056774E-3,2.443460980E-3
3.506682903E0,-3.054326167E-3,-6.719517522E-3,1.221730490E-3
3.508697137E0,-1.832595794E-3,-4.886921961E-3,1.832595794E-3
3.510680831E0,-1.832595794E-3,-5.497787148E-3,0.000000000E0
3.512694679E0,-1.832595794E-3,-6.108652335E-3,1.832595794E-3
3.514678912E0,-4.276056774E-3,-2.443460980E-3,1.221730490E-3
3.516692222E0,-3.665191587E-3,-1.832595794E-3,1.221730490E-3
3.518676148E0,-1.221730490E-3,-2.443460980E-3,1.221730490E-3
3.520690996E0,-3.665191587E-3,-2.443460980E-3,1.832595794E-3
3.522674075E0,-6.108652335E-3,0.000000000E0,1.221730490E-3
3.524689461E0,-4.276056774E-3,1.832595794E-3,6.108652451E-4
3.526671848E0,-3.665191587E-3,-6.108652451E-4,1.221730490E-3
3.528686081E0,-3.054326167E-3,1.221730490E-3,6.108652451E-4
3.530670007E0,-3.054326167E-3,1.832595794E-3,2.443460980E-3
3.532683932E0,-2.443460980E-3,6.108652451E-4,6.108652451E-4
3.534698626E0,-5.497787148E-3,3.054326167E-3,0.000000000E0
3.536681782E0,-2.443460980E-3,3.665191587E-3,6.108652451E-4
3.538695553E0,-3.665191587E-3,4.276056774E-3,-6.108652451E-4
3.540680249E0,-4.276056774E-3,7.330383174E-3,-1.832595794E-3
3.542693481E0,-2.443460980E-3,5.497787148E-3,-6.108652451E-4
3.544676791E0,-2.443460980E-3,5.497787148E-3,-6.108652451E-4
3.546691947E0,-1.221730490E-3,7.330383174E-3,-6.108652451E-4
3.548675872E0,-1.221730490E-3,7.941247895E-3,0.000000000E0
3.550689490E0,-1.221730490E-3,6.108652335E-3,-6.108652451E-4
3.552672800E0,1.221730490E-3,9.773843922E-3,-2.443460980E-3
3.554686956E0,0.000000000E0,9.162978269E-3,-1.221730490E-3
3.556670650E0,-6.108652451E-4,8.552113548E-3,-2.443460980E-3
3.558685422E0,-1.221730490E-3,5.497787148E-3,-1.221730490E-3
3.560669424E0,0.000000000E0,5.497787148E-3,-1.221730490E-3
3.562682427E0,6.108652451E-4,5.497787148E-3,-6.108652451E-4
3.564697736E0,-1.221730490E-3,4.276056774E-3,-3.054326167E-3
3.566680815E0,1.221730490E-3,3.665191587E-3,-3.054326167E-3
3.568694125E0,3.054326167E-3,1.221730490E-3,-3.665191587E-3
3.570677819E0,4.276056774E-3,1.221730490E-3,-3.054326167E-3
3.572692283E0,2.443460980E-3,2.443460980E-3,-1.832595794E-3
3.574675978E0,3.054326167E-3,6.108652451E-4,-2.443460980E-3
3.576690749E0,2.443460980E-3,0.000000000E0,-1.221730490E-3
3.578673751E0,3.054326167E-3,-6.108652451E-4,-1.832595794E-3
3.580688907E0,2.443460980E-3,-4.886921961E-3,-1.832595794E-3
3.582672217E0,3.665191587E-3,-3.665191587E-3,-2.443460980E-3
3.584685757E0,3.665191587E-3,-4.276056774E-3,0.000000000E0
3.586669760E0,3.665191587E-3,-6.719517522E-3,-1.221730490E-3
3.588684532E0,1.221730490E-3,-6.108652335E-3,-1.221730490E-3
3.590697226E0,2.443460980E-3,-6.719517522E-3,-6.108652451E-4
3.592682151E0,2.443460980E-3,-7.941247895E-3,-1.832595794E-3
3.594695691E0,1.832595794E-3,-1.038470957E-2,-1.832595794E-3
3.596680002E0,1.832595794E-3,-8.552113548E-3,-1.221730490E-3
3.598693773E0,1.221730490E-3,-1.160643995E-2,-1.221730490E-3
3.600678160E0,3.054326167E-3,-1.099557430E-2,-1.221730490E-3
3.602691316E0,6.108652451E-4,-1.160643995E-2,-2.443460980E-3
3.604675702E0,0.000000000E0,-1.160643995E-2,6.108652451E-4
3.606689781E0,-1.221730490E-3,-1.221730467E-2,-1.221730490E-3
3.608673246E0,1.832595794E-3,-1.282817032E-2,-6.108652451E-4
3.610687017E0,0.000000000E0,-1.221730467E-2,1.221730490E-3
3.612670481E0,-2.443460980E-3,-1.221730467E-2,1.221730490E-3
3.614684560E0,-1.832595794E-3,-1.221730467E-2,-2.443460980E-3
3.616699100E0,-2.443460980E-3,-1.221730467E-2,-1.832595794E-3
3.618683026E0,-3.054326167E-3,-9.162978269E-3,0.000000000E0
3.620698413E0,-4.886921961E-3,-9.162978269E-3,-1.832595794E-3
3.622679953E0,-3.054326167E-3,-1.099557430E-2,1.221730490E-3
3.624693878E0,-4.886921961E-3,-1.160643995E-2,-6.108652451E-4
3.626677880E0,-2.443460980E-3,-7.941247895E-3,-1.221730490E-3
3.628692344E0,-5.497787148E-3,-8.552113548E-3,-2.443460980E-3
3.630675424E0,-4.886921961E-3,-7.330383174E-3,-2.443460980E-3
3.632689810E0,-5.497787148E-3,-4.886921961E-3,-1.832595794E-3
3.634673812E0,-3.054326167E-3,-4.886921961E-3,-6.108652451E-4
3.636687968E0,-3.054326167E-3,-4.886921961E-3,-1.832595794E-3
3.638670816E0,-4.886921961E-3,-4.276056774E-3,-1.832595794E-3
3.640686743E0,-3.665191587E-3,-4.276056774E-3,-1.832595794E-3
3.642669283E0,-3.665191587E-3,-2.443460980E-3,-1.221730490E-3
3.644684977E0,-3.665191587E-3,0.000000000E0,-1.832595794E-3
3.646697826E0,-3.054326167E-3,0.000000000E0,-1.221730490E-3
3.648681828E0,-3.054326167E-3,1.832595794E-3,-1.832595794E-3
3.650695753E0,-1.221730490E-3,1.221730490E-3,-2.443460980E-3
3.652679140E0,-3.665191587E-3,6.108652451E-4,-3.665191587E-3
3.654694219E0,-2.443460980E-3,1.832595794E-3,-1.221730490E-3
3.656677221E0,-1.832595794E-3,1.832595794E-3,-1.221730490E-3
3.658691454E0,-2.443460980E-3,4.276056774E-3,-3.054326167E-3
3.660675379E0,0.000000000E0,2.443460980E-3,-1.832595794E-3
3.662688996E0,6.108652451E-4,3.054326167E-3,-1.221730490E-3
3.664672384E0,-2.443460980E-3,3.054326167E-3,6.108652451E-4
3.666687463E0,-1.832595794E-3,4.276056774E-3,-1.221730490E-3
3.668670773E0,-1.221730490E-3,4.886921961E-3,-6.108652451E-4
3.670684005E0,-1.221730490E-3,6.108652335E-3,-2.443460980E-3
3.672698469E0,-6.108652451E-4,6.108652335E-3,-4.276056774E-3
3.674682549E0,-1.832595794E-3,6.719517522E-3,-1.221730490E-3
3.676696705E0,-6.108652451E-4,5.497787148E-3,-2.443460980E-3
3.678680707E0,-6.108652451E-4,4.886921961E-3,-1.221730490E-3
3.680695170E0,-6.108652451E-4,6.719517522E-3,6.108652451E-4
3.682677634E0,-1.832595794E-3,7.941247895E-3,-1.221730490E-3
3.684692636E0,-6.108652451E-4,6.719517522E-3,-6.108652451E-4
3.686675177E0,6.108652451E-4,9.162978269E-3,1.221730490E-3
3.688689949E0,-1.832595794E-3,9.162978269E-3,1.221730490E-3
3.690673874E0,-1.221730490E-3,9.162978269E-3,6.108652451E-4
3.692688337E0,-2.443460980E-3,9.773843922E-3,0.000000000E0
3.694672108E0,-1.832595794E-3,8.552113548E-3,3.054326167E-3
3.696685342E0,0.000000000E0,1.038470957E-2,-6.108652451E-4
3.698669267E0,-1.832595794E-3,1.160643995E-2,6.108652451E-4
3.700684731E0,-3.665191587E-3,1.282817032E-2,2.443460980E-3
3.702697656E0,0.000000000E0,1.160643995E-2,1.221730490E-3
3.704680119E0,-2.443460980E-3,1.343903504E-2,1.832595794E-3
3.706694583E0,-4.276056774E-3,1.343903504E-2,3.054326167E-3
3.708679740E0,-1.832595794E-3,1.527163107E-2,3.054326167E-3
3.710693280E0,-2.443460980E-3,1.160643995E-2,3.665191587E-3
3.712677052E0,-3.054326167E-3,1.343903504E-2,3.054326167E-3
3.714690592E0,-2.443460980E-3,1.466076635E-2,6.108652451E-4
3.716674517E0,-3.054326167E-3,1.588249579E-2,3.665191587E-3
3.718688982E0,-4.276056774E-3,1.588249579E-2,3.054326167E-3
3.720673599E0,-1.221730490E-3,1.527163107E-2,3.054326167E-3
3.722686832E0,-4.886921961E-3,1.771509275E-2,2.443460980E-3
3.724670834E0,-1.832595794E-3,1.588249579E-2,1.832595794E-3
3.726684374E0,-1.221730490E-3,1.771509275E-2,2.443460980E-3
3.728698299E0,-1.221730490E-3,1.649336144E-2,-6.108652451E-4
3.730682302E0,-1.221730490E-3,1.710422710E-2,6.108652451E-4
3.732696689E0,-1.832595794E-3,1.527163107E-2,0.000000000E0
3.734680383E0,-1.221730490E-3,1.832595654E-2,-6.108652451E-4
3.736694308E0,0.000000000E0,1.832595654E-2,6.108652451E-4
3.738677618E0,-2.443460980E-3,1.649336144E-2,-1.221730490E-3
3.740693621E0,-6.108652451E-4,1.771509275E-2,-6.108652451E-4
3.742675469E0,-6.108652451E-4,1.710422710E-2,-1.832595794E-3
3.744689087E0,-2.443460980E-3,1.466076635E-2,-1.221730490E-3
3.746673935E0,-1.221730490E-3,1.588249579E-2,-2.443460980E-3
3.748688706E0,-2.443460980E-3,1.343903504E-2,-3.665191587E-3
3.750670631E0,-1.221730490E-3,1.343903504E-2,-2.443460980E-3
3.752685326E0,-3.665191587E-3,1.221730467E-2,-2.443460980E-3
3.754700175E0,-2.443460980E-3,1.282817032E-2,-3.665191587E-3
3.756683792E0,-2.443460980E-3,1.099557430E-2,-2.443460980E-3
3.758698025E0,-2.443460980E-3,1.160643995E-2,-6.108652451E-4
3.760681719E0,-1.221730490E-3,1.038470957E-2,-3.054326167E-3
3.762695490E0,-3.665191587E-3,9.162978269E-3,-4.276056774E-3
3.764680186E0,-4.276056774E-3,9.773843922E-3,-3.665191587E-3
3.766693341E0,-6.108652335E-3,8.552113548E-3,-2.443460980E-3
3.768676805E0,-3.665191587E-3,7.941247895E-3,-1.832595794E-3
3.770690653E0,-6.108652335E-3,7.330383174E-3,-1.221730490E-3
3.772674578E0,-4.276056774E-3,6.108652335E-3,-3.054326167E-3
3.774689350E0,-3.665191587E-3,7.330383174E-3,-1.221730490E-3
3.776671506E0,-6.719517522E-3,4.886921961E-3,6.108652451E-4
3.778686354E0,-5.497787148E-3,6.108652335E-3,1.832595794E-3
3.780670972E0,-6.108652335E-3,6.108652335E-3,1.221730490E-3
3.782683820E0,-4.886921961E-3,5.497787148E-3,1.832595794E-3
3.784697668E0,-5.497787148E-3,4.276056774E-3,-6.108652451E-4
3.786682056E0,-6.719517522E-3,3.665191587E-3,0.000000000E0
3.788696135E0,-6.719517522E-3,2.443460980E-3,-6.108652451E-4
3.790680137E0,-6.108652335E-3,7.330383174E-3,6.108652451E-4
3.792694062E0,-4.886921961E-3,6.108652335E-3,1.832595794E-3
3.794678295E0,-5.497787148E-3,5.497787148E-3,1.832595794E-3
3.796691298E0,-4.276056774E-3,6.719517522E-3,1.832595794E-3
3.798675838E0,-3.665191587E-3,7.941247895E-3,2.443460980E-3
3.800690609E0,-4.886921961E-3,6.108652335E-3,1.832595794E-3
3.802673381E0,-4.886921961E-3,6.719517522E-3,1.832595794E-3
3.804687921E0,-4.276056774E-3,6.108652335E-3,2.443460980E-3
3.806671231E0,-3.054326167E-3,7.330383174E-3,1.221730490E-3
3.808685388E0,-4.886921961E-3,7.941247895E-3,-6.108652451E-4
3.810668851E0,-6.108652335E-3,8.552113548E-3,1.832595794E-3
3.812683545E0,-3.665191587E-3,8.552113548E-3,1.221730490E-3
3.814697470E0,-4.276056774E-3,1.099557430E-2,2.443460980E-3
3.816681088E0,-4.276056774E-3,1.038470957E-2,6.108652451E-4
3.818695552E0,-3.665191587E-3,1.099557430E-2,1.832595794E-3
3.820679016E0,-2.443460980E-3,1.038470957E-2,1.832595794E-3
3.822693172E0,-4.886921961E-3,1.221730467E-2,6.108652451E-4
3.824676251E0,-3.054326167E-3,1.099557430E-2,3.054326167E-3
3.826691560E0,-5.497787148E-3,1.221730467E-2,6.108652451E-4
3.828674409E0,-5.497787148E-3,1.160643995E-2,6.108652451E-4
3.830687873E0,-4.276056774E-3,1.404990070E-2,-3.054326167E-3
3.832672798E0,-4.886921961E-3,1.404990070E-2,-6.108652451E-4
3.834686723E0,-3.665191587E-3,1.343903504E-2,-1.221730490E-3
3.836670956E0,-6.108652335E-3,1.649336144E-2,0.000000000E0
3.838684189E0,-4.276056774E-3,1.588249579E-2,0.000000000E0
3.840699268E0,-4.886921961E-3,1.649336144E-2,-1.832595794E-3
3.842682117E0,-4.276056774E-3,1.588249579E-2,-6.108652451E-4
3.844696811E0,-3.054326167E-3,1.527163107E-2,-6.108652451E-4
3.846680275E0,-5.497787148E-3,1.588249579E-2,6.108652451E-4
3.848693815E0,-5.497787148E-3,1.588249579E-2,2.443460980E-3
3.850677740E0,-6.108652451E-4,1.710422710E-2,6.108652451E-4
3.852690666E0,-2.443460980E-3,1.527163107E-2,1.221730490E-3
3.854675668E0,-2.443460980E-3,1.588249579E-2,6.108652451E-4
3.856689440E0,-4.276056774E-3,1.588249579E-2,0.000000000E0
3.858673134E0,-1.221730490E-3,1.588249579E-2,2.443460980E-3
3.860688213E0,1.221730490E-3,1.282817032E-2,2.443460980E-3
3.862670753E0,6.108652451E-4,1.404990070E-2,2.443460980E-3
3.864684295E0,6.108652451E-4,1.343903504E-2,3.054326167E-3
3.866699681E0,-1.832595794E-3,1.343903504E-2,3.054326167E-3
3.868683376E0,2.443460980E-3,1.282817032E-2,1.221730490E-3
3.870696916E0,-6.108652451E-4,1.343903504E-2,6.108652451E-4
3.872680841E0,1.221730490E-3,1.527163107E-2,1.832595794E-3
3.874694690E0,0.000000000E0,1.221730467E-2,1.832595794E-3
3.876678692E0,1.221730490E-3,1.527163107E-2,3.054326167E-3
3.878692618E0,-1.221730490E-3,1.343903504E-2,1.221730490E-3
3.880676927E0,-1.221730490E-3,1.221730467E-2,2.443460980E-3
3.882691314E0,0.000000000E0,1.160643995E-2,6.108652451E-4
3.884673854E0,-1.832595794E-3,1.099557430E-2,1.221730490E-3
3.886687396E0,-3.665191587E-3,7.330383174E-3,-2.443460980E-3
3.888672244E0,-1.832595794E-3,6.108652335E-3,6.108652451E-4
3.890685784E0,-3.665191587E-3,6.108652335E-3,6.108652451E-4
3.892669556E0,-5.497787148E-3,3.665191587E-3,1.832595794E-3
3.894683711E0,-3.665191587E-3,3.054326167E-3,0.000000000E0
3.896698407E0,-4.276056774E-3,2.443460980E-3,6.108652451E-4
3.898681563E0,-2.443460980E-3,0.000000000E0,6.108652451E-4
3.900697257E0,-7.330383174E-3,2.443460980E-3,-1.221730490E-3
3.902679028E0,-5.497787148E-3,1.832595794E-3,-6.108652451E-4
3.904693492E0,-4.886921961E-3,1.221730490E-3,1.221730490E-3
3.906677494E0,-6.108652335E-3,0.000000000E0,-6.108652451E-4
3.908691420E0,-7.330383174E-3,1.832595794E-3,-1.832595794E-3
3.910674499E0,-6.108652335E-3,1.832595794E-3,-1.221730490E-3
3.912689501E0,-6.719517522E-3,0.000000000E0,6.108652451E-4
3.914673272E0,-6.719517522E-3,0.000000000E0,-6.108652451E-4
3.916687120E0,-7.330383174E-3,6.108652451E-4,0.000000000E0
3.918671122E0,-6.108652335E-3,6.108652451E-4,6.108652451E-4
3.920686741E0,-4.276056774E-3,-1.832595794E-3,-1.221730490E-3
3.922668589E0,-3.665191587E-3,1.221730490E-3,-2.443460980E-3
3.924683668E0,-4.276056774E-3,-2.443460980E-3,6.108652451E-4
3.926696977E0,-2.443460980E-3,1.221730490E-3,6.108652451E-4
3.928679979E0,-4.886921961E-3,6.108652451E-4,-6.108652451E-4
3.930694444E0,-4.276056774E-3,6.108652451E-4,1.221730490E-3
3.932678831E0,-4.886921961E-3,1.832595794E-3,-6.108652451E-4
3.934692909E0,-3.054326167E-3,6.108652451E-4,0.000000000E0
3.936676681E0,-4.886921961E-3,2.443460980E-3,0.000000000E0
3.938690452E0,-1.221730490E-3,3.054326167E-3,6.108652451E-4
3.940675685E0,-4.276056774E-3,3.054326167E-3,0.000000000E0
3.942688688E0,-5.497787148E-3,4.886921961E-3,-6.108652451E-4
3.944670844E0,-3.665191587E-3,5.497787148E-3,6.108652451E-4
3.946686153E0,-3.054326167E-3,6.108652335E-3,3.054326167E-3
3.948668924E0,-2.443460980E-3,7.330383174E-3,1.832595794E-3
3.950684003E0,-2.443460980E-3,6.719517522E-3,0.000000000E0
3.952697853E0,-4.886921961E-3,7.330383174E-3,4.886921961E-3
3.954681547E0,-1.221730490E-3,7.330383174E-3,1.221730490E-3
3.956695472E0,-3.665191587E-3,7.941247895E-3,1.832595794E-3
