"Time (s)","Linear Acceleration x (m/s^2)","Linear Acceleration y (m/s^2)","Linear Acceleration z (m/s^2)"
1.269078000E-2,8.021831512E-3,2.637863159E-3,-5.004692078E-2
2.068678900E-2,5.028104782E-2,-2.861106396E-2,3.349304199E-3
2.868195100E-2,1.021137238E-1,-3.831064701E-2,4.957485199E-2
3.667788300E-2,1.074973345E-1,-7.843935490E-2,8.565330505E-2
4.467396900E-2,6.595408916E-2,-4.982727766E-2,6.726932526E-2
5.266959200E-2,-1.495742798E-2,4.439353943E-3,7.677078247E-2
6.069575500E-2,-6.154024601E-2,2.935665846E-2,3.238582611E-2
6.869153300E-2,-7.619941235E-2,4.591435194E-2,2.662563324E-2
7.668692700E-2,-6.717455387E-2,6.255552173E-2,3.949546814E-2
8.468293500E-2,-4.847490788E-2,7.025194168E-2,3.756427765E-2
9.267771300E-2,-5.416619778E-2,7.436415553E-2,4.042911530E-2
1.006742610E-1,-6.974720955E-2,5.602729321E-2,6.286907196E-2
1.086684230E-1,-8.466696739E-2,4.560282826E-2,6.669807434E-2
1.166648160E-1,-7.655787468E-2,2.743005753E-2,4.866790771E-2
1.246909790E-1,-5.121886730E-2,3.711056709E-2,5.450820923E-2
1.326860650E-1,-6.218290329E-2,3.916135430E-2,4.708385468E-2
1.406835350E-1,-5.260288715E-2,4.311859608E-3,5.871868134E-2
1.486774670E-1,-6.397378445E-2,-9.256601334E-4,4.403686523E-2
1.566730910E-1,-3.301382065E-3,2.637666464E-2,3.320121765E-2
1.646694840E-1,1.728725433E-2,-7.666051388E-3,7.372093201E-2
1.726949540E-1,3.962647915E-2,1.985311508E-3,9.343624115E-2
1.806919630E-1,4.129302502E-2,1.598820090E-2,1.076660156E-1
1.886866650E-1,2.702748775E-2,9.450554848E-3,9.117412567E-2
1.966817500E-1,1.173496246E-2,-5.203247070E-3,5.749225616E-2
2.046781430E-1,8.818030357E-3,-1.473549008E-2,5.022716522E-2
2.126725370E-1,-3.669977188E-3,-1.945561171E-2,5.972290039E-2
2.206700830E-1,-4.025495052E-2,-3.960728645E-5,6.680774689E-2
2.286944000E-1,-3.623116016E-2,-1.665011048E-2,4.753780365E-2
2.366907940E-1,-3.957259655E-2,-9.732097387E-3,4.436111450E-2
2.446868030E-1,-5.736017227E-2,-1.180872321E-2,5.857372284E-2
2.526815030E-1,-6.909132004E-2,-9.878933430E-3,9.696483612E-2
2.606778200E-1,-2.992928028E-2,9.004861116E-3,2.726745605E-2
2.686732130E-1,-1.836299896E-2,3.464755416E-2,4.183769226E-3
2.766686830E-1,3.482031822E-2,5.755215883E-3,2.301979065E-2
2.846960000E-1,6.833076477E-2,-8.875429630E-3,5.417156219E-2
2.926899320E-1,8.839821815E-2,4.015564919E-4,5.197334290E-2
3.006861720E-1,1.074302197E-1,2.142161131E-3,7.077789307E-2
3.086821800E-1,1.223644018E-1,2.315580845E-3,7.805919647E-2
3.166770350E-1,7.805228233E-2,-1.667746902E-2,1.093797684E-1
3.246733510E-1,2.212870121E-2,-1.660376787E-2,1.144180298E-1
3.326686680E-1,3.092002869E-2,-1.388788223E-4,1.146621704E-1
3.406957530E-1,-1.547968388E-2,8.874088526E-3,4.065322876E-2
3.486896850E-1,-6.784915924E-3,1.039382815E-2,4.325103760E-2
3.566853100E-1,-3.649497032E-2,2.615019679E-2,2.906703949E-2
3.646819330E-1,-5.454730988E-2,2.512258291E-2,-1.150512695E-2
3.726764800E-1,-7.507038116E-2,1.706618071E-2,-6.591796875E-3
3.806730280E-1,-8.360326290E-2,2.111315727E-2,7.257461548E-4
3.886684990E-1,-1.332441568E-1,2.311334014E-2,1.038742065E-2
3.966943530E-1,-1.425389051E-1,1.811212301E-2,2.718162537E-2
4.046915160E-1,-1.014628410E-1,-1.043307781E-2,5.358695984E-2
4.126848320E-1,-4.625773430E-2,-7.620066404E-3,1.063013077E-1
4.206823020E-1,-2.245080471E-2,-3.593936563E-2,1.015100479E-1
4.286762340E-1,2.756798267E-2,-4.755342007E-2,1.086664200E-1
4.366724740E-1,3.228938580E-2,-2.336663008E-2,1.254272461E-1
4.446688670E-1,4.640841484E-2,1.010203362E-2,1.110191345E-1
4.526937220E-1,3.884255886E-2,2.619683743E-3,2.954101562E-2
4.606912690E-1,8.010172844E-2,-1.210281253E-2,5.672454834E-3
4.686857400E-1,9.334516525E-2,2.373436093E-2,5.874633789E-3
4.766808240E-1,4.759371281E-2,3.585860133E-2,1.819705963E-2
4.846771410E-1,5.067098141E-2,3.370380402E-2,2.349376678E-2
4.926725350E-1,4.737639427E-2,7.673531771E-3,3.371524811E-2
5.006683130E-1,8.452177048E-3,-8.724570274E-3,5.356311798E-2
5.086929360E-1,-3.965139389E-3,-1.573804021E-2,8.061599731E-2
5.166892530E-1,-3.800237179E-2,-3.859668970E-3,9.806823730E-2
5.246858010E-1,-5.093085766E-2,5.358397961E-3,9.389114380E-2
5.326808860E-1,-8.883333206E-2,4.054260254E-2,6.319427490E-2
5.406768950E-1,-7.780814171E-2,5.411177874E-2,3.705978394E-2
5.486722880E-1,-1.159536839E-1,7.249373198E-2,2.029132843E-2
5.566677590E-1,-1.383423805E-1,5.279159546E-2,-6.208419800E-3
5.646941510E-1,-1.587451696E-1,2.271592617E-3,-3.515529633E-2
5.726896220E-1,-1.214002371E-1,3.504753113E-5,-4.180908203E-3
5.806864770E-1,-8.623445034E-2,-3.295445442E-2,-3.779888153E-2
5.886801020E-1,-1.648890972E-2,-8.209165931E-2,2.215957642E-2
5.966757250E-1,1.606369019E-2,-8.303034306E-2,3.443241119E-2
6.046727340E-1,3.736710548E-2,-5.989521742E-2,6.359004974E-2
6.126675120E-1,5.924415588E-2,-4.165291786E-2,9.044265747E-2
6.206948280E-1,5.746936798E-2,-4.755780101E-2,1.053638458E-1
6.286899140E-1,4.127645493E-2,-2.737051249E-2,7.717132568E-2
6.366850770E-1,1.767826080E-2,-2.682486176E-2,5.131435394E-2
6.446807780E-1,-3.413796425E-3,6.808876991E-3,3.503322601E-2
6.526755550E-1,-2.840280533E-3,4.732054472E-2,1.397037506E-2
6.606724870E-1,-1.427471638E-2,7.325732708E-2,-1.668453217E-2
6.686668810E-1,-3.517794609E-2,7.995820045E-2,-1.141166687E-2
6.766940430E-1,-7.339489460E-2,7.482999563E-2,2.250766754E-2
6.846899750E-1,-1.071845293E-1,5.059263110E-2,2.284908295E-2
6.926848300E-1,-1.099179983E-1,-4.526704550E-3,6.868171692E-2
7.006807620E-1,-1.037089825E-1,9.888410568E-3,7.610416412E-2
7.086764630E-1,-1.293884516E-1,-2.350610495E-2,6.664371490E-2
7.166710100E-1,-1.340152025E-1,-6.868180633E-2,6.429195404E-2
7.246678650E-1,-1.650776863E-1,-1.088440716E-1,7.629776001E-2
7.326934120E-1,-1.434264183E-1,-1.176998615E-1,7.155990601E-2
7.406894210E-1,-1.434499025E-1,-6.908950210E-2,5.483055115E-2
7.486842760E-1,-1.531482935E-1,-4.198572040E-2,2.850914001E-2
7.566799000E-1,-1.394727230E-1,-4.341304302E-4,4.040431976E-2
7.646762160E-1,-1.721239090E-1,-1.408532262E-2,4.018211365E-2
7.726706870E-1,-1.795045137E-1,-3.495779634E-2,7.090282440E-2
7.806676960E-1,-1.497005224E-1,-3.701299429E-2,5.832672119E-2
7.886932420E-1,-8.545637131E-2,-2.286401391E-2,5.505657196E-2
7.966882510E-1,-3.238475323E-2,2.446770668E-4,3.713130951E-2
8.046848760E-1,4.793405533E-3,-1.068148017E-2,-2.416229248E-2
8.126791150E-1,6.538772583E-2,-1.484614611E-2,6.380081177E-4
8.206766620E-1,1.117687225E-1,3.064286709E-2,5.656719208E-2
8.286711320E-1,1.157616377E-1,4.909965396E-2,5.991554260E-2
8.366664490E-1,1.327598095E-1,1.079214513E-1,9.694099426E-2
8.446935350E-1,1.176426411E-1,1.093740463E-1,1.318092346E-1
8.526880820E-1,1.085253954E-1,7.284972072E-2,1.692857742E-1
8.606855520E-1,4.745769501E-2,5.326768756E-2,2.164659500E-1
8.686794070E-1,3.749859333E-2,4.378798604E-2,1.967658997E-1
8.766748770E-1,3.063881397E-2,5.857315660E-2,1.891651154E-1
8.846711940E-1,1.227009296E-2,4.183381796E-3,1.529197693E-1
8.926662790E-1,2.776861191E-2,-3.547960520E-2,8.562088013E-2
9.006933650E-1,2.908754349E-2,-6.538724899E-2,2.075576782E-2
9.086875270E-1,4.357814789E-3,-1.261497736E-1,-2.011108398E-2
9.166837670E-1,-2.738177776E-2,-1.007010341E-1,-7.291984558E-2
9.246791610E-1,6.325364113E-3,-7.041633129E-2,-7.771492004E-2
9.326749380E-1,3.368926048E-2,-4.325240850E-3,-8.716964722E-2
9.406724090E-1,4.011809826E-2,4.038673639E-2,-7.018184662E-2
9.486663410E-1,2.493607998E-2,4.210975766E-2,-5.798912048E-2
9.566928110E-1,-3.343081474E-2,2.258789539E-2,-2.700805664E-3
9.646888190E-1,-5.871343613E-2,-1.604691148E-2,4.533767700E-2
9.726835970E-1,-3.187108040E-2,-1.166799664E-2,2.864074707E-2
9.806801450E-1,-1.311135292E-2,-9.722203016E-3,3.574180603E-2
9.886743840E-1,4.630804062E-3,-2.945333719E-2,5.703830719E-2
9.966707000E-1,2.310872078E-3,3.918382525E-2,7.818317413E-2
1.004666940E0,-8.157491684E-3,3.344219923E-2,4.410076141E-2
1.012692488E0,-1.220571995E-2,2.516770363E-2,5.059242249E-2
1.020689496E0,-9.839773178E-3,4.814323783E-2,3.542423248E-2
1.028683659E0,-1.011383533E-2,5.204826593E-2,4.177093506E-2
1.036678975E0,3.878474236E-3,4.887756705E-2,4.331970215E-2
1.044674753E0,1.830828190E-2,4.097777605E-2,6.888580322E-2
1.052670069E0,2.850759029E-2,5.466654897E-2,6.341743469E-2
1.060666155E0,3.248846531E-2,4.934975505E-2,9.162712097E-2
1.068692318E0,6.140995026E-2,-1.213788986E-3,1.152143478E-1
1.076687711E0,6.271791458E-2,-2.537211776E-2,1.365842819E-1
1.084683720E0,1.082671881E-1,-4.970470071E-2,1.461544037E-1
1.092678421E0,1.044393778E-1,-4.766795039E-2,1.582593918E-1
1.100675968E0,9.417736530E-2,-4.568400979E-2,1.154117584E-1
1.108670515E0,5.836999416E-2,-2.696523070E-2,8.465862274E-2
1.116665601E0,3.528130054E-2,-2.028197050E-2,5.880832672E-2
1.124692918E0,-6.272315979E-3,6.493330002E-4,2.109050751E-2
1.132686772E0,-3.990757465E-2,1.895847917E-2,-6.941795349E-3
1.140684319E0,-6.606876850E-2,3.963401914E-2,-1.816844940E-2
1.148679098E0,-1.233985424E-1,3.148823977E-2,-7.854461670E-3
1.156674876E0,-1.454169750E-1,3.548559546E-2,-2.002716064E-5
1.164670499E0,-1.468327045E-1,3.706219792E-2,1.963520050E-2
1.172696739E0,-1.374720335E-1,9.993940592E-3,2.234458923E-2
1.180693594E0,-1.362277269E-1,1.171585917E-2,2.730369568E-2
1.188687756E0,-1.069074869E-1,8.628040552E-3,5.822181702E-3
1.196682611E0,-8.508169651E-2,-1.738280058E-3,-1.092624664E-2
1.204679774E0,-5.856180191E-2,-2.888792753E-2,3.455924988E-2
1.212674552E0,-8.194184303E-2,-5.120399594E-2,1.136255264E-1
1.220670945E0,-7.402610779E-2,-2.809703350E-2,1.711702347E-1
1.228695262E0,-6.742894650E-2,4.561010003E-2,1.040172577E-1
1.236691501E0,-5.043077469E-2,8.642470837E-2,4.382419586E-2
1.244687817E0,-4.089450836E-2,7.025918365E-2,4.106616974E-2
1.252682595E0,5.281507969E-2,-1.749384403E-2,9.105205536E-2
1.260678989E0,1.088744402E-1,-1.244624853E-1,7.410049438E-2
1.268673998E0,1.515370607E-1,-7.139685750E-2,1.898288727E-2
1.276669160E0,1.112717390E-1,-2.574464679E-2,2.624034882E-2
1.284696784E0,4.715657234E-2,2.695590258E-2,-9.588241577E-3
1.292691255E0,2.077639103E-2,3.657034039E-2,-7.199287415E-3
1.300687955E0,1.067805290E-2,3.416591883E-2,1.905441284E-2
1.308683041E0,8.231759071E-2,4.344344139E-2,1.422405243E-2
1.316678435E0,1.048302650E-1,3.812068701E-2,2.632522583E-2
1.324674059E0,1.187118292E-1,2.780717611E-2,7.208919525E-2
1.332669760E0,4.954302311E-2,2.002984285E-2,8.685302734E-2
1.340696538E0,-6.499493122E-2,1.968717575E-2,8.728218079E-2
1.348690701E0,-1.368770599E-1,3.634789586E-2,8.046817780E-2
1.356687016E0,-1.402940750E-1,5.061075091E-2,3.758811951E-2
1.364683102E0,-8.261978626E-2,5.520445108E-2,1.127815247E-2
1.372677496E0,-1.363503933E-2,3.346446157E-2,6.410598755E-3
1.380674120E0,2.193164825E-2,2.154320478E-3,2.071285248E-2
1.388668898E0,2.438163757E-2,-2.185755968E-2,3.747844696E-2
1.396695676E0,8.350014687E-3,2.213180065E-3,8.308887482E-2
1.404691146E0,-2.411460876E-2,6.995588541E-3,1.000165939E-1
1.412686463E0,-4.224336147E-2,1.639789343E-2,9.778022766E-2
1.420683394E0,-7.268989086E-2,8.979618549E-3,9.309101105E-2
1.428678557E0,-6.267952919E-2,3.873825073E-3,4.047489166E-2
1.436673566E0,-2.160346508E-2,1.553240418E-2,4.052257538E-2
1.444669343E0,1.227426529E-2,1.050591469E-3,3.578662872E-2
1.452695199E0,1.055324078E-2,-8.582413197E-3,4.786300659E-2
1.460692361E0,-1.008725166E-2,-1.092168689E-2,7.434749603E-2
1.468685986E0,-5.928158760E-2,-1.336479187E-2,9.127807617E-2
1.476681994E0,-8.191514015E-2,1.049026847E-2,7.711982727E-2
1.484678003E0,-6.891644001E-2,1.523789763E-2,5.813026428E-2
1.492673089E0,-9.723031521E-2,1.287862659E-2,3.904533386E-2
1.500669712E0,-7.789862156E-2,2.255970240E-2,1.992416382E-2
1.508695490E0,-3.735756874E-2,5.951821804E-3,2.948188782E-2
1.516690653E0,-1.375567913E-2,-2.265095711E-2,3.661537170E-2
1.524686970E0,7.454276085E-3,1.567375660E-2,6.289672852E-2
1.532681055E0,-7.166981697E-3,1.369297504E-3,4.131126404E-2
1.540678064E0,-5.078077316E-3,2.075818181E-2,4.605960846E-2
1.548672765E0,-7.868766785E-3,-1.966160536E-2,5.797863007E-2
1.556667850E0,-1.077318192E-2,4.487633705E-3,2.438545227E-2
1.564695859E0,5.317926407E-3,2.236008644E-3,3.625583649E-2
1.572690022E0,-7.294893265E-3,-1.546740532E-4,4.812335968E-2
1.580687339E0,1.141512394E-2,-2.630561590E-3,2.889537811E-2
1.588681808E0,3.051674366E-2,9.168565273E-3,2.888011932E-2
1.596677125E0,3.324174881E-2,2.802020311E-2,4.568004608E-2
1.604673211E0,2.657592297E-2,4.207631946E-2,5.532836914E-2
1.612668527E0,-1.595759392E-2,4.902198911E-2,5.301380157E-2
1.620695920E0,-3.243625164E-2,3.921183944E-2,4.347229004E-2
1.628689852E0,-3.463792801E-2,4.874902964E-2,2.913665771E-2
1.636686169E0,-2.028596401E-2,2.492105961E-2,5.308055878E-2
1.644682177E0,-1.803576946E-2,-3.581553698E-3,5.546188354E-2
1.652676648E0,-1.587140560E-2,-1.055309176E-2,4.585647583E-2
1.660673811E0,-4.036784172E-3,-3.222763538E-3,6.020545959E-2
1.668668665E0,-3.038668633E-2,-1.746180654E-2,7.457447052E-2
1.676694751E0,-2.314984798E-2,-2.466350794E-2,8.176422119E-2
1.684691144E0,-2.542877197E-2,8.658766747E-3,6.501579285E-2
1.692684615E0,-1.090049744E-2,2.760690451E-2,3.630256653E-2
1.700682238E0,-5.949020386E-3,3.461033106E-2,2.195739746E-2
1.708677017E0,-2.019691467E-2,3.701135516E-2,4.591846466E-2
1.716672410E0,-2.474284172E-2,2.275061607E-2,6.272029877E-2
1.724669034E0,-1.744294167E-2,6.088048220E-3,5.795478821E-2
1.732694196E0,-4.127132893E-2,1.374065876E-3,6.515884399E-2
1.740690282E0,-2.912032604E-2,-5.865007639E-3,7.955074310E-2
1.748685061E0,-3.134357929E-2,2.764704823E-2,8.676052094E-2
1.756681299E0,-3.364551067E-2,2.751195431E-2,6.282711029E-2
1.764677616E0,-3.851366043E-2,2.260115743E-2,5.083847046E-2
1.772671241E0,-4.600858688E-2,2.018627524E-2,5.078792572E-2
1.780668788E0,-3.452849388E-2,-1.286327839E-3,4.831790924E-2
1.788694258E0,-3.735947609E-2,-1.192361116E-3,3.628063202E-2
1.796689728E0,-2.820885181E-2,1.553407311E-2,3.860473633E-2
1.804685045E0,-2.140080929E-2,1.792898774E-2,3.136253357E-2
1.812680438E0,-3.852331638E-2,2.752849460E-2,3.369903564E-2
1.820677447E0,-3.892230988E-2,1.796969771E-2,5.039501190E-2
1.828672532E0,-2.743268013E-2,8.391141891E-3,4.792308807E-2
1.836667926E0,-2.083396912E-2,3.590136766E-3,3.585910797E-2
1.844694703E0,-2.419948578E-3,5.967527628E-3,4.531574249E-2
1.852689174E0,-2.730011940E-2,-1.070380211E-2,6.671714783E-2
1.860686029E0,-4.032421112E-2,-3.459751606E-3,6.176185608E-2
1.868680576E0,-3.445935249E-2,1.829057932E-2,6.634712219E-2
1.876675662E0,-2.149200439E-2,1.135322452E-2,8.528709412E-2
1.884672286E0,-6.104111671E-3,4.367798567E-3,7.071113586E-2
1.892667064E0,2.233743668E-3,-7.407009602E-3,6.333923340E-2
1.900694765E0,1.322519779E-2,2.235472202E-3,3.924369812E-2
1.908689543E0,1.971650124E-2,6.998091936E-3,5.349826813E-2
1.916685244E0,1.678872108E-2,3.326544166E-2,4.143905640E-2
1.924680944E0,9.454607964E-3,1.888328791E-2,3.183650970E-2
1.932676569E0,7.089257240E-3,2.349177003E-2,4.380512238E-2
1.940672962E0,4.909515381E-3,2.577748895E-2,4.622840881E-2
1.948667433E0,-3.553414345E-2,-5.391776562E-3,6.542205811E-2
1.956693518E0,-4.005646706E-2,-3.103077412E-3,7.264232635E-2
1.964689835E0,-6.622600555E-2,1.338586211E-2,5.589866638E-2
1.972684305E0,-7.324814796E-2,8.363187313E-3,4.633808136E-2
1.980681006E0,-9.238564968E-2,4.641053081E-2,3.435993195E-2
1.988676630E0,-9.979927540E-2,1.278695464E-2,3.910636902E-2
1.996672408E0,-6.673753262E-2,1.499530673E-2,4.620838165E-2
2.004667417E0,-4.838776588E-2,1.263394952E-2,6.284141541E-2
2.012692733E0,-2.310681343E-2,1.980671287E-2,8.421993256E-2
2.020689280E0,-2.176666260E-2,7.176697254E-4,6.969070435E-2
2.028684443E0,-5.965709686E-3,5.564808846E-3,8.151245117E-2
2.036680068E0,4.111635685E-2,5.504935980E-3,1.005353928E-1
2.044676383E0,4.295611382E-2,-1.616662741E-2,8.128833771E-2
2.052671162E0,5.235588551E-2,2.941817045E-3,7.647037506E-2
2.060667248E0,3.822731972E-2,1.716515422E-2,6.213665009E-2
2.068693409E0,1.480364799E-2,1.696318388E-2,4.784584045E-2
2.076688803E0,-1.331794262E-2,1.197305322E-2,3.117465973E-2
2.084685120E0,-2.449560165E-2,2.135184407E-2,2.411079407E-2
2.092679821E0,-4.502773285E-3,1.865714788E-2,1.944351196E-2
2.100677137E0,-2.747356892E-2,1.114264131E-2,1.958465576E-2
2.108671300E0,-2.413117886E-2,8.524090052E-3,3.409194946E-2
2.116697770E0,-3.281176090E-2,2.019259334E-2,3.901004791E-2
2.124693778E0,-4.658162594E-2,1.512163877E-2,4.627704620E-2
2.132688480E0,-7.248985767E-2,1.490426064E-2,4.873085022E-2
2.140685104E0,-8.431529999E-2,1.226648688E-2,4.874420166E-2
2.148679575E0,-6.779241562E-2,1.698878407E-2,6.067371368E-2
2.156675660E0,-5.653154850E-2,-1.182547212E-2,5.576896667E-2
2.164671592E0,-5.763137341E-2,7.285892963E-3,5.319786072E-2
2.172696601E0,-2.297425270E-2,9.663373232E-3,5.060386658E-2
2.180693147E0,-1.226973534E-2,2.151036263E-2,3.363800049E-2
2.188688002E0,2.020049095E-2,2.377396822E-2,3.585910797E-2
2.196684242E0,2.176868916E-2,2.168834209E-3,2.854442596E-2
2.204680251E0,3.322589397E-2,1.403361559E-2,3.563976288E-2
2.212675413E0,-5.197167397E-3,4.033118486E-2,5.477333069E-2
2.220671653E0,-1.227235794E-2,4.990276694E-2,5.000209808E-2
2.228697893E0,-5.769801140E-2,1.925438643E-3,7.155704498E-2
2.236692593E0,-4.088079929E-2,1.860636473E-2,5.480289459E-2
2.244688986E0,-4.086136818E-2,-5.435377359E-3,6.198406219E-2
2.252683995E0,-4.573750496E-2,-8.231699467E-4,7.153987885E-2
2.260680081E0,-5.775082111E-2,6.218522787E-3,5.716323853E-2
2.268674859E0,-6.518101692E-2,8.298367262E-3,4.513931274E-2
2.276670252E0,-7.286834717E-2,1.518946886E-2,4.025936127E-2
2.284697261E0,-6.870090961E-2,2.692759037E-2,3.775787354E-2
2.292692117E0,-4.800999165E-2,3.152090311E-2,3.282546997E-2
2.300688663E0,-2.513003349E-2,3.149122000E-2,3.744411469E-2
2.308683826E0,-1.660001278E-2,3.636932373E-2,4.446411133E-2
2.316679758E0,6.264925003E-3,1.253497601E-2,4.669284821E-2
2.324675151E0,1.721644402E-2,-1.597136259E-3,6.808853149E-2
2.332670621E0,-1.470828056E-2,-3.862261772E-3,8.472633362E-2
2.340697707E0,1.811242104E-2,3.274977207E-3,6.785488129E-2
2.348692408E0,3.089666367E-3,-1.603505015E-2,8.929252625E-2
2.356687186E0,1.712012291E-2,5.188673735E-3,7.246780396E-2
2.364683887E0,2.427554131E-2,1.909509301E-2,4.371452332E-2
2.372679511E0,-6.471395493E-3,2.341842651E-2,3.896713257E-2
2.380675596E0,-1.305961609E-2,-1.073777676E-3,2.946281433E-2
2.388671221E0,-4.101049900E-2,2.953866124E-2,3.914165497E-2
2.396696845E0,-5.240809917E-2,2.669608593E-2,2.963733673E-2
2.404693162E0,-7.378780842E-2,4.307231307E-2,1.528358459E-2
2.412687631E0,-9.310877323E-2,1.889029145E-2,2.482414246E-2
2.420684179E0,-6.956088543E-2,4.328608513E-3,3.911972046E-2
2.428679034E0,-6.534004211E-2,-7.771521807E-3,6.057262421E-2
2.436674657E0,-4.692924023E-2,1.367101073E-2,6.284523010E-2
2.444670974E0,-5.014097691E-2,1.358655095E-2,5.553054810E-2
2.452695983E0,-4.867100716E-2,1.831147075E-2,6.017017365E-2
2.460693223E0,-1.620995998E-2,2.777865529E-2,4.084587097E-2
2.468687923E0,1.383352280E-2,1.097202301E-2,5.743217468E-2
2.476683009E0,2.951097488E-2,3.481179476E-2,1.171140671E-1
2.484679634E0,-1.258277893E-2,4.399740696E-2,3.547668457E-2
2.492674488E0,-4.009962082E-3,-1.380944252E-2,3.769874573E-2
2.500670189E0,1.196670532E-2,2.581119537E-3,3.995609283E-2
2.508695429E0,4.036581516E-2,6.891041994E-3,3.988456726E-2
2.516691746E0,1.886975765E-2,2.554070950E-2,4.226684570E-2
2.524688061E0,-9.454727173E-3,2.986401320E-2,3.512954712E-2
2.532683378E0,-3.031563759E-2,2.241867781E-2,4.959297180E-2
2.540680310E0,-6.085371971E-2,3.402435780E-2,6.642913818E-2
2.548674780E0,-5.094575882E-2,3.367313743E-2,5.689048767E-2
2.556670250E0,-2.212941647E-2,7.636675239E-2,7.843685150E-2
2.564696413E0,-5.816257000E-2,4.471701384E-2,5.684852600E-2
2.572691807E0,-8.967196941E-2,-5.981922150E-3,4.480171204E-2
2.580688123E0,-5.197370052E-2,-1.581302285E-2,6.145477295E-2
2.588682593E0,-5.991816521E-2,1.742473245E-2,3.259372711E-2
2.596677987E0,-6.292366982E-2,-1.157018542E-2,3.248691559E-2
2.604674841E0,-2.756571770E-2,1.213300228E-2,2.042007446E-2
2.612669311E0,-1.837372780E-3,7.120728493E-3,2.989292145E-2
2.620696782E0,-1.226520538E-2,1.420360804E-2,2.257251740E-2
2.628692714E0,-1.307308674E-2,2.614998817E-2,3.681087494E-2
2.636687261E0,-1.128208637E-2,-1.687961817E-2,5.347824097E-2
2.644683808E0,-1.175320148E-2,-1.693779230E-2,7.734489441E-2
2.652678279E0,-1.223182678E-2,-1.694256067E-2,7.248115540E-2
2.660673980E0,-3.187632561E-2,2.202987671E-3,1.035280228E-1
2.668668834E0,-1.319420338E-2,1.403379440E-2,6.992912292E-2
2.676694997E0,-1.859855652E-2,3.783363104E-2,4.349231720E-2
2.684691621E0,-2.168631554E-2,3.046631813E-2,3.140449524E-2
2.692686937E0,-1.999568939E-2,3.022986650E-2,2.410316467E-2
2.700683638E0,-8.491754532E-3,3.726080060E-2,2.163028717E-2
2.708678340E0,3.209590912E-3,1.310032606E-2,3.115653992E-2
2.716673426E0,1.524579525E-2,2.009022236E-2,5.031204224E-2
2.724670049E0,8.161306381E-3,2.938798070E-2,4.074001312E-2
2.732695058E0,-1.559460163E-2,2.686211467E-2,5.512905121E-2
2.740690990E0,-3.940367699E-2,2.182611823E-2,5.992889404E-2
2.748686767E0,-2.493882179E-2,7.177183032E-2,1.054220200E-1
2.756683007E0,-3.719496727E-2,4.001080990E-2,2.634334564E-2
2.764677862E0,-2.562773228E-2,3.621399403E-3,7.175159454E-2
2.772673179E0,-2.894091606E-2,3.292262554E-3,3.328895569E-2
2.780670187E0,-4.893910885E-2,1.984128356E-2,2.023696899E-3
2.788695735E0,-8.975386620E-3,3.655323386E-2,5.936813354E-2
2.796690821E0,-1.920056343E-2,3.156790137E-2,4.728889465E-2
2.804686829E0,-1.961576939E-2,-4.405677319E-3,6.637477875E-2
2.812682145E0,-1.267087460E-2,-1.635271311E-2,6.155109406E-2
2.820678539E0,-9.702444077E-4,-6.791770458E-3,5.911350250E-2
2.828673240E0,-2.500319481E-2,-2.112802863E-2,8.064842224E-2
2.836668710E0,-4.401278496E-2,-6.908088923E-3,6.151199341E-2
2.844695488E0,-1.748621464E-2,1.194748282E-2,5.674171448E-2
2.852690805E0,-2.924847603E-2,2.050369978E-3,4.957866669E-2
2.860687120E0,-3.860747814E-2,4.241788387E-2,3.284072876E-2
2.868682822E0,-4.081857204E-2,1.837256551E-2,3.047084808E-2
2.876677292E0,-4.067003727E-2,2.799078822E-2,3.289031982E-2
2.884673378E0,-2.375566959E-2,1.853752136E-2,4.728412628E-2
2.892668079E0,-1.156067848E-2,1.867717505E-2,4.014205933E-2
2.900695549E0,-4.061698914E-3,-3.294944763E-4,5.456161499E-2
2.908690327E0,-1.341819763E-2,4.509419203E-3,5.699253082E-2
2.916686875E0,-2.755665779E-2,6.964862347E-3,4.505920410E-2
2.924682037E0,-3.451406956E-2,1.174789667E-2,6.424713135E-2
2.932676815E0,-4.660344124E-2,-9.947061539E-3,4.506969452E-2
2.940673363E0,-6.112658978E-2,6.573170424E-3,5.461311340E-2
2.948668755E0,-3.985393047E-2,8.668810129E-3,3.540515900E-2
2.956694072E0,-4.009616375E-2,2.517759800E-2,3.535747528E-2
2.964691235E0,-3.094315529E-2,2.263146639E-2,1.852607727E-2
2.972685167E0,-4.101800919E-2,1.769518852E-2,3.041362762E-2
2.980682713E0,-3.452897072E-2,1.055181026E-2,4.467201233E-2
2.988676568E0,-3.036284447E-2,1.777964830E-2,4.457759857E-2
2.996672578E0,-2.382159233E-2,2.012339234E-2,4.687023163E-2
3.004668509E0,-2.451312542E-2,2.723261714E-2,6.351852417E-2
3.012693748E0,-1.550364494E-2,8.266866207E-4,5.145740509E-2
3.020692296E0,-2.067089081E-2,1.043939590E-2,5.379390717E-2
3.028686997E0,-4.013991356E-2,5.668938160E-3,4.895687103E-2
3.036680928E0,-2.121663094E-2,-3.839820623E-3,5.371284485E-2
3.044677168E0,-3.337240219E-2,1.020044088E-3,8.002281189E-2
3.052672562E0,-1.440405846E-2,-8.607298136E-3,7.041549683E-2
3.060699724E0,-2.405142784E-2,5.659162998E-3,4.406356812E-2
3.068694117E0,-2.652144432E-2,-1.664429903E-3,4.644107819E-2
3.076689895E0,-1.956975460E-2,1.485916972E-2,2.724361420E-2
3.084685212E0,-1.733648777E-2,1.229715347E-2,2.002811432E-2
3.092680913E0,-1.031255722E-2,7.330894470E-3,2.478504181E-2
3.100677537E0,-2.456092834E-2,2.869826555E-2,3.197956085E-2
3.108673007E0,-7.607460022E-3,2.131044865E-2,3.200244904E-2
3.116698246E0,-1.921498775E-2,2.122536302E-2,4.642009735E-2
3.124694255E0,-5.478656292E-2,4.271721840E-2,5.125999451E-2
3.132689649E0,-5.690240860E-2,3.074535728E-2,5.848503113E-2
3.140686889E0,-5.436527729E-2,1.394489408E-2,6.090068817E-2
3.148681051E0,-5.677533150E-2,2.003669739E-3,4.892730713E-2
3.156676983E0,-3.305423260E-2,1.166278124E-2,5.368518829E-2
3.164672684E0,-2.856695652E-2,-5.121499300E-3,5.842590332E-2
3.172698001E0,-1.451671124E-2,9.184986353E-3,4.640388489E-2
3.180694239E0,-1.238393784E-2,-5.300939083E-4,4.156970978E-2
3.188690018E0,-2.695810795E-2,6.523847580E-3,3.195571899E-2
3.196685411E0,-2.236342430E-2,3.028306365E-2,2.952384949E-2
3.204680727E0,-3.934717178E-2,1.585409045E-2,1.512145996E-2
3.212675890E0,-2.512252331E-2,2.532610297E-2,2.227878571E-2
3.220672130E0,-3.717744350E-2,1.290053129E-3,1.507854462E-2
3.228698677E0,-6.112945080E-2,2.281647921E-2,4.859542847E-2
3.232695835E0,-6.824529171E-2,1.799502969E-2,6.296920776E-2
3.234680222E0,-5.148589611E-2,2.278342843E-2,6.536388397E-2
3.236693070E0,-3.712069988E-2,1.799502969E-2,5.339241028E-2
3.244689771E0,-3.238666058E-2,2.754735947E-2,7.493209839E-2
3.252684242E0,-3.984534740E-2,1.805666089E-2,7.249736786E-2
3.260681481E0,-1.403677464E-2,2.291610837E-2,6.523609161E-2
3.268676490E0,-3.859519958E-2,-8.169919252E-3,6.993007660E-2
3.276671652E0,-3.264784813E-3,-1.297608018E-2,5.307960510E-2
3.284698661E0,-3.559112549E-3,6.025344133E-3,4.823970795E-2
3.292693516E0,-3.619313240E-3,2.737027407E-2,2.906894684E-2
3.300689832E0,-2.262389660E-2,3.432139754E-2,3.387165070E-2
3.308684534E0,-3.910446167E-2,2.222946286E-2,3.151702881E-2
3.316680542E0,-3.393650055E-2,2.923563123E-2,2.678012848E-2
3.324675705E0,-2.880024910E-2,3.864747286E-2,2.203941345E-2
3.332671329E0,-1.412355900E-2,2.899375558E-2,3.405475616E-2
3.340698799E0,-2.820575237E-2,-2.152621746E-3,5.325222015E-2
3.348693500E0,-3.025424480E-2,1.227429509E-2,7.485580444E-2
3.356689586E0,-3.716945648E-2,1.712340117E-2,7.968807220E-2
3.364685518E0,-3.469979763E-2,1.935309172E-2,9.166431427E-2
3.372679757E0,-4.406833649E-2,9.481310844E-3,8.689689636E-2
3.380676304E0,-2.484869957E-2,6.773442030E-3,7.013702393E-2
3.388671775E0,-5.362725258E-2,2.312326431E-2,3.419971466E-2
3.396697014E0,-5.146539211E-2,3.491735458E-2,1.979255676E-2
3.404694176E0,-3.971958160E-2,2.758514881E-2,1.017475128E-2
3.412688339E0,-4.467964172E-2,1.561105251E-2,1.254177094E-2
3.420685656E0,-4.001832008E-2,2.997055650E-2,2.209949493E-2
3.428680741E0,-2.331137657E-2,2.284768224E-2,3.645896912E-2
3.436675442E0,-4.250681400E-2,3.003764153E-2,5.081748962E-2
3.444672143E0,-3.551340103E-2,-1.067161560E-3,5.797100067E-2
3.452696999E0,-5.029034615E-2,1.316690445E-2,5.311489105E-2
3.460694314E0,-3.878569603E-2,-1.324197650E-2,7.219314575E-2
3.468688477E0,-3.451764584E-2,-8.472174406E-3,5.295753479E-2
3.476684717E0,-2.542114258E-2,-6.194204092E-3,6.485080719E-2
3.484679803E0,-2.100741863E-2,8.046030998E-3,6.957530975E-2
3.492675503E0,-1.903510094E-2,1.045635343E-2,5.993461609E-2
3.500672512E0,-1.698410511E-2,3.196060658E-2,5.987930298E-2
3.508697137E0,-1.964807510E-2,2.485454082E-2,4.068756104E-2
3.516692222E0,-2.227342129E-2,2.253338695E-2,2.389431000E-2
3.524689461E0,4.037618637E-3,3.705272079E-2,4.304981232E-2
3.532683932E0,6.588578224E-3,1.805388927E-2,4.308032990E-2
3.540680249E0,-1.228284836E-2,1.583784819E-2,5.989074707E-2
3.548675872E0,2.255439758E-4,2.312916517E-2,5.997753143E-2
3.556670650E0,-3.500545025E-2,1.349660754E-2,6.008148193E-2
3.564697736E0,-5.839002132E-2,1.343908906E-2,3.861713409E-2
3.572692283E0,-5.569577217E-2,1.562151313E-2,6.020450592E-2
3.580688907E0,-7.703089714E-2,9.568929672E-4,1.712989807E-2
3.588684532E0,-6.282401085E-2,5.391180515E-3,2.188014984E-2
3.596680002E0,-7.270121574E-2,2.744913101E-3,1.464176178E-2
3.604675702E0,-5.165755749E-2,9.704887867E-3,2.173805237E-2
3.612670481E0,-2.116668224E-2,4.545679688E-2,2.642250061E-2
3.620698413E0,-1.459658146E-2,1.677960157E-2,2.154064178E-2
3.628692344E0,3.978252411E-3,1.695823669E-2,7.413005829E-2
3.636687968E0,3.600716591E-3,5.280673504E-3,7.887172699E-2
3.644684977E0,-8.586168289E-3,3.120899200E-3,8.842372894E-2
3.652679140E0,-1.283526421E-3,1.286116242E-2,8.366012573E-2
3.660675379E0,-1.543414593E-2,1.056790352E-3,7.651615143E-2
3.668670773E0,-1.754379272E-2,-8.477240801E-3,7.177352905E-2
3.676696705E0,-3.036260605E-4,-5.990535021E-3,3.833293915E-2
3.684692636E0,-3.330409527E-2,1.321214437E-2,3.123283386E-2
3.692688337E0,-1.823353767E-2,2.519062161E-2,-4.570960999E-3
3.700684731E0,-3.415250778E-2,3.241762519E-2,5.137443542E-3
3.708679740E0,-4.375576973E-3,6.203293800E-3,1.009273529E-2
3.716674517E0,-3.278493881E-3,-8.569061756E-4,2.223873138E-2
3.724670834E0,-1.157379150E-2,1.730829477E-3,4.638671875E-2
3.732696689E0,1.708745956E-3,-5.377382040E-3,5.377578735E-2
3.740693621E0,-3.527522087E-2,-5.267620087E-3,6.595706940E-2
3.748688706E0,-4.836320877E-2,1.637434959E-2,5.418872833E-2
3.756683792E0,-4.253566265E-2,3.570839763E-2,4.717445374E-2
3.764680186E0,-5.840981007E-2,3.345116973E-2,6.168365479E-2
3.772674578E0,-6.723308563E-2,1.222965121E-2,6.420707703E-2
3.780670972E0,-3.551840782E-2,1.970535517E-2,5.473327637E-2
3.788696135E0,-3.740561008E-2,1.285922527E-2,4.524898529E-2
3.796691298E0,-4.881930351E-2,1.079803705E-2,5.013656616E-2
3.804687921E0,-1.225769520E-2,-9.371936321E-4,3.588199615E-2
3.812683545E0,-4.409313202E-3,1.608416438E-2,4.317951202E-2
3.820679016E0,6.024241447E-3,2.347856760E-2,3.374385834E-2
3.828674409E0,-1.218807697E-2,2.129366994E-2,2.192783356E-2
3.836670956E0,-2.547216415E-2,2.874317765E-2,4.844474792E-2
3.844696811E0,-3.852891922E-2,-4.468739033E-3,4.387283325E-2
3.852690666E0,-3.482627869E-2,1.487198472E-2,6.563282013E-2
3.860688213E0,-5.747258663E-2,-8.948981762E-3,6.344699860E-2
3.868683376E0,-5.871236324E-2,-4.270225763E-3,5.883598328E-2
3.876678692E0,-4.558515549E-2,1.234722137E-2,4.225158691E-2
3.884673854E0,-5.400896072E-2,2.423954010E-2,5.200672150E-2
3.892669556E0,-6.041979790E-2,2.434447408E-2,3.058528900E-2
3.900697257E0,-4.089260101E-2,2.930212021E-2,4.262161255E-2
3.908691420E0,-4.297935963E-2,2.005526423E-2,4.028892517E-2
3.916687120E0,-4.509365559E-2,-1.086026430E-3,4.992485046E-2
3.924683668E0,-9.014725685E-3,-7.932215929E-3,3.559875488E-2
3.932678831E0,-1.128482819E-2,-1.487094164E-2,4.520511627E-2
3.940675685E0,-1.581180096E-2,6.892681122E-3,3.328323364E-2
3.948668924E0,-1.055419445E-2,1.433020830E-2,2.618408203E-2
3.956695472E0,2.035975456E-3,1.447215676E-2,2.149963379E-2
3.964692019E0,-6.811022758E-3,-2.037853003E-3,3.838348389E-2
3.972687104E0,-1.537430286E-2,1.979503036E-2,3.376579285E-2
3.980683190E0,-9.397864342E-3,3.431391716E-2,3.635406494E-2
3.988678507E0,-7.387399673E-4,3.690943122E-2,4.856586456E-2
3.996673054E0,-3.752946854E-3,4.421919584E-2,5.842876434E-2
4.004700447E0,-1.854145527E-2,8.524894714E-3,7.072067261E-2
4.012695764E0,-3.082430363E-2,8.755475283E-3,7.106018066E-2
4.020692157E0,-2.398014069E-2,6.612271070E-3,7.379055023E-2
4.028686627E0,-4.116940498E-2,-9.961217642E-3,5.735206604E-2
4.036682559E0,-6.565606594E-2,2.130931616E-2,3.849887848E-2
4.044678645E0,-6.648731232E-2,2.092838287E-3,3.395652771E-2
4.052673115E0,-8.650362492E-2,2.843078971E-2,1.504802704E-2
4.060700431E0,-7.773315907E-2,3.079378605E-2,-8.641242981E-3
4.068696210E0,-8.610796928E-2,3.814169765E-2,-1.260757446E-3
4.076691834E0,-8.023917675E-2,2.172833681E-2,3.005123138E-2
4.084687227E0,-7.946562767E-2,2.702209353E-2,4.455947876E-2
4.092682313E0,-5.965852737E-2,1.086369157E-2,5.187034607E-2
4.100678706E0,-2.084112167E-2,6.759732962E-3,7.592105865E-2
4.108673715E0,-3.534674644E-3,9.606629610E-3,6.405639648E-2
4.116669185E0,-5.297541618E-3,5.259901285E-3,9.290409088E-2
4.124695578E0,3.108978271E-4,3.115177155E-3,6.192111969E-2
4.132690972E0,-1.004695892E-3,3.914111853E-2,3.336811066E-2
4.140687903E0,-1.173090935E-2,3.431057930E-2,3.356742859E-2
4.148682451E0,-1.747858524E-2,4.141402245E-2,5.064964294E-3
4.156678075E0,-4.700851440E-2,2.942675352E-2,1.489734650E-2
4.164673853E0,-5.994176865E-2,2.215385437E-2,2.709674835E-2
4.172699015E0,-8.486533165E-2,3.028273582E-3,1.774883270E-2
4.180695640E0,-9.095299244E-2,-1.359206438E-2,3.708457947E-2
4.188689879E0,-7.574474812E-2,5.668193102E-3,3.722476959E-2
4.196686426E0,-6.806361675E-2,2.249374986E-2,6.364440918E-2
4.204681589E0,-5.597817898E-2,1.778870821E-2,4.690647125E-2
4.212676982E0,-1.785874367E-2,3.000360727E-2,6.125164032E-2
4.220675068E0,3.260970116E-3,3.504487872E-2,5.879783630E-2
4.228699461E0,2.922439575E-2,4.011839628E-2,7.311344147E-2
4.236695085E0,4.592144489E-2,4.523694515E-3,8.029937744E-2
4.244690479E0,4.651176929E-2,-2.380520105E-3,8.998203278E-2
4.252686179E0,2.371382713E-2,-4.511862993E-3,5.665874481E-2
4.260681958E0,-8.235931396E-3,1.008385420E-2,4.016208649E-2
4.268677274E0,-3.520119190E-2,1.982763410E-2,4.045486450E-2
4.276672745E0,-9.084606171E-2,1.049908996E-2,2.639389038E-2
4.284700137E0,-1.061387062E-1,-1.569017768E-2,3.142642975E-2
4.292695146E0,-8.580505848E-2,3.529787064E-3,1.965045929E-2
4.300691463E0,-9.214258194E-2,-1.555347443E-2,1.739692688E-2
4.308685394E0,-9.651601315E-2,-1.076251268E-2,3.422355652E-2
4.316681326E0,-1.009627581E-1,-2.753156424E-2,4.385662079E-2
4.324677951E0,-7.677817345E-2,-2.513155341E-2,6.065464020E-2
4.332673037E0,-5.038678646E-2,1.556488872E-2,7.263469696E-2
4.340699814E0,-5.039274693E-2,1.560738683E-2,7.981681824E-2
4.348693746E0,-4.108500481E-2,2.293735743E-2,7.738590240E-2
4.356690370E0,-3.680860996E-2,3.261983395E-2,7.730674744E-2
4.364685764E0,-3.755664825E-2,2.080288529E-2,6.043148041E-2
4.372681464E0,-1.937556267E-2,3.279796243E-2,5.069732666E-2
4.380678012E0,-1.794087887E-2,2.559494972E-2,3.617477417E-2
4.388672175E0,-1.163136959E-2,3.503772616E-2,2.884578705E-2
4.396698414E0,-3.378009796E-2,2.295774221E-2,1.335144043E-5
4.404695269E0,-7.797360420E-3,3.009450436E-2,7.136344910E-3
4.412689739E0,-3.433716297E-2,3.764152527E-3,9.497642517E-3
4.420686441E0,-4.642820358E-2,8.484154940E-3,2.863025665E-2
4.428681526E0,-5.605852604E-2,8.488714695E-3,6.692886353E-2
4.436677150E0,-3.949236870E-2,-6.071060896E-3,6.210041046E-2
4.444672928E0,-3.993082047E-2,5.688041449E-3,5.483818054E-2
4.452698705E0,-3.584086895E-2,3.182142973E-2,4.992866516E-2
4.460695022E0,-2.722442150E-2,2.202934027E-2,5.694770813E-2
4.468689493E0,-3.060996532E-2,1.689195633E-2,5.198478699E-2
4.476685271E0,-4.363369942E-2,9.430617094E-3,4.701519012E-2
4.484681817E0,-5.427706242E-2,1.634466648E-2,5.162048340E-2
4.492676288E0,-3.615033627E-2,2.817600965E-2,3.947734833E-2
4.500673220E0,-3.496766090E-2,3.282347322E-2,5.364131927E-2
4.508698151E0,-4.103457928E-2,1.365771890E-2,5.104064941E-2
4.516693853E0,-2.555942535E-2,6.609261036E-3,6.041526794E-2
4.524690477E0,-5.278825760E-3,-2.439668775E-2,6.021595001E-2
4.532684409E0,1.757884026E-2,-2.764105797E-3,6.004524231E-2
4.540680725E0,3.606081009E-2,2.351248264E-2,6.232929230E-2
4.548676426E0,6.207883358E-2,1.857072115E-3,7.663822174E-2
4.556671820E0,5.508315563E-2,8.910685778E-3,4.314422607E-2
4.564698289E0,2.464449406E-2,2.290785313E-2,4.324054718E-2
4.572693991E0,2.123260498E-2,2.737954259E-2,3.387260437E-2
4.580690846E0,-1.049995422E-2,1.751309633E-2,2.217864990E-2
4.588685086E0,-2.529764175E-2,1.000943780E-2,1.769447327E-2
4.596680170E0,-4.954874516E-2,2.178987861E-2,4.196548462E-2
4.604676795E0,-8.591043949E-2,1.431548595E-2,4.226875305E-2
4.612672112E0,-7.702684402E-2,1.886525750E-2,4.253482819E-2
4.620698967E0,-1.069040298E-1,3.296676278E-2,3.315067291E-2
4.628693975E0,-9.915661812E-2,3.516012430E-2,4.281139374E-2
4.636689676E0,-8.459401131E-2,3.250396252E-2,3.325653076E-2
4.644684839E0,-5.606472492E-2,1.080793142E-2,2.124595642E-2
4.652679924E0,-3.502786160E-2,2.265164256E-2,2.594757080E-2
4.660676779E0,-4.037833214E-2,1.065576077E-2,3.303813934E-2
4.668671942E0,-2.180337906E-2,-2.050691843E-2,2.336597443E-2
4.676698028E0,-1.281392574E-2,1.298296452E-2,4.721164703E-2
4.684693497E0,-2.048778534E-2,2.969342470E-2,3.276443481E-2
4.692688583E0,5.966424942E-4,1.528152823E-2,4.226493835E-2
4.700686054E0,4.981994629E-3,4.160121083E-2,4.219818115E-2
4.708680216E0,-4.869580269E-3,2.249699831E-2,4.933834076E-2
4.716675686E0,4.460453987E-3,1.306578517E-2,4.451560974E-2
4.724671695E0,-2.200889587E-2,1.260370016E-3,5.886554718E-2
4.732697551E0,-1.483988762E-2,1.330864429E-2,5.168437958E-2
4.740693789E0,-3.398442268E-2,-1.540234685E-2,5.886936188E-2
4.748688875E0,-2.454555035E-2,1.568686962E-2,4.687500000E-2
4.756684577E0,-2.245700359E-2,2.272039652E-2,3.245353699E-2
4.764680662E0,-4.193079472E-2,5.786478519E-3,3.239536285E-2
4.772675748E0,-5.670726299E-2,-1.478612423E-3,2.274894714E-2
4.780671987E0,-3.561389446E-2,5.632668734E-3,2.746105194E-2
4.788697535E0,-2.647197247E-2,2.709451318E-2,2.978134155E-2
4.796693235E0,-5.324101448E-2,7.819741964E-3,3.210067749E-2
4.804689244E0,-2.245736122E-2,2.935001254E-2,4.162311554E-2
4.812684022E0,-4.192817211E-2,1.963549852E-2,6.790161133E-2
4.820680107E0,-3.512620926E-2,1.951533556E-2,5.825805664E-2
4.828674886E0,-1.146781445E-2,3.137859702E-2,6.299686432E-2
4.836671125E0,-4.565477371E-3,6.484094262E-2,5.816173553E-2
4.844698211E0,-7.016777992E-3,4.813477397E-2,6.294250488E-2
4.852693065E0,3.131318092E-2,1.230677962E-2,7.013225555E-2
4.860689305E0,2.881050110E-3,-1.862019300E-3,7.497692108E-2
4.868683853E0,8.317708969E-3,7.695436478E-3,7.747364044E-2
4.876679861E0,-5.086064339E-3,-1.996815205E-3,6.565475464E-2
4.884675870E0,-3.504121304E-2,-1.409026980E-2,3.471374512E-2
4.892670571E0,-4.104793072E-2,2.435147762E-3,2.531719208E-2
4.900697734E0,-7.835125923E-2,2.844431996E-2,3.025627136E-2
4.908692511E0,-8.230710030E-2,-1.020586491E-2,1.361846924E-2
4.916688213E0,-1.079633236E-1,2.774652839E-2,-3.044128418E-3
4.924683222E0,-8.363986015E-2,4.410159588E-2,8.974075317E-3
4.932679614E0,-8.844816685E-2,4.374361038E-2,2.092647552E-2
4.940675623E0,-6.252717972E-2,1.724797487E-2,3.282451630E-2
4.948670632E0,-4.151642323E-2,1.706412435E-2,4.948902130E-2
4.956697410E0,-1.818954945E-2,2.413821220E-2,5.178070068E-2
4.964693111E0,3.143036366E-2,4.082936049E-2,5.885314941E-2
4.972688274E0,3.096830845E-2,1.452594995E-2,7.793331146E-2
4.980685437E0,5.226707458E-2,1.938289404E-2,6.113624573E-2
4.988679369E0,5.256021023E-2,-2.133280039E-3,6.118488312E-2
4.996674146E0,5.093085766E-2,4.924684763E-3,4.215049744E-2
5.004671078E0,3.302693367E-2,1.191332936E-2,4.473972321E-2
5.012696318E0,2.024543285E-2,-2.698302269E-4,2.104568481E-2
5.020693172E0,-1.853561401E-2,1.140752435E-2,2.374076843E-2
5.028688258E0,-3.550016880E-2,2.534380555E-2,2.408027649E-2
5.036683344E0,-6.928241253E-2,8.193254471E-3,2.920055389E-2
5.044679737E0,-8.190381527E-2,1.018729806E-2,2.228641510E-2
5.052674745E0,-1.023241282E-1,3.383639455E-2,2.485370636E-2
5.060671139E0,-1.401320696E-1,1.920458674E-2,2.731895447E-2
5.068696379E0,-1.377499104E-1,4.703909159E-3,1.773452759E-2
5.076692002E0,-1.261353493E-1,3.340375423E-2,3.443527222E-2
5.084688319E0,-8.139586449E-2,2.380558848E-2,5.346584320E-2
5.092683482E0,-4.672646523E-2,6.422400475E-5,7.242393494E-2
5.100679414E0,-3.148567677E-2,-4.587680101E-3,7.936382294E-2
5.108674191E0,2.186715603E-2,-3.315076232E-2,7.909202576E-2
5.116669969E0,2.988314629E-2,-2.594545484E-2,1.027803421E-1
5.124697055E0,5.282723904E-2,-2.206563950E-3,7.148647308E-2
5.132691217E0,2.615380287E-2,9.436964989E-3,7.381343842E-2
5.140688072E0,1.441764832E-2,1.872009039E-2,5.468654633E-2
5.148683158E0,-2.556800842E-2,4.716694355E-2,4.760932922E-2
5.156678629E0,-4.146409035E-2,3.987073898E-2,4.535007477E-2
5.164674560E0,-5.960690975E-2,3.266957402E-2,2.636051178E-2
5.172700415E0,-6.104111671E-2,1.819801331E-2,2.890777588E-2
5.180696732E0,-4.338645935E-2,8.640140295E-3,4.102420807E-2
5.188691278E0,-3.063917160E-2,2.782332897E-2,2.439308167E-2
5.196687826E0,-3.706455231E-2,2.783775330E-2,4.127597809E-2
5.204683604E0,-2.440369129E-2,1.833277941E-2,5.336284637E-2
5.212678613E0,-4.542517662E-2,3.264868259E-2,6.062889099E-2
5.220675544E0,-7.608330250E-2,1.370191574E-3,3.436374664E-2
5.228700553E0,-7.828927040E-2,2.750092745E-2,1.523303986E-2
5.236695870E0,-6.177484989E-2,3.918281198E-2,1.996994019E-2
5.244691341E0,-6.225144863E-2,7.064342499E-4,7.914543152E-3
5.252687887E0,-6.062245369E-2,5.310148001E-3,1.017761230E-2
5.260683973E0,-4.028332233E-2,-1.389691234E-2,1.237201691E-2
5.268678444E0,-3.405094147E-3,7.613837719E-3,2.171421051E-2
5.276674452E0,2.466917038E-3,4.938542843E-4,4.544544220E-2
5.284700614E0,3.001368046E-2,1.724764705E-2,5.722427368E-2
5.292695931E0,6.024551392E-2,1.247608662E-2,4.989719391E-2
5.300692863E0,4.535281658E-2,1.964733005E-2,9.051227570E-2
5.308687333E0,3.323817253E-2,1.478090882E-2,8.090972900E-2
5.316682726E0,4.543757439E-2,1.709249616E-2,7.376003265E-2
5.324679043E0,3.655385971E-2,3.125482798E-2,4.992294312E-2
5.332673282E0,1.858103275E-2,1.910448074E-2,4.771518707E-2
5.340700676E0,9.570121765E-4,2.378475666E-2,5.274772644E-2
5.348695685E0,-2.817559242E-2,-2.703189850E-3,4.827785492E-2
5.356690771E0,-6.688439846E-2,9.109765291E-3,1.986694336E-2
5.364687702E0,-8.654785156E-2,2.573114634E-2,2.735137939E-2
5.372682864E0,-8.493483067E-2,1.363015175E-2,3.239822388E-2
5.380679489E0,-1.075812578E-1,1.099696755E-2,3.260040283E-2
5.388673266E0,-1.066391468E-1,-1.078099012E-2,1.598739624E-2
5.396699814E0,-1.228858232E-1,1.519224048E-2,2.802848816E-2
5.404695515E0,-1.107238531E-1,1.732236147E-2,3.283786774E-2
5.412690832E0,-1.156831980E-1,2.192425728E-2,3.519725800E-2
5.420688147E0,-9.473586082E-2,2.180051804E-2,4.227638245E-2
5.428682310E0,-7.185852528E-2,2.571672201E-3,6.125259399E-2
5.436677627E0,-3.490281105E-2,1.696646214E-2,6.582164764E-2
5.444674327E0,-2.947568893E-3,-6.900131702E-3,6.317424774E-2
5.452699259E0,4.096889496E-2,7.553696632E-3,5.095005035E-2
5.460696422E0,7.084774971E-2,7.596224546E-3,5.793190002E-2
5.468690047E0,8.204817772E-2,1.246085763E-2,6.259727478E-2
5.476686285E0,5.800652504E-2,5.034506321E-4,4.103374481E-2
5.484682294E0,3.686571121E-2,2.910390496E-2,2.912425995E-2
5.492678303E0,1.791715622E-3,1.945987344E-2,3.644084930E-2
5.500674311E0,-2.120876312E-2,2.896112204E-2,1.983261108E-2
5.508699013E0,-6.827080250E-2,1.694801450E-2,2.235794067E-2
5.516695560E0,-8.682346344E-2,1.689893007E-2,2.484893799E-2
5.524691262E0,-8.417189121E-2,4.781156778E-3,1.770305634E-2
5.532685731E0,-8.886003494E-2,1.182931662E-2,3.686809540E-2
5.540682356E0,-8.197295666E-2,-1.970827579E-4,4.639434814E-2
5.548677518E0,-5.626308918E-2,2.611562610E-2,3.432083130E-2
5.556672527E0,-3.334426880E-2,1.175817847E-2,5.809593201E-2
5.564699612E0,-2.012991905E-2,2.617514133E-2,4.593849182E-2
5.572694160E0,1.845359802E-4,2.619466186E-2,4.334449768E-2
5.580691015E0,4.692375660E-2,2.143779397E-2,6.231307983E-2
5.588685792E0,3.894460201E-2,1.191616058E-2,4.303169250E-2
5.596682186E0,3.370714188E-2,7.093667984E-3,5.732250214E-2
5.604677272E0,3.134942055E-2,2.228498459E-3,5.972003937E-2
5.612672666E0,2.459681034E-2,2.002984285E-3,4.781055450E-2
5.620699674E0,-1.779925823E-2,-6.041824818E-4,5.270481110E-2
5.628694529E0,-1.226031780E-2,8.709847927E-3,3.126907349E-2
5.636690230E0,-3.774845600E-2,1.325094700E-2,4.576301575E-2
5.644686777E0,-4.414999485E-2,2.020436525E-2,2.912235260E-2
5.652681247E0,-7.221782207E-2,2.249357104E-2,4.119682312E-2
5.660678487E0,-7.410407066E-2,2.962577343E-2,4.606628418E-2
5.668672727E0,-9.300434589E-2,8.066475391E-3,4.610729218E-2
5.676698889E0,-8.346641064E-2,1.518934965E-2,4.609870911E-2
5.684694898E0,-7.165551186E-2,2.942264080E-2,5.564403534E-2
5.692689983E0,-7.204592228E-2,4.594343901E-2,4.599475861E-2
5.700686530E0,-4.621064663E-2,1.710531116E-2,2.196693420E-2
5.708681308E0,-2.288138866E-2,1.939770579E-2,2.425861359E-2
5.716677394E0,7.671236992E-3,9.747743607E-3,3.852748871E-2
5.724673095E0,1.917958260E-2,3.302097321E-5,5.041694641E-2
5.732698950E0,2.295374870E-3,4.779040813E-3,3.842449188E-2
5.740694882E0,-1.182198524E-2,2.451539040E-3,6.480312347E-2
5.748689737E0,-3.794085979E-2,2.585768700E-3,6.723880768E-2
5.756685360E0,-6.714534760E-2,1.456776261E-2,6.716156006E-2
5.764681754E0,-6.792533398E-2,1.210913062E-2,4.787921906E-2
5.772676763E0,-5.416011810E-2,7.305920124E-3,3.820323944E-2
5.780673387E0,7.595062256E-3,-1.679834723E-2,3.093338013E-2
5.788698395E0,-4.856467247E-3,-4.879623652E-3,3.085327148E-2
5.796694943E0,-2.208817005E-2,9.427666664E-3,3.077507019E-2
5.804689798E0,-1.784253120E-2,-9.071826935E-5,4.266071320E-2
5.812685115E0,-3.517341614E-2,2.343118191E-3,4.256916046E-2
5.820682046E0,2.624034882E-3,2.151954174E-2,4.248714447E-2
5.828676209E0,-7.387161255E-3,1.441767812E-2,4.002475739E-2
5.836672833E0,-1.015996933E-2,4.077094793E-2,3.038692474E-2
5.844699072E0,-1.272451878E-2,2.648374438E-2,3.515148163E-2
5.852693773E0,-1.999235153E-2,7.369816303E-3,4.471588135E-2
5.860690167E0,-1.523733139E-2,1.811683178E-4,4.231643677E-2
5.868685484E0,-1.028704643E-2,1.446744800E-2,5.431079865E-2
5.876680645E0,-1.238489151E-2,1.923745871E-2,5.435752869E-2
5.884676347E0,1.442992687E-2,1.758337021E-6,4.006671906E-2
5.892671433E0,7.919073105E-4,7.450580597E-6,5.215740204E-2
5.900698748E0,-2.703964710E-2,1.922422647E-2,5.469894409E-2
5.908693911E0,-7.169520855E-2,-7.155060768E-3,4.525566101E-2
5.916690151E0,-1.022108793E-1,7.158994675E-3,3.577613831E-2
5.924685622E0,-1.161930561E-1,2.130424976E-2,1.667690277E-2
5.932681014E0,-1.113731861E-1,2.605417371E-2,9.497642517E-3
5.940676408E0,-9.990286827E-2,1.883205771E-2,2.138614655E-2
5.948671417E0,-6.965708733E-2,2.600651979E-2,1.166629791E-2
5.956697656E0,-3.977787495E-2,1.886209846E-2,2.822494507E-2
5.964694588E0,-1.246130466E-2,9.288191795E-3,3.278446198E-2
5.972688366E0,1.724231243E-2,-7.500886917E-3,3.015708923E-2
5.980685606E0,2.313065529E-2,-2.657979727E-3,4.671001434E-2
5.988681075E0,3.647542000E-2,-1.210349798E-2,7.288455963E-2
5.996675854E0,2.869021893E-2,-1.434946060E-2,8.476352692E-2
6.004672170E0,1.410400867E-2,2.568006516E-3,8.233928680E-2
6.012697640E0,1.172089577E-2,-4.504323006E-3,7.516384125E-2
6.020693726E0,-1.924979687E-2,9.917795658E-3,7.279682159E-2
6.028688504E0,-1.411664486E-2,1.956570148E-2,4.412364960E-2
6.036685359E0,1.032173634E-2,3.637421131E-2,4.420661926E-2
6.044680829E0,-1.536405087E-2,1.966238022E-2,1.319026947E-2
6.052675607E0,-4.578137398E-2,2.203756571E-2,1.569747925E-2
6.060703232E0,-6.195569038E-2,1.964926720E-2,3.255176544E-2
6.068698316E0,-8.552765846E-2,2.694022655E-2,4.698085785E-2
6.076693710E0,-9.747517109E-2,4.127001762E-2,3.022384644E-2
6.084688488E0,-8.344304562E-2,2.689626813E-2,1.819896698E-2
6.092684267E0,-7.212018967E-2,1.956540346E-2,2.287673950E-2
6.100681121E0,-3.940236568E-2,-9.272038937E-3,4.189586639E-2
6.108675361E0,-1.884865761E-2,4.917770624E-3,4.651737213E-2
6.116701523E0,6.470084190E-3,4.761725664E-3,4.155826569E-2
6.124697840E0,2.224659920E-2,9.480714798E-3,5.576133728E-2
6.132693464E0,3.102862835E-2,2.626758814E-2,4.845142365E-2
6.140690088E0,2.085852623E-2,1.440238953E-2,8.427333832E-2
6.148684020E0,2.543103695E-2,-2.364963293E-3,7.226657867E-2
6.156679951E0,1.861107349E-2,7.178366184E-3,6.035327911E-2
6.164676268E0,4.945039749E-3,9.473115206E-3,5.567359924E-2
6.172701508E0,-1.323974133E-2,2.137106657E-2,4.146289825E-2
6.180698132E0,-6.495857239E-2,2.221167088E-3,3.682804108E-2
6.188692371E0,-6.885147095E-2,2.859649062E-2,4.176330566E-2
6.196688688E0,-7.544183731E-2,7.155209780E-3,3.228664398E-2
6.204685004E0,-7.999646664E-2,2.160006762E-2,2.275085449E-2
6.212679166E0,-6.093597412E-2,7.319509983E-3,8.374214172E-3
6.220675714E0,-4.449117184E-2,3.132569790E-2,2.508354187E-2
6.228701338E0,-9.053111076E-3,1.942148805E-2,2.740383148E-2
6.236696962E0,-1.445329189E-2,-2.024233341E-3,4.885673523E-2
6.244693278E0,-2.897381783E-3,1.474708319E-2,4.160785675E-2
6.252688441E0,-6.349086761E-4,1.944276690E-2,4.397583008E-2
6.260684450E0,1.819729805E-3,2.646473050E-2,4.876899719E-2
6.268679150E0,-9.969353676E-3,1.188358665E-2,4.639625549E-2
6.276675236E0,-3.133988380E-2,1.168125868E-2,3.923416138E-2
6.284701707E0,-2.881515026E-2,6.717324257E-3,4.643249512E-2
6.292697100E0,-4.074585438E-2,9.009152651E-3,4.643440247E-2
6.300693724E0,-5.041670799E-2,9.014844894E-3,4.881286621E-2
6.308688194E0,-2.912580967E-2,-7.733285427E-3,3.440761566E-2
6.316683511E0,-1.511752605E-2,-1.232239604E-2,3.435707092E-2
6.324680211E0,-2.985489368E-2,-1.227310300E-2,4.387569427E-2
6.332674913E0,-2.774918079E-2,2.202510834E-3,5.101585388E-2
6.340702076E0,-2.071142197E-2,1.419803500E-2,6.296348572E-2
6.348697392E0,-2.799403667E-2,4.048213363E-2,4.618644714E-2
6.356692785E0,-4.229831696E-2,4.045245051E-2,2.464675903E-2
6.364688256E0,-3.035557270E-2,3.806361556E-2,3.900814056E-2
6.372683034E0,-3.043031693E-2,2.136924863E-2,4.618167877E-2
6.380679657E0,-3.054118156E-2,-2.482354641E-3,5.095481873E-2
6.388674974E0,-2.364301682E-2,1.671725512E-2,4.133415222E-2
6.396700906E0,-2.635145187E-2,2.383849025E-2,4.367446899E-2
6.404697530E0,-2.916014194E-2,2.622058988E-2,4.360771179E-2
6.412692231E0,-6.085062027E-2,-1.429915428E-4,4.830360413E-2
6.420688855E0,-4.476058483E-2,-1.443564892E-2,3.383255005E-2
6.428683403E0,-4.065918922E-2,4.854530096E-3,3.133296967E-2
6.436679335E0,-7.880687714E-3,9.794116020E-3,4.319000244E-2
6.444675112E0,9.517669678E-4,1.471498609E-2,2.871036530E-2
6.452700352E0,9.847998619E-3,2.437674999E-2,3.339195251E-2
6.460696668E0,-1.696610451E-2,7.799595594E-3,5.247497559E-2
6.468692369E0,-1.495385170E-2,7.988989353E-3,6.918144226E-2
6.476686839E0,-8.018255234E-3,3.341853619E-3,4.041671753E-2
6.484683771E0,1.370668411E-3,1.544216275E-2,4.278469086E-2
6.492678473E0,-1.780688763E-2,8.328616619E-3,5.714797974E-2
6.500675096E0,-1.290822029E-2,3.560036421E-3,5.237865448E-2
6.508700413E0,-2.708530426E-2,1.794943213E-2,4.522705078E-2
6.516696345E0,-1.486289501E-2,2.753952146E-2,4.047966003E-2
6.524692122E0,-1.934838295E-2,1.085412502E-2,5.250167847E-2
6.532687208E0,-3.098511696E-2,2.046459913E-2,3.819274902E-2
6.540684756E0,-1.387512684E-2,2.056035399E-2,3.825283051E-2
6.548678919E0,-2.783203125E-2,1.826822758E-2,4.789829254E-2
6.556674003E0,-2.272939682E-2,2.323949337E-2,4.795646667E-2
6.564700474E0,-3.930640221E-2,2.338767052E-2,4.559707642E-2
6.572695483E0,-5.832850933E-2,6.716191769E-3,2.886199951E-2
6.580693030E0,-6.788563728E-2,6.753712893E-3,5.759620667E-2
6.588687269E0,-5.361723900E-2,1.630583405E-2,3.603363037E-2
6.596682971E0,-3.216564655E-2,1.862272620E-2,2.643775940E-2
6.604678980E0,-3.457391262E-2,-6.786286831E-4,4.318904877E-2
6.612673757E0,-3.457200527E-2,2.316159010E-2,3.839778900E-2
6.620701381E0,-1.289737225E-2,3.033629060E-2,4.081153870E-2
6.628695313E0,-1.266622543E-2,2.802774310E-2,4.085254669E-2
6.636691244E0,-1.467037201E-2,3.290075064E-2,5.767822266E-2
6.644687330E0,-2.147436142E-2,1.137360930E-2,4.816246033E-2
6.652682647E0,-3.073096275E-2,6.617009640E-3,6.497573853E-2
6.660678964E0,-4.953324795E-2,2.341833711E-2,5.066871643E-2
6.668674356E0,-5.177688599E-2,9.214758873E-3,4.112148285E-2
6.676699366E0,-6.138181686E-2,9.331285954E-3,4.591083527E-2
6.684695913E0,-4.960262775E-2,1.657879353E-2,3.869915009E-2
6.692691691E0,-3.558325768E-2,2.383852005E-2,2.667522430E-2
6.700687392E0,-7.169127464E-3,1.185902953E-2,9.863853455E-3
6.708682478E0,-2.659547329E-2,-1.204314828E-2,3.376388550E-2
6.716677794E0,-2.754926682E-3,9.481310844E-3,4.332351685E-2
6.724673879E0,-2.659559250E-2,3.097000718E-2,3.376007080E-2
6.732699427E0,-1.689851284E-2,2.145203948E-2,4.335880280E-2
6.740696282E0,-1.437044144E-2,2.636063099E-2,5.535697937E-2
6.748691137E0,-2.367639542E-2,1.450940967E-2,6.737613678E-2
6.756686530E0,-3.538870811E-2,3.149974346E-2,5.306053162E-2
6.764682462E0,-1.355600357E-2,2.920269966E-3,6.029605865E-2
6.772677932E0,-1.564061642E-2,6.416440010E-4,3.880119324E-2
6.780674171E0,-2.481627464E-2,7.999837399E-3,3.647899628E-2
6.788700103E0,-2.677583694E-2,2.007803321E-2,4.134178162E-2
6.796694574E0,-2.633774281E-2,-3.762781620E-3,4.620456696E-2
6.804690583E0,-3.075289726E-2,-1.203447580E-3,3.669452667E-2
6.812686206E0,-4.966342449E-2,1.563557982E-2,2.955341339E-2
6.820683446E0,-6.383955479E-2,1.093119383E-2,2.719402313E-2
6.828678224E0,-7.578396797E-2,8.535623550E-3,2.480316162E-2
6.836673694E0,-7.825410366E-2,2.050292492E-2,2.718544006E-2
6.844699857E0,-7.855165005E-2,1.575064659E-2,4.629325867E-2
6.852695481E0,-5.512678623E-2,2.297154069E-2,3.902721405E-2
6.860691567E0,-4.373645782E-2,2.305969596E-2,3.654289246E-2
6.868686652E0,-2.297759056E-2,3.282496333E-2,4.121112823E-2
6.876682353E0,5.733966827E-5,-2.881467342E-3,4.825496674E-2
6.884677747E0,3.942608833E-3,-7.544189692E-3,5.050945282E-2
6.892672524E0,2.001953125E-2,-2.415668964E-2,5.758666992E-2
6.900700149E0,7.830262184E-3,7.023841143E-3,4.318809509E-2
6.908694696E0,7.901072502E-3,9.476989508E-3,5.756664276E-2
6.916690090E0,8.053898811E-3,4.764795303E-3,6.717109680E-2
6.924686405E0,-3.002035618E-2,9.802669287E-3,5.285358429E-2
6.932681107E0,-2.972793579E-2,1.712426543E-2,5.769348145E-2
6.940678731E0,-5.331850052E-2,4.591682553E-2,4.338836670E-2
6.948672585E0,-3.145182133E-2,3.877890110E-2,2.907562256E-2
6.956698748E0,-2.156364918E-2,4.126664996E-2,1.955223083E-2
6.964695065E0,-3.572511673E-2,3.886675835E-2,2.198028564E-2
6.972690382E0,-3.310322762E-2,2.933555841E-2,2.201843262E-2
6.980686774E0,-3.545069695E-2,3.885883093E-2,2.920627594E-2
6.988680860E0,-3.798484802E-2,3.891563416E-2,2.918624878E-2
6.996677485E0,-2.613401413E-2,-6.436496973E-3,3.396034241E-2
7.004673877E0,-4.083704948E-2,1.523861289E-2,4.348659515E-2
7.012698425E0,-5.316483974E-2,1.289650798E-2,3.625011444E-2
7.020695434E0,-5.113875866E-2,8.112967014E-3,3.858375549E-2
7.028689827E0,-3.962278366E-2,5.650818348E-3,3.132534027E-2
7.036685528E0,-3.782808781E-2,5.679726601E-3,3.601932526E-2
7.044681844E0,-3.120064735E-2,1.043984294E-2,5.268764496E-2
7.052676699E0,1.885533333E-3,3.222405910E-3,4.782772064E-2
7.060704401E0,-1.032269001E-2,1.990970969E-2,6.454753876E-2
7.068698486E0,-9.349584579E-4,1.742282510E-2,3.817653656E-2
7.076694495E0,3.677487373E-3,2.921620011E-2,4.532432556E-2
7.084689273E0,6.539106369E-3,2.435588837E-2,4.779052734E-2
7.092685358E0,7.284879684E-3,1.000380516E-2,5.269908905E-2
7.100682213E0,-2.059841156E-2,1.498118043E-2,4.087257385E-2
7.108676453E0,-2.455544472E-2,3.283709288E-3,5.538272858E-2
7.116703231E0,-5.489289761E-2,-6.193101406E-3,4.354190826E-2
7.124698624E0,-5.652678013E-2,2.021738887E-2,4.127407074E-2
7.132694556E0,-2.712333202E-2,-2.032512426E-2,2.702331543E-2
7.140690257E0,-5.056929588E-2,1.321032643E-2,2.470970154E-2
7.148685419E0,-5.036461353E-2,3.962868452E-2,1.756286621E-2
7.156681351E0,-4.548692703E-2,2.777537704E-2,2.476501465E-2
7.164676206E0,-5.020344257E-2,-8.073747158E-4,1.281070709E-2
7.172702908E0,-5.263304710E-2,-7.325112820E-4,3.674983978E-2
7.180698300E0,-3.838217258E-2,-1.264849305E-2,4.391574860E-2
7.188694002E0,-4.335057735E-2,2.565047145E-2,5.585861206E-2
7.196689703E0,-5.801379681E-2,3.045183420E-2,5.341529846E-2
7.204685403E0,-2.731418610E-2,8.953541517E-3,5.574321747E-2
7.212680797E0,-2.314352989E-2,-5.233883858E-4,5.085945129E-2
7.220677498E0,-1.417589188E-2,-3.743767738E-4,4.119014740E-2
7.228701815E0,-9.882926941E-3,4.490733147E-3,4.590129852E-2
7.236698054E0,6.485223770E-3,2.136471868E-2,4.584312439E-2
7.244693832E0,-1.031804085E-2,3.816932440E-2,4.344272614E-2
7.252689456E0,-2.197396755E-2,3.343513608E-2,3.152465820E-2
7.260684849E0,-1.183044910E-2,4.546526074E-2,2.204227448E-2
7.268681166E0,-1.826047897E-2,2.638378739E-2,4.371356964E-2
7.276676021E0,-2.954447269E-2,1.931741834E-2,3.904056549E-2
7.284703107E0,-5.040335655E-2,1.688849926E-2,4.633331299E-2
7.292698115E0,-8.104526997E-2,4.880249500E-3,4.401493073E-2
7.300694509E0,-7.120537758E-2,2.451092005E-3,3.926753998E-2
7.308689825E0,-7.356274128E-2,-2.373218536E-3,4.884910583E-2
7.316684603E0,-7.123506069E-2,2.405822277E-3,5.362701416E-2
7.324681304E0,-6.679749489E-2,1.429018378E-2,4.159641266E-2
7.332675697E0,-5.053067207E-2,2.385470271E-2,2.715110779E-2
7.340703706E0,-2.228939533E-2,4.297956824E-2,3.185939789E-2
7.348697638E0,1.093149185E-3,2.378195524E-2,4.613304138E-2
7.356693339E0,-4.127979279E-3,1.908725500E-2,3.409481049E-2
7.364688963E0,9.912729263E-3,3.592836857E-2,3.404521942E-2
7.372684357E0,4.942417145E-3,-6.994515657E-3,5.317687988E-2
7.380681596E0,7.201910019E-3,1.706299186E-2,5.794715881E-2
7.388676374E0,-4.701018333E-3,1.717498899E-2,5.317401886E-2
7.396701691E0,-4.511952400E-3,1.244652271E-2,5.081367493E-2
7.404698237E0,-2.348613739E-2,1.963859797E-2,5.563163757E-2
7.412692708E0,-2.078199387E-2,7.626593113E-3,4.370784760E-2
7.420690024E0,-2.990043163E-2,3.150570393E-2,2.462577820E-2
7.428684187E0,-2.712500095E-2,2.186259627E-2,1.989650726E-2
7.436679503E0,-2.186655998E-2,1.708149910E-2,3.433895111E-2
7.444675589E0,-6.219029427E-2,3.261566162E-4,2.961063385E-2
7.452701060E0,-4.512286186E-2,3.395199776E-2,2.008819580E-2
7.460699221E0,-4.723608494E-2,4.592457414E-2,2.013301849E-2
7.468693153E0,-5.417752266E-2,2.920275927E-2,2.975082397E-2
7.476688778E0,-5.645978451E-2,1.486071944E-2,2.498149872E-2
7.484684787E0,-4.944181442E-2,3.646323085E-2,3.213977814E-2
7.492679564E0,-4.727947712E-2,1.738643646E-2,4.647064209E-2
7.500676189E0,-4.041385651E-2,1.503130794E-2,5.120944977E-2
7.508701813E0,-4.073476791E-2,1.026427746E-2,4.397583008E-2
7.516697206E0,-2.660715580E-2,5.379468203E-3,4.154014587E-2
7.524693753E0,-3.818273544E-4,1.484596729E-2,4.869937897E-2
7.532688839E0,1.394915581E-2,-2.102345228E-3,4.629230499E-2
7.540685156E0,1.165342331E-2,2.168804407E-2,3.672599792E-2
7.548679087E0,2.325892448E-3,1.195675135E-2,4.394245148E-2
7.556675327E0,-4.277634621E-2,1.673886180E-2,2.485084534E-2
7.564702105E0,-3.041911125E-2,1.433575153E-2,3.688526154E-2
7.572696345E0,-3.966891766E-2,1.676300168E-2,4.651546478E-2
7.580693276E0,-4.435443878E-2,1.440313458E-2,4.653358459E-2
7.588688362E0,-6.114709377E-2,-1.190614700E-2,6.807708740E-2
7.596683755E0,-3.966581821E-2,-2.329170704E-3,4.651832581E-2
7.604679994E0,-2.056646347E-2,-3.725290298E-6,4.650783539E-2
7.612674772E0,8.294582367E-4,1.424193382E-2,3.690147400E-2
7.620702474E0,2.971649170E-3,2.375164628E-2,2.009868622E-2
7.628696329E0,-2.820467949E-2,7.002592087E-3,1.769638062E-2
7.636692337E0,-2.823257446E-2,2.634167671E-2,3.206443787E-2
7.644688115E0,-2.578449249E-2,7.371395826E-3,3.447341919E-2
7.652683509E0,-9.035944939E-3,5.167871714E-3,3.447914124E-2
7.660680363E0,-2.829718590E-2,5.315452814E-3,5.601596832E-2
7.668675526E0,-3.552401066E-2,-1.679062843E-3,6.080436707E-2
7.676700996E0,-4.272079468E-2,1.032540202E-2,4.643821716E-2
7.684697390E0,-4.027163982E-2,1.275113225E-2,7.278347015E-2
7.692692090E0,-4.266393185E-2,3.192126751E-2,6.320762634E-2
7.700688407E0,-4.268896580E-2,1.038527489E-2,4.165744781E-2
7.708683878E0,-3.561758995E-2,1.273483038E-2,4.881954193E-2
7.716679809E0,-4.056727886E-2,2.468916774E-2,2.963924408E-2
7.724675818E0,-4.077684879E-2,1.270139217E-2,2.242279053E-2
7.732700442E0,-4.101204872E-2,7.948905230E-3,1.520347595E-2
7.740697759E0,-3.887641430E-2,3.182262182E-3,2.473926544E-2
7.748691921E0,-3.931999207E-2,1.048716903E-2,2.945995331E-2
7.756688237E0,-5.170369148E-2,1.533013582E-2,3.657913208E-2
7.764683323E0,-2.107274532E-2,2.505025268E-2,5.326366425E-2
7.772679331E0,-2.174377441E-4,-1.142382622E-3,5.076313019E-2
7.780675956E0,-8.023738861E-3,2.750203013E-2,5.784130096E-2
7.788700196E0,-1.333165169E-2,-1.578962803E-2,6.253910065E-2
7.796696512E0,-6.478905678E-3,-1.517921686E-3,3.375148773E-2
7.804692520E0,-4.212260246E-3,2.950829268E-2,5.048656464E-2
7.812687068E0,-2.811753750E-2,3.665471077E-2,5.288505554E-2
7.820683384E0,-2.567231655E-2,2.954867482E-2,5.768585205E-2
7.828678700E0,-4.000449181E-2,1.761308312E-2,4.811477661E-2
7.836674402E0,-4.233849049E-2,3.684434295E-2,4.094505310E-2
7.844700949E0,-2.325129509E-2,1.770529151E-2,3.614711761E-2
7.852696035E0,-1.849484444E-2,4.165953398E-2,2.895927429E-2
7.860692889E0,-1.861834526E-2,1.777091622E-2,3.133583069E-2
7.868687437E0,-1.631093025E-2,2.025544643E-2,3.371906281E-2
7.876683061E0,-3.547561169E-2,1.543512940E-2,3.611087799E-2
7.884678839E0,-3.798818588E-2,3.535360098E-3,2.172946930E-2
7.892674232E0,-6.695210934E-2,2.747455239E-2,2.647972107E-2
7.900701010E0,-6.244683266E-2,3.539085388E-3,1.925182343E-2
7.908696327E0,-5.325841904E-2,1.050293446E-3,1.679134369E-2
7.916691412E0,-2.484333515E-2,1.004099846E-3,5.025863647E-2
7.924688036E0,-2.998292446E-2,-1.113891602E-2,5.019474030E-2
7.932683122E0,-2.789139748E-2,1.505127549E-2,4.056358337E-2
7.940679208E0,-1.802444458E-3,1.246353984E-2,5.009269714E-2
7.948673601E0,-2.345931530E-2,2.441588044E-2,5.486297607E-2
7.956700687E0,-9.114384651E-3,5.273222923E-4,7.401561737E-2
7.964697003E0,-4.343271255E-3,1.250681281E-2,6.922531128E-2
7.972691550E0,-1.140606403E-2,2.936732769E-2,5.727672577E-2
7.980687867E0,-2.316236496E-2,2.701267600E-2,6.449604034E-2
7.988683260E0,-2.760148048E-2,2.701342106E-2,5.497455597E-2
7.996678577E0,-2.241933346E-2,5.458146334E-3,4.067325592E-2
8.004704200E0,-3.386831284E-2,1.501518488E-2,3.117942810E-2
8.012699594E0,-7.130146027E-3,5.441874266E-3,2.166748047E-2
8.020696757E0,-3.540408611E-2,-1.724332571E-3,4.981994629E-3
8.028691611E0,-3.006374836E-2,1.509660482E-2,9.861946106E-3
8.036686620E0,-3.427970409E-2,3.183990717E-3,9.956359863E-3
8.044683014E0,-3.854465485E-2,1.269689202E-2,1.722145081E-2
8.052678330E0,-5.966591835E-2,7.706850767E-3,2.925300598E-2
8.060705492E0,-6.180500984E-2,3.384789824E-2,4.125785828E-2
8.068699655E0,-7.131159306E-2,5.272579193E-2,3.886413574E-2
8.076695356E0,-7.861363888E-2,5.009272695E-2,5.798912048E-2
8.084691364E0,-6.227481365E-2,-3.422200680E-4,5.073356628E-2
8.092686373E0,-3.420901299E-2,1.397350430E-2,5.780601501E-2
8.100683075E0,-1.101636887E-2,1.152333617E-2,4.810619354E-2
8.108677776E0,3.368854523E-4,1.396372914E-2,2.885532379E-2
8.116703399E0,1.909184456E-2,2.114397287E-2,4.076194763E-2
8.124699716E0,3.086423874E-2,1.878836751E-2,4.791450500E-2
8.132694802E0,3.822541237E-2,2.356964350E-2,4.794311523E-2
8.140691733E0,2.193176746E-2,2.358517051E-2,3.125953674E-2
8.148687050E0,-1.805651188E-2,2.354907990E-2,3.855514526E-2
8.156681905E0,-4.364752769E-2,2.358949184E-2,2.670574188E-2
8.164678145E0,-8.853662014E-2,1.638048887E-2,2.201366425E-2
8.172703384E0,-9.770083427E-2,2.827566862E-2,1.249980927E-2
8.180700008E0,-9.286153316E-2,9.059131145E-3,2.926540375E-2
8.188695402E0,-9.539473057E-2,2.338898182E-2,1.487636566E-2
8.196691411E0,-6.241059303E-2,2.089443803E-2,2.675819397E-2
8.204685957E0,-3.219151497E-2,-7.233321667E-4,4.576206207E-2
8.212681351E0,-1.408278942E-2,4.055917263E-3,4.559326172E-2
8.220678514E0,1.122677326E-2,8.795380592E-3,3.824329376E-2
8.228703522E0,1.988565922E-2,2.319815755E-2,5.725097656E-2
8.236699146E0,1.925921440E-2,2.313861251E-2,5.714797974E-2
8.244695232E0,1.168048382E-2,1.109227538E-2,5.947589874E-2
8.252689703E0,1.870751381E-2,2.541333437E-2,5.944919586E-2
8.260686634E0,4.461884499E-3,3.964895010E-2,4.749107361E-2
8.268681720E0,1.447069645E-2,2.028766274E-2,4.037094116E-2
8.276677344E0,-1.362526417E-2,5.766481161E-3,3.328418732E-2
8.284704198E0,-2.478766441E-2,-3.948271275E-3,1.904392242E-2
8.292699515E0,-4.316425323E-2,7.981836796E-3,4.071521759E-2
8.300695601E0,-5.446147919E-2,1.273345947E-2,2.885150909E-2
8.308689687E0,-7.555365562E-2,1.270297170E-2,2.892398834E-2
8.316685387E0,-7.293498516E-2,-1.361221075E-2,4.572010040E-2
8.324682319E0,-6.104922295E-2,1.753565669E-2,3.134250641E-2
8.332676790E0,-5.424153805E-2,1.276865602E-2,4.085922241E-2
8.340704259E0,-5.950224400E-2,3.189444542E-2,3.599357605E-2
8.348698038E0,-3.139042854E-2,2.948606014E-2,2.392196655E-2
8.356694047E0,-2.486014366E-2,8.033186197E-3,2.860927582E-2
8.364690440E0,-6.391525269E-3,2.490648627E-2,2.610969543E-2
8.372685833E0,-1.659572124E-2,2.019450068E-2,2.840518951E-2
8.380681765E0,-1.947331429E-2,5.729228258E-3,3.790092468E-2
8.388677236E0,-7.781744003E-3,3.434002399E-3,3.546619415E-2
8.396703090E0,-2.485072613E-2,8.328795433E-3,3.781318665E-2
8.404699406E0,-2.996242046E-2,2.024587989E-2,3.536605835E-2
8.412693877E0,-4.218459129E-2,1.293072104E-2,4.729080200E-2
8.420691348E0,-3.532445431E-2,2.012488246E-2,4.723930359E-2
8.428685279E0,-4.529654980E-2,2.722659707E-2,3.999042511E-2
8.436681518E0,-2.890324593E-2,-1.115006208E-2,3.514194489E-2
8.444677297E0,-3.643512726E-2,1.991641521E-2,3.747653961E-2
8.452702537E0,-4.160368443E-2,1.252725720E-2,3.501415253E-2
8.460698775E0,-2.044951916E-2,2.904182673E-2,5.888271332E-2
8.468693630E0,-6.286621094E-3,-4.628211260E-3,4.448032379E-2
8.476688716E0,1.279032230E-2,7.189542055E-3,3.727912903E-2
8.484686494E0,1.052677631E-2,1.647037268E-2,4.447174072E-2
8.492680964E0,-1.143336296E-3,2.577489614E-2,2.774906158E-2
8.500677589E0,-1.504576206E-2,1.140421629E-2,3.261184692E-2
8.508702290E0,-2.422153950E-2,-7.039606571E-4,2.548980713E-2
8.516699144E0,-3.816282749E-2,1.603782177E-2,3.752708435E-2
8.524694230E0,-3.304016590E-2,1.596954465E-2,4.476165771E-2
8.532688778E0,-3.984963894E-2,1.836663485E-2,5.439758301E-2
8.540685709E0,-5.388498306E-2,2.077209949E-2,5.205726624E-2
8.548680718E0,-6.329584122E-2,3.894567490E-3,6.165599823E-2
8.556676419E0,-5.608856678E-2,2.050590515E-2,4.728889465E-2
8.564702966E0,-3.928470612E-2,3.223326802E-2,2.095127106E-2
8.572697667E0,-4.411590099E-2,2.246391773E-2,1.854228973E-2
8.580694984E0,-1.790416241E-2,1.993110776E-2,2.330493927E-2
8.588689069E0,-4.201292992E-2,2.230727673E-2,2.088451385E-2
8.596684462E0,-2.077031136E-2,2.939823270E-2,1.843643188E-2
8.604681702E0,-4.491817951E-2,1.983764768E-2,2.319240570E-2
8.612676172E0,-2.119767666E-2,-6.528705359E-3,4.709815979E-2
8.620703335E0,-9.507536888E-3,-1.747578382E-3,5.663013458E-2
8.628698343E0,-1.456892490E-2,-1.624780893E-2,4.939842224E-2
8.636693506E0,-1.474893093E-2,-4.344642162E-3,4.936695099E-2
8.644689438E0,-1.490271091E-2,9.798288345E-3,6.130504608E-2
8.652685139E0,-3.413474560E-2,4.073944688E-2,5.649566650E-2
8.660681455E0,-5.350565910E-2,3.819951415E-2,4.448604584E-2
8.668675695E0,-7.065153122E-2,7.058084011E-3,4.442310333E-2
8.676701858E0,-6.398856640E-2,2.875560522E-2,3.237342834E-2
8.684698789E0,-5.751943588E-2,2.656605840E-2,2.987289429E-2
8.692693490E0,-2.963006496E-2,2.917906642E-2,3.692913055E-2
8.700689807E0,-2.332305908E-2,2.918562293E-2,3.200054169E-2
8.708684892E0,-1.232647896E-2,1.013517380E-2,2.945518494E-2
8.716681209E0,1.308560371E-3,3.643590212E-2,2.933692932E-2
8.724676372E0,-1.376104355E-2,5.331963301E-3,5.316638947E-2
8.732702150E0,-1.675522327E-2,1.715412736E-2,2.672863007E-2
8.740698773E0,-1.479589939E-2,4.995018244E-3,5.059337616E-2
8.748692628E0,-1.034855843E-2,-2.636632323E-2,3.616523743E-2
8.756688945E0,-1.301062107E-2,-3.401935101E-4,4.089832306E-2
8.764685570E0,-1.571619511E-2,2.333566546E-2,4.323387146E-2
8.772680347E0,-3.009498119E-2,4.026979208E-3,4.083156586E-2
8.780676664E0,-3.724849224E-2,1.103049517E-2,3.604030609E-2
8.788702288E0,-4.192554951E-2,2.291393280E-2,4.563140869E-2
8.796696681E0,-4.197978973E-2,2.761977911E-2,6.716823578E-2
8.804693305E0,-4.448962212E-2,1.553422213E-2,5.038642883E-2
8.812689083E0,-2.075242996E-2,1.301974058E-2,5.992507935E-2
8.820685015E0,7.800698280E-3,1.299235225E-2,5.510807037E-2
8.828679254E0,1.728069782E-2,8.170574903E-3,4.312038422E-2
8.836675494E0,6.196498871E-4,2.001875639E-2,4.313182831E-2
8.844702349E0,8.070468903E-3,1.037964225E-2,2.880668640E-2
8.852697126E0,-2.022218704E-2,2.710404992E-2,2.648067474E-2
8.860693443E0,-3.417563438E-2,1.514384151E-2,1.696968079E-2
8.868688837E0,-4.084932804E-2,1.985856891E-2,2.662563324E-2
8.876683846E0,-4.279780388E-2,1.030737162E-2,1.951599121E-2
8.884679623E0,-4.001128674E-2,1.035761833E-2,3.155040741E-2
8.892674632E0,-2.532649040E-2,1.991191506E-2,6.272602081E-2
8.900702410E0,-2.723419666E-2,7.769882679E-3,2.927875519E-2
8.908697187E0,-4.111921787E-2,1.480045915E-2,4.371547699E-2
8.916692581E0,-4.303145409E-2,1.446014643E-2,5.335617065E-2
8.924689205E0,-6.189680099E-2,1.896318793E-2,3.423786163E-2
8.932684522E0,-6.186902523E-2,9.168505669E-3,2.226257324E-2
8.940679607E0,-6.671905518E-2,4.252979159E-2,1.985263824E-2
8.948675693E0,-5.988085270E-2,2.327364683E-2,3.176403046E-2
8.956700856E0,-3.885853291E-2,-1.507496834E-2,3.646755219E-2
8.964697172E0,-3.468489647E-2,6.425380707E-3,3.157901764E-2
8.972691642E0,-2.580070496E-2,-3.186225891E-3,4.583168030E-2
8.980688574E0,-9.630799294E-3,8.782714605E-3,4.573822021E-2
8.988683660E0,-1.006186008E-2,1.118549705E-2,5.764102936E-2
8.996678822E0,3.954529762E-3,1.599785686E-2,4.800891876E-2
9.004675370E0,6.236314774E-3,1.603493094E-2,2.644443512E-2
9.012701302E0,-3.311514854E-3,2.313742042E-2,3.602218628E-2
9.020697618E0,-7.832527161E-3,3.267300129E-2,3.367042542E-2
9.028692319E0,-2.416825294E-2,2.311849594E-2,4.092025757E-2
9.036688020E0,-5.010342598E-2,1.345571876E-2,5.055809021E-2
9.044684644E0,-6.406557560E-2,3.252696991E-2,5.301475525E-2
9.052678576E0,-6.627964973E-2,1.093906164E-2,3.628158569E-2
9.060674892E0,-6.386435032E-2,2.517685294E-2,4.106903076E-2
9.068700747E0,-5.694866180E-2,8.327692747E-3,3.623390198E-2
9.076696680E0,-4.303133488E-2,5.830824375E-3,2.179336548E-2
9.084692688E0,-3.161346912E-2,2.243223786E-2,7.333755493E-3
9.092687158E0,-3.488898277E-3,1.032936573E-2,3.835773468E-2
9.100684783E0,8.010864258E-4,7.783800364E-3,2.151203156E-2
9.108679483E0,1.477241516E-2,1.727727056E-2,4.059982300E-2
9.116674338E0,3.979206085E-4,1.720839739E-2,3.820228577E-2
9.124700809E0,-4.310488701E-3,1.710203290E-2,3.821182251E-2
9.132695818E0,-1.371014118E-2,2.654182911E-2,4.062843323E-2
9.140692518E0,-4.701292515E-2,2.413862944E-2,3.826808929E-2
9.148686988E0,-3.253126144E-2,2.173301578E-2,5.983352661E-2
9.156683536E0,-5.172932148E-2,1.449289918E-2,4.785442352E-2
9.164679313E0,-4.221773148E-2,1.210969687E-2,4.066085815E-2
9.172704784E0,-2.551734447E-2,1.446378231E-2,4.783344269E-2
9.180701177E0,-2.551567554E-2,7.245093584E-3,4.304409027E-2
9.188695648E0,-2.787685394E-2,9.576529264E-3,4.304695129E-2
9.196691348E0,-2.541601658E-2,4.722714424E-3,1.671791077E-2
9.204688203E0,-2.292799950E-2,3.577640653E-2,2.151870728E-2
9.212682751E0,-3.002834320E-2,1.660284400E-2,2.392578125E-2
9.220679682E0,-3.960692883E-2,-1.140832901E-4,3.589725494E-2
9.228704537E0,-1.323258877E-2,1.673087478E-2,3.111839294E-2
9.236699623E0,-2.275896072E-2,3.109312057E-2,4.549217224E-2
9.244696324E0,-2.261710167E-2,1.424050331E-2,4.790592194E-2
9.252691640E0,-2.983069420E-2,1.409649849E-2,5.268383026E-2
9.260688265E0,-2.491104603E-2,2.835735679E-2,4.791259766E-2
9.268683043E0,-2.002167702E-2,-5.682408810E-4,2.158451080E-2
9.276678205E0,-1.009118557E-2,2.089416981E-2,3.839778900E-2
9.284704675E0,-1.691436768E-2,1.592537761E-2,2.647686005E-2
9.292699761E0,-2.617371082E-2,2.774229646E-2,4.088687897E-2
9.300696616E0,-3.059816360E-2,1.574561000E-2,4.573249817E-2
9.308691701E0,-6.877648830E-2,1.805779338E-2,3.617286682E-2
9.316686864E0,-5.922007561E-2,2.763625979E-2,3.617000580E-2
9.324683104E0,-6.181478500E-2,3.704845905E-3,4.811000824E-2
9.332678189E0,-3.596627712E-2,1.579397917E-2,5.282497406E-2
9.340705352E0,-2.695119381E-2,1.818233728E-2,3.597545624E-2
9.348700130E0,-2.501809597E-2,6.187260151E-3,3.111171722E-2
9.356694908E0,3.186225891E-3,2.530643344E-2,1.905632019E-2
9.364691839E0,-6.735444069E-3,1.328948140E-2,3.575801849E-2
9.372686310E0,-1.427769661E-2,2.759304643E-2,3.330516815E-2
9.380682934E0,1.183354855E-2,3.221035004E-2,2.608013153E-2
9.388678020E0,1.181149483E-2,3.687104583E-2,4.761981964E-2
9.396704105E0,-2.119541168E-4,1.771554351E-2,4.761123657E-2
9.404699883E0,2.431511879E-3,-8.721441031E-3,3.567600250E-2
9.412694969E0,-1.149654388E-2,8.018314838E-3,5.010986328E-2
9.420692131E0,-1.093924046E-2,3.281742334E-3,5.259513855E-2
9.428686679E0,-2.461004257E-2,3.196838498E-2,5.270481110E-2
9.436681995E0,-2.634191513E-2,1.759859920E-2,5.520439148E-2
9.444678081E0,-4.958522320E-2,2.462559938E-2,4.812812805E-2
9.452704166E0,-5.855274200E-2,2.205505967E-2,1.948833466E-2
9.460700483E0,-8.449947834E-2,1.718017459E-2,1.715278625E-2
9.468695261E0,-8.913636208E-2,1.705440879E-2,4.129409790E-4
9.476690731E0,-8.686470985E-2,3.376907110E-2,9.968757629E-3
9.484687355E0,-5.623102188E-2,3.852453828E-2,9.888648987E-3
9.492682134E0,-5.691385269E-2,1.936596632E-2,4.569244385E-2
9.500678758E0,-2.676737309E-2,9.872078896E-3,5.511569977E-2
9.508702997E0,-1.833689213E-2,9.960621595E-3,4.535865784E-2
9.516700006E0,-3.950595856E-4,4.762411118E-4,5.235290527E-2
9.524695938E0,-3.929615021E-3,-2.586856484E-2,4.259395599E-2
9.532690715E0,4.720091820E-3,5.255639553E-3,3.765773773E-2
9.540687339E0,-7.203817368E-4,1.018133759E-2,4.474067688E-2
9.548681579E0,6.006956100E-3,3.676071763E-2,6.383132935E-2
9.556676973E0,-6.415367126E-3,1.292949915E-2,6.376361847E-2
9.564704366E0,-3.541040421E-2,8.229911327E-3,5.654239655E-2
9.572699144E0,-3.077936172E-2,3.226605058E-2,2.779102325E-2
9.580695768E0,-1.399922371E-2,3.708893061E-2,1.582336426E-2
9.588690469E0,-9.155273438E-3,3.470742702E-2,3.019809723E-2
9.596685939E0,-1.621282101E-2,1.562595367E-2,1.346206665E-2
9.604682256E0,-1.352047920E-2,3.004699945E-2,2.787685394E-2
9.612676726E0,-1.795935631E-2,2.278625965E-2,3.511142731E-2
9.620703811E0,-4.155158997E-2,1.323628426E-2,4.235076904E-2
9.628699205E0,-5.805802345E-2,2.028906345E-2,3.041553497E-2
9.636694214E0,-6.752324104E-2,3.322601318E-3,4.000186920E-2
9.644690300E0,-6.030499935E-2,3.133386374E-3,4.239559174E-2
9.652685923E0,-7.228791714E-2,2.672374249E-2,2.083206177E-2
9.660682009E0,-6.755542755E-2,9.755313396E-3,3.039264679E-2
9.668677095E0,-2.705955505E-2,2.465367317E-3,2.796173096E-2
9.676702949E0,-2.498018742E-2,4.842758179E-3,3.269958496E-2
9.684698881E0,-1.339757442E-2,-9.457677603E-3,5.179309845E-2
9.692694583E0,-4.004478455E-3,1.699048281E-2,6.134605408E-2
9.700690592E0,1.981437206E-2,1.704546809E-2,6.372165680E-2
9.708685369E0,1.029396057E-2,-4.491686821E-3,5.654811859E-2
9.716680455E0,1.128315926E-3,1.467227936E-2,4.943180084E-2
9.724677464E0,-5.490660667E-3,1.712548733E-2,4.952335358E-2
9.732702703E0,-1.918029785E-2,1.949420571E-2,3.765964508E-2
9.740699558E0,-3.527450562E-2,9.839385748E-3,2.818584442E-2
9.748693721E0,-4.171323776E-2,-2.110898495E-3,2.351760864E-2
9.756689499E0,-6.510019302E-2,3.141614795E-2,1.642227173E-2
9.764686353E0,-5.260252953E-2,7.490813732E-3,2.608394623E-2
9.772680901E0,-5.680072308E-2,1.933321357E-2,4.626274109E-3
9.780677756E0,-2.042472363E-2,1.693630219E-2,1.906490326E-2
9.788702456E0,-3.917133808E-2,1.211920381E-2,3.109931946E-2
9.796698773E0,-4.112291336E-2,2.399623394E-2,3.595542908E-2
9.804694782E0,-4.311931133E-2,4.755318165E-3,5.516910553E-2
9.812689253E0,-7.141542435E-2,1.423805952E-2,4.565811157E-2
9.820686722E0,-6.873393059E-2,3.798985481E-2,4.569721222E-2
9.828681577E0,-4.723322392E-2,9.098649025E-3,6.004905701E-2
9.836676356E0,-6.666100025E-2,1.137936115E-2,4.563522339E-2
9.844703748E0,-3.602671623E-2,2.563521266E-2,2.879428864E-2
9.852697911E0,-2.698326111E-2,1.845046878E-2,3.589057922E-2
9.860694843E0,-1.243472099E-3,-1.260125637E-2,2.861690521E-2
9.868689621E0,-4.009723663E-3,1.871198416E-3,2.137756348E-2
9.876685860E0,5.245208740E-4,6.674528122E-3,4.527950287E-2
9.884680638E0,-1.621568203E-2,1.867949963E-2,4.767894745E-2
9.892706801E0,7.961988449E-4,1.390960813E-2,5.250835419E-2
9.900703195E0,-1.238465309E-3,1.862451434E-2,4.059219360E-2
9.908698203E0,-2.461564541E-2,3.525868058E-2,4.067707062E-2
9.916693673E0,-4.551362991E-2,3.034126759E-2,4.077625275E-2
9.924689606E0,-5.935323238E-2,3.265225887E-2,3.606891632E-2
9.932684460E0,-7.339572906E-2,2.298584580E-2,3.372287750E-2
9.940681315E0,-8.287978172E-2,2.770143747E-2,3.373527527E-2
9.948675555E0,-8.304667473E-2,-1.041650772E-3,3.610229492E-2
9.956702333E0,-5.703341961E-2,5.994111300E-3,3.604507446E-2
9.964698033E0,-3.119957447E-2,-5.977481604E-3,1.920509338E-2
9.972693350E0,-2.691495419E-2,2.268698812E-2,3.348731995E-2
9.980690282E0,6.144642830E-3,5.768686533E-3,3.580188751E-2
9.988684752E0,1.066339016E-2,2.002045512E-2,3.814983368E-2
9.996680530E0,5.884885788E-3,1.507249475E-2,3.335666656E-2
1.000467646E1,8.501410484E-3,1.017674804E-2,4.775333405E-2
1.001270209E1,8.804559708E-3,2.207028866E-2,5.258750916E-2
1.002069863E1,-9.861230850E-3,3.637862206E-2,5.266284943E-2
1.002869341E1,-2.359521389E-2,7.611662149E-3,6.233978271E-2
1.003668942E1,-4.447448254E-2,-4.333406687E-3,6.484127045E-2
1.004468489E1,-4.380178452E-2,1.242241263E-2,5.297851562E-2
1.005268051E1,-6.475019455E-2,2.683004737E-2,3.631591797E-2
1.006067629E1,-5.246376991E-2,1.484510303E-2,4.594230652E-2
1.006870207E1,-5.708932877E-2,5.333334208E-3,3.400135040E-2
1.007669723E1,-4.993820190E-2,1.490795612E-2,1.723575592E-2
1.008469347E1,-4.279947281E-2,3.402310610E-2,1.243877411E-2
1.009268894E1,-3.583264351E-2,3.155881166E-2,2.197837830E-2
1.010068495E1,-1.204454899E-2,1.714041829E-2,9.981155396E-3
1.010868065E1,-7.457017899E-3,1.711460948E-2,9.948730469E-3
1.011670612E1,9.111285210E-3,1.958981156E-2,3.865146637E-2
1.012470221E1,-1.968872547E-2,1.487791538E-2,5.540180206E-2
1.013269729E1,-2.455377579E-2,-6.499558687E-3,5.779075623E-2
1.014069446E1,-1.262927055E-2,7.919490337E-3,4.820823669E-2
1.014868862E1,-2.702176571E-2,2.714467049E-2,5.060005188E-2
1.015668370E1,-2.470731735E-2,2.958813310E-2,4.819488525E-2
1.016468002E1,-2.004098892E-2,2.241453528E-2,4.578208923E-2
1.017270588E1,-2.969884872E-2,1.763072610E-2,2.182674408E-2
1.018070258E1,-2.489387989E-2,4.151049256E-2,3.140354156E-2
1.018869728E1,3.924846649E-3,5.583882332E-3,2.662944794E-2
1.019669275E1,-2.457451820E-2,1.514762640E-2,1.469516754E-2
1.020468906E1,-1.479542255E-2,1.520466805E-2,2.191162109E-2
1.021268384E1,-2.650153637E-2,2.490669489E-2,3.632450104E-2
1.022068047E1,-3.574395180E-2,1.305332780E-2,4.595851898E-2
1.022870563E1,-5.705547333E-2,5.890399218E-3,4.120922089E-2
1.023670141E1,-4.972064495E-2,3.223317862E-2,4.602146149E-2
1.024469765E1,-4.248464108E-2,8.361130953E-3,3.645610809E-2
1.025269219E1,-4.484069347E-2,2.039551735E-2,5.561828613E-2
1.026068974E1,-1.625955105E-2,1.806637645E-2,4.362678528E-2
1.026868383E1,-3.076803684E-2,6.195008755E-3,2.924156189E-2
1.027667953E1,-3.335547447E-2,1.112279296E-2,4.118633270E-2
1.028470669E1,4.782676697E-3,6.379038095E-3,3.637218475E-2
1.029270170E1,1.692450047E-2,1.122906804E-2,3.879642487E-2
1.030069863E1,1.002037525E-2,3.282222152E-2,5.081367493E-2
1.030869256E1,1.534950733E-2,1.131400466E-2,4.372024536E-2
1.031668819E1,-2.691435814E-2,4.250854254E-3,3.428077698E-2
1.032468420E1,-2.840602398E-2,2.820241451E-2,5.357933044E-2
1.033267897E1,-2.270758152E-2,3.065347672E-2,3.936195374E-2
1.034070706E1,-4.585146904E-2,9.108036757E-3,2.751922607E-2
1.034870092E1,-3.321647644E-2,2.113246918E-2,3.241539001E-2
1.035669715E1,-4.470026493E-2,2.124378085E-2,3.968143463E-2
1.036469255E1,-5.154907703E-2,3.089773655E-2,3.734397888E-2
1.037268802E1,-5.853760242E-2,2.138340473E-2,5.652999878E-2
1.038068457E1,-6.077945232E-2,1.900267601E-2,4.219055176E-2
1.038867904E1,-2.735042572E-2,9.473204613E-3,3.499507904E-2
1.039670435E1,-5.146336555E-2,3.345832229E-2,2.778625488E-2
1.040470098E1,-6.604933739E-2,1.198801398E-2,3.254127502E-2
1.041269575E1,-2.566134930E-2,2.168622613E-2,6.160736084E-3
1.042069330E1,-2.608251572E-2,2.892211080E-2,3.243064880E-2
1.042868777E1,-1.696348190E-2,2.422252297E-2,3.954315186E-2
1.043668316E1,-6.190538406E-4,1.969370246E-2,3.948593140E-2
1.044467917E1,-8.246302605E-3,1.016989350E-2,3.702259064E-2
1.045270464E1,-1.340615749E-2,6.325840950E-4,4.414749146E-2
1.046070127E1,-8.875012398E-3,-2.572470903E-2,5.128765106E-2
1.046869666E1,-2.326762676E-2,5.907714367E-4,4.409980774E-2
1.047669152E1,-8.713483810E-3,7.697314024E-3,5.131053925E-2
1.048468752E1,-1.793932915E-2,1.967215538E-2,4.897212982E-2
1.049268346E1,-2.944469452E-2,1.267206669E-2,3.947734833E-2
1.050067885E1,-4.584681988E-2,3.912016749E-2,4.672145844E-2
1.050870509E1,-5.292057991E-2,3.928789496E-2,4.674434662E-2
1.051670041E1,-4.802513123E-2,4.665839672E-2,3.479766846E-2
1.052469649E1,-4.554140568E-2,2.762687206E-2,1.326847076E-2
1.053269158E1,-3.101456165E-2,6.145179272E-3,6.114959717E-3
1.054068882E1,-9.192466736E-3,2.537667751E-2,3.968048096E-2
1.054868290E1,-1.615345478E-2,2.061539888E-2,3.014087677E-2
1.055667891E1,-3.032255173E-2,2.548918128E-2,2.538681030E-2
1.056470569E1,-4.448676109E-2,1.592305303E-2,2.542018890E-2
1.057270016E1,-4.907834530E-2,8.643329144E-3,2.065944672E-2
1.058069686E1,-4.890191555E-2,-5.809903145E-3,2.786636353E-2
1.058869133E1,-5.358922482E-2,-1.550778747E-2,3.506088257E-2
1.059668757E1,-5.112290382E-2,1.076793671E-2,4.943561554E-2
1.060468327E1,-5.101525784E-2,8.313804865E-3,5.902767181E-2
1.061267836E1,-2.941393852E-2,1.558765769E-2,5.904006958E-2
1.062070606E1,-2.950394154E-2,1.320052147E-2,6.381416321E-2
1.062870030E1,-2.014970779E-2,1.806363463E-2,4.941654205E-2
1.063669569E1,1.255035400E-3,1.820969582E-2,4.700374603E-2
1.064469254E1,-1.078987122E-2,8.820056915E-3,5.657577515E-2
1.065268648E1,-5.779385567E-3,1.611465216E-2,5.182647705E-2
1.066068333E1,-1.761782169E-2,2.094277740E-2,3.269577026E-2
1.066867788E1,-5.228996277E-3,-5.294829607E-3,3.276634216E-2
1.067670427E1,-4.552483559E-3,-4.783570766E-4,3.287696838E-2
1.068469997E1,-1.824700832E-2,-2.801805735E-3,4.016971588E-2
1.069269514E1,-2.242398262E-2,3.078520298E-2,2.590656281E-2
1.070069238E1,-4.820680618E-2,2.604800463E-2,3.317928314E-2
1.070868646E1,-3.821623325E-2,9.362310171E-3,2.606678009E-2
1.071668255E1,-1.851069927E-2,2.213001251E-3,2.376174927E-2
1.072467909E1,-1.796591282E-2,7.033616304E-3,2.863979340E-2
1.073270464E1,-2.709853649E-2,6.993412971E-3,3.110408783E-2
1.074070073E1,-3.388357162E-2,2.131649852E-2,3.595542908E-2
1.074869512E1,-6.241881847E-2,1.409688592E-2,2.880191803E-2
1.075669082E1,-3.374636173E-2,3.085827827E-2,2.639961243E-2
1.076468691E1,-4.351806641E-2,1.654532552E-2,3.834056854E-2
1.077268192E1,-2.953755856E-2,4.703432322E-3,4.786014557E-2
1.078067823E1,-3.968536854E-2,1.206603646E-2,5.256271362E-2
1.078870378E1,-3.304708004E-2,7.449388504E-3,4.769325256E-2
1.079669917E1,-3.590440750E-2,7.567197084E-3,5.480575562E-2
1.080469611E1,-1.484084129E-2,-4.377216101E-3,4.036331177E-2
1.081269065E1,1.566529274E-3,2.905628085E-2,3.072738647E-2
1.082068697E1,1.342797279E-2,1.935327053E-2,1.394557953E-2
1.082868198E1,-7.807016373E-4,3.611332178E-2,1.875877380E-2
1.083667714E1,-1.727211475E-2,3.138563037E-2,2.838134766E-2
1.084470453E1,-2.647459507E-2,1.467779279E-2,3.323173523E-2
1.085269923E1,-3.075683117E-2,2.767145634E-4,3.570652008E-2
1.086069555E1,-6.851077080E-2,9.875357151E-3,3.100776672E-2
1.086869094E1,-7.047724724E-2,-2.081096172E-3,5.741310120E-2
1.087668665E1,-5.840039253E-2,1.945811510E-2,4.306411743E-2
1.088468265E1,-6.328058243E-2,1.464658976E-2,3.586673737E-2
1.089267751E1,-4.679894447E-2,1.455810666E-2,3.102970123E-2
1.090070429E1,-4.955708981E-2,2.653172612E-2,2.378845215E-2
1.090869930E1,-1.172947884E-2,2.169063687E-2,2.370929718E-2
1.091669500E1,-5.004763603E-3,1.924946904E-2,2.602863312E-2
1.092469047E1,2.099597454E-2,1.924175024E-2,4.033946991E-2
1.093268617E1,-1.992785931E-2,1.680779457E-2,2.593612671E-2
1.094068310E1,3.912329674E-3,1.193428040E-2,4.746437073E-2
1.094867749E1,-1.511240005E-2,1.901581883E-2,3.311634064E-2
1.095670335E1,1.917481422E-3,4.590094090E-3,4.752349854E-2
1.096469974E1,-2.161359787E-2,1.413199306E-2,3.322219849E-2
1.097269444E1,-3.551566601E-2,4.530578852E-3,4.766178131E-2
1.098069137E1,-6.376242638E-2,2.356317639E-2,4.055309296E-2
1.098868554E1,-2.744305134E-2,2.336743474E-2,4.539966583E-2
1.099668162E1,-4.388737679E-2,1.123389602E-2,4.304981232E-2
1.100467817E1,-4.847097397E-2,1.355203986E-2,2.632045746E-2
1.101270341E1,-5.304372311E-2,6.227254868E-3,3.592681885E-2
1.102069919E1,-2.900838852E-2,8.458167315E-3,1.438808441E-2
1.102869450E1,-4.565930367E-2,2.752366662E-2,2.158546448E-2
1.103669028E1,-4.321336746E-2,2.975076437E-2,1.201057434E-2
1.104468567E1,-2.644407749E-2,2.238878608E-2,2.637100220E-2
1.105268161E1,-2.883648872E-2,2.702349424E-2,3.115367889E-2
1.106070808E1,-3.840601444E-2,1.253223419E-2,3.593826294E-2
1.106870285E1,-1.933574677E-2,1.243406534E-2,4.789257050E-2
1.107669863E1,-2.172696590E-2,2.177932858E-2,4.549026489E-2
1.108469395E1,-3.603243828E-2,1.193225384E-2,3.591251373E-2
1.109268942E1,-9.809732437E-3,2.059727907E-3,3.827762604E-2
1.110068574E1,-3.397572041E-2,-3.933310509E-4,4.781627655E-2
1.110868105E1,-4.375886917E-2,1.868134737E-2,4.059791565E-2
1.111670722E1,-1.520693302E-2,1.853665709E-2,2.380371094E-2
1.112470330E1,-2.973604202E-2,1.380863786E-2,3.096199036E-2
1.113269839E1,-4.188346863E-2,1.615092158E-2,3.332519531E-2
1.114069463E1,-3.961861134E-2,-2.951562405E-3,3.091335297E-2
1.114868971E1,-5.895757675E-2,-2.968490124E-3,5.242919922E-2
1.115668518E1,-4.711520672E-2,-6.471872330E-4,4.043579102E-2
1.116468211E1,-4.024779797E-2,2.322620153E-2,4.995918274E-2
1.117270728E1,-3.103625774E-2,8.744180202E-3,3.313636780E-2
1.118070367E1,-7.551431656E-3,-1.060122252E-2,3.305530548E-2
1.118869776E1,1.713752747E-3,6.047874689E-3,3.300094604E-2
1.119669407E1,4.056811333E-3,2.026376128E-2,3.777599335E-2
1.120468977E1,2.810549736E-2,1.046761870E-2,4.496765137E-2
1.121268463E1,-1.461398602E-2,1.991581917E-2,4.502391815E-2
1.122068187E1,-1.894891262E-2,2.459177375E-2,4.509258270E-2
1.122870703E1,-4.464256763E-2,1.733633876E-2,2.364540100E-2
1.123670250E1,-5.131709576E-2,2.444770932E-2,5.006122589E-2
1.124469874E1,-6.047046185E-2,2.183404565E-2,4.772663116E-2
1.125269352E1,-5.308616161E-2,9.699076414E-3,4.535961151E-2
1.126069022E1,-5.553293228E-2,1.895856857E-2,2.139759064E-2
1.126868492E1,-4.372692108E-2,3.788638115E-2,6.997108459E-3
1.127668093E1,-2.722012997E-2,3.535780311E-2,2.371025085E-2
1.128470678E1,-2.034950256E-2,1.141899824E-2,3.084278107E-2
1.129270195E1,-6.161928177E-3,1.627030969E-2,4.039382935E-2
1.130069880E1,-1.348876953E-2,4.232466221E-3,2.839660645E-2
1.130869358E1,-6.368637085E-3,2.333742380E-2,3.556728363E-2
1.131668874E1,-2.548193932E-2,1.615116000E-2,3.317928314E-2
1.132468560E1,-2.067029476E-2,2.085441351E-2,2.599811554E-2
1.133268037E1,-2.551639080E-2,1.842847466E-2,2.598762512E-2
1.134070754E1,-2.088391781E-2,3.928512335E-3,2.835083008E-2
1.134870201E1,-4.975116253E-2,6.150096655E-3,3.311061859E-2
1.135669732E1,-4.271841049E-2,-2.279728651E-2,3.547382355E-2
1.136469402E1,-4.050779343E-2,8.531808853E-4,5.458736420E-2
1.137268850E1,-4.792380333E-2,7.746607065E-3,4.735565186E-2
1.138068604E1,-5.787551403E-2,5.128949881E-3,3.531646729E-2
1.138868013E1,-4.642021656E-2,2.414608002E-2,5.677604675E-2
1.139670606E1,-3.502738476E-2,1.222306490E-2,6.386756897E-2
1.140470291E1,-2.606427670E-2,9.926766157E-3,6.616592407E-2
1.141269738E1,-1.470649242E-2,1.010793447E-2,4.931545258E-2
1.142069439E1,-3.316164017E-3,1.977938414E-2,3.486061096E-2
1.142868879E1,-3.669023514E-3,1.990589499E-2,3.241348267E-2
1.143668364E1,2.491366863E-2,1.983395219E-2,2.520561218E-2
1.144468050E1,2.029049397E-2,1.494443417E-2,1.804542542E-2
1.145270581E1,-3.095984459E-3,1.716345549E-2,2.291584015E-2
1.146070274E1,-1.195538044E-2,-4.550665617E-3,2.063179016E-2
1.146869744E1,-7.333147526E-2,1.204985380E-2,2.076625824E-2
1.147669253E1,-7.503414154E-2,-1.450783014E-2,2.565860748E-2
1.148468885E1,-1.079853773E-1,-4.157423973E-4,3.292179108E-2
1.149268370E1,-1.030217409E-1,-3.068774939E-3,2.815151215E-2
1.150068117E1,-9.607839584E-2,-7.923245430E-4,2.571487427E-2
1.150870587E1,-7.029283047E-2,1.515090466E-3,3.520011902E-2
1.151670127E1,-4.482233524E-2,-3.248780966E-3,3.985023499E-2
1.152469781E1,-1.713252068E-2,3.883719444E-3,5.883407593E-2
1.153269267E1,3.551840782E-3,3.974825144E-3,4.912185669E-2
1.154068868E1,4.108488560E-2,1.361545920E-2,6.575870514E-2
1.154868438E1,2.379560471E-2,2.556288242E-2,5.130767822E-2
1.155667939E1,1.407277584E-2,1.369851828E-2,5.607700348E-2
1.156470624E1,2.386355400E-2,4.152238369E-3,4.414176941E-2
1.157270125E1,1.004421711E-2,1.127597690E-2,4.662132263E-2
1.158069703E1,3.906488419E-3,-1.507306099E-2,3.960609436E-2
1.158869327E1,-2.040028572E-3,-5.683511496E-3,3.979873657E-2
1.159668805E1,-3.656172752E-2,-5.886614323E-3,3.522682190E-2
1.160468406E1,-4.969370365E-2,1.542592049E-2,1.626300812E-2
1.161267945E1,-5.813252926E-2,8.288323879E-4,2.361965179E-2
1.162070623E1,-6.916463375E-2,7.788717747E-3,2.855205536E-2
1.162870108E1,-8.281600475E-2,2.200007439E-2,1.429653168E-2
1.163669640E1,-1.012610197E-1,1.939016581E-2,2.158546448E-2
1.164469341E1,-1.056364775E-1,1.429861784E-2,1.924705505E-2
1.165268749E1,-1.126815081E-1,2.847382426E-2,4.081058502E-2
1.166068535E1,-1.011536121E-1,4.038006067E-2,3.115940094E-2
1.166867928E1,-6.379365921E-2,1.405301690E-2,4.297733307E-2
1.167670506E1,-1.965212822E-2,-1.212942600E-2,4.994869232E-2
1.168470145E1,3.157913685E-2,-3.839823604E-2,6.168937683E-2
1.169269677E1,5.913555622E-2,-1.198503375E-2,4.234981537E-2
1.170069278E1,7.277822495E-2,-2.518713474E-3,4.222869873E-2
1.170868732E1,5.112421513E-2,-5.037337542E-3,4.939079285E-2
1.171668356E1,4.213869572E-2,9.197562933E-3,5.187511444E-2
1.172467965E1,-1.208150387E-2,1.859426498E-2,2.566909790E-2
1.173270550E1,-4.715013504E-2,3.048959374E-2,2.101325989E-2
1.174070205E1,-7.026660442E-2,3.042638302E-2,1.635551453E-2
1.174869660E1,-1.103086472E-1,8.915632963E-3,2.364540100E-2
1.175669199E1,-1.051869392E-1,6.630837917E-3,3.806877136E-2
1.176468769E1,-1.027551889E-1,-1.716420054E-2,5.005168915E-2
1.177268362E1,-9.104013443E-2,-9.822577238E-3,2.846717834E-2
1.178067994E1,-7.016134262E-2,7.054895163E-3,3.794097900E-2
1.178870464E1,-4.476881027E-2,-1.197001338E-2,5.215835571E-2
1.179669965E1,-1.481175423E-2,2.427250147E-3,5.675983429E-2
1.180469666E1,3.176116943E-2,-2.427279949E-3,4.218196869E-2
1.181269144E1,3.318607807E-2,1.667502522E-2,3.005313873E-2
1.182068837E1,5.891001225E-2,2.138736844E-2,4.431724548E-2
1.182868276E1,4.675817490E-2,4.538625479E-3,3.949642181E-2
1.183667908E1,2.565681934E-2,6.863623857E-3,5.393123627E-2
1.184470563E1,1.193237305E-2,1.391577721E-2,4.684638977E-2
1.185270063E1,-3.256440163E-2,2.566900849E-2,6.136322021E-2
1.186069664E1,-3.159105778E-2,3.859251738E-3,5.193424225E-2
1.186869150E1,-5.931842327E-2,8.426040411E-3,4.969310760E-2
1.187668681E1,-7.042384148E-2,3.356784582E-3,2.348613739E-2
1.188468313E1,-5.528151989E-2,-1.125803590E-2,1.402568817E-2
1.189267829E1,-7.867002487E-2,1.960307360E-2,3.086471558E-2
1.190070561E1,-5.676579475E-2,1.220926642E-2,1.894378662E-2
1.190870016E1,-6.138241291E-2,2.554237843E-3,4.603385925E-3
1.191669586E1,-5.189430714E-2,2.535074949E-3,1.416587830E-2
1.192469210E1,-4.009819031E-2,-7.084429264E-3,4.526042938E-2
1.193268726E1,-3.316402435E-2,-2.268284559E-3,3.564453125E-2
1.194068381E1,-1.206254959E-2,-1.182985306E-2,3.796672821E-2
1.194867889E1,-1.491856575E-2,-2.182066441E-3,5.704879761E-2
1.195670444E1,6.187558174E-3,1.844167709E-4,6.894779205E-2
1.196470053E1,1.046276093E-2,-7.068693638E-3,6.167984009E-2
1.197269646E1,-6.537318230E-3,2.744793892E-5,4.487895966E-2
1.198069193E1,7.759690285E-3,2.339333296E-3,3.528785706E-2
1.198868724E1,-1.619136333E-2,3.574937582E-2,3.528213501E-2
1.199668241E1,3.119826317E-3,1.162913442E-2,1.614856720E-2
1.200467842E1,-2.761578560E-2,-4.502534866E-4,1.620674133E-2
1.201270389E1,-4.396617413E-2,-5.590021610E-4,3.542232513E-2
1.202070051E1,-3.646075726E-2,8.996486664E-3,3.068542480E-2
1.202869567E1,-7.944142818E-2,1.372519135E-2,4.267215729E-2
1.203669137E1,-6.992793083E-2,-7.827997208E-3,3.547954559E-2
1.204468669E1,-6.069386005E-2,2.087175846E-2,4.260540009E-2
1.205268247E1,-2.287542820E-2,1.612520218E-2,4.252719879E-2
1.206070948E1,-2.116870880E-2,9.018748999E-3,3.044986725E-2
1.206870372E1,-2.195084095E-2,1.141455770E-2,8.774757385E-3
1.207669996E1,-8.385419846E-3,-1.002719998E-2,3.977584839E-2
1.208469543E1,-6.619691849E-3,4.366010427E-3,3.728008270E-2
1.209269082E1,-9.445071220E-3,4.350304604E-3,3.481674194E-2
1.210068798E1,1.189959049E-2,2.334937453E-2,3.956699371E-2
1.210868222E1,2.421498299E-3,-1.023936272E-2,3.000354767E-2
1.211670831E1,5.081772804E-3,-7.465779781E-4,2.525520325E-2
1.212470462E1,-2.550041676E-2,1.106923819E-2,3.730773926E-2
1.213269971E1,-3.236055374E-3,3.671705723E-3,4.938602448E-2
1.214069633E1,-2.884912491E-2,2.263149619E-2,5.907249451E-2
1.214869057E1,-2.337121964E-2,1.288092136E-2,6.396579742E-2
1.215668597E1,-6.114947796E-2,6.210505962E-4,4.967498779E-2
1.216468321E1,-5.838894844E-2,1.004251838E-2,4.015159607E-2
1.217270775E1,-7.515525818E-2,-4.410713911E-3,3.057098389E-2
1.218070499E1,-8.960032463E-2,1.941946149E-2,2.815914154E-2
1.218869946E1,-6.828117371E-2,2.505481243E-4,1.615142822E-2
1.219669455E1,-6.162095070E-2,1.222461462E-2,1.846122742E-2
1.220469063E1,-4.555714130E-2,2.183887362E-2,2.074527740E-2
1.221268634E1,-2.963864803E-2,2.674672008E-2,1.103687286E-2
1.222068296E1,-3.063952923E-2,-1.389598846E-2,4.439735413E-2
1.222870843E1,4.297971725E-3,-6.682962179E-3,5.381774902E-2
1.223670359E1,1.770317554E-2,-2.113428712E-2,5.844879150E-2
1.224470022E1,2.189183235E-2,-2.368935943E-2,4.158687592E-2
1.225269469E1,4.889965057E-3,-4.804432392E-3,4.393291473E-2
1.226069154E1,-1.906585693E-2,9.359985590E-3,5.828857422E-2
1.226868693E1,-3.566813469E-2,-7.532149553E-3,5.352115631E-2
1.227668141E1,-3.798365593E-2,2.356225252E-2,5.113792419E-2
1.228470818E1,-5.945742130E-2,2.043426037E-3,4.157447815E-2
1.229270304E1,-4.988896847E-2,2.358704805E-2,3.678417206E-2
1.230069905E1,-4.035091400E-2,1.639583707E-2,2.720069885E-2
1.230869467E1,-2.853477001E-2,1.636207104E-2,1.999187469E-2
1.231669076E1,-1.675128937E-2,-5.123019218E-3,1.996517181E-2
1.232468669E1,-1.446676254E-2,6.859809160E-3,2.473545074E-2
1.233268177E1,-3.363037109E-2,-3.959238529E-4,2.473163605E-2
1.234070771E1,-4.077327251E-2,-5.256891251E-3,1.994705200E-2
1.234870333E1,-4.547929764E-2,1.138067245E-2,2.474498749E-2
1.235669872E1,-3.578269482E-2,-1.270094514E-2,3.433513641E-2
1.236469504E1,-4.067492485E-2,1.341238618E-2,3.431129456E-2
1.237269012E1,-5.764961243E-2,6.137192249E-3,2.230072021E-2
1.238068713E1,-7.214486599E-2,-1.307988167E-2,3.424930573E-2
1.238868099E1,-2.708125114E-2,3.620386124E-3,4.375648499E-2
1.239670746E1,-1.786565781E-2,-1.251876354E-3,4.608821869E-2
1.240470401E1,-1.825118065E-2,1.064717770E-2,5.320739746E-2
1.241269886E1,2.949595451E-3,1.539647579E-2,5.075550079E-2
1.242069579E1,-4.470467567E-3,8.205533028E-3,4.592800140E-2
1.242868996E1,-4.489302635E-3,5.836009979E-3,5.311012268E-2
1.243668566E1,-9.117126465E-3,8.295863867E-3,4.356098175E-2
1.244468136E1,-2.807867527E-2,-8.476763964E-3,3.401374817E-2
1.245270691E1,-3.975331783E-2,-8.417129517E-3,3.406429291E-2
1.246070353E1,-5.398535728E-2,-2.029731870E-2,2.451229095E-2
1.246869823E1,-5.864715576E-2,-1.111447811E-3,1.495647430E-2
1.247669432E1,-5.147182941E-2,1.076120138E-2,2.692222595E-2
1.248469032E1,-3.720033169E-2,1.313155890E-2,1.493644714E-2
1.249268449E1,-2.778553963E-2,8.241236210E-3,2.448368073E-2
1.250068165E1,-8.743762970E-3,-8.507728577E-3,3.404235840E-2
1.250870689E1,8.794069290E-4,-1.325345039E-2,3.405094147E-2
1.251670290E1,8.286595345E-3,-3.752470016E-3,4.126644135E-2
1.252469829E1,-1.764249802E-2,1.283663511E-2,4.372119904E-2
1.253269338E1,-3.380274773E-2,1.024210453E-2,6.056880951E-2
1.254069092E1,-3.076672554E-2,1.957061887E-2,4.390430450E-2
1.254868478E1,-5.179679394E-2,9.797722101E-3,4.398059845E-2
1.255668048E1,-5.385160446E-2,7.157146931E-3,3.923797607E-2
1.256470664E1,-3.448474407E-2,1.179376245E-2,1.771831512E-2
1.257270173E1,-4.880261421E-2,4.533439875E-3,2.011775970E-2
1.258069966E1,-2.969670296E-2,1.925945282E-3,9.489059448E-4
1.258869413E1,-4.407596588E-2,1.877158880E-3,2.728080750E-2
1.259668952E1,-5.613529682E-2,-1.724466681E-2,3.205585480E-2
1.260468584E1,-4.198205471E-2,-7.721155882E-3,4.638481140E-2
1.261268062E1,-5.912041664E-2,1.142340899E-2,4.871845245E-2
1.262070770E1,-5.493509769E-2,9.068280458E-3,4.862308502E-2
1.262870217E1,-4.117405415E-2,2.586707473E-2,5.092144012E-2
1.263669810E1,-1.813697815E-2,9.081363678E-3,6.513977051E-2
1.264469442E1,-1.668071747E-2,4.329770803E-3,5.062580109E-2
1.265268897E1,8.812546730E-3,4.321008921E-3,5.527877808E-2
1.266068590E1,-1.075553894E-2,-5.505084991E-4,5.042076111E-2
1.266868006E1,1.302540302E-2,-6.831884384E-4,3.123664856E-2
1.267670715E1,-6.039261818E-3,3.892660141E-3,3.842735291E-2
1.268470254E1,-1.058149338E-2,-3.516107798E-3,4.563999176E-2
1.269269786E1,-3.889310360E-2,2.022349834E-2,1.457595825E-2
1.270069395E1,-3.594362736E-2,1.041117311E-2,7.473945618E-3
1.270868865E1,-9.075880051E-3,3.170418739E-2,2.670383453E-2
1.271668381E1,-2.540886402E-2,1.248559356E-2,3.874111176E-2
1.272468074E1,-4.671800137E-2,-1.868090034E-2,4.835510254E-2
1.273270629E1,-6.817698479E-2,2.707540989E-3,6.272888184E-2
1.274070260E1,-5.627918243E-2,-6.973981857E-3,4.834747314E-2
1.274869707E1,-4.446387291E-2,4.839777946E-3,5.071067810E-2
1.275669270E1,-3.031086922E-2,-2.546608448E-3,2.672767639E-2
1.276468932E1,-2.814698219E-2,9.316802025E-3,3.147506714E-2
1.277268449E1,-1.870548725E-2,2.150744200E-3,2.666568756E-2
1.278068042E1,-2.834951878E-2,9.284675121E-3,3.383731842E-2
1.278870596E1,5.100011826E-3,-1.226794720E-2,3.382492065E-2
1.279670228E1,-1.403129101E-2,-1.462116838E-2,4.101276398E-2
1.280469806E1,-1.644861698E-2,-5.089044571E-3,3.621864319E-2
1.281269253E1,-3.546941280E-2,-1.703411341E-2,3.384685516E-2
1.282068946E1,-3.297758102E-2,-2.730816603E-3,3.625392914E-2
1.282868393E1,-2.570879459E-2,4.305392504E-3,3.386974335E-2
1.283667963E1,-2.801442146E-2,-5.513131618E-4,3.388118744E-2
1.284470641E1,-1.590061188E-2,1.127046347E-2,3.868770599E-2
1.285270180E1,-4.679167271E-2,1.566588879E-3,3.632545471E-2
1.286069804E1,-2.742815018E-2,1.430869102E-3,2.917194366E-2
1.286869321E1,-2.009952068E-2,1.327997446E-2,2.679729462E-2
1.287668860E1,-4.147326946E-2,1.792433858E-2,2.921390533E-2
1.288468492E1,-3.427362442E-2,5.813390017E-3,2.681732178E-2
1.289267992E1,-2.711570263E-2,8.118361235E-3,2.441596985E-2
1.290070709E1,-4.402112961E-2,1.046150923E-2,2.917957306E-2
1.290870187E1,-2.979362011E-2,2.000963688E-2,4.352188110E-2
1.291669780E1,-4.196953773E-2,3.261417150E-3,4.588317871E-2
1.292469350E1,-3.731131554E-2,-1.119077206E-2,6.022357941E-2
1.293268858E1,-4.460918903E-2,1.269751787E-2,5.541515350E-2
1.294068405E1,-3.270614147E-2,7.840991020E-3,5.061435699E-2
1.294867914E1,-2.334082127E-2,1.264682412E-2,5.058097839E-2
1.295670615E1,-2.841854095E-2,-1.704901457E-3,3.616905212E-2
1.296470162E1,-1.930081844E-2,-1.361948252E-2,3.849220276E-2
1.297269693E1,-1.027143002E-2,-1.683086157E-3,3.840351105E-2
1.298069364E1,-2.985811234E-2,-2.565535903E-2,2.636146545E-2
1.298868872E1,-8.574724197E-3,-1.601999998E-2,3.350448608E-2
1.299668350E1,-2.784824371E-2,1.510614157E-2,3.348541260E-2
1.300468005E1,-2.069747448E-2,3.098666668E-3,2.629566193E-2
1.301270529E1,-1.347839832E-2,1.019844413E-2,2.629852295E-2
1.302070222E1,-2.300345898E-2,1.257854700E-2,3.588294983E-2
1.302869638E1,-2.762448788E-2,1.965519786E-2,2.872371674E-2
1.303669239E1,-1.550900936E-2,2.814680338E-3,3.592681885E-2
1.304468786E1,-2.970302105E-2,-6.782054901E-3,4.313564301E-2
1.305268294E1,-1.033711433E-2,-6.729304790E-3,3.359508514E-2
1.306068049E1,-1.731932163E-2,-6.774485111E-3,4.320240021E-2
1.306870512E1,-2.910995483E-2,7.579863071E-3,4.323101044E-2
1.307670012E1,-4.095876217E-2,-1.397725940E-2,4.325103760E-2
1.308469767E1,-3.852939606E-2,9.898096323E-3,4.085922241E-2
1.309269160E1,-3.623485565E-2,-1.411965489E-2,4.084110260E-2
1.310068846E1,-3.157711029E-2,-2.188175917E-3,3.602981567E-2
1.310868200E1,-6.518828869E-2,1.206156611E-2,3.361701965E-2
1.311670917E1,-5.582952499E-2,9.562969208E-3,3.836727142E-2
1.312470633E1,-5.367088318E-2,4.754453897E-3,2.193450928E-5
1.313270149E1,-6.829905510E-2,3.101691604E-2,2.152442932E-2
1.314069773E1,-4.237365723E-2,2.146512270E-2,1.906585693E-2
1.314869251E1,-5.483019352E-2,3.999471664E-5,1.899147034E-2
1.315668729E1,-2.821326256E-3,-2.607572079E-2,4.283523560E-2
1.316468391E1,-5.944371223E-3,-2.359539270E-2,4.990386963E-2
1.317270923E1,5.166530609E-4,-3.304275870E-2,4.979324341E-2
1.318070647E1,1.670348644E-2,-6.783694029E-3,4.969882965E-2
1.318869971E1,-9.949207306E-3,-4.390329123E-3,4.725456238E-2
1.319669595E1,-7.691383362E-3,-9.193092585E-3,6.877994537E-2
1.320469196E1,-1.493644714E-2,1.472124457E-2,5.679798126E-2
1.321268743E1,-3.410959244E-2,2.842158079E-3,4.003810883E-2
1.322068398E1,-3.164958954E-2,1.255121827E-2,4.005336761E-2
1.322870960E1,-1.260030270E-2,7.888108492E-3,2.328300476E-2
1.323670468E1,-1.496410370E-2,8.201301098E-4,3.286743164E-2
1.324470131E1,-1.957893372E-2,-6.170481443E-3,2.093124390E-2
1.325269539E1,-1.939213276E-2,1.299503446E-2,3.053855896E-2
1.326069232E1,-1.187872887E-2,3.400444984E-3,2.580165863E-2
1.326868687E1,-4.261004925E-2,8.159846067E-3,1.868152618E-2
1.327668288E1,-3.511369228E-2,-8.540511131E-3,3.549289703E-2
1.328470928E1,-5.638504028E-2,-1.098099351E-2,2.835273743E-2
1.329270436E1,-6.101381779E-2,5.823820829E-3,3.077411652E-2
1.330070098E1,-5.632197857E-2,-1.571080089E-2,9.211540222E-3
1.330869584E1,-5.651736259E-2,-1.808920503E-2,2.833461761E-2
1.331669146E1,-4.730725288E-2,1.240253448E-3,2.828311920E-2
1.332468716E1,-2.623581886E-2,6.229609251E-3,4.736709595E-2
1.333268225E1,-1.471698284E-2,-3.173887730E-3,4.969406128E-2
1.334071003E1,6.420731544E-3,1.371890306E-2,5.202865601E-2
1.334870481E1,2.053368092E-2,9.047508240E-3,6.396293640E-2
1.335669982E1,3.258025646E-2,-3.790557384E-4,5.440330505E-2
1.336469613E1,2.803838253E-2,1.650381088E-2,5.205249786E-2
1.337269099E1,-4.792332649E-3,2.255380154E-3,4.498481750E-2
1.338068884E1,-2.551329136E-2,7.223457098E-3,5.469894409E-2
1.338868300E1,-4.380333424E-2,-4.547029734E-3,4.047966003E-2
1.339670824E1,-4.539299011E-2,-1.410302520E-2,3.103256226E-2
1.340470479E1,-5.192399025E-2,-6.726086140E-3,1.677799225E-2
1.341269934E1,-7.054448128E-2,1.497054100E-2,1.447486877E-2
1.342069689E1,-4.377508163E-2,7.924079895E-3,1.454925537E-2
1.342869136E1,-3.860604763E-2,-1.516580582E-3,1.222038269E-2
1.343668667E1,-1.680088043E-2,-1.097679138E-2,1.226615906E-2
1.344468307E1,-3.568172455E-2,3.531783819E-3,3.146839142E-2
1.345270854E1,-6.627678871E-3,1.323702931E-2,3.631305695E-2
1.346070516E1,-2.780508995E-2,1.307100058E-3,4.834556580E-2
1.346869963E1,-3.716838360E-2,-3.426641226E-3,4.359340668E-2
1.347669472E1,-4.656374454E-2,1.471012831E-3,5.320358276E-2
1.348469196E1,-6.107151508E-2,-8.650124073E-4,5.557632446E-2
1.349268642E1,-6.371998787E-2,1.836240292E-2,4.596138000E-2
1.350068282E1,-4.725658894E-2,1.361149549E-2,4.830932617E-2
1.350870806E1,-1.888382435E-2,-5.799233913E-4,3.868198395E-2
1.351670314E1,1.661682129E-2,-1.484379172E-2,2.664756775E-2
1.352469938E1,9.129285812E-3,-2.681803703E-2,1.941680908E-2
1.353269539E1,2.586340904E-2,1.154249907E-2,2.420234680E-2
1.354069148E1,1.654589176E-2,4.403501749E-3,3.142833710E-2
1.354868618E1,-9.259581566E-3,2.086013556E-3,2.912235260E-2
1.355668127E1,-1.339995861E-2,1.172170043E-2,4.119873047E-2
1.356470904E1,-3.652906418E-2,-7.294714451E-3,4.372882843E-2
1.357270321E1,-4.305541515E-2,1.437681913E-2,5.341529846E-2
1.358070037E1,-6.635773182E-2,4.895657301E-3,6.070423126E-2
1.358869453E1,-5.632376671E-2,-4.672914743E-3,3.683567047E-2
1.359669085E1,-6.572306156E-2,-2.252191305E-3,5.362510681E-2
1.360468686E1,-6.572580338E-2,1.999139786E-4,3.447246552E-2
1.361268194E1,-5.628347397E-2,-6.918609142E-3,2.727031708E-2
1.362070903E1,-2.549934387E-2,-2.087622881E-3,1.285171509E-2
1.362870327E1,-1.632452011E-2,7.619291544E-3,1.518726349E-2
1.363669897E1,4.924297333E-3,2.196055651E-2,2.231979370E-2
1.364469528E1,-9.717702866E-3,5.538165569E-4,3.664588928E-2
1.365269029E1,2.171039581E-3,-1.371443272E-2,4.860782623E-2
1.366068669E1,2.355575562E-3,-4.095077515E-3,4.863834381E-2
1.366868200E1,-2.056717873E-3,5.526989698E-3,4.630565643E-2
1.367670724E1,-2.302694321E-2,2.219778299E-2,7.033729553E-2
1.368470356E1,-1.753485203E-2,5.406647921E-3,5.847930908E-2
1.369269903E1,-3.586828709E-2,-8.958846331E-3,5.142784119E-2
1.370069596E1,-3.024232388E-2,6.058216095E-4,6.353378296E-2
1.370869004E1,-5.340731144E-2,7.687151432E-3,4.689502716E-2
1.371668575E1,-4.558515549E-2,5.331575871E-3,3.502941132E-2
1.372468176E1,-5.462527275E-2,1.735106111E-2,1.835727692E-2
1.373270761E1,-5.181205273E-2,-1.702636480E-3,1.842880249E-2
1.374070423E1,-4.207241535E-2,1.038029790E-2,2.324676514E-2
1.374869901E1,-4.682826996E-2,-1.339611411E-2,1.128768921E-2
1.375669379E1,-2.288579941E-2,-1.088544726E-2,-6.799697876E-4
1.376468980E1,-1.573359966E-2,-1.157790422E-3,2.565765381E-2
1.377268589E1,-1.338219643E-2,2.049443126E-2,4.001903534E-2
1.378068128E1,-2.306437492E-2,-8.638501167E-4,4.958629608E-2
1.378870706E1,-3.505551815E-2,6.536543369E-3,5.198478699E-2
1.379670283E1,-1.599955559E-2,4.296600819E-3,4.958057404E-2
1.380469969E1,-1.602172852E-2,-3.843903542E-4,6.633949280E-2
1.381269362E1,-2.092885971E-2,9.391486645E-3,6.872272491E-2
1.382069055E1,-4.235029221E-3,-9.646207094E-3,4.477405548E-2
1.382868564E1,-1.866877079E-2,-7.114201784E-3,4.716205597E-2
1.383668011E1,-1.404237747E-2,7.365167141E-3,3.756332397E-2
1.384470743E1,-2.617692947E-2,2.758502960E-3,2.796649933E-2
1.385270282E1,-2.865576744E-2,-1.930117607E-3,2.077484131E-2
1.386070014E1,-2.144134045E-2,1.247707009E-2,1.838588715E-2
1.386869391E1,-4.572153091E-3,2.958297729E-3,2.319431305E-2
1.387668961E1,4.079341888E-4,-4.147082567E-3,2.562236786E-2
1.388468539E1,-8.973479271E-3,3.119021654E-3,3.523349762E-2
1.389268071E1,-1.344370842E-2,2.950644493E-2,4.007530212E-2
1.390070818E1,-2.266108990E-2,7.455050945E-4,4.013252258E-2
1.390870172E1,-5.471110344E-3,-1.674056053E-3,4.738235474E-2
1.391669766E1,-1.954436302E-2,-4.052489996E-3,3.306579590E-2
1.392469459E1,-4.323303699E-2,-1.348310709E-2,4.268836975E-2
1.393268914E1,-3.101170063E-2,8.231908083E-3,4.034042358E-2
1.394068661E1,-3.086471558E-2,-8.404254913E-3,3.079223633E-2
1.394868054E1,-3.546094894E-2,1.562085748E-2,4.519176483E-2
1.395670701E1,-3.289163113E-2,-2.022641897E-2,3.564548492E-2
1.396470263E1,-1.353156567E-2,-5.812764168E-3,3.568077087E-2
1.397269749E1,-1.097798347E-2,8.583635092E-3,1.176548004E-2
1.398069411E1,-2.747750282E-2,6.246209145E-3,3.096294403E-2
1.398868889E1,-1.761007309E-2,-5.655854940E-3,2.861785889E-2
1.399668459E1,-1.743364334E-2,-3.246515989E-3,2.625274658E-2
1.400468145E1,-3.385043144E-2,6.469786167E-3,4.307174683E-2
1.401270584E1,-2.534627914E-3,1.372119784E-2,2.874088287E-2
1.402070246E1,-2.155745029E-2,6.670653820E-3,4.792022705E-2
1.402869816E1,-2.859163284E-2,-2.824544907E-3,4.555320740E-2
1.403669317E1,-9.284138680E-3,-7.447034121E-3,5.037212372E-2
1.404468949E1,-1.625776291E-2,1.659002900E-2,5.759143829E-2
1.405268427E1,-2.566969395E-2,7.089853287E-3,4.325580597E-2
1.406071228E1,-8.632183075E-3,-7.245481014E-3,4.090881348E-2
1.406870613E1,-2.745962143E-2,4.704743624E-3,4.814243317E-2
1.407670152E1,-4.617798328E-2,2.357423306E-3,3.384971619E-2
1.408469822E1,-4.829239845E-2,-1.014173031E-4,4.346847534E-2
1.409269300E1,-5.530345440E-2,-1.198816299E-2,1.716423035E-2
1.410068994E1,-5.771386623E-2,4.848003387E-3,2.434635162E-2
1.410868402E1,-5.296921730E-2,9.733468294E-3,1.237201691E-2
1.411671080E1,-4.354894161E-2,1.701280475E-2,1.953220367E-2
1.412470650E1,-2.709233761E-2,1.230946183E-2,3.385162354E-2
1.413270105E1,3.486394882E-3,5.272477865E-3,3.376865387E-2
1.414069821E1,-6.768226624E-3,-2.577060461E-2,4.084491730E-2
1.414869276E1,2.098047733E-2,-2.832514048E-2,4.786300659E-2
1.415668869E1,2.299678326E-2,-1.426887512E-2,4.539680481E-2
1.416468477E1,5.203139782E-2,-2.604007721E-3,4.543495178E-2
1.417271025E1,3.130984306E-2,4.535377026E-3,5.274868011E-2
1.418070664E1,-2.533364296E-2,1.891866326E-2,6.964206696E-2
1.418870103E1,-7.507789135E-2,1.672229171E-2,7.452392578E-2
1.419669681E1,-7.709026337E-2,2.642121911E-2,6.261825562E-2
1.420469405E1,-4.094505310E-2,1.688444614E-2,4.350280762E-2
1.421268814E1,-2.405428886E-2,2.885368466E-2,2.437114716E-2
1.422068507E1,-1.926350594E-2,1.687356830E-2,1.000595093E-2
1.422871069E1,-1.931345463E-2,2.890196443E-2,1.239490509E-2
1.423670601E1,-2.661859989E-2,1.942017674E-2,9.984016418E-3
1.424470140E1,-7.577300072E-3,9.931772947E-3,3.630638123E-2
1.425269741E1,-2.211058140E-2,2.680748701E-3,2.909278870E-2
1.426069373E1,-2.464735508E-2,-6.961971521E-3,2.906799316E-2
1.426868889E1,-3.671240807E-2,2.552688122E-3,3.144550323E-2
1.427668328E1,-3.191947937E-2,4.267692566E-5,4.580593109E-2
1.428471137E1,-5.110871792E-2,-2.630561590E-3,2.184867859E-2
1.429270607E1,-2.969431877E-2,6.800711155E-3,3.139781952E-2
1.430070246E1,-2.043104172E-2,2.581164241E-2,3.613090515E-2
1.430869693E1,-4.002213478E-3,-2.925783396E-3,5.762481689E-2
1.431669171E1,1.257872581E-2,-5.283772945E-3,5.520343781E-2
1.432468887E1,1.970267296E-2,-5.136430264E-4,6.716346741E-2
1.433268396E1,5.503296852E-3,1.158529520E-2,6.240749359E-2
1.434071074E1,1.140832901E-3,-1.706585288E-2,6.008529663E-2
1.434870590E1,-1.266753674E-2,1.651415229E-2,4.102325439E-2
1.435670037E1,-2.642977238E-2,6.980836391E-3,2.915096283E-2
1.436469668E1,-2.114152908E-2,7.002681494E-3,2.923297882E-2
1.437269262E1,-3.747773170E-2,-1.441752911E-2,5.363464355E-3
1.438068901E1,-4.679751396E-2,-1.909062266E-2,7.804870605E-3
1.438868348E1,-3.463673592E-2,1.927912235E-4,2.699375153E-2
1.439670957E1,-3.216278553E-2,2.040863037E-4,1.982402802E-2
1.440470534E1,-8.003115654E-3,-7.023960352E-3,2.464580536E-2
1.441270074E1,-1.018106937E-2,-2.249807119E-3,1.749801636E-2
1.442069821E1,-1.459813118E-2,1.677590609E-2,2.713108063E-2
1.442869145E1,-1.908731461E-2,2.139428258E-2,4.632663727E-2
1.443668753E1,-5.236840248E-2,3.557294607E-2,4.396343231E-2
1.444468439E1,-4.036223888E-2,9.072512388E-3,3.199291229E-2
1.445270940E1,-5.969178677E-2,3.048813343E-2,5.590152740E-2
1.446070571E1,-4.326570034E-2,1.848432422E-2,5.105781555E-2
1.446870080E1,-4.613912106E-2,-3.121107817E-3,5.097770691E-2
1.447669588E1,-2.028000355E-2,-2.464774251E-2,3.653621674E-2
1.448469274E1,3.187537193E-3,-3.189563751E-3,4.124450684E-2
1.449268729E1,4.341602325E-4,3.983438015E-3,3.879165649E-2
1.450068453E1,2.676939964E-2,-3.285288811E-3,2.921199799E-2
1.450870946E1,1.980161667E-2,8.583843708E-3,2.206039429E-2
1.451670477E1,2.271378040E-2,1.573812962E-2,2.453708649E-2
1.452470086E1,-1.019454002E-2,2.286687493E-2,4.618167877E-2
1.453269564E1,-2.634823322E-2,2.046766877E-2,3.909683228E-2
1.454069226E1,-4.497075081E-2,1.329627633E-2,3.679084778E-2
1.454868727E1,-7.101655006E-2,6.056815386E-3,4.641151428E-2
1.455668266E1,-6.858897209E-2,5.998849869E-3,2.965545654E-2
1.456470883E1,-6.154167652E-2,8.303940296E-3,4.399585724E-2
1.457270460E1,-3.562474251E-2,-6.116598845E-3,2.716636658E-2
1.458070177E1,-3.379929066E-2,1.065173745E-2,4.144001007E-2
1.458869508E1,-3.935670853E-2,-1.091259718E-2,3.652572632E-2
1.459669171E1,6.163120270E-4,1.309108734E-2,3.162193298E-2
1.460468833E1,7.173657417E-3,2.513197064E-2,4.828262329E-2
1.461268280E1,2.830326557E-2,1.071971655E-2,4.821300507E-2
1.462070989E1,2.817809582E-2,1.048922539E-3,5.297756195E-2
1.462870459E1,2.111506462E-2,-3.854691982E-3,5.778121948E-2
1.463670037E1,1.437437534E-2,7.807016373E-4,5.066490173E-2
1.464469630E1,1.252877712E-2,2.454626560E-2,3.877639771E-2
1.465269077E1,1.567685604E-2,1.474726200E-2,3.649616241E-2
1.466068801E1,-3.365445137E-2,1.930624247E-2,4.143047333E-2
1.466868217E1,-3.030788898E-2,-1.197108626E-2,2.721405029E-2
1.467670833E1,-6.537377834E-2,-4.941105843E-3,2.495098114E-2
1.468470442E1,-5.273783207E-2,1.180002093E-2,2.505779266E-2
1.469270012E1,-3.818285465E-2,-4.989624023E-3,3.705978394E-2
1.470069582E1,-3.578591347E-2,9.431779385E-3,2.509021759E-2
1.470869122E1,-4.080617428E-2,7.029175758E-3,4.181289673E-2
1.471668753E1,-2.199780941E-2,-1.575946808E-4,3.217887878E-2
1.472468285E1,-2.003860474E-2,2.381065488E-2,2.253246307E-2
1.473270839E1,-1.802587509E-2,1.429578662E-2,2.965545654E-2
1.474070533E1,-1.125144958E-2,-2.542853355E-3,3.676986694E-2
1.474869949E1,7.632613182E-3,-1.211166382E-2,4.151439667E-2
1.475669557E1,1.942276955E-2,9.415090084E-3,3.669548035E-2
1.476469212E1,-9.318947792E-3,1.166781783E-2,4.147815704E-2
1.477268605E1,-9.191632271E-3,-1.234376431E-2,4.149532318E-2
1.478068299E1,-1.630449295E-2,-3.766715527E-4,3.432369232E-2
1.478870876E1,-4.477322102E-2,9.093552828E-3,5.112266541E-2
1.479670323E1,-2.065813541E-2,-1.008865237E-2,3.917789459E-2
1.480469955E1,-3.956758976E-2,1.856109500E-2,2.724361420E-2
1.481269464E1,-4.664540291E-2,4.112422466E-3,2.246952057E-2
1.482069195E1,-3.459906578E-2,1.838043332E-2,3.923702240E-2
1.482868673E1,-2.748942375E-2,1.598536968E-3,3.922462463E-2
1.483668205E1,-5.153882504E-2,1.352700591E-2,3.202342987E-2
1.484470821E1,-3.027367592E-2,1.596409082E-2,4.155540466E-2
1.485270391E1,-1.384663582E-2,-1.031416655E-2,4.629325867E-2
1.486070023E1,1.955032349E-5,-7.917404175E-3,5.100059509E-2
1.486869500E1,1.877319813E-2,-1.496496797E-2,5.093955994E-2
1.487669040E1,4.474341869E-2,-1.261821389E-2,4.848480225E-2
1.488468587E1,3.034257889E-2,-1.027706265E-2,2.453517914E-2
1.489069757E1,1.380920410E-2,-1.273864508E-2,3.893470764E-2
1.489268149E1,2.099180222E-2,-1.752704382E-2,3.654098511E-2
1.490070919E1,-9.717822075E-3,3.262501955E-2,2.702617645E-2
1.490870405E1,-1.883244514E-2,2.300533652E-2,2.709960938E-2
1.491669875E1,-2.315700054E-2,1.095202565E-2,1.280689240E-2
1.492469568E1,-4.194509983E-2,-3.373146057E-3,1.765537262E-2
1.493269084E1,-3.447699547E-2,1.584231853E-2,3.925228119E-2
1.494068739E1,-3.678202629E-2,1.567721367E-3,2.969264984E-2
1.494868125E1,-3.205108643E-2,-1.517033577E-2,5.123233795E-2
1.495670748E1,-2.978610992E-2,4.135787487E-3,7.515907288E-2
1.496470373E1,-2.531135082E-2,4.208296537E-3,4.638099670E-2
1.497269950E1,-3.770339489E-2,4.192620516E-3,4.631137848E-2
1.498069605E1,-6.966829300E-3,6.639510393E-3,3.906726837E-2
1.498868967E1,-1.210618019E-2,1.380223036E-2,2.703857422E-2
1.499668568E1,-2.430212498E-2,6.570965052E-3,2.221298218E-2
1.500468223E1,-1.494288445E-2,6.474673748E-3,2.456760406E-2
1.501270755E1,-3.422975540E-2,1.115271449E-2,1.496601105E-2
1.502070417E1,-1.757216454E-2,1.591417193E-2,1.494789124E-2
1.502869895E1,-1.048147678E-2,1.585698128E-2,2.690219879E-2
1.503669465E1,-2.250814438E-2,8.692711592E-3,3.886413574E-2
1.504469097E1,-1.077830791E-2,6.287425756E-3,4.600811005E-2
1.505268513E1,-1.588141918E-2,-1.282784343E-2,5.553531647E-2
1.506071314E1,-6.670236588E-3,-1.045161486E-2,6.026458740E-2
1.506870661E1,-9.340047836E-3,-1.541113853E-2,3.866481781E-2
1.507670300E1,-1.429891586E-2,1.324862242E-3,4.581928253E-2
1.508469901E1,-1.941192150E-2,6.039470434E-3,5.294704437E-2
1.509269433E1,-2.686774731E-2,-1.064226031E-2,5.290508270E-2
1.510069041E1,-5.110287666E-2,8.645564318E-3,3.370857239E-2
1.510868573E1,-3.936576843E-2,1.359710097E-2,4.086017609E-2
1.511668112E1,-3.725624084E-2,1.605528593E-2,4.081630707E-2
1.512470798E1,-1.680135727E-3,2.574911714E-2,1.921749115E-2
1.513270245E1,3.482103348E-4,3.060579300E-2,3.831481934E-2
1.514069930E1,1.208007336E-2,2.114152908E-2,4.306793213E-2
1.514869416E1,2.299904823E-3,2.604839206E-2,3.825092316E-2
1.515668955E1,-4.803657532E-3,-5.109578371E-3,1.671600342E-2
1.516468610E1,-7.159352303E-3,2.352359891E-2,4.066085815E-2
1.517271111E1,-1.666724682E-2,-7.738053799E-3,3.827190399E-2
1.518070796E1,-3.337693214E-2,-3.411763906E-2,3.588485718E-2
1.518870282E1,-3.819489479E-2,-5.411267281E-3,2.151393890E-2
1.519669844E1,-3.825700283E-2,1.356709003E-2,2.149772644E-2
1.520469422E1,-5.280101299E-2,6.264388561E-3,1.906967163E-2
1.521268992E1,-3.394651413E-2,8.607715368E-3,4.296112061E-2
1.522068562E1,-2.473962307E-2,1.287162304E-3,4.289722443E-2
1.522871148E1,-3.601431847E-3,-2.031457424E-2,5.240535736E-2
1.523670648E1,7.875204086E-3,-6.093144417E-3,6.429195404E-2
1.524470342E1,-9.139657021E-3,-3.644704819E-3,5.946445465E-2
1.525269796E1,3.378236294E-2,1.185715199E-3,5.464935303E-2
1.526069459E1,2.194476128E-2,1.077237725E-2,5.227661133E-2
1.526868998E1,1.743102074E-2,1.313370466E-2,5.471420288E-2
1.527668437E1,5.981206894E-3,2.269718051E-2,3.803825378E-2
1.528471115E1,-5.481839180E-3,1.031279564E-3,2.853965759E-2
1.529270662E1,-1.677906513E-2,-1.101306081E-2,4.779911041E-2
1.530070355E1,-2.819359303E-2,8.079349995E-3,1.676273346E-2
1.530869802E1,-3.967654705E-2,8.061587811E-3,1.923465729E-2
1.531669342E1,-1.768267155E-2,2.957695723E-2,2.170085907E-2
1.532468996E1,-1.975178719E-2,1.515212655E-2,2.893257141E-2
1.533268444E1,-9.791612625E-3,-4.036337137E-3,2.659988403E-2
1.534071214E1,-3.096067905E-2,-4.146426916E-3,4.820442200E-2
1.534870661E1,-3.311336040E-2,2.863794565E-3,4.823780060E-2
1.535670138E1,-3.299987316E-2,9.799212217E-3,4.824733734E-2
1.536469832E1,-5.223393440E-2,3.604161739E-2,4.104900360E-2
1.537269317E1,-6.206119061E-2,7.300943136E-3,3.621959686E-2
1.538069003E1,-2.916598320E-2,1.162588596E-4,5.287742615E-2
1.538868419E1,-3.480970860E-2,-2.209156752E-3,5.034732819E-2
1.539671043E1,-1.637017727E-2,-1.416081190E-2,5.023288727E-2
1.540470698E1,4.552245140E-3,-1.894080639E-2,3.097820282E-2
1.541270175E1,1.139175892E-2,-1.180684566E-2,3.570938110E-2
1.542069907E1,4.026412964E-3,-7.116645575E-3,2.849388123E-2
1.542869354E1,8.813381195E-3,2.442538738E-3,4.285812378E-2
1.543668855E1,8.988976479E-3,9.585350752E-3,3.809738159E-2
1.544468517E1,4.563808441E-3,1.424539089E-2,3.815078735E-2
1.545271110E1,-4.482030869E-3,2.128946781E-2,3.104972839E-2
1.546070765E1,-3.515338898E-2,2.839598060E-2,3.830242157E-2
1.546870151E1,-4.188656807E-2,1.881378889E-2,5.034637451E-2
1.547669721E1,-5.359828472E-2,6.769090891E-3,4.559707642E-2
1.548469360E1,-4.163885117E-2,-4.000365734E-4,3.601932526E-2
1.549268861E1,-4.914438725E-2,6.733268499E-3,3.117656708E-2
1.550068470E1,-5.681931973E-2,4.296004772E-3,3.348922729E-2
1.550870994E1,-2.164208889E-2,4.360675812E-3,2.858352661E-2
1.551670556E1,-5.776524544E-3,-2.850383520E-3,2.125644684E-2
1.552470188E1,2.689850330E-2,1.157170534E-2,1.872730255E-2
1.553269758E1,1.671433449E-2,-2.772301435E-3,3.299617767E-2
1.554069397E1,2.343118191E-2,1.412060857E-2,5.207920074E-2
1.554868813E1,4.245710373E-2,6.907194853E-3,4.248046875E-2
1.555668352E1,2.835476398E-2,1.870921254E-2,5.209350586E-2
1.556471084E1,2.606630325E-3,1.137122512E-2,7.133674622E-2
1.557270600E1,8.142471313E-3,3.509730101E-2,4.750728607E-2
1.558070201E1,-1.980447769E-2,1.570671797E-2,3.565502167E-2
1.558869679E1,-3.351294994E-2,-6.059080362E-3,3.335857391E-2
1.559669303E1,-5.200970173E-2,8.257985115E-3,2.867412567E-2
1.560468912E1,-3.944766521E-2,-1.349478960E-3,1.919269562E-2
1.561268359E1,-5.824232101E-2,1.770845056E-2,3.121852875E-2
1.562071121E1,-5.328547955E-2,8.121222258E-3,5.518817902E-2
1.562870599E1,-3.906977177E-2,3.378272057E-3,1.206874847E-2
1.563670115E1,-2.497637272E-2,1.540425420E-2,2.878570557E-2
1.564469801E1,8.089900017E-3,-8.463054895E-3,2.392673492E-2
1.565269217E1,1.246547699E-2,-1.076051593E-2,1.907539368E-2
1.566068887E1,2.565860748E-3,-1.130133867E-3,4.296684265E-2
1.566868357E1,1.925778389E-2,5.966275930E-3,4.534816742E-2
1.567671073E1,9.858369827E-3,1.787829399E-2,5.974006653E-2
1.568470605E1,-6.640672684E-3,1.065671444E-3,5.499172211E-2
1.569270090E1,-3.027606010E-2,1.067367196E-2,4.307079315E-2
1.570069776E1,-2.521407604E-2,2.972993255E-2,2.635288239E-2
1.570869192E1,-2.258932590E-2,1.546439528E-2,4.554748535E-2
1.571668762E1,-1.998424530E-2,5.819946527E-3,3.839588165E-2
1.572468371E1,-1.021218300E-2,-1.574468613E-2,2.884960175E-2
1.573270956E1,-2.663671970E-2,1.060682535E-2,2.890396118E-2
1.574070642E1,-2.879452705E-2,8.218973875E-3,3.612613678E-2
1.574870058E1,-2.634108067E-2,1.543113589E-2,4.092502594E-2
1.575669567E1,-4.824399948E-3,-1.317456365E-2,3.374195099E-2
1.576469298E1,-2.656126022E-2,1.088643074E-2,2.653312683E-2
1.577268745E1,-2.440762520E-2,2.292931080E-2,2.170848846E-2
1.578068438E1,-1.034414768E-2,3.833889961E-3,3.123855591E-2
1.578870901E1,-3.509640694E-3,2.539911866E-2,5.033588409E-2
1.579670463E1,-6.294131279E-3,1.105621457E-2,5.027389526E-2
1.580470041E1,1.506626606E-2,1.817142963E-2,3.348064423E-2
1.581269604E1,2.458894253E-2,6.166756153E-3,3.825950623E-2
1.582069304E1,3.671634197E-2,1.329904795E-2,3.349494934E-2
1.582868752E1,2.031600475E-2,2.279785275E-2,4.073333740E-2
1.583668314E1,2.314090729E-2,2.032095194E-2,4.319381714E-2
1.584470876E1,-1.212561131E-2,8.440226316E-3,4.569530487E-2
1.585270470E1,-1.163136959E-2,8.522510529E-3,4.577922821E-2
1.586070170E1,-1.835763454E-2,1.337519288E-2,4.585552216E-2
1.586869579E1,-2.029645443E-2,-8.975863457E-4,3.396129608E-2
1.587669188E1,-2.703058720E-2,-7.882118225E-4,5.079746246E-2
1.588468873E1,-2.196562290E-2,3.995239735E-3,3.647613525E-2
1.589268228E1,-2.884554863E-2,2.552750707E-2,3.891849518E-2
1.590070936E1,-3.113400936E-2,1.587688923E-3,2.935886383E-2
1.590870506E1,-2.400398254E-2,1.132017374E-2,3.414440155E-2
1.591670053E1,-4.105269909E-2,1.147562265E-2,3.649806976E-2
1.592469708E1,-2.939248085E-2,4.465162754E-3,3.166580200E-2
1.593269124E1,-1.049292088E-2,2.222001553E-3,3.881168365E-2
