"Time (s)","Acceleration x (m/s^2)","Acceleration y (m/s^2)","Acceleration z (m/s^2)"
5.218202000E-3,-9.744400978E-1,-6.009446383E-1,9.773131371E0
7.221465000E-3,-9.385270476E-1,-6.081272364E-1,9.773131371E0
9.327007000E-3,-8.834604025E-1,-6.536170840E-1,9.787496567E0
1.130978200E-2,-8.714894056E-1,-6.799532771E-1,9.811438560E0
1.332424700E-2,-8.738836050E-1,-6.727706790E-1,9.828198433E0
1.530925200E-2,-8.714894056E-1,-6.751648784E-1,9.816226959E0
1.732210200E-2,-9.002198577E-1,-6.823474765E-1,9.756371498E0
1.930556900E-2,-9.193734527E-1,-6.775590777E-1,9.739612579E0
2.132026500E-2,-9.600749016E-1,-6.584054828E-1,9.742006302E0
2.330342300E-2,-9.840168953E-1,-6.536170840E-1,9.789890289E0
2.531750500E-2,-9.935936928E-1,-6.488286853E-1,9.794678688E0
2.730150900E-2,-1.003170490E0,-6.320692301E-1,9.782708168E0
2.931566800E-2,-1.000776291E0,-6.153098345E-1,9.775525093E0
3.129936400E-2,-9.720458984E-1,-6.248866320E-1,9.787496567E0
3.331421500E-2,-9.648633003E-1,-6.344634295E-1,9.789890289E0
3.532675800E-2,-9.481038451E-1,-6.296750307E-1,9.792284966E0
3.731107000E-2,-8.738836050E-1,-6.536170840E-1,9.777919769E0
3.932407500E-2,-8.738836050E-1,-6.536170840E-1,9.777919769E0
4.130869400E-2,-8.619126081E-1,-6.536170840E-1,9.765948296E0
4.332346800E-2,-8.475474119E-1,-6.248866320E-1,9.775525093E0
4.530678000E-2,-8.259995580E-1,-6.296750307E-1,9.816226959E0
4.732093900E-2,-8.164227605E-1,-6.272808313E-1,9.818621635E0
4.930471200E-2,-8.044517636E-1,-6.368576288E-1,9.799467087E0
5.131856200E-2,-8.068459630E-1,-6.679822803E-1,9.773131371E0
5.330256700E-2,-8.068459630E-1,-6.775590777E-1,9.763554573E0
5.531764800E-2,-7.996633649E-1,-6.488286853E-1,9.763554573E0
5.730003800E-2,-7.900865674E-1,-6.536170840E-1,9.773131371E0
5.931481100E-2,-7.805097699E-1,-6.488286853E-1,9.782708168E0
6.132927700E-2,-7.541735172E-1,-6.440402865E-1,9.765948296E0
6.331212800E-2,-7.541735172E-1,-6.512228847E-1,9.751583099E0
6.532590100E-2,-7.541735172E-1,-6.392518282E-1,9.753977776E0
6.730998300E-2,-7.637503147E-1,-6.416460276E-1,9.744400978E0
6.932475600E-2,-7.733271718E-1,-6.464344859E-1,9.742006302E0
7.130814600E-2,-7.996633649E-1,-6.560112834E-1,9.727641106E0
7.332191900E-2,-8.188169599E-1,-6.607996821E-1,9.751583099E0
7.530446200E-2,-8.092401624E-1,-6.655880809E-1,9.768342972E0
7.731954300E-2,-8.283938169E-1,-6.847416759E-1,9.777919769E0
7.930447000E-2,-8.619126081E-1,-6.799532771E-1,9.789890289E0
8.131801400E-2,-8.810662031E-1,-6.775590777E-1,9.799467087E0
8.330163300E-2,-8.930372596E-1,-6.967126727E-1,9.818621635E0
8.531556100E-2,-9.121908545E-1,-7.086837292E-1,9.832986832E0
8.729895000E-2,-9.169792533E-1,-7.110779285E-1,9.825803757E0
8.931310900E-2,-9.409212470E-1,-7.086837292E-1,9.828198433E0
9.132688200E-2,-9.624691010E-1,-6.967126727E-1,9.821015358E0
9.331119400E-2,-9.672574997E-1,-6.967126727E-1,9.823410034E0
9.532627600E-2,-1.003170490E0,-6.847416759E-1,9.825803757E0
9.730851000E-2,-1.012747288E0,-6.919242740E-1,9.837775230E0
9.932328500E-2,-1.017535686E0,-6.871358752E-1,9.856928825E0
1.013069040E-1,-1.012747288E0,-6.847416759E-1,9.830592155E0
1.033208320E-1,-1.024718285E0,-6.727706790E-1,9.823410034E0
1.053047590E-1,-1.063025594E0,-6.607996821E-1,9.821015358E0
1.073186860E-1,-1.077390790E0,-6.799532771E-1,9.835380554E0
1.093023840E-1,-1.082179189E0,-6.751648784E-1,9.830592155E0
1.113164640E-1,-1.110909581E0,-6.440402865E-1,9.821015358E0
1.133001620E-1,-1.115697980E0,-6.488286853E-1,9.794678688E0
1.153143200E-1,-1.115697980E0,-6.631938815E-1,9.782708168E0
1.173288630E-1,-1.125274777E0,-6.536170840E-1,9.765948296E0
1.193137130E-1,-1.125274777E0,-6.368576288E-1,9.730035782E0
1.213254100E-1,-1.115697980E0,-6.320692301E-1,9.722852707E0
1.233100300E-1,-1.106121182E0,-6.105214357E-1,9.727641106E0
1.253238800E-1,-1.115697980E0,-6.224924326E-1,9.739612579E0
1.273075770E-1,-1.118092179E0,-6.153098345E-1,9.732429504E0
1.293221200E-1,-1.132457376E0,-6.272808313E-1,9.720458984E0
1.313052020E-1,-1.134851575E0,-6.344634295E-1,9.706093788E0
1.333196670E-1,-1.139639974E0,-6.272808313E-1,9.682151794E0
1.353042100E-1,-1.154005170E0,-6.224924326E-1,9.689333916E0
1.373174460E-1,-1.151610970E0,-6.272808313E-1,9.701305389E0
1.393020650E-1,-1.163581967E0,-6.344634295E-1,9.720458984E0
1.413150700E-1,-1.177947283E0,-6.224924326E-1,9.715670586E0
1.432989970E-1,-1.175553083E0,-6.129156351E-1,9.708487511E0
1.453125410E-1,-1.163581967E0,-6.224924326E-1,9.703699112E0
1.473270060E-1,-1.168370485E0,-6.344634295E-1,9.720458984E0
1.493110870E-1,-1.175553083E0,-6.200982332E-1,9.727641106E0
1.513246300E-1,-1.192312479E0,-6.200982332E-1,9.734824181E0
1.533086350E-1,-1.192312479E0,-6.584054828E-1,9.737217903E0
1.553230240E-1,-1.182735682E0,-6.536170840E-1,9.732429504E0
1.573058740E-1,-1.194706678E0,-6.560112834E-1,9.727641106E0
1.593221100E-1,-1.192312479E0,-6.512228847E-1,9.758766174E0
1.613051910E-1,-1.199495077E0,-6.416460276E-1,9.746794701E0
1.633185030E-1,-1.216254473E0,-6.416460276E-1,9.720458984E0
1.653024310E-1,-1.209071875E0,-6.344634295E-1,9.720458984E0
1.673163580E-1,-1.187524080E0,-6.344634295E-1,9.742006302E0
1.692997470E-1,-1.170764685E0,-6.416460276E-1,9.761159897E0
1.713142130E-1,-1.163581967E0,-6.440402865E-1,9.756371498E0
1.733280640E-1,-1.146822572E0,-6.536170840E-1,9.753977776E0
1.753123760E-1,-1.154005170E0,-6.464344859E-1,9.777919769E0
1.773259180E-1,-1.144428372E0,-6.560112834E-1,9.785101891E0
1.793113850E-1,-1.149216771E0,-6.799532771E-1,9.794678688E0
1.813240810E-1,-1.120486379E0,-6.751648784E-1,9.818621635E0
1.833073940E-1,-1.122880578E0,-6.703764796E-1,9.840168953E0
1.853218590E-1,-1.122880578E0,-6.775590777E-1,9.876082420E0
1.873055570E-1,-1.120486379E0,-6.943184733E-1,9.880870819E0
1.893200220E-1,-1.122880578E0,-6.919242740E-1,9.876082420E0
1.913034880E-1,-1.130063176E0,-6.679822803E-1,9.842563629E0
1.933169540E-1,-1.125274777E0,-6.823474765E-1,9.830592155E0
1.953009580E-1,-1.110909581E0,-6.943184733E-1,9.830592155E0
1.973155020E-1,-1.110909581E0,-6.919242740E-1,9.835380554E0
1.993010440E-1,-1.106121182E0,-6.775590777E-1,9.832986832E0
2.013121260E-1,-1.079784989E0,-6.631938815E-1,9.821015358E0
2.033274380E-1,-1.074996591E0,-6.560112834E-1,9.825803757E0
2.053105960E-1,-1.082179189E0,-6.775590777E-1,9.825803757E0
2.073252930E-1,-1.072602391E0,-6.943184733E-1,9.809044838E0
2.093086820E-1,-1.082179189E0,-6.895300746E-1,9.818621635E0
2.113231480E-1,-1.067813993E0,-6.919242740E-1,9.816226959E0
2.133063060E-1,-1.067813993E0,-6.991068721E-1,9.813833237E0
2.153213880E-1,-1.060631394E0,-7.015010715E-1,9.832986832E0
2.173044690E-1,-1.058237195E0,-7.015010715E-1,9.832986832E0
2.193198580E-1,-1.048660398E0,-7.062895298E-1,9.813833237E0
2.213023240E-1,-1.051054597E0,-7.206547260E-1,9.806650162E0
2.233167900E-1,-1.060631394E0,-7.230489254E-1,9.801861763E0
2.252994870E-1,-1.055842996E0,-7.134721279E-1,9.811438560E0
2.273137220E-1,-1.051054597E0,-7.086837292E-1,9.806650162E0
2.293284190E-1,-1.043871999E0,-6.991068721E-1,9.794678688E0
2.313118080E-1,-1.039083481E0,-7.158663273E-1,9.763554573E0
2.333262730E-1,-1.031900883E0,-7.110779285E-1,9.758766174E0
2.353085090E-1,-1.007958889E0,-6.799532771E-1,9.737217903E0
2.373232820E-1,-1.012747288E0,-6.775590777E-1,9.773131371E0
2.393090560E-1,-1.012747288E0,-6.775590777E-1,9.787496567E0
2.413222910E-1,-9.840168953E-1,-6.679822803E-1,9.787496567E0
2.433053730E-1,-9.744400978E-1,-6.847416759E-1,9.787496567E0
2.453195310E-1,-9.672574997E-1,-6.895300746E-1,9.789890289E0
2.473026120E-1,-9.528923035E-1,-7.015010715E-1,9.806650162E0
2.493170780E-1,-9.385270476E-1,-7.086837292E-1,9.809044838E0
2.513008520E-1,-9.289502501E-1,-7.015010715E-1,9.806650162E0
2.533152410E-1,-8.978256583E-1,-6.943184733E-1,9.789890289E0
2.553303220E-1,-9.074024558E-1,-6.943184733E-1,9.763554573E0
2.573125580E-1,-9.050082564E-1,-6.991068721E-1,9.744400978E0
2.593276390E-1,-8.930372596E-1,-6.751648784E-1,9.734824181E0
2.613113350E-1,-8.834604025E-1,-6.584054828E-1,9.720458984E0
2.633248790E-1,-8.595184088E-1,-6.655880809E-1,9.703699112E0
2.653082670E-1,-8.403648138E-1,-6.727706790E-1,9.718064308E0
2.673223490E-1,-8.283938169E-1,-6.607996821E-1,9.732429504E0
2.693058150E-1,-8.188169599E-1,-6.512228847E-1,9.763554573E0
2.713199740E-1,-8.236053586E-1,-6.631938815E-1,9.773131371E0
2.733045160E-1,-8.212111592E-1,-6.703764796E-1,9.782708168E0
2.753174430E-1,-8.259995580E-1,-6.871358752E-1,9.775525093E0
2.773018330E-1,-8.355764151E-1,-6.991068721E-1,9.792284966E0
2.793146830E-1,-8.355764151E-1,-6.991068721E-1,9.792284966E0
2.813298420E-1,-8.283938169E-1,-7.086837292E-1,9.799467087E0
2.833144610E-1,-8.355764151E-1,-6.919242740E-1,9.813833237E0
2.853286200E-1,-8.307880163E-1,-6.871358752E-1,9.823410034E0
2.873120090E-1,-8.331822157E-1,-6.991068721E-1,9.823410034E0
2.893254740E-1,-8.259995580E-1,-6.799532771E-1,9.837775230E0
2.913094790E-1,-8.283938169E-1,-6.751648784E-1,9.861717224E0
2.933237140E-1,-8.355764151E-1,-6.991068721E-1,9.900024414E0
2.953088730E-1,-8.355764151E-1,-7.134721279E-1,9.897629738E0
2.973218770E-1,-8.451532125E-1,-7.110779285E-1,9.873687744E0
2.993064970E-1,-8.331822157E-1,-7.015010715E-1,9.837775230E0
3.013199630E-1,-8.403648138E-1,-6.991068721E-1,9.816226959E0
3.033025050E-1,-8.571242094E-1,-6.871358752E-1,9.797073364E0
3.053172030E-1,-8.690952063E-1,-6.631938815E-1,9.761159897E0
3.073006680E-1,-8.810662031E-1,-6.631938815E-1,9.746794701E0
3.093154420E-1,-9.241618514E-1,-6.368576288E-1,9.725247383E0
3.112976000E-1,-9.385270476E-1,-6.177040339E-1,9.701305389E0
3.133129130E-1,-9.409212470E-1,-6.272808313E-1,9.703699112E0
3.153261480E-1,-9.385270476E-1,-6.081272364E-1,9.677363396E0
3.173114590E-1,-9.241618514E-1,-5.889736414E-1,9.653421402E0
3.193256180E-1,-9.289502501E-1,-5.793967843E-1,9.636661530E0
3.213089300E-1,-9.265560508E-1,-5.770025849E-1,9.622296333E0
3.233227810E-1,-9.265560508E-1,-5.793967843E-1,9.629479408E0
3.253056310E-1,-9.145850539E-1,-5.841852427E-1,9.631873131E0
3.273200210E-1,-9.265560508E-1,-5.937620401E-1,9.636661530E0
3.293037940E-1,-9.241618514E-1,-5.937620401E-1,9.643844604E0
3.313184900E-1,-9.050082564E-1,-6.057330370E-1,9.641449928E0
3.333016490E-1,-8.810662031E-1,-6.224924326E-1,9.603142738E0
3.353170380E-1,-8.547300100E-1,-6.200982332E-1,9.605537415E0
3.372998120E-1,-8.283938169E-1,-6.248866320E-1,9.655815125E0
3.393148930E-1,-8.092401624E-1,-6.368576288E-1,9.682151794E0
3.413284370E-1,-7.948749661E-1,-6.248866320E-1,9.691728592E0
3.433117480E-1,-7.781155705E-1,-6.344634295E-1,9.696516991E0
3.453253680E-1,-7.589619160E-1,-6.392518282E-1,9.713275909E0
3.473102190E-1,-7.445967197E-1,-6.416460276E-1,9.730035782E0
3.493232230E-1,-7.182605267E-1,-6.607996821E-1,9.761159897E0
3.513066120E-1,-7.086837292E-1,-6.607996821E-1,9.799467087E0
3.533213860E-1,-7.038952708E-1,-6.727706790E-1,9.818621635E0
3.553041600E-1,-6.751648784E-1,-7.158663273E-1,9.871294022E0
3.573198560E-1,-6.679822803E-1,-7.422025204E-1,9.888052940E0
3.593047060E-1,-6.296750307E-1,-7.469909191E-1,9.938331604E0
3.613158650E-1,-6.224924326E-1,-7.637503147E-1,9.988609314E0
3.633007150E-1,-6.153098345E-1,-7.852981687E-1,1.000776291E1
3.653151820E-1,-5.985504389E-1,-8.044517636E-1,1.006282997E1
3.673287240E-1,-5.722141862E-1,-8.236053586E-1,1.007480049E1
3.693121910E-1,-5.602431893E-1,-8.379706144E-1,1.007480049E1
3.713260410E-1,-5.410895944E-1,-8.547300100E-1,1.007001209E1
3.733112760E-1,-5.506663918E-1,-8.451532125E-1,1.006043530E1
3.753250500E-1,-5.458779931E-1,-8.499416113E-1,1.005085850E1
3.773085160E-1,-5.339069963E-1,-8.619126081E-1,1.001973438E1
3.793239050E-1,-5.123591423E-1,-8.355764151E-1,9.988609314E0
3.813062940E-1,-5.123591423E-1,-8.283938169E-1,9.976638794E0
3.833208370E-1,-5.386953950E-1,-8.140285611E-1,9.964667320E0
3.853036110E-1,-5.363011956E-1,-8.140285611E-1,9.955090523E0
3.873183070E-1,-5.291185975E-1,-8.116343617E-1,9.945513725E0
3.893020810E-1,-5.386953950E-1,-8.044517636E-1,9.928754807E0
3.913152390E-1,-5.578489900E-1,-8.188169599E-1,9.911994934E0
3.933300130E-1,-5.889736414E-1,-8.283938169E-1,9.890447617E0
3.953128630E-1,-6.177040339E-1,-8.403648138E-1,9.859322548E0
3.973275610E-1,-6.296750307E-1,-8.307880163E-1,9.842563629E0
3.993131800E-1,-6.631938815E-1,-7.996633649E-1,9.840168953E0
4.013270300E-1,-7.038952708E-1,-7.829039693E-1,9.830592155E0
4.033094200E-1,-7.230489254E-1,-7.637503147E-1,9.828198433E0
4.053233470E-1,-7.541735172E-1,-7.422025204E-1,9.785101891E0
4.073069670E-1,-7.972691655E-1,-7.110779285E-1,9.742006302E0
4.093212020E-1,-8.068459630E-1,-6.871358752E-1,9.734824181E0
4.113048990E-1,-8.307880163E-1,-6.536170840E-1,9.715670586E0
4.133195960E-1,-8.595184088E-1,-6.320692301E-1,9.710882187E0
4.153032920E-1,-8.786720037E-1,-6.296750307E-1,9.696516991E0
4.173171430E-1,-8.930372596E-1,-6.153098345E-1,9.674968719E0
4.193015320E-1,-9.169792533E-1,-5.913678408E-1,9.655815125E0
4.213153830E-1,-9.504981041E-1,-5.674257874E-1,9.641449928E0
4.233292330E-1,-9.457096457E-1,-5.434837937E-1,9.636661530E0
4.253128540E-1,-9.457096457E-1,-5.482721925E-1,9.636661530E0
4.273264730E-1,-9.385270476E-1,-5.626373887E-1,9.653421402E0
4.293098620E-1,-9.504981041E-1,-5.434837937E-1,9.686940193E0
4.313248670E-1,-9.409212470E-1,-5.386953950E-1,9.698910713E0
4.333083320E-1,-9.241618514E-1,-5.674257874E-1,9.720458984E0
4.353218760E-1,-9.217676520E-1,-5.817909837E-1,9.744400978E0
4.373061870E-1,-9.217676520E-1,-5.913678408E-1,9.744400978E0
4.393218850E-1,-9.193734527E-1,-5.961562395E-1,9.770736694E0
4.413028120E-1,-9.504981041E-1,-6.177040339E-1,9.801861763E0
4.433181230E-1,-9.409212470E-1,-6.344634295E-1,9.811438560E0
4.453009750E-1,-9.361328483E-1,-6.392518282E-1,9.830592155E0
4.473162860E-1,-9.241618514E-1,-6.440402865E-1,9.852140427E0
4.492987530E-1,-9.145850539E-1,-6.512228847E-1,9.864110947E0
4.513141410E-1,-9.050082564E-1,-6.512228847E-1,9.866505623E0
4.533277620E-1,-9.002198577E-1,-6.607996821E-1,9.871294022E0
4.553117660E-1,-9.074024558E-1,-6.607996821E-1,9.880870819E0
4.573252310E-1,-8.954314590E-1,-6.584054828E-1,9.902418137E0
4.593096210E-1,-9.050082564E-1,-6.703764796E-1,9.909601212E0
4.613237020E-1,-9.313444495E-1,-6.967126727E-1,9.911994934E0
4.633064760E-1,-9.504981041E-1,-7.038952708E-1,9.923966408E0
4.653209420E-1,-9.600749016E-1,-7.086837292E-1,9.921571732E0
4.673049470E-1,-9.720458984E-1,-7.110779285E-1,9.885659218E0
4.693191040E-1,-9.672574997E-1,-7.110779285E-1,9.876082420E0
4.713025700E-1,-9.744400978E-1,-7.038952708E-1,9.861717224E0
4.733166520E-1,-9.888052940E-1,-6.991068721E-1,9.830592155E0
4.753001170E-1,-9.911994934E-1,-6.991068721E-1,9.811438560E0
4.773145840E-1,-1.000776291E0,-6.967126727E-1,9.806650162E0
4.793299730E-1,-1.005564690E0,-7.015010715E-1,9.787496567E0
4.813124390E-1,-1.012747288E0,-7.134721279E-1,9.789890289E0
4.833268280E-1,-1.017535686E0,-7.062895298E-1,9.799467087E0
4.853099860E-1,-1.027112484E0,-7.110779285E-1,9.794678688E0
4.873252980E-1,-1.027112484E0,-7.086837292E-1,9.782708168E0
4.893075330E-1,-1.024718285E0,-7.134721279E-1,9.785101891E0
4.913222300E-1,-1.022324085E0,-7.062895298E-1,9.780313492E0
4.933056960E-1,-1.027112484E0,-7.110779285E-1,9.775525093E0
4.953204700E-1,-1.034295082E0,-7.134721279E-1,9.765948296E0
4.973035510E-1,-1.017535686E0,-7.015010715E-1,9.751583099E0
4.993188630E-1,-1.022324085E0,-6.991068721E-1,9.732429504E0
5.013010990E-1,-1.024718285E0,-6.823474765E-1,9.718064308E0
5.033164100E-1,-1.000776291E0,-6.751648784E-1,9.703699112E0
5.052986460E-1,-9.911994934E-1,-6.560112834E-1,9.689333916E0
5.073139580E-1,-9.792284966E-1,-6.105214357E-1,9.653421402E0
5.093278090E-1,-9.552865028E-1,-5.793967843E-1,9.634267807E0
5.113108900E-1,-9.528923035E-1,-5.698199868E-1,9.629479408E0
5.133257400E-1,-9.504981041E-1,-5.482721925E-1,9.617507935E0
5.153091300E-1,-9.289502501E-1,-5.339069963E-1,9.619902611E0
5.173229030E-1,-8.667010069E-1,-5.315127969E-1,9.619902611E0
5.193054460E-1,-8.475474119E-1,-5.315127969E-1,9.627084732E0
5.213189120E-1,-8.164227605E-1,-5.410895944E-1,9.627084732E0
5.233047630E-1,-7.900865674E-1,-5.410895944E-1,9.629479408E0
5.253186130E-1,-7.733271718E-1,-5.626373887E-1,9.674968719E0
5.273026170E-1,-7.589619160E-1,-5.722141862E-1,9.691728592E0
5.293171610E-1,-7.541735172E-1,-5.889736414E-1,9.732429504E0
5.312998570E-1,-7.517793179E-1,-6.177040339E-1,9.792284966E0
5.333137850E-1,-7.398083210E-1,-6.320692301E-1,9.813833237E0
5.353288660E-1,-7.517793179E-1,-6.703764796E-1,9.861717224E0
5.373124860E-1,-7.493851185E-1,-6.895300746E-1,9.885659218E0
5.393273370E-1,-7.541735172E-1,-6.943184733E-1,9.904812813E0
5.413104180E-1,-7.852981687E-1,-7.134721279E-1,9.935936928E0
5.433251150E-1,-8.020575643E-1,-7.254431248E-1,9.988609314E0
5.453076570E-1,-8.140285611E-1,-7.254431248E-1,1.000536919E1
5.473223550E-1,-8.451532125E-1,-7.422025204E-1,1.003170490E1
5.493057430E-1,-8.523358107E-1,-7.685387731E-1,1.004128170E1
5.513202100E-1,-8.786720037E-1,-7.661445141E-1,1.003888798E1
5.533029830E-1,-8.738836050E-1,-7.637503147E-1,1.003170490E1
5.553168330E-1,-8.786720037E-1,-7.637503147E-1,1.002691650E1
5.573015300E-1,-8.906430602E-1,-7.661445141E-1,9.995792389E0
5.593166110E-1,-8.738836050E-1,-7.517793179E-1,9.974244118E0
5.612996160E-1,-8.643068075E-1,-7.422025204E-1,9.969455719E0
5.633135430E-1,-8.259995580E-1,-7.278373241E-1,9.967061996E0
5.653270870E-1,-7.829039693E-1,-7.445967197E-1,9.945513725E0
5.673110910E-1,-7.852981687E-1,-7.493851185E-1,9.921571732E0
5.693251720E-1,-7.565677166E-1,-7.685387731E-1,9.866505623E0
5.713086380E-1,-7.445967197E-1,-7.637503147E-1,9.832986832E0
5.733231040E-1,-7.445967197E-1,-7.637503147E-1,9.832986832E0
5.753074170E-1,-7.015010715E-1,-7.637503147E-1,9.840168953E0
5.773208820E-1,-6.943184733E-1,-7.685387731E-1,9.840168953E0
5.793061180E-1,-6.943184733E-1,-7.637503147E-1,9.830592155E0
5.813185070E-1,-7.062895298E-1,-7.637503147E-1,9.806650162E0
5.833021260E-1,-7.086837292E-1,-7.589619160E-1,9.801861763E0
5.853172850E-1,-7.278373241E-1,-7.565677166E-1,9.801861763E0
5.873003660E-1,-7.158663273E-1,-7.445967197E-1,9.785101891E0
5.893141400E-1,-7.182605267E-1,-7.278373241E-1,9.787496567E0
5.913289130E-1,-7.110779285E-1,-7.038952708E-1,9.797073364E0
5.933123800E-1,-7.206547260E-1,-7.206547260E-1,9.794678688E0
5.953253070E-1,-7.230489254E-1,-7.206547260E-1,9.797073364E0
5.973105420E-1,-6.943184733E-1,-7.086837292E-1,9.809044838E0
5.993258540E-1,-7.038952708E-1,-6.991068721E-1,9.818621635E0
6.013068580E-1,-7.110779285E-1,-6.991068721E-1,9.821015358E0
6.033219400E-1,-7.110779285E-1,-7.015010715E-1,9.792284966E0
6.053052520E-1,-6.919242740E-1,-6.943184733E-1,9.785101891E0
6.073206420E-1,-6.871358752E-1,-6.943184733E-1,9.777919769E0
6.093034920E-1,-6.775590777E-1,-6.536170840E-1,9.773131371E0
6.113179570E-1,-6.871358752E-1,-6.296750307E-1,9.749189377E0
6.133009620E-1,-6.847416759E-1,-6.200982332E-1,9.739612579E0
6.153160430E-1,-6.727706790E-1,-5.841852427E-1,9.698910713E0
6.173292790E-1,-6.823474765E-1,-5.482721925E-1,9.674968719E0
6.193142060E-1,-6.871358752E-1,-5.410895944E-1,9.670180321E0
6.213277500E-1,-6.871358752E-1,-5.075707436E-1,9.658209801E0
6.233115230E-1,-6.799532771E-1,-4.979939461E-1,9.662998199E0
6.253252960E-1,-7.015010715E-1,-4.932055473E-1,9.662998199E0
6.273086860E-1,-7.110779285E-1,-4.788403511E-1,9.653421402E0
6.293229200E-1,-7.230489254E-1,-4.740519226E-1,9.655815125E0
6.313072330E-1,-7.326257229E-1,-4.716577232E-1,9.660603523E0
6.333203910E-1,-7.398083210E-1,-4.620809257E-1,9.679757118E0
6.353037810E-1,-7.422025204E-1,-4.548983276E-1,9.684545517E0
6.373179380E-1,-7.278373241E-1,-4.740519226E-1,9.708487511E0
6.393034810E-1,-7.374141216E-1,-4.955997467E-1,9.718064308E0
6.413167170E-1,-7.469909191E-1,-5.027823448E-1,9.722852707E0
6.433011050E-1,-7.278373241E-1,-5.219359994E-1,9.744400978E0
6.453148800E-1,-7.445967197E-1,-5.434837937E-1,9.734824181E0
6.473284220E-1,-7.541735172E-1,-5.554547906E-1,9.725247383E0
6.493115810E-1,-7.565677166E-1,-5.626373887E-1,9.727641106E0
6.513257390E-1,-7.637503147E-1,-5.578489900E-1,9.722852707E0
6.533093580E-1,-7.661445141E-1,-5.578489900E-1,9.727641106E0
6.553251320E-1,-7.829039693E-1,-5.698199868E-1,9.730035782E0
6.573075210E-1,-7.876923680E-1,-5.674257874E-1,9.725247383E0
6.593222950E-1,-7.805097699E-1,-5.674257874E-1,9.715670586E0
6.613053760E-1,-7.996633649E-1,-5.746083856E-1,9.708487511E0
6.633195350E-1,-8.092401624E-1,-5.841852427E-1,9.718064308E0
6.653032310E-1,-8.475474119E-1,-5.961562395E-1,9.727641106E0
6.673176970E-1,-8.834604025E-1,-6.057330370E-1,9.727641106E0
6.693011630E-1,-9.002198577E-1,-6.081272364E-1,9.732429504E0
6.713153210E-1,-9.433154464E-1,-6.248866320E-1,9.732429504E0
6.733291720E-1,-9.672574997E-1,-6.296750307E-1,9.739612579E0
6.753121760E-1,-9.935936928E-1,-6.392518282E-1,9.746794701E0
6.773276430E-1,-1.031900883E0,-6.416460276E-1,9.758766174E0
6.793125700E-1,-1.046266198E0,-6.512228847E-1,9.785101891E0
6.813239590E-1,-1.051054597E0,-6.655880809E-1,9.794678688E0
6.833094250E-1,-1.070208192E0,-6.847416759E-1,9.809044838E0
6.853229680E-1,-1.079784989E0,-6.871358752E-1,9.813833237E0
6.873058190E-1,-1.108515382E0,-7.086837292E-1,9.811438560E0
6.893209000E-1,-1.101332784E0,-7.278373241E-1,9.813833237E0
6.913042890E-1,-1.110909581E0,-7.326257229E-1,9.811438560E0
6.933178320E-1,-1.130063176E0,-7.302315235E-1,9.818621635E0
6.953030670E-1,-1.134851575E0,-7.230489254E-1,9.832986832E0
6.973163020E-1,-1.146822572E0,-7.278373241E-1,9.835380554E0
6.993006140E-1,-1.146822572E0,-7.182605267E-1,9.818621635E0
7.013143880E-1,-1.137245774E0,-7.254431248E-1,9.813833237E0
7.033280080E-1,-1.120486379E0,-7.254431248E-1,9.821015358E0
7.053117050E-1,-1.122880578E0,-7.278373241E-1,9.813833237E0
7.073261710E-1,-1.118092179E0,-7.302315235E-1,9.801861763E0
7.093100980E-1,-1.115697980E0,-7.158663273E-1,9.787496567E0
7.113239490E-1,-1.077390790E0,-7.038952708E-1,9.758766174E0
7.133074140E-1,-1.077390790E0,-6.895300746E-1,9.732429504E0
7.153181890E-1,-1.048660398E0,-6.727706790E-1,9.732429504E0
7.173051930E-1,-1.024718285E0,-6.751648784E-1,9.737217903E0
7.193211980E-1,-1.005564690E0,-6.871358752E-1,9.744400978E0
7.213036630E-1,-9.696516991E-1,-6.775590777E-1,9.763554573E0
7.233175130E-1,-9.361328483E-1,-6.703764796E-1,9.756371498E0
7.253003640E-1,-9.097966552E-1,-6.727706790E-1,9.761159897E0
7.273156760E-1,-8.738836050E-1,-6.847416759E-1,9.782708168E0
7.293296040E-1,-8.475474119E-1,-6.943184733E-1,9.828198433E0
7.313126850E-1,-8.212111592E-1,-7.015010715E-1,9.849745750E0
7.333270750E-1,-8.212111592E-1,-7.110779285E-1,9.909601212E0
7.353120020E-1,-8.044517636E-1,-7.182605267E-1,9.945513725E0
7.373250060E-1,-8.020575643E-1,-7.206547260E-1,9.947908401E0
7.393096260E-1,-7.805097699E-1,-7.278373241E-1,9.923966408E0
7.413228610E-1,-7.733271718E-1,-7.254431248E-1,9.904812813E0
7.433065580E-1,-7.589619160E-1,-7.182605267E-1,9.897629738E0
7.453207160E-1,-7.230489254E-1,-7.062895298E-1,9.890447617E0
7.473043370E-1,-7.086837292E-1,-6.895300746E-1,9.897629738E0
7.493185710E-1,-6.751648784E-1,-6.799532771E-1,9.900024414E0
7.513018830E-1,-6.727706790E-1,-6.751648784E-1,9.904812813E0
7.533166570E-1,-6.823474765E-1,-6.871358752E-1,9.911994934E0
7.552995070E-1,-6.631938815E-1,-6.871358752E-1,9.909601212E0
7.573132820E-1,-7.110779285E-1,-7.134721279E-1,9.900024414E0
7.593262090E-1,-7.110779285E-1,-7.134721279E-1,9.900024414E0
7.613112140E-1,-7.278373241E-1,-7.158663273E-1,9.911994934E0
7.633262950E-1,-7.517793179E-1,-6.943184733E-1,9.878476143E0
7.653096830E-1,-7.637503147E-1,-6.919242740E-1,9.859322548E0
7.673232270E-1,-7.852981687E-1,-7.326257229E-1,9.859322548E0
7.693080770E-1,-8.068459630E-1,-7.254431248E-1,9.854534149E0
7.713213900E-1,-8.236053586E-1,-7.182605267E-1,9.840168953E0
7.733053170E-1,-8.259995580E-1,-7.062895298E-1,9.840168953E0
7.753192450E-1,-8.523358107E-1,-7.182605267E-1,9.840168953E0
7.773028640E-1,-8.619126081E-1,-7.158663273E-1,9.844957352E0
7.793179450E-1,-8.954314590E-1,-7.062895298E-1,9.825803757E0
7.813016420E-1,-9.026140571E-1,-7.062895298E-1,9.825803757E0
7.833146460E-1,-9.481038451E-1,-7.278373241E-1,9.832986832E0
7.853293440E-1,-9.481038451E-1,-7.302315235E-1,9.818621635E0
7.873121940E-1,-9.576807022E-1,-7.326257229E-1,9.813833237E0
7.893269680E-1,-9.792284966E-1,-7.254431248E-1,9.782708168E0
7.913103570E-1,-1.005564690E0,-7.230489254E-1,9.758766174E0
7.933248220E-1,-1.010353088E0,-7.254431248E-1,9.749189377E0
7.953082120E-1,-1.019929886E0,-7.110779285E-1,9.727641106E0
7.973214470E-1,-1.036689281E0,-6.895300746E-1,9.718064308E0
7.993076060E-1,-1.046266198E0,-6.775590777E-1,9.698910713E0
8.013208400E-1,-1.046266198E0,-6.512228847E-1,9.682151794E0
8.033042300E-1,-1.053448796E0,-6.392518282E-1,9.670180321E0
8.053192340E-1,-1.051054597E0,-6.320692301E-1,9.665391922E0
8.073016990E-1,-1.046266198E0,-6.368576288E-1,9.651026726E0
8.093159350E-1,-1.003170490E0,-6.440402865E-1,9.636661530E0
8.113297850E-1,-9.911994934E-1,-6.440402865E-1,9.651026726E0
8.133144060E-1,-1.010353088E0,-6.536170840E-1,9.672574997E0
8.153291020E-1,-1.007958889E0,-6.727706790E-1,9.696516991E0
8.173118760E-1,-9.935936928E-1,-6.823474765E-1,9.753977776E0
8.193263420E-1,-9.816226959E-1,-6.919242740E-1,9.801861763E0
8.213091920E-1,-9.720458984E-1,-7.015010715E-1,9.818621635E0
8.233236590E-1,-9.792284966E-1,-7.206547260E-1,9.821015358E0
8.253069700E-1,-9.744400978E-1,-7.182605267E-1,9.818621635E0
8.273212060E-1,-9.840168953E-1,-7.038952708E-1,9.809044838E0
8.293055180E-1,-9.744400978E-1,-7.015010715E-1,9.801861763E0
8.313192920E-1,-9.504981041E-1,-6.679822803E-1,9.823410034E0
8.333027580E-1,-9.409212470E-1,-6.536170840E-1,9.852140427E0
8.353165310E-1,-9.385270476E-1,-6.392518282E-1,9.911994934E0
8.373322280E-1,-9.385270476E-1,-6.727706790E-1,9.962273598E0
8.393169240E-1,-9.313444495E-1,-6.847416759E-1,9.967061996E0
8.412978520E-1,-9.313444495E-1,-6.967126727E-1,9.933543205E0
8.433135490E-1,-9.289502501E-1,-6.871358752E-1,9.864110947E0
8.453267850E-1,-9.121908545E-1,-6.895300746E-1,9.823410034E0
8.473110960E-1,-9.002198577E-1,-6.631938815E-1,9.758766174E0
8.493254850E-1,-8.930372596E-1,-6.416460276E-1,9.734824181E0
8.513079510E-1,-8.690952063E-1,-6.081272364E-1,9.713275909E0
8.533224170E-1,-8.547300100E-1,-5.913678408E-1,9.701305389E0
8.553073450E-1,-8.523358107E-1,-5.865794420E-1,9.691728592E0
8.573202720E-1,-8.379706144E-1,-5.865794420E-1,9.670180321E0
8.593049690E-1,-8.403648138E-1,-5.913678408E-1,9.634267807E0
8.613185120E-1,-8.307880163E-1,-5.865794420E-1,9.617507935E0
8.633022080E-1,-8.283938169E-1,-5.793967843E-1,9.583989143E0
8.653160590E-1,-8.164227605E-1,-5.841852427E-1,9.574412346E0
8.673298330E-1,-8.140285611E-1,-5.793967843E-1,9.567230225E0
8.693132220E-1,-8.092401624E-1,-5.602431893E-1,9.562441826E0
8.713276880E-1,-8.068459630E-1,-5.793967843E-1,9.574412346E0
8.733117700E-1,-8.092401624E-1,-5.961562395E-1,9.586383820E0
8.753221580E-1,-8.212111592E-1,-6.057330370E-1,9.634267807E0
8.773093160E-1,-8.140285611E-1,-6.344634295E-1,9.686940193E0
8.793237830E-1,-8.259995580E-1,-6.560112834E-1,9.708487511E0
8.813077100E-1,-8.283938169E-1,-6.895300746E-1,9.749189377E0
8.833218690E-1,-8.307880163E-1,-6.847416759E-1,9.775525093E0
8.853049500E-1,-8.188169599E-1,-7.062895298E-1,9.801861763E0
8.873194160E-1,-8.283938169E-1,-7.230489254E-1,9.859322548E0
8.893021890E-1,-8.307880163E-1,-7.254431248E-1,9.878476143E0
8.913166550E-1,-8.403648138E-1,-7.110779285E-1,9.868899345E0
8.933006600E-1,-8.547300100E-1,-7.158663273E-1,9.844957352E0
8.953157410E-1,-8.595184088E-1,-7.158663273E-1,9.837775230E0
8.973284380E-1,-8.547300100E-1,-7.254431248E-1,9.835380554E0
8.993135960E-1,-8.619126081E-1,-7.302315235E-1,9.873687744E0
9.013272160E-1,-8.714894056E-1,-7.254431248E-1,9.907206535E0
9.033106050E-1,-8.810662031E-1,-7.278373241E-1,9.938331604E0
9.053246860E-1,-9.241618514E-1,-7.422025204E-1,9.892841339E0
9.073077680E-1,-9.289502501E-1,-7.422025204E-1,9.849745750E0
9.093222330E-1,-9.433154464E-1,-7.038952708E-1,9.773131371E0
9.113060080E-1,-9.528923035E-1,-6.919242740E-1,9.737217903E0
9.133203960E-1,-9.385270476E-1,-6.823474765E-1,9.732429504E0
9.153032470E-1,-9.481038451E-1,-6.655880809E-1,9.806650162E0
9.173177130E-1,-9.528923035E-1,-6.703764796E-1,9.842563629E0
9.193029480E-1,-9.935936928E-1,-6.943184733E-1,9.878476143E0
9.213154910E-1,-1.015141487E0,-6.919242740E-1,9.787496567E0
9.233294180E-1,-1.034295082E0,-6.823474765E-1,9.713275909E0
9.253131160E-1,-1.031900883E0,-6.368576288E-1,9.569623947E0
9.273271970E-1,-1.029506683E0,-5.746083856E-1,9.469067574E0
9.293109710E-1,-1.031900883E0,-5.434837937E-1,9.447520256E0
9.313250520E-1,-1.007958889E0,-4.979939461E-1,9.430760384E0
9.333093630E-1,-9.935936928E-1,-4.812345505E-1,9.454702377E0
9.353245220E-1,-9.816226959E-1,-4.836287498E-1,9.471462250E0
9.373066030E-1,-9.504981041E-1,-4.884171486E-1,9.538499832E0
9.393223000E-1,-9.433154464E-1,-5.219359994E-1,9.615114212E0
9.413056890E-1,-9.481038451E-1,-5.578489900E-1,9.658209801E0
9.433196170E-1,-9.720458984E-1,-6.368576288E-1,9.715670586E0
9.453023130E-1,-9.911994934E-1,-6.703764796E-1,9.734824181E0
9.473173940E-1,-1.029506683E0,-7.326257229E-1,9.765948296E0
9.493002460E-1,-1.065419793E0,-7.685387731E-1,9.753977776E0
9.513143260E-1,-1.086967587E0,-7.685387731E-1,9.742006302E0
9.533288700E-1,-1.118092179E0,-7.326257229E-1,9.706093788E0
9.553116430E-1,-1.134851575E0,-6.799532771E-1,9.670180321E0
9.573260330E-1,-1.139639974E0,-6.727706790E-1,9.658209801E0
9.593110370E-1,-1.118092179E0,-6.440402865E-1,9.624691010E0
9.613248100E-1,-1.125274777E0,-6.009446383E-1,9.591172218E0
9.633082770E-1,-1.120486379E0,-5.817909837E-1,9.572018623E0
9.653218190E-1,-1.101332784E0,-5.626373887E-1,9.557653427E0
9.673061320E-1,-1.106121182E0,-5.434837937E-1,9.545681953E0
9.693202130E-1,-1.103726983E0,-5.315127969E-1,9.528923035E0
9.713036790E-1,-1.084573388E0,-5.291185975E-1,9.502586365E0
9.733183760E-1,-1.079784989E0,-5.339069963E-1,9.500192642E0
9.753026870E-1,-1.067813993E0,-5.386953950E-1,9.512163162E0
9.773153080E-1,-1.077390790E0,-5.363011956E-1,9.512163162E0
9.793306960E-1,-1.086967587E0,-5.458779931E-1,9.507374763E0
9.813140860E-1,-1.108515382E0,-5.506663918E-1,9.521739960E0
9.833279360E-1,-1.127668977E0,-5.482721925E-1,9.615114212E0
9.853114030E-1,-1.132457376E0,-5.602431893E-1,9.658209801E0
9.873252530E-1,-1.125274777E0,-6.105214357E-1,9.730035782E0
9.893091800E-1,-1.113303781E0,-6.727706790E-1,9.773131371E0
9.913234160E-1,-1.113303781E0,-6.919242740E-1,9.792284966E0
9.933071120E-1,-1.142034173E0,-7.350199223E-1,9.811438560E0
9.953208860E-1,-1.156399369E0,-7.685387731E-1,9.837775230E0
9.973045820E-1,-1.168370485E0,-7.829039693E-1,9.856928825E0
9.993175870E-1,-1.175553083E0,-7.829039693E-1,9.866505623E0
1.001302515E0,-1.185129881E0,-7.852981687E-1,9.888052940E0
1.003316903E0,-1.192312479E0,-7.900865674E-1,9.911994934E0
1.005299677E0,-1.211466074E0,-8.020575643E-1,9.945513725E0
1.007314528E0,-1.228225470E0,-8.188169599E-1,9.940725327E0
1.009329225E0,-1.247379065E0,-8.451532125E-1,9.926360130E0
1.011312306E0,-1.268926859E0,-8.547300100E-1,9.926360130E0
1.013326772E0,-1.278503656E0,-8.571242094E-1,9.921571732E0
1.015310776E0,-1.312022567E0,-8.714894056E-1,9.904812813E0
1.017324319E0,-1.335964561E0,-8.714894056E-1,9.861717224E0
1.019308401E0,-1.338358760E0,-8.499416113E-1,9.835380554E0
1.021321943E0,-1.371877551E0,-8.427590132E-1,9.809044838E0
1.023305871E0,-1.410184860E0,-8.547300100E-1,9.775525093E0
1.025319491E0,-1.417367458E0,-8.619126081E-1,9.753977776E0
1.027303726E0,-1.441309452E0,-8.475474119E-1,9.715670586E0
1.029318269E0,-1.458068848E0,-8.475474119E-1,9.696516991E0
1.031300965E0,-1.465251446E0,-8.403648138E-1,9.689333916E0
1.033315201E0,-1.493981838E0,-8.403648138E-1,9.631873131E0
1.035328667E0,-1.527500629E0,-8.307880163E-1,9.591172218E0
1.037313672E0,-1.539471745E0,-8.259995580E-1,9.591172218E0
1.039329291E0,-1.556231141E0,-8.092401624E-1,9.631873131E0
1.041311142E0,-1.572990537E0,-7.924807668E-1,9.651026726E0
1.043324992E0,-1.618480325E0,-7.972691655E-1,9.665391922E0
1.045308458E0,-1.678335428E0,-8.164227605E-1,9.677363396E0
1.047323232E0,-1.692700624E0,-8.164227605E-1,9.698910713E0
1.049306851E0,-1.750161409E0,-8.451532125E-1,9.720458984E0
1.051320472E0,-1.824381709E0,-8.379706144E-1,9.737217903E0
1.053303860E0,-1.865083098E0,-8.619126081E-1,9.749189377E0
1.055320096E0,-1.944091797E0,-8.834604025E-1,9.775525093E0
1.057302331E0,-1.999158382E0,-8.810662031E-1,9.777919769E0
1.059317027E0,-2.030282974E0,-8.786720037E-1,9.777919769E0
1.061330955E0,-2.073378563E0,-8.834604025E-1,9.763554573E0
1.063314652E0,-2.087743998E0,-8.643068075E-1,9.768342972E0
1.065328734E0,-2.087743998E0,-8.619126081E-1,9.765948296E0
1.067312199E0,-2.094926596E0,-8.619126081E-1,9.768342972E0
1.069326050E0,-2.078166962E0,-8.714894056E-1,9.787496567E0
1.071310285E0,-2.070984364E0,-8.786720037E-1,9.797073364E0
1.073324135E0,-2.056619167E0,-8.786720037E-1,9.799467087E0
1.075308140E0,-2.047042370E0,-8.762778044E-1,9.794678688E0
1.077323221E0,-2.030282974E0,-9.026140571E-1,9.792284966E0
1.079306688E0,-2.023100376E0,-9.026140571E-1,9.785101891E0
1.081319846E0,-1.996764183E0,-9.026140571E-1,9.775525093E0
1.083303312E0,-1.956062794E0,-9.002198577E-1,9.756371498E0
1.085317393E0,-1.912967205E0,-8.978256583E-1,9.732429504E0
1.087301089E0,-1.891419291E0,-8.930372596E-1,9.720458984E0
1.089315017E0,-1.845929503E0,-8.810662031E-1,9.703699112E0
1.091329483E0,-1.783680320E0,-8.667010069E-1,9.694122314E0
1.093313103E0,-1.757344007E0,-8.643068075E-1,9.689333916E0
1.095327646E0,-1.704671621E0,-8.810662031E-1,9.703699112E0
1.097311343E0,-1.630451322E0,-8.690952063E-1,9.679757118E0
1.099327270E0,-1.601720929E0,-8.738836050E-1,9.667786598E0
1.101309428E0,-1.541865945E0,-8.667010069E-1,9.670180321E0
1.103323664E0,-1.477222443E0,-8.619126081E-1,9.667786598E0
1.105306976E0,-1.443703651E0,-8.643068075E-1,9.670180321E0
1.107320904E0,-1.386242747E0,-8.403648138E-1,9.672574997E0
1.109304215E0,-1.355118155E0,-8.331822157E-1,9.674968719E0
1.111319297E0,-1.292868972E0,-8.451532125E-1,9.696516991E0
1.113302378E0,-1.244984865E0,-8.810662031E-1,9.725247383E0
1.115313151E0,-1.216254473E0,-8.882488012E-1,9.739612579E0
1.117330156E0,-1.173158884E0,-8.954314590E-1,9.780313492E0
1.119315083E0,-1.154005170E0,-9.050082564E-1,9.801861763E0
1.121328627E0,-1.144428372E0,-9.193734527E-1,9.818621635E0
1.123312631E0,-1.118092179E0,-9.361328483E-1,9.813833237E0
1.125326713E0,-1.089361787E0,-9.744400978E-1,9.816226959E0
1.127310486E0,-1.084573388E0,-9.816226959E-1,9.809044838E0
1.129324259E0,-1.058237195E0,-9.911994934E-1,9.821015358E0
1.131307957E0,-1.043871999E0,-9.983820915E-1,9.849745750E0
1.133322191E0,-1.043871999E0,-1.022324085E0,9.873687744E0
1.135305273E0,-1.046266198E0,-1.017535686E0,9.921571732E0
1.137319662E0,-1.036689281E0,-1.041477680E0,9.979032516E0
1.139304282E0,-1.036689281E0,-1.055842996E0,1.000058079E1
1.141317902E0,-1.067813993E0,-1.082179189E0,1.001733971E1
1.143300983E0,-1.079784989E0,-1.082179189E0,9.993397713E0
1.145315449E0,-1.094150186E0,-1.070208192E0,9.926360130E0
1.147330146E0,-1.113303781E0,-1.048660398E0,9.876082420E0
1.149312689E0,-1.132457376E0,-1.039083481E0,9.847352028E0
1.151327078E0,-1.151610970E0,-1.015141487E0,9.797073364E0
1.153310544E0,-1.142034173E0,-1.000776291E0,9.761159897E0
1.155324933E0,-1.142034173E0,-9.935936928E-1,9.744400978E0
1.157309552E0,-1.139639974E0,-9.720458984E-1,9.718064308E0
1.159324403E0,-1.158793569E0,-9.744400978E-1,9.701305389E0
1.161305946E0,-1.182735682E0,-9.696516991E-1,9.686940193E0
1.163320951E0,-1.206677675E0,-9.504981041E-1,9.660603523E0
1.165304109E0,-1.235408068E0,-9.409212470E-1,9.639056206E0
1.167319421E0,-1.249773264E0,-9.409212470E-1,9.622296333E0
1.169302195E0,-1.278503656E0,-9.409212470E-1,9.600749016E0
1.171316352E0,-1.309628367E0,-9.337386489E-1,9.583989143E0
1.173330281E0,-1.335964561E0,-9.337386489E-1,9.579200745E0
1.175315208E0,-1.352723956E0,-9.289502501E-1,9.595960617E0
1.177328366E0,-1.359906554E0,-9.313444495E-1,9.610325813E0
1.179312447E0,-1.383848548E0,-9.121908545E-1,9.617507935E0
1.181326299E0,-1.414973259E0,-9.193734527E-1,9.622296333E0
1.183309918E0,-1.426944256E0,-9.169792533E-1,9.627084732E0
1.185323845E0,-1.438915253E0,-9.217676520E-1,9.619902611E0
1.187307773E0,-1.455674648E0,-9.169792533E-1,9.603142738E0
1.189322008E0,-1.477222443E0,-9.169792533E-1,9.610325813E0
1.191305321E0,-1.496376038E0,-8.978256583E-1,9.624691010E0
1.193319786E0,-1.515529633E0,-9.097966552E-1,9.627084732E0
1.195302253E0,-1.539471745E0,-9.074024558E-1,9.639056206E0
1.197317411E0,-1.577778935E0,-9.241618514E-1,9.631873131E0
1.199302645E0,-1.616086125E0,-9.409212470E-1,9.622296333E0
1.201315881E0,-1.635239720E0,-9.433154464E-1,9.598354340E0
1.203330347E0,-1.673547029E0,-9.600749016E-1,9.603142738E0
1.205313121E0,-1.683123827E0,-9.481038451E-1,9.636661530E0
1.207327202E0,-1.711854219E0,-9.481038451E-1,9.694122314E0
1.209310668E0,-1.726219416E0,-9.337386489E-1,9.710882187E0
1.211324442E0,-1.738190413E0,-9.361328483E-1,9.718064308E0
1.213308522E0,-1.771709204E0,-9.265560508E-1,9.727641106E0
1.215323220E0,-1.805228114E0,-9.145850539E-1,9.713275909E0
1.217306378E0,-1.821987510E0,-9.313444495E-1,9.708487511E0
1.219322075E0,-1.831564307E0,-9.145850539E-1,9.710882187E0
1.221304541E0,-1.853112102E0,-9.145850539E-1,9.708487511E0
1.223318007E0,-1.845929503E0,-9.145850539E-1,9.715670586E0
1.225301473E0,-1.838746905E0,-9.145850539E-1,9.725247383E0
1.227315861E0,-1.831564307E0,-9.193734527E-1,9.739612579E0
1.229330635E0,-1.819593310E0,-9.193734527E-1,9.753977776E0
1.231314332E0,-1.802833915E0,-9.289502501E-1,9.782708168E0
1.233328491E0,-1.786074519E0,-9.385270476E-1,9.799467087E0
1.235311956E0,-1.764526606E0,-9.552865028E-1,9.777919769E0
1.237325115E0,-1.740584612E0,-9.600749016E-1,9.706093788E0
1.239308273E0,-1.740584612E0,-9.600749016E-1,9.706093788E0
1.241323354E0,-1.735796213E0,-9.481038451E-1,9.691728592E0
1.243307590E0,-1.709460020E0,-9.121908545E-1,9.658209801E0
1.245322055E0,-1.709460020E0,-8.954314590E-1,9.648633003E0
1.247305137E0,-1.699883223E0,-8.930372596E-1,9.624691010E0
1.249319295E0,-1.675941229E0,-8.667010069E-1,9.617507935E0
1.251302685E0,-1.661576033E0,-8.547300100E-1,9.615114212E0
1.253317535E0,-1.649604917E0,-8.619126081E-1,9.629479408E0
1.255301154E0,-1.642422318E0,-8.714894056E-1,9.643844604E0
1.257315313E0,-1.625662923E0,-8.810662031E-1,9.643844604E0
1.259330163E0,-1.616086125E0,-8.882488012E-1,9.665391922E0
1.261312630E0,-1.630451322E0,-9.002198577E-1,9.684545517E0
1.263327634E0,-1.625662923E0,-9.074024558E-1,9.706093788E0
1.265310716E0,-1.613691926E0,-9.289502501E-1,9.727641106E0
1.267324950E0,-1.594538331E0,-9.481038451E-1,9.725247383E0
1.269308647E0,-1.596932530E0,-9.504981041E-1,9.742006302E0
1.271322421E0,-1.589749932E0,-9.576807022E-1,9.751583099E0
1.273306117E0,-1.584961534E0,-9.672574997E-1,9.749189377E0
1.275319661E0,-1.549048543E0,-9.744400978E-1,9.756371498E0
1.277304665E0,-1.527500629E0,-9.744400978E-1,9.756371498E0
1.279319747E0,-1.517923832E0,-9.696516991E-1,9.751583099E0
1.281301597E0,-1.513135433E0,-9.552865028E-1,9.742006302E0
1.283316293E0,-1.477222443E0,-9.552865028E-1,9.710882187E0
1.285330221E0,-1.462857246E0,-9.696516991E-1,9.696516991E0
1.287313841E0,-1.419761658E0,-9.935936928E-1,9.691728592E0
1.289327999E0,-1.393425345E0,-1.003170490E0,9.696516991E0
1.291311773E0,-1.371877551E0,-1.003170490E0,9.708487511E0
1.293326162E0,-1.347935557E0,-1.012747288E0,9.746794701E0
1.295309551E0,-1.304839969E0,-1.024718285E0,9.758766174E0
1.297323478E0,-1.283292055E0,-1.027112484E0,9.761159897E0
1.299308021E0,-1.268926859E0,-1.039083481E0,9.742006302E0
1.301322564E0,-1.268926859E0,-1.051054597E0,9.708487511E0
1.303305953E0,-1.290474772E0,-1.060631394E0,9.694122314E0
1.305319419E0,-1.304839969E0,-1.055842996E0,9.672574997E0
1.307302809E0,-1.314416766E0,-1.048660398E0,9.670180321E0
1.309316966E0,-1.352723956E0,-1.034295082E0,9.672574997E0
1.311331510E0,-1.376665950E0,-1.003170490E0,9.660603523E0
1.313314206E0,-1.400607944E0,-9.888052940E-1,9.658209801E0
1.315328672E0,-1.467645645E0,-9.672574997E-1,9.641449928E0
1.317313908E0,-1.522712231E0,-9.576807022E-1,9.622296333E0
1.319328758E0,-1.539471745E0,-9.552865028E-1,9.610325813E0
1.321310609E0,-1.601720929E0,-9.337386489E-1,9.600749016E0
1.323324767E0,-1.642422318E0,-9.193734527E-1,9.607931137E0
1.325308694E0,-1.666364431E0,-9.217676520E-1,9.610325813E0
1.327322545E0,-1.714248419E0,-9.385270476E-1,9.598354340E0
1.329305934E0,-1.745373011E0,-9.528923035E-1,9.591172218E0
1.331320400E0,-1.776497602E0,-9.720458984E-1,9.593565941E0
1.333303789E0,-1.829170108E0,-9.840168953E-1,9.619902611E0
1.335318948E0,-1.845929503E0,-9.768342972E-1,9.639056206E0
1.337302336E0,-1.889025092E0,-9.864110947E-1,9.646238327E0
1.339317417E0,-1.910573006E0,-9.983820915E-1,9.653421402E0
1.341330268E0,-1.910573006E0,-1.005564690E0,9.667786598E0
1.343314580E0,-1.912967205E0,-1.010353088E0,9.684545517E0
1.345327816E0,-1.941697598E0,-9.911994934E-1,9.689333916E0
1.347311820E0,-1.934514999E0,-9.911994934E-1,9.701305389E0
1.349326363E0,-1.912967205E0,-9.888052940E-1,9.691728592E0
1.351309752E0,-1.886630893E0,-9.959878922E-1,9.691728592E0
1.353323525E0,-1.869871497E0,-1.003170490E0,9.684545517E0
1.355306607E0,-1.850717902E0,-9.888052940E-1,9.691728592E0
1.357321150E0,-1.826775908E0,-9.696516991E-1,9.694122314E0
1.359306616E0,-1.810016513E0,-9.696516991E-1,9.689333916E0
1.361320159E0,-1.798045516E0,-9.672574997E-1,9.682151794E0
1.363302625E0,-1.747767210E0,-9.768342972E-1,9.689333916E0
1.365317398E0,-1.731007814E0,-9.768342972E-1,9.686940193E0
1.367331634E0,-1.675941229E0,-9.840168953E-1,9.691728592E0
1.369315253E0,-1.647210717E0,-1.003170490E0,9.689333916E0
1.371329411E0,-1.611297727E0,-1.003170490E0,9.691728592E0
1.373312493E0,-1.575384736E0,-9.888052940E-1,9.703699112E0
1.375327036E0,-1.561019540E0,-9.935936928E-1,9.710882187E0
1.377310964E0,-1.534683347E0,-1.005564690E0,9.725247383E0
1.379326045E0,-1.505952835E0,-9.959878922E-1,9.758766174E0
1.381309433E0,-1.505952835E0,-1.003170490E0,9.765948296E0
1.383322669E0,-1.489193439E0,-1.027112484E0,9.777919769E0
1.385306135E0,-1.472434044E0,-1.024718285E0,9.758766174E0
1.387320524E0,-1.474828243E0,-1.027112484E0,9.749189377E0
1.389303913E0,-1.482010841E0,-1.036689281E0,9.720458984E0
1.391318379E0,-1.477222443E0,-1.039083481E0,9.713275909E0
1.393301845E0,-1.474828243E0,-1.041477680E0,9.715670586E0
1.395315311E0,-1.465251446E0,-1.051054597E0,9.737217903E0
1.397331085E0,-1.441309452E0,-1.051054597E0,9.753977776E0
1.399315320E0,-1.431732655E0,-1.060631394E0,9.761159897E0
1.401327632E0,-1.424550056E0,-1.065419793E0,9.780313492E0
1.403312021E0,-1.424550056E0,-1.079784989E0,9.777919769E0
1.405325564E0,-1.436521053E0,-1.098938584E0,9.770736694E0
1.407308645E0,-1.426944256E0,-1.091755986E0,9.756371498E0
1.409324342E0,-1.434126854E0,-1.091755986E0,9.742006302E0
1.411306808E0,-1.450886250E0,-1.077390790E0,9.734824181E0
1.413321274E0,-1.434126854E0,-1.070208192E0,9.732429504E0
1.415305279E0,-1.434126854E0,-1.067813993E0,9.725247383E0
1.417318744E0,-1.436521053E0,-1.077390790E0,9.722852707E0
1.419303980E0,-1.431732655E0,-1.067813993E0,9.691728592E0
1.421317215E0,-1.436521053E0,-1.058237195E0,9.686940193E0
1.423330835E0,-1.417367458E0,-1.051054597E0,9.670180321E0
1.425314224E0,-1.422155857E0,-1.031900883E0,9.643844604E0
1.427329228E0,-1.424550056E0,-1.019929886E0,9.634267807E0
1.429312002E0,-1.429338455E0,-1.007958889E0,9.617507935E0
1.431326544E0,-1.431732655E0,-1.017535686E0,9.617507935E0
1.433310549E0,-1.436521053E0,-1.003170490E0,9.617507935E0
1.435320707E0,-1.417367458E0,-1.000776291E0,9.627084732E0
1.437308096E0,-1.422155857E0,-9.983820915E-1,9.624691010E0
1.439323716E0,-1.426944256E0,-9.864110947E-1,9.622296333E0
1.441306490E0,-1.424550056E0,-9.983820915E-1,9.615114212E0
1.443320418E0,-1.414973259E0,-1.003170490E0,9.624691010E0
1.445304345E0,-1.426944256E0,-1.005564690E0,9.653421402E0
1.447318273E0,-1.438915253E0,-1.024718285E0,9.686940193E0
1.449301661E0,-1.436521053E0,-1.034295082E0,9.691728592E0
1.451316127E0,-1.455674648E0,-1.034295082E0,9.715670586E0
1.453330286E0,-1.458068848E0,-1.048660398E0,9.710882187E0
1.455314213E0,-1.460463047E0,-1.046266198E0,9.701305389E0
1.457327833E0,-1.491587639E0,-1.058237195E0,9.674968719E0
1.459311530E0,-1.484405041E0,-1.051054597E0,9.648633003E0
1.461325381E0,-1.493981838E0,-1.039083481E0,9.651026726E0
1.463309385E0,-1.496376038E0,-1.029506683E0,9.636661530E0
1.465323466E0,-1.496376038E0,-1.048660398E0,9.643844604E0
1.467307163E0,-1.489193439E0,-1.055842996E0,9.641449928E0
1.469321321E0,-1.501164436E0,-1.070208192E0,9.646238327E0
1.471304480E0,-1.501164436E0,-1.063025594E0,9.641449928E0
1.473319253E0,-1.498770237E0,-1.053448796E0,9.610325813E0
1.475301643E0,-1.498770237E0,-1.048660398E0,9.598354340E0
1.477316493E0,-1.491587639E0,-1.019929886E0,9.588777542E0
1.479329421E0,-1.491587639E0,-1.019929886E0,9.588777542E0
1.481314271E0,-1.484405041E0,-1.022324085E0,9.605537415E0
1.483328506E0,-1.474828243E0,-1.015141487E0,9.607931137E0
1.485312818E0,-1.470039845E0,-1.003170490E0,9.586383820E0
1.487325976E0,-1.441309452E0,-1.010353088E0,9.574412346E0
1.489309981E0,-1.436521053E0,-1.024718285E0,9.574412346E0
1.491324216E0,-1.434126854E0,-1.024718285E0,9.598354340E0
1.493308451E0,-1.422155857E0,-1.015141487E0,9.634267807E0
1.495322610E0,-1.419761658E0,-1.022324085E0,9.646238327E0
1.497305998E0,-1.414973259E0,-1.036689281E0,9.665391922E0
1.499320773E0,-1.403002143E0,-1.055842996E0,9.670180321E0
1.501303930E0,-1.422155857E0,-1.055842996E0,9.691728592E0
1.503318089E0,-1.446097851E0,-1.031900883E0,9.696516991E0
1.505301401E0,-1.455674648E0,-1.029506683E0,9.694122314E0
1.507315636E0,-1.470039845E0,-1.048660398E0,9.696516991E0
1.509329718E0,-1.482010841E0,-1.048660398E0,9.698910713E0
1.511312491E0,-1.484405041E0,-1.058237195E0,9.713275909E0
1.513327573E0,-1.503558636E0,-1.051054597E0,9.730035782E0
1.515310423E0,-1.549048543E0,-1.063025594E0,9.732429504E0
1.517325197E0,-1.561019540E0,-1.060631394E0,9.730035782E0
1.519309740E0,-1.592144132E0,-1.039083481E0,9.715670586E0
1.521323974E0,-1.630451322E0,-1.046266198E0,9.703699112E0
1.523307056E0,-1.642422318E0,-1.051054597E0,9.708487511E0
1.525320830E0,-1.649604917E0,-1.048660398E0,9.732429504E0
1.527304604E0,-1.666364431E0,-1.051054597E0,9.710882187E0
1.529318762E0,-1.675941229E0,-1.051054597E0,9.706093788E0
1.531302690E0,-1.699883223E0,-1.079784989E0,9.691728592E0
1.533316232E0,-1.704671621E0,-1.063025594E0,9.686940193E0
1.535331314E0,-1.719036818E0,-1.043871999E0,9.689333916E0
1.537314087E0,-1.723825216E0,-1.034295082E0,9.689333916E0
1.539329861E0,-1.728613615E0,-1.029506683E0,9.679757118E0
1.541312020E0,-1.726219416E0,-1.024718285E0,9.674968719E0
1.543327024E0,-1.711854219E0,-1.010353088E0,9.643844604E0
1.545310182E0,-1.711854219E0,-1.024718285E0,9.631873131E0
1.547324571E0,-1.690306425E0,-1.015141487E0,9.612719536E0
1.549307960E0,-1.668758631E0,-1.010353088E0,9.607931137E0
1.551321580E0,-1.661576033E0,-1.012747288E0,9.612719536E0
1.553304969E0,-1.654393315E0,-1.029506683E0,9.610325813E0
1.555319435E0,-1.618480325E0,-1.041477680E0,9.610325813E0
1.557304593E0,-1.623268723E0,-1.046266198E0,9.619902611E0
1.559319060E0,-1.611297727E0,-1.084573388E0,9.631873131E0
1.561301294E0,-1.589749932E0,-1.094150186E0,9.651026726E0
1.563315991E0,-1.587355733E0,-1.098938584E0,9.658209801E0
1.565329611E0,-1.611297727E0,-1.106121182E0,9.674968719E0
1.567313538E0,-1.618480325E0,-1.101332784E0,9.674968719E0
1.569327466E0,-1.613691926E0,-1.091755986E0,9.674968719E0
1.571311162E0,-1.618480325E0,-1.098938584E0,9.667786598E0
1.573324629E0,-1.642422318E0,-1.103726983E0,9.665391922E0
1.575309556E0,-1.666364431E0,-1.094150186E0,9.660603523E0
1.577322868E0,-1.685518026E0,-1.094150186E0,9.655815125E0
1.579306873E0,-1.709460020E0,-1.086967587E0,9.643844604E0
1.581321031E0,-1.731007814E0,-1.055842996E0,9.631873131E0
1.583304420E0,-1.745373011E0,-1.036689281E0,9.622296333E0
1.585319117E0,-1.762132406E0,-1.046266198E0,9.629479408E0
1.587302583E0,-1.793257117E0,-1.041477680E0,9.634267807E0
1.589315741E0,-1.810016513E0,-1.031900883E0,9.619902611E0
1.591329977E0,-1.821987510E0,-1.015141487E0,9.615114212E0
1.593313904E0,-1.833958507E0,-1.029506683E0,9.605537415E0
1.595327446E0,-1.836352706E0,-1.055842996E0,9.595960617E0
1.597313374E0,-1.841141105E0,-1.065419793E0,9.595960617E0
1.599327455E0,-1.869871497E0,-1.051054597E0,9.607931137E0
1.601310306E0,-1.889025092E0,-1.046266198E0,9.622296333E0
1.603324080E0,-1.896207690E0,-1.048660398E0,9.641449928E0
1.605307468E0,-1.915361404E0,-1.051054597E0,9.667786598E0
1.607321704E0,-1.920149803E0,-1.063025594E0,9.677363396E0
1.609305093E0,-1.932120800E0,-1.079784989E0,9.682151794E0
1.611319482E0,-1.939303398E0,-1.084573388E0,9.706093788E0
1.613303486E0,-1.934514999E0,-1.079784989E0,9.715670586E0
1.615317645E0,-1.932120800E0,-1.077390790E0,9.720458984E0
1.617331880E0,-1.936909199E0,-1.084573388E0,9.730035782E0
1.619315884E0,-1.927332401E0,-1.089361787E0,9.730035782E0
1.621330274E0,-1.910573006E0,-1.110909581E0,9.768342972E0
1.623313431E0,-1.884236693E0,-1.103726983E0,9.782708168E0
1.625326975E0,-1.869871497E0,-1.098938584E0,9.775525093E0
1.627310979E0,-1.843535304E0,-1.103726983E0,9.773131371E0
1.629325138E0,-1.824381709E0,-1.108515382E0,9.782708168E0
1.631308449E0,-1.781286120E0,-1.122880578E0,9.787496567E0
1.633322685E0,-1.747767210E0,-1.125274777E0,9.775525093E0
1.635306997E0,-1.726219416E0,-1.115697980E0,9.753977776E0
1.637321386E0,-1.704671621E0,-1.115697980E0,9.701305389E0
1.639306314E0,-1.687912226E0,-1.106121182E0,9.679757118E0
1.641318625E0,-1.680729628E0,-1.106121182E0,9.682151794E0
1.643302400E0,-1.642422318E0,-1.082179189E0,9.684545517E0
1.645316250E0,-1.606509328E0,-1.072602391E0,9.665391922E0
1.647330716E0,-1.599326730E0,-1.067813993E0,9.658209801E0
1.649314336E0,-1.577778935E0,-1.074996591E0,9.653421402E0
1.651327647E0,-1.565807939E0,-1.091755986E0,9.643844604E0
1.653311960E0,-1.563413739E0,-1.091755986E0,9.646238327E0
1.655327349E0,-1.549048543E0,-1.094150186E0,9.634267807E0
1.657310354E0,-1.561019540E0,-1.091755986E0,9.610325813E0
1.659324819E0,-1.561019540E0,-1.091755986E0,9.593565941E0
1.661307669E0,-1.570596337E0,-1.074996591E0,9.591172218E0
1.663322444E0,-1.565807939E0,-1.053448796E0,9.595960617E0
1.665305140E0,-1.577778935E0,-1.046266198E0,9.615114212E0
1.667319376E0,-1.572990537E0,-1.060631394E0,9.627084732E0
1.669303918E0,-1.580173135E0,-1.072602391E0,9.629479408E0
1.671317231E0,-1.606509328E0,-1.106121182E0,9.643844604E0
1.673331081E0,-1.620874524E0,-1.108515382E0,9.655815125E0
1.675315085E0,-1.623268723E0,-1.106121182E0,9.651026726E0
1.677329475E0,-1.628057122E0,-1.098938584E0,9.646238327E0
1.679314709E0,-1.640028119E0,-1.101332784E0,9.636661530E0
1.681328330E0,-1.630451322E0,-1.094150186E0,9.646238327E0
1.683310795E0,-1.618480325E0,-1.101332784E0,9.651026726E0
1.685324954E0,-1.620874524E0,-1.101332784E0,9.648633003E0
1.687308881E0,-1.630451322E0,-1.096544385E0,9.643844604E0
1.689322809E0,-1.625662923E0,-1.106121182E0,9.643844604E0
1.691306429E0,-1.611297727E0,-1.106121182E0,9.627084732E0
1.693320664E0,-1.596932530E0,-1.108515382E0,9.624691010E0
1.695304669E0,-1.568202138E0,-1.108515382E0,9.607931137E0
1.697318442E0,-1.561019540E0,-1.106121182E0,9.598354340E0
1.699333908E0,-1.549048543E0,-1.082179189E0,9.588777542E0
1.701316682E0,-1.539471745E0,-1.082179189E0,9.600749016E0
1.703330840E0,-1.546654344E0,-1.082179189E0,9.607931137E0
1.705314537E0,-1.553836942E0,-1.091755986E0,9.617507935E0
1.707328695E0,-1.546654344E0,-1.115697980E0,9.629479408E0
1.709312084E0,-1.551442742E0,-1.120486379E0,9.643844604E0
1.711325857E0,-1.568202138E0,-1.098938584E0,9.665391922E0
1.713309555E0,-1.584961534E0,-1.108515382E0,9.677363396E0
1.715323790E0,-1.601720929E0,-1.113303781E0,9.672574997E0
1.717307178E0,-1.647210717E0,-1.113303781E0,9.682151794E0
1.719320106E0,-1.647210717E0,-1.113303781E0,9.682151794E0
1.721305956E0,-1.661576033E0,-1.108515382E0,9.684545517E0
1.723319423E0,-1.695094824E0,-1.110909581E0,9.698910713E0
1.725303427E0,-1.707065821E0,-1.115697980E0,9.708487511E0
1.727317355E0,-1.733402014E0,-1.127668977E0,9.720458984E0
1.729331744E0,-1.757344007E0,-1.146822572E0,9.713275909E0
1.731315132E0,-1.783680320E0,-1.156399369E0,9.708487511E0
1.733329599E0,-1.829170108E0,-1.161187768E0,9.708487511E0
1.735313372E0,-1.881842494E0,-1.168370485E0,9.694122314E0
1.737327223E0,-1.893813491E0,-1.161187768E0,9.684545517E0
1.739311150E0,-1.917755604E0,-1.161187768E0,9.677363396E0
1.741325617E0,-1.946485996E0,-1.139639974E0,9.667786598E0
1.743309082E0,-1.948880196E0,-1.127668977E0,9.655815125E0
1.745322318E0,-1.970427990E0,-1.106121182E0,9.634267807E0
1.747306861E0,-1.972822189E0,-1.101332784E0,9.610325813E0
1.749320711E0,-1.970427990E0,-1.098938584E0,9.612719536E0
1.751304408E0,-1.987187386E0,-1.079784989E0,9.598354340E0
1.753317720E0,-1.975216389E0,-1.086967587E0,9.595960617E0
1.755331802E0,-1.965639591E0,-1.094150186E0,9.593565941E0
1.757317344E0,-1.975216389E0,-1.101332784E0,9.605537415E0
1.759331503E0,-1.977610588E0,-1.079784989E0,9.591172218E0
1.761314353E0,-1.982398987E0,-1.074996591E0,9.598354340E0
1.763328203E0,-1.946485996E0,-1.089361787E0,9.583989143E0
1.765311593E0,-1.939303398E0,-1.086967587E0,9.588777542E0
1.767325366E0,-1.924938202E0,-1.113303781E0,9.624691010E0
1.769309448E0,-1.874659896E0,-1.103726983E0,9.648633003E0
1.771323837E0,-1.855506301E0,-1.110909581E0,9.658209801E0
1.773307610E0,-1.836352706E0,-1.134851575E0,9.672574997E0
1.775322307E0,-1.814804912E0,-1.142034173E0,9.679757118E0
1.777305696E0,-1.805228114E0,-1.149216771E0,9.686940193E0
1.779319547E0,-1.771709204E0,-1.165976286E0,9.694122314E0
1.781303936E0,-1.738190413E0,-1.158793569E0,9.720458984E0
1.783317171E0,-1.721431017E0,-1.161187768E0,9.732429504E0
1.785331560E0,-1.711854219E0,-1.165976286E0,9.746794701E0
1.787314333E0,-1.695094824E0,-1.182735682E0,9.751583099E0
1.789329108E0,-1.690306425E0,-1.173158884E0,9.746794701E0
1.791312188E0,-1.671152830E0,-1.146822572E0,9.739612579E0
1.793326424E0,-1.671152830E0,-1.142034173E0,9.732429504E0
1.795310121E0,-1.659181833E0,-1.137245774E0,9.715670586E0
1.797324818E0,-1.654393315E0,-1.132457376E0,9.684545517E0
1.799310745E0,-1.649604917E0,-1.142034173E0,9.677363396E0
1.801322442E0,-1.625662923E0,-1.132457376E0,9.670180321E0
1.803307292E0,-1.618480325E0,-1.122880578E0,9.667786598E0
1.805320604E0,-1.613691926E0,-1.127668977E0,9.662998199E0
1.807303994E0,-1.616086125E0,-1.115697980E0,9.639056206E0
1.809317844E0,-1.632845521E0,-1.115697980E0,9.648633003E0
1.811332541E0,-1.644816518E0,-1.118092179E0,9.655815125E0
1.813316622E0,-1.656787634E0,-1.125274777E0,9.665391922E0
1.815330781E0,-1.661576033E0,-1.151610970E0,9.672574997E0
1.817314400E0,-1.661576033E0,-1.142034173E0,9.672574997E0
1.819329251E0,-1.654393315E0,-1.146822572E0,9.655815125E0
1.821311717E0,-1.673547029E0,-1.146822572E0,9.612719536E0
1.823326106E0,-1.661576033E0,-1.146822572E0,9.600749016E0
1.825309572E0,-1.637633920E0,-1.127668977E0,9.583989143E0
1.827324038E0,-1.635239720E0,-1.115697980E0,9.572018623E0
1.829306811E0,-1.616086125E0,-1.089361787E0,9.562441826E0
1.831321201E0,-1.604115129E0,-1.091755986E0,9.550470352E0
1.833304974E0,-1.582567334E0,-1.077390790E0,9.548076630E0
1.835315748E0,-1.534683347E0,-1.074996591E0,9.552865028E0
1.837332906E0,-1.493981838E0,-1.084573388E0,9.576807022E0
1.839318449E0,-1.470039845E0,-1.094150186E0,9.603142738E0
1.841332069E0,-1.429338455E0,-1.127668977E0,9.631873131E0
1.843315073E0,-1.417367458E0,-1.149216771E0,9.651026726E0
1.845329539E0,-1.400607944E0,-1.158793569E0,9.655815125E0
1.847312928E0,-1.383848548E0,-1.173158884E0,9.677363396E0
1.849326779E0,-1.352723956E0,-1.175553083E0,9.684545517E0
1.851310552E0,-1.347935557E0,-1.185129881E0,9.679757118E0
1.853324942E0,-1.340752959E0,-1.187524080E0,9.667786598E0
1.855308408E0,-1.340752959E0,-1.168370485E0,9.658209801E0
1.857322489E0,-1.314416766E0,-1.161187768E0,9.655815125E0
1.859307801E0,-1.288080573E0,-1.142034173E0,9.646238327E0
1.861321267E0,-1.290474772E0,-1.146822572E0,9.634267807E0
1.863304118E0,-1.302445769E0,-1.130063176E0,9.610325813E0
1.865317891E0,-1.331176162E0,-1.125274777E0,9.586383820E0
1.867332050E0,-1.340752959E0,-1.139639974E0,9.574412346E0
1.869315746E0,-1.371877551E0,-1.142034173E0,9.569623947E0
1.871330213E0,-1.391031146E0,-1.132457376E0,9.564835548E0
1.873313986E0,-1.405396342E0,-1.120486379E0,9.555258751E0
1.875327759E0,-1.470039845E0,-1.106121182E0,9.555258751E0
1.877312687E0,-1.534683347E0,-1.125274777E0,9.538499832E0
1.879327230E0,-1.565807939E0,-1.125274777E0,9.538499832E0
1.881308696E0,-1.630451322E0,-1.103726983E0,9.545681953E0
1.883322931E0,-1.695094824E0,-1.106121182E0,9.552865028E0
1.885307551E0,-1.726219416E0,-1.106121182E0,9.552865028E0
1.887320786E0,-1.795651317E0,-1.115697980E0,9.564835548E0
1.889304406E0,-1.831564307E0,-1.094150186E0,9.572018623E0
1.891319488E0,-1.900996208E0,-1.110909581E0,9.593565941E0
1.893302569E0,-1.972822189E0,-1.122880578E0,9.627084732E0
1.895317727E0,-2.008735180E0,-1.142034173E0,9.619902611E0
1.897331270E0,-2.059013367E0,-1.156399369E0,9.634267807E0
1.899315274E0,-2.087743998E0,-1.165976286E0,9.655815125E0
1.901328740E0,-2.099714994E0,-1.177947283E0,9.662998199E0
1.903312744E0,-2.128445387E0,-1.180341482E0,9.691728592E0
1.905326980E0,-2.161964178E0,-1.187524080E0,9.718064308E0
1.907310600E0,-2.161964178E0,-1.187524080E0,9.722852707E0
1.909324451E0,-2.169146776E0,-1.187524080E0,9.732429504E0
1.911308532E0,-2.193088770E0,-1.175553083E0,9.727641106E0
1.913322691E0,-2.190694571E0,-1.175553083E0,9.727641106E0
1.915305771E0,-2.181117773E0,-1.194706678E0,9.727641106E0
1.917319852E0,-2.152387381E0,-1.185129881E0,9.718064308E0
1.919304780E0,-2.140416384E0,-1.182735682E0,9.720458984E0
1.921317784E0,-2.111685991E0,-1.189918280E0,9.718064308E0
1.923333097E0,-2.099714994E0,-1.175553083E0,9.708487511E0
1.925315870E0,-2.080561161E0,-1.175553083E0,9.710882187E0
1.927330106E0,-2.030282974E0,-1.177947283E0,9.703699112E0
1.929313495E0,-2.018311977E0,-1.180341482E0,9.703699112E0
1.931328268E0,-1.965639591E0,-1.161187768E0,9.686940193E0
1.933311581E0,-1.917755604E0,-1.158793569E0,9.677363396E0
1.935326431E0,-1.898601890E0,-1.156399369E0,9.672574997E0
1.937309205E0,-1.848323703E0,-1.132457376E0,9.667786598E0
1.939323978E0,-1.788468719E0,-1.130063176E0,9.655815125E0
1.941307059E0,-1.757344007E0,-1.132457376E0,9.643844604E0
1.943320910E0,-1.709460020E0,-1.146822572E0,9.639056206E0
1.945304914E0,-1.666364431E0,-1.151610970E0,9.619902611E0
1.947318766E0,-1.647210717E0,-1.149216771E0,9.610325813E0
1.949332308E0,-1.611297727E0,-1.151610970E0,9.598354340E0
1.951317236E0,-1.565807939E0,-1.132457376E0,9.598354340E0
1.953331317E0,-1.551442742E0,-1.125274777E0,9.591172218E0
1.955313860E0,-1.510741234E0,-1.115697980E0,9.586383820E0
1.957328326E0,-1.424550056E0,-1.132457376E0,9.562441826E0
1.959310792E0,-1.424550056E0,-1.132457376E0,9.562441826E0
1.961324258E0,-1.422155857E0,-1.151610970E0,9.557653427E0
1.963310801E0,-1.410184860E0,-1.149216771E0,9.555258751E0
1.965324344E0,-1.388636947E0,-1.137245774E0,9.574412346E0
1.967307964E0,-1.379060149E0,-1.144428372E0,9.591172218E0
1.969322122E0,-1.376665950E0,-1.142034173E0,9.603142738E0
1.971305896E0,-1.379060149E0,-1.146822572E0,9.598354340E0
1.973320284E0,-1.403002143E0,-1.156399369E0,9.586383820E0
1.975304366E0,-1.424550056E0,-1.158793569E0,9.593565941E0
1.977317832E0,-1.472434044E0,-1.146822572E0,9.615114212E0
1.979333221E0,-1.513135433E0,-1.127668977E0,9.624691010E0
1.981315995E0,-1.520318031E0,-1.139639974E0,9.629479408E0
1.983329538E0,-1.575384736E0,-1.149216771E0,9.660603523E0
1.985313234E0,-1.642422318E0,-1.161187768E0,9.670180321E0
1.987327777E0,-1.673547029E0,-1.168370485E0,9.677363396E0
1.989311705E0,-1.735796213E0,-1.180341482E0,9.691728592E0
1.991325555E0,-1.764526606E0,-1.199495077E0,9.703699112E0
1.993309560E0,-1.814804912E0,-1.216254473E0,9.725247383E0
1.995322564E0,-1.879448295E0,-1.223437071E0,9.763554573E0
1.997307722E0,-1.900996208E0,-1.228225470E0,9.770736694E0
1.999322188E0,-1.953668594E0,-1.244984865E0,9.780313492E0
2.001304423E0,-1.991975784E0,-1.259350061E0,9.789890289E0
2.003318813E0,-2.003946781E0,-1.261744261E0,9.797073364E0
2.005333278E0,-2.054224968E0,-1.247379065E0,9.842563629E0
2.007317283E0,-2.073378563E0,-1.249773264E0,9.871294022E0
2.009330595E0,-2.087743998E0,-1.247379065E0,9.861717224E0
2.011314831E0,-2.104503393E0,-1.249773264E0,9.825803757E0
2.013328989E0,-2.109291792E0,-1.216254473E0,9.770736694E0
2.015313685E0,-2.111685991E0,-1.213860273E0,9.749189377E0
2.017327152E0,-2.099714994E0,-1.209071875E0,9.732429504E0
2.019310925E0,-2.087743998E0,-1.177947283E0,9.718064308E0
2.021324776E0,-2.063801765E0,-1.173158884E0,9.718064308E0
2.023308395E0,-2.027888775E0,-1.175553083E0,9.737217903E0
2.025322323E0,-2.013523579E0,-1.180341482E0,9.730035782E0
2.027305635E0,-1.987187386E0,-1.192312479E0,9.722852707E0
2.029319870E0,-1.968033791E0,-1.197100878E0,9.684545517E0
2.031303798E0,-1.944091797E0,-1.192312479E0,9.670180321E0
2.033317340E0,-1.917755604E0,-1.177947283E0,9.665391922E0
2.035331499E0,-1.889025092E0,-1.192312479E0,9.653421402E0
2.037316196E0,-1.877054095E0,-1.177947283E0,9.648633003E0
2.039332124E0,-1.865083098E0,-1.165976286E0,9.629479408E0
2.041312820E0,-1.831564307E0,-1.168370485E0,9.615114212E0
2.043328439E0,-1.829170108E0,-1.165976286E0,9.603142738E0
2.045310983E0,-1.800439715E0,-1.161187768E0,9.581595421E0
2.047325679E0,-1.776497602E0,-1.142034173E0,9.581595421E0
2.049308453E0,-1.762132406E0,-1.146822572E0,9.583989143E0
2.051323227E0,-1.757344007E0,-1.163581967E0,9.588777542E0
2.053307231E0,-1.742978811E0,-1.170764685E0,9.598354340E0
2.055322313E0,-1.731007814E0,-1.168370485E0,9.588777542E0
2.057304778E0,-1.731007814E0,-1.177947283E0,9.555258751E0
2.059319552E0,-1.726219416E0,-1.180341482E0,9.543288231E0
2.061302941E0,-1.714248419E0,-1.170764685E0,9.536105156E0
2.063316484E0,-1.697489023E0,-1.146822572E0,9.552865028E0
2.065330950E0,-1.690306425E0,-1.151610970E0,9.579200745E0
2.067314417E0,-1.685518026E0,-1.163581967E0,9.624691010E0
2.069328497E0,-1.678335428E0,-1.163581967E0,9.660603523E0
2.071312271E0,-1.671152830E0,-1.175553083E0,9.682151794E0
2.073326660E0,-1.678335428E0,-1.211466074E0,9.689333916E0
2.075309818E0,-1.697489023E0,-1.197100878E0,9.670180321E0
2.077323669E0,-1.697489023E0,-1.187524080E0,9.667786598E0
2.079308904E0,-1.673547029E0,-1.189918280E0,9.658209801E0
2.081322678E0,-1.666364431E0,-1.182735682E0,9.672574997E0
2.083305836E0,-1.661576033E0,-1.170764685E0,9.674968719E0
2.085319917E0,-1.644816518E0,-1.139639974E0,9.684545517E0
2.087303076E0,-1.640028119E0,-1.127668977E0,9.706093788E0
2.089317542E0,-1.637633920E0,-1.122880578E0,9.756371498E0
2.091331700E0,-1.625662923E0,-1.137245774E0,9.746794701E0
2.093316012E0,-1.613691926E0,-1.144428372E0,9.727641106E0
2.095330094E0,-1.618480325E0,-1.134851575E0,9.679757118E0
2.097313175E0,-1.618480325E0,-1.132457376E0,9.665391922E0
2.099328256E0,-1.620874524E0,-1.120486379E0,9.662998199E0
2.101312338E0,-1.630451322E0,-1.094150186E0,9.636661530E0
2.103325265E0,-1.628057122E0,-1.067813993E0,9.591172218E0
2.105309193E0,-1.623268723E0,-1.051054597E0,9.581595421E0
2.107323120E0,-1.599326730E0,-1.027112484E0,9.567230225E0
2.109306739E0,-1.594538331E0,-1.017535686E0,9.548076630E0
2.111320975E0,-1.587355733E0,-1.015141487E0,9.548076630E0
2.113304595E0,-1.582567334E0,-1.012747288E0,9.543288231E0
2.115317523E0,-1.572990537E0,-1.019929886E0,9.545681953E0
2.117333527E0,-1.549048543E0,-1.017535686E0,9.548076630E0
2.119318224E0,-1.517923832E0,-1.027112484E0,9.543288231E0
2.121330536E0,-1.501164436E0,-1.034295082E0,9.538499832E0
2.123314848E0,-1.496376038E0,-1.031900883E0,9.526528358E0
2.125327775E0,-1.465251446E0,-1.039083481E0,9.519346237E0
2.127312626E0,-1.448492050E0,-1.036689281E0,9.514557838E0
2.129326246E0,-1.414973259E0,-1.029506683E0,9.507374763E0
2.131309942E0,-1.403002143E0,-1.027112484E0,9.502586365E0
2.133323793E0,-1.383848548E0,-1.015141487E0,9.493009567E0
2.135308028E0,-1.388636947E0,-1.022324085E0,9.481039047E0
2.137322187E0,-1.403002143E0,-1.031900883E0,9.485827446E0
2.139307422E0,-1.391031146E0,-1.053448796E0,9.488221169E0
2.141320349E0,-1.386242747E0,-1.060631394E0,9.502586365E0
2.143303508E0,-1.371877551E0,-1.077390790E0,9.495404243E0
2.145317050E0,-1.374271750E0,-1.079784989E0,9.507374763E0
2.147331440E0,-1.376665950E0,-1.082179189E0,9.526528358E0
2.149315521E0,-1.383848548E0,-1.096544385E0,9.548076630E0
2.151329910E0,-1.393425345E0,-1.096544385E0,9.550470352E0
2.153312991E0,-1.429338455E0,-1.079784989E0,9.550470352E0
2.155323842E0,-1.434126854E0,-1.082179189E0,9.555258751E0
2.157310231E0,-1.472434044E0,-1.091755986E0,9.572018623E0
2.159326312E0,-1.482010841E0,-1.101332784E0,9.583989143E0
2.161309317E0,-1.486799240E0,-1.098938584E0,9.581595421E0
2.163322936E0,-1.520318031E0,-1.094150186E0,9.607931137E0
2.165306633E0,-1.527500629E0,-1.106121182E0,9.624691010E0
2.167320484E0,-1.525106430E0,-1.113303781E0,9.627084732E0
2.169303873E0,-1.532289028E0,-1.110909581E0,9.627084732E0
2.171318339E0,-1.553836942E0,-1.115697980E0,9.643844604E0
2.173332112E0,-1.556231141E0,-1.125274777E0,9.653421402E0
2.175317348E0,-1.551442742E0,-1.139639974E0,9.701305389E0
2.177331275E0,-1.570596337E0,-1.142034173E0,9.761159897E0
2.179315203E0,-1.575384736E0,-1.146822572E0,9.777919769E0
2.181328746E0,-1.592144132E0,-1.165976286E0,9.777919769E0
2.183311596E0,-1.587355733E0,-1.189918280E0,9.765948296E0
2.185326062E0,-1.575384736E0,-1.187524080E0,9.753977776E0
2.187310374E0,-1.587355733E0,-1.187524080E0,9.749189377E0
2.189324456E0,-1.589749932E0,-1.177947283E0,9.749189377E0
2.191307845E0,-1.565807939E0,-1.165976286E0,9.753977776E0
2.193321080E0,-1.565807939E0,-1.165976286E0,9.749189377E0
2.195305700E0,-1.558625340E0,-1.165976286E0,9.734824181E0
2.197319012E0,-1.513135433E0,-1.185129881E0,9.710882187E0
2.199332478E0,-1.513135433E0,-1.185129881E0,9.710882187E0
2.201316482E0,-1.508347034E0,-1.168370485E0,9.708487511E0
2.203332179E0,-1.498770237E0,-1.146822572E0,9.689333916E0
2.205315260E0,-1.515529633E0,-1.142034173E0,9.672574997E0
2.207329727E0,-1.508347034E0,-1.132457376E0,9.674968719E0
2.209313115E0,-1.486799240E0,-1.101332784E0,9.696516991E0
2.211327350E0,-1.486799240E0,-1.074996591E0,9.708487511E0
2.213311048E0,-1.489193439E0,-1.070208192E0,9.718064308E0
2.215325513E0,-1.470039845E0,-1.096544385E0,9.742006302E0
2.217309133E0,-1.446097851E0,-1.134851575E0,9.751583099E0
2.219323061E0,-1.434126854E0,-1.149216771E0,9.751583099E0
2.221306988E0,-1.398213744E0,-1.201889277E0,9.742006302E0
2.223320531E0,-1.383848548E0,-1.223437071E0,9.739612579E0
2.225304304E0,-1.355118155E0,-1.242590666E0,9.737217903E0
2.227318463E0,-1.321599364E0,-1.244984865E0,9.713275909E0
2.229332929E0,-1.316810966E0,-1.240196466E0,9.706093788E0
2.231316318E0,-1.312022567E0,-1.204283476E0,9.706093788E0
2.233330707E0,-1.302445769E0,-1.199495077E0,9.710882187E0
2.235313558E0,-1.304839969E0,-1.187524080E0,9.708487511E0
2.237328254E0,-1.326387763E0,-1.185129881E0,9.684545517E0
2.239313258E0,-1.364694953E0,-1.163581967E0,9.658209801E0
2.241325802E0,-1.374271750E0,-1.170764685E0,9.648633003E0
2.243309498E0,-1.398213744E0,-1.173158884E0,9.648633003E0
2.245323965E0,-1.436521053E0,-1.165976286E0,9.648633003E0
2.247307430E0,-1.443703651E0,-1.182735682E0,9.665391922E0
2.249321589E0,-1.477222443E0,-1.189918280E0,9.672574997E0
2.251304901E0,-1.501164436E0,-1.194706678E0,9.660603523E0
2.253319136E0,-1.561019540E0,-1.201889277E0,9.653421402E0
2.255334218E0,-1.613691926E0,-1.194706678E0,9.643844604E0
2.257317299E0,-1.649604917E0,-1.192312479E0,9.634267807E0
2.259332304E0,-1.714248419E0,-1.189918280E0,9.624691010E0
2.261315769E0,-1.800439715E0,-1.185129881E0,9.612719536E0
2.263328928E0,-1.833958507E0,-1.175553083E0,9.603142738E0
2.265312393E0,-1.915361404E0,-1.156399369E0,9.581595421E0
2.267326859E0,-2.006340981E0,-1.130063176E0,9.581595421E0
2.269311172E0,-2.044648170E0,-1.113303781E0,9.579200745E0
2.271324330E0,-2.116474390E0,-1.101332784E0,9.579200745E0
2.273308950E0,-2.171540976E0,-1.125274777E0,9.593565941E0
2.275322569E0,-2.207453966E0,-1.130063176E0,9.600749016E0
2.277306804E0,-2.243366957E0,-1.146822572E0,9.605537415E0
2.279321886E0,-2.272097349E0,-1.156399369E0,9.583989143E0
2.281303198E0,-2.293645144E0,-1.146822572E0,9.581595421E0
2.283318587E0,-2.329558372E0,-1.156399369E0,9.588777542E0
2.285332130E0,-2.353500366E0,-1.142034173E0,9.593565941E0
2.287316058E0,-2.410961151E0,-1.149216771E0,9.641449928E0
2.289330831E0,-2.454056740E0,-1.146822572E0,9.672574997E0
2.291313605E0,-2.473210335E0,-1.151610970E0,9.672574997E0
2.293328148E0,-2.489969730E0,-1.161187768E0,9.679757118E0
2.295312383E0,-2.504334927E0,-1.170764685E0,9.677363396E0
2.297325926E0,-2.506729126E0,-1.170764685E0,9.679757118E0
2.299310853E0,-2.518700123E0,-1.177947283E0,9.696516991E0
2.301324089E0,-2.521094322E0,-1.182735682E0,9.698910713E0
2.303307554E0,-2.509123325E0,-1.170764685E0,9.703699112E0
2.305321713E0,-2.475604534E0,-1.180341482E0,9.718064308E0
2.307305102E0,-2.437297344E0,-1.165976286E0,9.725247383E0
2.309319491E0,-2.408566952E0,-1.161187768E0,9.732429504E0
2.311333342E0,-2.351106167E0,-1.173158884E0,9.715670586E0
2.313316807E0,-2.324769735E0,-1.170764685E0,9.698910713E0
2.315327812E0,-2.250549555E0,-1.175553083E0,9.694122314E0
2.317314893E0,-2.159569979E0,-1.177947283E0,9.696516991E0
2.319330591E0,-2.114080191E0,-1.163581967E0,9.686940193E0
2.321314056E0,-2.051830769E0,-1.168370485E0,9.698910713E0
2.323326983E0,-1.975216389E0,-1.187524080E0,9.701305389E0
2.325310604E0,-1.927332401E0,-1.187524080E0,9.706093788E0
2.327324531E0,-1.824381709E0,-1.182735682E0,9.691728592E0
2.329308766E0,-1.735796213E0,-1.175553083E0,9.672574997E0
2.331322078E0,-1.702277422E0,-1.182735682E0,9.662998199E0
2.333306621E0,-1.606509328E0,-1.182735682E0,9.636661530E0
2.335320856E0,-1.544260144E0,-1.182735682E0,9.629479408E0
2.337303860E0,-1.491587639E0,-1.180341482E0,9.631873131E0
2.339319019E0,-1.403002143E0,-1.182735682E0,9.648633003E0
2.341332562E0,-1.309628367E0,-1.175553083E0,9.660603523E0
2.343315951E0,-1.271321058E0,-1.180341482E0,9.658209801E0
2.345329724E0,-1.206677675E0,-1.177947283E0,9.655815125E0
2.347313422E0,-1.175553083E0,-1.180341482E0,9.651026726E0
2.349327041E0,-1.115697980E0,-1.189918280E0,9.653421402E0
2.351311661E0,-1.074996591E0,-1.199495077E0,9.648633003E0
2.353325743E0,-1.051054597E0,-1.197100878E0,9.636661530E0
2.355309208E0,-1.007958889E0,-1.189918280E0,9.629479408E0
2.357324598E0,-9.840168953E-1,-1.177947283E0,9.631873131E0
2.359308909E0,-9.648633003E-1,-1.175553083E0,9.636661530E0
2.361320837E0,-9.552865028E-1,-1.161187768E0,9.641449928E0
2.363304918E0,-9.313444495E-1,-1.175553083E0,9.639056206E0
2.365319307E0,-9.241618514E-1,-1.182735682E0,9.643844604E0
2.367333543E0,-9.457096457E-1,-1.173158884E0,9.624691010E0
2.369316624E0,-9.433154464E-1,-1.180341482E0,9.619902611E0
2.371331321E0,-9.624691010E-1,-1.182735682E0,9.622296333E0
2.373314479E0,-9.840168953E-1,-1.180341482E0,9.617507935E0
2.375330715E0,-1.027112484E0,-1.134851575E0,9.612719536E0
2.377312565E0,-1.048660398E0,-1.146822572E0,9.615114212E0
2.379327646E0,-1.113303781E0,-1.142034173E0,9.627084732E0
2.381310805E0,-1.149216771E0,-1.132457376E0,9.627084732E0
2.383324578E0,-1.228225470E0,-1.130063176E0,9.622296333E0
2.385307737E0,-1.302445769E0,-1.122880578E0,9.617507935E0
2.387322510E0,-1.338358760E0,-1.125274777E0,9.615114212E0
2.389305591E0,-1.417367458E0,-1.127668977E0,9.607931137E0
2.391320673E0,-1.484405041E0,-1.130063176E0,9.619902611E0
2.393303138E0,-1.517923832E0,-1.122880578E0,9.634267807E0
2.395317220E0,-1.580173135E0,-1.122880578E0,9.646238327E0
2.397333224E0,-1.656787634E0,-1.132457376E0,9.655815125E0
2.399317614E0,-1.685518026E0,-1.137245774E0,9.653421402E0
2.401330849E0,-1.731007814E0,-1.146822572E0,9.653421402E0
2.403313623E0,-1.783680320E0,-1.139639974E0,9.648633003E0
2.405327473E0,-1.802833915E0,-1.125274777E0,9.641449928E0
2.407311400E0,-1.829170108E0,-1.118092179E0,9.658209801E0
2.409325636E0,-1.850717902E0,-1.118092179E0,9.639056206E0
2.411309255E0,-1.850717902E0,-1.108515382E0,9.629479408E0
2.413323722E0,-1.867477298E0,-1.101332784E0,9.619902611E0
2.415307495E0,-1.869871497E0,-1.106121182E0,9.615114212E0
2.417321577E0,-1.881842494E0,-1.108515382E0,9.627084732E0
2.419305581E0,-1.872265697E0,-1.108515382E0,9.629479408E0
2.421318816E0,-1.857900500E0,-1.098938584E0,9.624691010E0
2.423333667E0,-1.850717902E0,-1.106121182E0,9.619902611E0
2.425317286E0,-1.826775908E0,-1.106121182E0,9.624691010E0
2.427330830E0,-1.824381709E0,-1.106121182E0,9.636661530E0
2.429314834E0,-1.807622313E0,-1.098938584E0,9.658209801E0
2.431328762E0,-1.764526606E0,-1.127668977E0,9.662998199E0
2.433312766E0,-1.757344007E0,-1.137245774E0,9.662998199E0
2.435326001E0,-1.735796213E0,-1.139639974E0,9.653421402E0
2.437310236E0,-1.668758631E0,-1.146822572E0,9.641449928E0
2.439323163E0,-1.668758631E0,-1.146822572E0,9.641449928E0
2.441307861E0,-1.659181833E0,-1.144428372E0,9.641449928E0
2.443322326E0,-1.647210717E0,-1.137245774E0,9.641449928E0
2.445306024E0,-1.623268723E0,-1.130063176E0,9.641449928E0
2.447319874E0,-1.594538331E0,-1.113303781E0,9.641449928E0
2.449334262E0,-1.582567334E0,-1.115697980E0,9.643844604E0
2.451317960E0,-1.556231141E0,-1.139639974E0,9.653421402E0
2.453331887E0,-1.546654344E0,-1.146822572E0,9.660603523E0
2.455316738E0,-1.546654344E0,-1.142034173E0,9.674968719E0
2.457329434E0,-1.529894829E0,-1.163581967E0,9.703699112E0
2.459314593E0,-1.522712231E0,-1.187524080E0,9.744400978E0
2.461327828E0,-1.513135433E0,-1.197100878E0,9.758766174E0
2.463311524E0,-1.527500629E0,-1.211466074E0,9.773131371E0
2.465325683E0,-1.539471745E0,-1.228225470E0,9.751583099E0
2.467309379E0,-1.544260144E0,-1.218648672E0,9.727641106E0
2.469323538E0,-1.551442742E0,-1.197100878E0,9.682151794E0
2.471306927E0,-1.537077546E0,-1.156399369E0,9.658209801E0
2.473320470E0,-1.529894829E0,-1.149216771E0,9.658209801E0
2.475304167E0,-1.546654344E0,-1.151610970E0,9.667786598E0
2.477318325E0,-1.556231141E0,-1.146822572E0,9.684545517E0
2.479334330E0,-1.556231141E0,-1.149216771E0,9.696516991E0
2.481316872E0,-1.565807939E0,-1.146822572E0,9.684545517E0
2.483330954E0,-1.568202138E0,-1.146822572E0,9.677363396E0
2.485314727E0,-1.580173135E0,-1.154005170E0,9.655815125E0
2.487328501E0,-1.606509328E0,-1.132457376E0,9.655815125E0
2.489312505E0,-1.613691926E0,-1.120486379E0,9.648633003E0
2.491326663E0,-1.608903527E0,-1.118092179E0,9.636661530E0
2.493309822E0,-1.599326730E0,-1.130063176E0,9.646238327E0
2.495323980E0,-1.608903527E0,-1.144428372E0,9.648633003E0
2.497308831E0,-1.613691926E0,-1.151610970E0,9.636661530E0
2.499323681E0,-1.608903527E0,-1.134851575E0,9.631873131E0
2.501306686E0,-1.601720929E0,-1.134851575E0,9.636661530E0
2.503320306E0,-1.594538331E0,-1.130063176E0,9.631873131E0
2.505303002E0,-1.601720929E0,-1.127668977E0,9.634267807E0
2.507317545E0,-1.608903527E0,-1.132457376E0,9.629479408E0
2.509331934E0,-1.608903527E0,-1.132457376E0,9.624691010E0
2.511316016E0,-1.613691926E0,-1.137245774E0,9.624691010E0
2.513329866E0,-1.608903527E0,-1.137245774E0,9.634267807E0
2.515312640E0,-1.608903527E0,-1.151610970E0,9.658209801E0
2.517328337E0,-1.601720929E0,-1.158793569E0,9.658209801E0
2.519313264E0,-1.594538331E0,-1.158793569E0,9.670180321E0
2.521324653E0,-1.604115129E0,-1.170764685E0,9.694122314E0
2.523309888E0,-1.601720929E0,-1.170764685E0,9.701305389E0
2.525323432E0,-1.599326730E0,-1.175553083E0,9.734824181E0
2.527307051E0,-1.596932530E0,-1.187524080E0,9.770736694E0
2.529321902E0,-1.592144132E0,-1.192312479E0,9.782708168E0
2.531304983E0,-1.604115129E0,-1.199495077E0,9.787496567E0
2.533318526E0,-1.601720929E0,-1.192312479E0,9.763554573E0
2.535333838E0,-1.604115129E0,-1.194706678E0,9.751583099E0
2.537317227E0,-1.606509328E0,-1.177947283E0,9.737217903E0
2.539331386E0,-1.611297727E0,-1.163581967E0,9.725247383E0
2.541314544E0,-1.618480325E0,-1.158793569E0,9.734824181E0
2.543328626E0,-1.620874524E0,-1.137245774E0,9.734824181E0
2.545312630E0,-1.628057122E0,-1.142034173E0,9.725247383E0
2.547326787E0,-1.642422318E0,-1.134851575E0,9.689333916E0
2.549310485E0,-1.647210717E0,-1.132457376E0,9.667786598E0
2.551324643E0,-1.654393315E0,-1.134851575E0,9.665391922E0
2.553307801E0,-1.678335428E0,-1.144428372E0,9.651026726E0
2.555319190E0,-1.680729628E0,-1.125274777E0,9.639056206E0
2.557335810E0,-1.690306425E0,-1.122880578E0,9.615114212E0
2.559320661E0,-1.695094824E0,-1.110909581E0,9.576807022E0
2.561303818E0,-1.697489023E0,-1.089361787E0,9.545681953E0
2.563317670E0,-1.695094824E0,-1.074996591E0,9.528923035E0
2.565332135E0,-1.687912226E0,-1.046266198E0,9.516951561E0
2.567316140E0,-1.668758631E0,-1.046266198E0,9.507374763E0
2.569329067E0,-1.659181833E0,-1.060631394E0,9.500192642E0
2.571313611E0,-1.649604917E0,-1.053448796E0,9.478644371E0
2.573327153E0,-1.630451322E0,-1.067813993E0,9.464279175E0
2.575311849E0,-1.630451322E0,-1.067813993E0,9.449913979E0
2.577324701E0,-1.630451322E0,-1.048660398E0,9.423578262E0
2.579309705E0,-1.620874524E0,-1.031900883E0,9.425971985E0
2.581323479E0,-1.613691926E0,-1.024718285E0,9.457097054E0
2.583307175E0,-1.601720929E0,-1.034295082E0,9.497797966E0
2.585320796E0,-1.601720929E0,-1.024718285E0,9.507374763E0
2.587304492E0,-1.582567334E0,-1.039083481E0,9.500192642E0
2.589318650E0,-1.565807939E0,-1.034295082E0,9.471462250E0
2.591333347E0,-1.551442742E0,-1.029506683E0,9.459490776E0
2.593316736E0,-1.520318031E0,-1.029506683E0,9.454702377E0
2.595330048E0,-1.493981838E0,-1.017535686E0,9.471462250E0
2.597314975E0,-1.479616642E0,-1.019929886E0,9.481039047E0
2.599329750E0,-1.424550056E0,-1.055842996E0,9.521739960E0
2.601311831E0,-1.386242747E0,-1.079784989E0,9.576807022E0
2.603325988E0,-1.362300754E0,-1.110909581E0,9.615114212E0
2.605310070E0,-1.340752959E0,-1.151610970E0,9.677363396E0
2.607324228E0,-1.328781962E0,-1.170764685E0,9.698910713E0
2.609307926E0,-1.316810966E0,-1.175553083E0,9.708487511E0
2.611322083E0,-1.319205165E0,-1.189918280E0,9.742006302E0
2.613305704E0,-1.331176162E0,-1.201889277E0,9.765948296E0
2.615320169E0,-1.328781962E0,-1.211466074E0,9.818621635E0
2.617334096E0,-1.350329757E0,-1.211466074E0,9.849745750E0
2.619318409E0,-1.345541358E0,-1.206677675E0,9.847352028E0
2.621332490E0,-1.350329757E0,-1.209071875E0,9.837775230E0
2.623315264E0,-1.352723956E0,-1.206677675E0,9.818621635E0
2.625329422E0,-1.359906554E0,-1.194706678E0,9.797073364E0
2.627313504E0,-1.362300754E0,-1.173158884E0,9.751583099E0
2.629327046E0,-1.350329757E0,-1.151610970E0,9.696516991E0
2.631311589E0,-1.352723956E0,-1.139639974E0,9.677363396E0
2.633325517E0,-1.338358760E0,-1.130063176E0,9.634267807E0
2.635308521E0,-1.343147159E0,-1.130063176E0,9.629479408E0
2.637322449E0,-1.340752959E0,-1.127668977E0,9.639056206E0
2.639308222E0,-1.350329757E0,-1.127668977E0,9.662998199E0
2.641320843E0,-1.379060149E0,-1.149216771E0,9.694122314E0
2.643304308E0,-1.407790542E0,-1.149216771E0,9.706093788E0
2.645318158E0,-1.443703651E0,-1.185129881E0,9.689333916E0
2.647332548E0,-1.465251446E0,-1.189918280E0,9.674968719E0
2.649316244E0,-1.508347034E0,-1.182735682E0,9.660603523E0
2.651331019E0,-1.534683347E0,-1.170764685E0,9.660603523E0
2.653314176E0,-1.551442742E0,-1.146822572E0,9.677363396E0
2.655329181E0,-1.589749932E0,-1.127668977E0,9.725247383E0
2.657312262E0,-1.589749932E0,-1.146822572E0,9.792284966E0
2.659327036E0,-1.587355733E0,-1.161187768E0,9.821015358E0
2.661310425E0,-1.584961534E0,-1.206677675E0,9.811438560E0
2.663324045E0,-1.563413739E0,-1.237802267E0,9.768342972E0
2.665307973E0,-1.556231141E0,-1.247379065E0,9.742006302E0
2.667322131E0,-1.549048543E0,-1.216254473E0,9.682151794E0
2.669305289E0,-1.537077546E0,-1.180341482E0,9.622296333E0
2.671319370E0,-1.529894829E0,-1.158793569E0,9.612719536E0
2.673333605E0,-1.544260144E0,-1.130063176E0,9.600749016E0
2.675316995E0,-1.551442742E0,-1.113303781E0,9.588777542E0
2.677330768E0,-1.561019540E0,-1.110909581E0,9.634267807E0
2.679313311E0,-1.570596337E0,-1.118092179E0,9.655815125E0
2.681326546E0,-1.577778935E0,-1.125274777E0,9.679757118E0
2.683313320E0,-1.594538331E0,-1.144428372E0,9.698910713E0
2.685326555E0,-1.630451322E0,-1.192312479E0,9.734824181E0
2.687310867E0,-1.644816518E0,-1.223437071E0,9.749189377E0
2.689325333E0,-1.680729628E0,-1.256955862E0,9.782708168E0
2.691308953E0,-1.738190413E0,-1.271321058E0,9.806650162E0
2.693322573E0,-1.738190413E0,-1.278503656E0,9.804255486E0
2.695306808E0,-1.757344007E0,-1.307234168E0,9.799467087E0
2.697320736E0,-1.783680320E0,-1.319205165E0,9.780313492E0
2.699305894E0,-1.807622313E0,-1.314416766E0,9.775525093E0
2.701319206E0,-1.821987510E0,-1.328781962E0,9.780313492E0
2.703332365E0,-1.819593310E0,-1.290474772E0,9.758766174E0
2.705316369E0,-1.814804912E0,-1.290474772E0,9.737217903E0
2.707330527E0,-1.795651317E0,-1.280897856E0,9.713275909E0
2.709313685E0,-1.793257117E0,-1.278503656E0,9.694122314E0
2.711328383E0,-1.769315004E0,-1.268926859E0,9.665391922E0
2.713312771E0,-1.774103403E0,-1.249773264E0,9.639056206E0
2.715325314E0,-1.778891921E0,-1.242590666E0,9.617507935E0
2.717310857E0,-1.762132406E0,-1.244984865E0,9.595960617E0
2.719325400E0,-1.754949808E0,-1.261744261E0,9.605537415E0
2.721308405E0,-1.754949808E0,-1.271321058E0,9.610325813E0
2.723321716E0,-1.754949808E0,-1.276109457E0,9.600749016E0
2.725305644E0,-1.757344007E0,-1.273715258E0,9.564835548E0
2.727319187E0,-1.750161409E0,-1.264138460E0,9.550470352E0
2.729333729E0,-1.757344007E0,-1.264138460E0,9.514557838E0
2.731317350E0,-1.781286120E0,-1.237802267E0,9.476250648E0
2.733331892E0,-1.771709204E0,-1.223437071E0,9.464279175E0
2.735315897E0,-1.783680320E0,-1.180341482E0,9.430760384E0
2.737329670E0,-1.795651317E0,-1.163581967E0,9.402029991E0
2.739313445E0,-1.800439715E0,-1.158793569E0,9.380482674E0
2.741327833E0,-1.800439715E0,-1.144428372E0,9.332598686E0
2.743310914E0,-1.812410712E0,-1.137245774E0,9.320627213E0
2.745325150E0,-1.821987510E0,-1.154005170E0,9.318233490E0
2.747308231E0,-1.841141105E0,-1.146822572E0,9.334992409E0
2.749323544E0,-1.857900500E0,-1.146822572E0,9.337387085E0
2.751306009E0,-1.886630893E0,-1.163581967E0,9.358934402E0
2.753320553E0,-1.934514999E0,-1.192312479E0,9.397241592E0
2.755303941E0,-1.951274395E0,-1.204283476E0,9.425971985E0
2.757318637E0,-1.975216389E0,-1.230619669E0,9.481039047E0
2.759334642E0,-1.996764183E0,-1.242590666E0,9.524134636E0
2.761315954E0,-2.006340981E0,-1.254561663E0,9.548076630E0
2.763329728E0,-2.027888775E0,-1.261744261E0,9.600749016E0
2.765314117E0,-2.025494576E0,-1.300051570E0,9.684545517E0
2.767328507E0,-2.027888775E0,-1.321599364E0,9.732429504E0
2.769311665E0,-2.047042370E0,-1.309628367E0,9.811438560E0
2.771326361E0,-2.032677174E0,-1.323993564E0,9.864110947E0
2.773309750E0,-2.011129379E0,-1.343147159E0,9.890447617E0
2.775323985E0,-2.001552582E0,-1.362300754E0,9.897629738E0
2.777308529E0,-2.003946781E0,-1.367089152E0,9.888052940E0
2.779322687E0,-1.989581585E0,-1.359906554E0,9.868899345E0
2.781305461E0,-1.965639591E0,-1.331176162E0,9.837775230E0
2.783320234E0,-1.958456993E0,-1.316810966E0,9.818621635E0
2.785333546E0,-1.932120800E0,-1.295263171E0,9.780313492E0
2.787317166E0,-1.893813491E0,-1.259350061E0,9.715670586E0
2.789331324E0,-1.879448295E0,-1.244984865E0,9.696516991E0
2.791315098E0,-1.841141105E0,-1.221042871E0,9.651026726E0
2.793329179E0,-1.793257117E0,-1.187524080E0,9.593565941E0
2.795312261E0,-1.776497602E0,-1.170764685E0,9.562441826E0
2.797326727E0,-1.764526606E0,-1.127668977E0,9.528923035E0
2.799311423E0,-1.733402014E0,-1.113303781E0,9.512163162E0
2.801325813E0,-1.711854219E0,-1.122880578E0,9.512163162E0
2.803309278E0,-1.683123827E0,-1.130063176E0,9.507374763E0
2.805322437E0,-1.692700624E0,-1.130063176E0,9.507374763E0
2.807305595E0,-1.716642618E0,-1.134851575E0,9.490615845E0
2.809320600E0,-1.726219416E0,-1.120486379E0,9.457097054E0
2.811334835E0,-1.723825216E0,-1.125274777E0,9.452308655E0
2.813318454E0,-1.731007814E0,-1.127668977E0,9.457097054E0
2.815333536E0,-1.759738207E0,-1.130063176E0,9.473855972E0
2.817316386E0,-1.762132406E0,-1.137245774E0,9.493009567E0
2.819331391E0,-1.769315004E0,-1.146822572E0,9.519346237E0
2.821314857E0,-1.800439715E0,-1.151610970E0,9.538499832E0
2.823328631E0,-1.802833915E0,-1.154005170E0,9.552865028E0
2.825311481E0,-1.817199111E0,-1.149216771E0,9.576807022E0
2.827325870E0,-1.821987510E0,-1.177947283E0,9.610325813E0
2.829309951E0,-1.817199111E0,-1.187524080E0,9.615114212E0
2.831324725E0,-1.790862918E0,-1.194706678E0,9.634267807E0
2.833307422E0,-1.769315004E0,-1.206677675E0,9.655815125E0
2.835321272E0,-1.759738207E0,-1.213860273E0,9.662998199E0
2.837306200E0,-1.747767210E0,-1.221042871E0,9.665391922E0
2.839321589E0,-1.697489023E0,-1.240196466E0,9.646238327E0
2.841302285E0,-1.668758631E0,-1.254561663E0,9.641449928E0
2.843317290E0,-1.596932530E0,-1.244984865E0,9.636661530E0
2.845331448E0,-1.556231141E0,-1.252167463E0,9.629479408E0
2.847314222E0,-1.479616642E0,-1.256955862E0,9.617507935E0
2.849328996E0,-1.412579060E0,-1.261744261E0,9.610325813E0
2.851313077E0,-1.379060149E0,-1.252167463E0,9.622296333E0
2.853327774E0,-1.307234168E0,-1.230619669E0,9.627084732E0
2.855311239E0,-1.228225470E0,-1.223437071E0,9.622296333E0
2.857324783E0,-1.185129881E0,-1.221042871E0,9.617507935E0
2.859309094E0,-1.118092179E0,-1.228225470E0,9.607931137E0
2.861322946E0,-1.063025594E0,-1.204283476E0,9.605537415E0
2.863306565E0,-1.027112484E0,-1.192312479E0,9.600749016E0
2.865320724E0,-9.600749016E-1,-1.185129881E0,9.636661530E0
2.867334266E0,-9.026140571E-1,-1.216254473E0,9.706093788E0
2.869318040E0,-8.810662031E-1,-1.218648672E0,9.753977776E0
2.871332737E0,-8.667010069E-1,-1.230619669E0,9.847352028E0
2.873315818E0,-8.547300100E-1,-1.244984865E0,9.883264542E0
2.875326900E0,-8.475474119E-1,-1.309628367E0,9.943120003E0
2.877313135E0,-8.762778044E-1,-1.345541358E0,9.931148529E0
2.879329140E0,-8.930372596E-1,-1.352723956E0,9.904812813E0
2.881312144E0,-9.504981041E-1,-1.345541358E0,9.864110947E0
2.883325763E0,-1.046266198E0,-1.323993564E0,9.840168953E0
2.885309691E0,-1.074996591E0,-1.319205165E0,9.832986832E0
2.887323310E0,-1.168370485E0,-1.307234168E0,9.799467087E0
2.889306700E0,-1.256955862E0,-1.300051570E0,9.765948296E0
2.891322319E0,-1.304839969E0,-1.278503656E0,9.758766174E0
2.893305171E0,-1.398213744E0,-1.271321058E0,9.713275909E0
2.895319944E0,-1.484405041E0,-1.273715258E0,9.658209801E0
2.897333794E0,-1.529894829E0,-1.264138460E0,9.634267807E0
2.899317722E0,-1.620874524E0,-1.249773264E0,9.603142738E0
2.901331957E0,-1.671152830E0,-1.237802267E0,9.574412346E0
2.903314423E0,-1.757344007E0,-1.233013868E0,9.562441826E0
2.905329427E0,-1.826775908E0,-1.221042871E0,9.531316757E0
2.907312202E0,-1.860294700E0,-1.213860273E0,9.524134636E0
2.909326436E0,-1.922544003E0,-1.223437071E0,9.500192642E0
2.911310440E0,-1.991975784E0,-1.211466074E0,9.485827446E0
2.913325138E0,-2.020706177E0,-1.213860273E0,9.481039047E0
2.915307603E0,-2.070984364E0,-1.206677675E0,9.473855972E0
2.917322070E0,-2.149993181E0,-1.163581967E0,9.466673851E0
2.919304612E0,-2.157175779E0,-1.158793569E0,9.466673851E0
2.921317540E0,-2.157175779E0,-1.158793569E0,9.466673851E0
2.923334467E0,-2.188300371E0,-1.156399369E0,9.471462250E0
2.925317779E0,-2.188300371E0,-1.158793569E0,9.483432770E0
2.927332015E0,-2.209848166E0,-1.168370485E0,9.521739960E0
2.929316327E0,-2.195482969E0,-1.170764685E0,9.576807022E0
2.931330178E0,-2.195482969E0,-1.180341482E0,9.607931137E0
2.933313566E0,-2.209848166E0,-1.204283476E0,9.665391922E0
2.935328571E0,-2.207453966E0,-1.225831270E0,9.698910713E0
2.937311960E0,-2.193088770E0,-1.240196466E0,9.708487511E0
2.939326810E0,-2.183511972E0,-1.276109457E0,9.684545517E0
2.941309200E0,-2.173935175E0,-1.288080573E0,9.672574997E0
2.943323973E0,-2.130839586E0,-1.273715258E0,9.655815125E0
2.945307132E0,-2.080561161E0,-1.278503656E0,9.636661530E0
2.947321828E0,-2.039859772E0,-1.268926859E0,9.631873131E0
2.949304679E0,-1.994369984E0,-1.271321058E0,9.619902611E0
2.951319376E0,-1.927332401E0,-1.261744261E0,9.643844604E0
2.953333303E0,-1.898601890E0,-1.256955862E0,9.641449928E0
2.955316385E0,-1.841141105E0,-1.254561663E0,9.646238327E0
2.957330466E0,-1.788468719E0,-1.266532660E0,9.694122314E0
2.959315394E0,-1.752555609E0,-1.273715258E0,9.720458984E0
2.961329013E0,-1.692700624E0,-1.290474772E0,9.761159897E0
2.963312326E0,-1.651999116E0,-1.312022567E0,9.797073364E0
2.965326868E0,-1.635239720E0,-1.323993564E0,9.809044838E0
2.967310180E0,-1.606509328E0,-1.343147159E0,9.797073364E0
2.969324416E0,-1.587355733E0,-1.347935557E0,9.789890289E0
2.971308420E0,-1.553836942E0,-1.352723956E0,9.768342972E0
2.973321963E0,-1.517923832E0,-1.359906554E0,9.770736694E0
2.975307121E0,-1.498770237E0,-1.350329757E0,9.770736694E0
2.977320972E0,-1.450886250E0,-1.326387763E0,9.787496567E0
2.979335438E0,-1.436521053E0,-1.321599364E0,9.770736694E0
2.981318826E0,-1.412579060E0,-1.323993564E0,9.756371498E0
2.983332754E0,-1.388636947E0,-1.307234168E0,9.737217903E0
2.985315528E0,-1.359906554E0,-1.300051570E0,9.720458984E0
2.987329379E0,-1.352723956E0,-1.297657371E0,9.706093788E0
2.989313306E0,-1.326387763E0,-1.295263171E0,9.672574997E0
2.991327772E0,-1.314416766E0,-1.268926859E0,9.631873131E0
2.993311546E0,-1.302445769E0,-1.254561663E0,9.612719536E0
2.995325011E0,-1.312022567E0,-1.247379065E0,9.581595421E0
2.997310016E0,-1.307234168E0,-1.235408068E0,9.557653427E0
2.999325328E0,-1.295263171E0,-1.223437071E0,9.540893555E0
3.001306256E0,-1.304839969E0,-1.201889277E0,9.514557838E0
3.003321722E0,-1.304839969E0,-1.199495077E0,9.500192642E0
3.005304803E0,-1.304839969E0,-1.211466074E0,9.483432770E0
3.007318346E0,-1.314416766E0,-1.199495077E0,9.483432770E0
3.009332735E0,-1.316810966E0,-1.201889277E0,9.471462250E0
3.011316816E0,-1.347935557E0,-1.213860273E0,9.452308655E0
3.013330590E0,-1.364694953E0,-1.223437071E0,9.464279175E0
3.015315518E0,-1.383848548E0,-1.216254473E0,9.469067574E0
3.017328829E0,-1.441309452E0,-1.213860273E0,9.500192642E0
3.019313373E0,-1.455674648E0,-1.237802267E0,9.524134636E0
3.021326685E0,-1.460463047E0,-1.259350061E0,9.540893555E0
3.023310073E0,-1.462857246E0,-1.280897856E0,9.605537415E0
3.025324155E0,-1.482010841E0,-1.302445769E0,9.651026726E0
3.027307621E0,-1.493981838E0,-1.307234168E0,9.660603523E0
3.029322087E0,-1.527500629E0,-1.323993564E0,9.684545517E0
3.031305707E0,-1.537077546E0,-1.352723956E0,9.710882187E0
3.033319635E0,-1.546654344E0,-1.364694953E0,9.713275909E0
3.035330408E0,-1.546654344E0,-1.350329757E0,9.715670586E0
3.037317489E0,-1.544260144E0,-1.338358760E0,9.722852707E0
3.039333109E0,-1.541865945E0,-1.345541358E0,9.727641106E0
3.041316267E0,-1.539471745E0,-1.343147159E0,9.703699112E0
3.043329734E0,-1.532289028E0,-1.331176162E0,9.706093788E0
3.045312892E0,-1.510741234E0,-1.319205165E0,9.720458984E0
3.047326973E0,-1.489193439E0,-1.328781962E0,9.746794701E0
3.049310977E0,-1.474828243E0,-1.343147159E0,9.763554573E0
3.051325520E0,-1.472434044E0,-1.364694953E0,9.773131371E0
3.053308833E0,-1.448492050E0,-1.364694953E0,9.761159897E0
3.055323067E0,-1.438915253E0,-1.362300754E0,9.744400978E0
3.057306765E0,-1.446097851E0,-1.340752959E0,9.706093788E0
3.059321846E0,-1.441309452E0,-1.326387763E0,9.686940193E0
3.061305774E0,-1.441309452E0,-1.323993564E0,9.686940193E0
3.063318470E0,-1.448492050E0,-1.316810966E0,9.706093788E0
3.065333782E0,-1.448492050E0,-1.314416766E0,9.708487511E0
3.067316556E0,-1.460463047E0,-1.307234168E0,9.708487511E0
3.069330483E0,-1.467645645E0,-1.302445769E0,9.694122314E0
3.071314103E0,-1.472434044E0,-1.292868972E0,9.682151794E0
3.073328569E0,-1.510741234E0,-1.278503656E0,9.653421402E0
3.075311651E0,-1.537077546E0,-1.268926859E0,9.636661530E0
3.077326732E0,-1.553836942E0,-1.268926859E0,9.631873131E0
3.079311967E0,-1.584961534E0,-1.268926859E0,9.607931137E0
3.081324356E0,-1.625662923E0,-1.273715258E0,9.603142738E0
3.083308053E0,-1.642422318E0,-1.278503656E0,9.595960617E0
3.085322134E0,-1.680729628E0,-1.271321058E0,9.583989143E0
3.087305908E0,-1.687912226E0,-1.280897856E0,9.569623947E0
3.089319144E0,-1.702277422E0,-1.285686255E0,9.562441826E0
3.091334455E0,-1.731007814E0,-1.264138460E0,9.538499832E0
3.093317921E0,-1.757344007E0,-1.230619669E0,9.512163162E0
3.095332080E0,-1.759738207E0,-1.225831270E0,9.512163162E0
3.097315391E0,-1.786074519E0,-1.230619669E0,9.514557838E0
3.099330550E0,-1.793257117E0,-1.216254473E0,9.514557838E0
3.101313862E0,-1.826775908E0,-1.204283476E0,9.538499832E0
3.103327405E0,-1.841141105E0,-1.194706678E0,9.564835548E0
3.105311102E0,-1.836352706E0,-1.204283476E0,9.557653427E0
3.107325029E0,-1.831564307E0,-1.192312479E0,9.550470352E0
3.109308957E0,-1.824381709E0,-1.197100878E0,9.581595421E0
3.111322807E0,-1.826775908E0,-1.206677675E0,9.600749016E0
3.113306889E0,-1.833958507E0,-1.233013868E0,9.615114212E0
3.115320047E0,-1.829170108E0,-1.249773264E0,9.627084732E0
3.117335436E0,-1.826775908E0,-1.252167463E0,9.636661530E0
3.119319825E0,-1.810016513E0,-1.252167463E0,9.643844604E0
3.121332444E0,-1.774103403E0,-1.247379065E0,9.631873131E0
3.123316142E0,-1.762132406E0,-1.259350061E0,9.629479408E0
3.125330300E0,-1.738190413E0,-1.271321058E0,9.655815125E0
3.127314843E0,-1.702277422E0,-1.271321058E0,9.701305389E0
3.129328462E0,-1.678335428E0,-1.271321058E0,9.734824181E0
3.131312698E0,-1.654393315E0,-1.314416766E0,9.751583099E0
3.133326933E0,-1.642422318E0,-1.333570361E0,9.751583099E0
3.135309937E0,-1.623268723E0,-1.359906554E0,9.761159897E0
3.137324173E0,-1.584961534E0,-1.362300754E0,9.746794701E0
3.139308407E0,-1.570596337E0,-1.355118155E0,9.742006302E0
3.141321720E0,-1.546654344E0,-1.350329757E0,9.746794701E0
3.143305647E0,-1.491587639E0,-1.343147159E0,9.753977776E0
3.145319498E0,-1.474828243E0,-1.350329757E0,9.768342972E0
3.147334272E0,-1.443703651E0,-1.355118155E0,9.794678688E0
3.149317429E0,-1.410184860E0,-1.359906554E0,9.840168953E0
3.151331281E0,-1.393425345E0,-1.379060149E0,9.854534149E0
3.153315285E0,-1.364694953E0,-1.381454349E0,9.871294022E0
3.155328828E0,-1.350329757E0,-1.386242747E0,9.873687744E0
3.157313063E0,-1.335964561E0,-1.424550056E0,9.821015358E0
3.159325683E0,-1.326387763E0,-1.417367458E0,9.797073364E0
3.161308841E0,-1.316810966E0,-1.407790542E0,9.768342972E0
3.163325076E0,-1.307234168E0,-1.395819545E0,9.732429504E0
3.165308542E0,-1.283292055E0,-1.352723956E0,9.691728592E0
3.167322931E0,-1.276109457E0,-1.338358760E0,9.670180321E0
3.169306936E0,-1.271321058E0,-1.288080573E0,9.651026726E0
3.171320863E0,-1.259350061E0,-1.278503656E0,9.636661530E0
3.173335022E0,-1.266532660E0,-1.278503656E0,9.629479408E0
3.175319257E0,-1.285686255E0,-1.259350061E0,9.605537415E0
3.177333184E0,-1.319205165E0,-1.254561663E0,9.562441826E0
3.179316497E0,-1.326387763E0,-1.252167463E0,9.538499832E0
3.181330731E0,-1.374271750E0,-1.242590666E0,9.500192642E0
3.183314121E0,-1.417367458E0,-1.256955862E0,9.507374763E0
3.185327894E0,-1.436521053E0,-1.261744261E0,9.514557838E0
3.187312592E0,-1.479616642E0,-1.247379065E0,9.521739960E0
3.189325826E0,-1.525106430E0,-1.256955862E0,9.531316757E0
3.191310138E0,-1.551442742E0,-1.261744261E0,9.528923035E0
3.193323912E0,-1.568202138E0,-1.271321058E0,9.526528358E0
3.195307378E0,-1.580173135E0,-1.290474772E0,9.533711433E0
3.197321767E0,-1.594538331E0,-1.290474772E0,9.531316757E0
3.199336541E0,-1.637633920E0,-1.307234168E0,9.538499832E0
3.201319699E0,-1.647210717E0,-1.302445769E0,9.550470352E0
3.203333550E0,-1.651999116E0,-1.278503656E0,9.560047150E0
3.205316938E0,-1.644816518E0,-1.283292055E0,9.548076630E0
3.207331712E0,-1.656787634E0,-1.283292055E0,9.543288231E0
3.209315409E0,-1.671152830E0,-1.278503656E0,9.548076630E0
3.211329491E0,-1.661576033E0,-1.268926859E0,9.557653427E0
3.213312572E0,-1.666364431E0,-1.256955862E0,9.564835548E0
3.215328038E0,-1.666364431E0,-1.261744261E0,9.569623947E0
3.217310734E0,-1.649604917E0,-1.266532660E0,9.567230225E0
3.219326123E0,-1.644816518E0,-1.276109457E0,9.567230225E0
3.221308897E0,-1.630451322E0,-1.292868972E0,9.557653427E0
3.223322517E0,-1.611297727E0,-1.304839969E0,9.605537415E0
3.225306522E0,-1.604115129E0,-1.309628367E0,9.641449928E0
3.227319987E0,-1.618480325E0,-1.328781962E0,9.713275909E0
3.229334531E0,-1.623268723E0,-1.347935557E0,9.739612579E0
3.231318227E0,-1.616086125E0,-1.374271750E0,9.742006302E0
3.233332385E0,-1.644816518E0,-1.374271750E0,9.732429504E0
3.235315698E0,-1.659181833E0,-1.376665950E0,9.727641106E0
3.237330779E0,-1.671152830E0,-1.369483352E0,9.718064308E0
3.239315707E0,-1.702277422E0,-1.355118155E0,9.730035782E0
3.241327788E0,-1.707065821E0,-1.352723956E0,9.727641106E0
3.243312408E0,-1.711854219E0,-1.335964561E0,9.732429504E0
3.245326181E0,-1.733402014E0,-1.326387763E0,9.725247383E0
3.247309339E0,-1.735796213E0,-1.328781962E0,9.715670586E0
3.249323729E0,-1.747767210E0,-1.340752959E0,9.696516991E0
3.251307194E0,-1.781286120E0,-1.335964561E0,9.672574997E0
3.253321584E0,-1.786074519E0,-1.328781962E0,9.665391922E0
3.255336357E0,-1.805228114E0,-1.300051570E0,9.643844604E0
3.257319208E0,-1.819593310E0,-1.266532660E0,9.622296333E0
3.259334597E0,-1.831564307E0,-1.259350061E0,9.617507935E0
3.261317601E0,-1.845929503E0,-1.266532660E0,9.605537415E0
3.263331452E0,-1.853112102E0,-1.261744261E0,9.607931137E0
3.265315148E0,-1.836352706E0,-1.259350061E0,9.615114212E0
3.267329615E0,-1.862688899E0,-1.237802267E0,9.605537415E0
3.269312080E0,-1.881842494E0,-1.235408068E0,9.600749016E0
3.271327239E0,-1.874659896E0,-1.233013868E0,9.586383820E0
3.273311243E0,-1.884236693E0,-1.228225470E0,9.562441826E0
3.275321632E0,-1.896207690E0,-1.225831270E0,9.557653427E0
3.277337714E0,-1.915361404E0,-1.233013868E0,9.564835548E0
3.279323487E0,-1.924938202E0,-1.235408068E0,9.562441826E0
3.281306877E0,-1.944091797E0,-1.230619669E0,9.562441826E0
3.283320804E0,-1.948880196E0,-1.221042871E0,9.574412346E0
3.285334270E0,-1.963245392E0,-1.233013868E0,9.576807022E0
3.287318274E0,-1.965639591E0,-1.247379065E0,9.583989143E0
3.289332509E0,-1.989581585E0,-1.266532660E0,9.586383820E0
3.291316514E0,-1.977610588E0,-1.266532660E0,9.607931137E0
3.293330287E0,-1.989581585E0,-1.259350061E0,9.610325813E0
3.295314985E0,-1.994369984E0,-1.280897856E0,9.598354340E0
3.297328450E0,-1.984793186E0,-1.264138460E0,9.595960617E0
3.299312532E0,-1.965639591E0,-1.247379065E0,9.591172218E0
3.301325998E0,-1.956062794E0,-1.221042871E0,9.579200745E0
3.303310002E0,-1.939303398E0,-1.206677675E0,9.576807022E0
3.305323237E0,-1.900996208E0,-1.218648672E0,9.574412346E0
3.307308472E0,-1.850717902E0,-1.242590666E0,9.572018623E0
3.309321708E0,-1.831564307E0,-1.254561663E0,9.569623947E0
3.311335866E0,-1.795651317E0,-1.244984865E0,9.569623947E0
3.313319332E0,-1.754949808E0,-1.244984865E0,9.567230225E0
3.315333413E0,-1.738190413E0,-1.252167463E0,9.560047150E0
3.317319033E0,-1.704671621E0,-1.254561663E0,9.572018623E0
3.319333115E0,-1.663970232E0,-1.228225470E0,9.579200745E0
3.321314349E0,-1.640028119E0,-1.237802267E0,9.576807022E0
3.323328893E0,-1.599326730E0,-1.223437071E0,9.576807022E0
3.325313435E0,-1.580173135E0,-1.209071875E0,9.586383820E0
3.327326748E0,-1.563413739E0,-1.204283476E0,9.605537415E0
3.329311060E0,-1.529894829E0,-1.218648672E0,9.612719536E0
3.331324910E0,-1.520318031E0,-1.225831270E0,9.612719536E0
3.333308530E0,-1.505952835E0,-1.237802267E0,9.600749016E0
3.335323303E0,-1.496376038E0,-1.237802267E0,9.588777542E0
3.337306462E0,-1.479616642E0,-1.240196466E0,9.586383820E0
3.339320851E0,-1.477222443E0,-1.228225470E0,9.588777542E0
3.341335702E0,-1.489193439E0,-1.223437071E0,9.595960617E0
3.343318475E0,-1.489193439E0,-1.228225470E0,9.595960617E0
3.345332556E0,-1.515529633E0,-1.237802267E0,9.619902611E0
3.347316561E0,-1.563413739E0,-1.271321058E0,9.639056206E0
3.349330104E0,-1.582567334E0,-1.276109457E0,9.643844604E0
3.351313801E0,-1.611297727E0,-1.280897856E0,9.634267807E0
3.353328036E0,-1.642422318E0,-1.280897856E0,9.629479408E0
3.355311118E0,-1.661576033E0,-1.278503656E0,9.627084732E0
3.357325814E0,-1.707065821E0,-1.278503656E0,9.615114212E0
3.359311049E0,-1.719036818E0,-1.264138460E0,9.622296333E0
3.361323746E0,-1.750161409E0,-1.259350061E0,9.610325813E0
3.363308058E0,-1.776497602E0,-1.278503656E0,9.624691010E0
3.365321524E0,-1.783680320E0,-1.273715258E0,9.629479408E0
3.367335451E0,-1.833958507E0,-1.276109457E0,9.629479408E0
3.369319380E0,-1.857900500E0,-1.283292055E0,9.610325813E0
3.371333614E0,-1.879448295E0,-1.273715258E0,9.612719536E0
3.373316926E0,-1.900996208E0,-1.264138460E0,9.612719536E0
3.375332623E0,-1.939303398E0,-1.256955862E0,9.615114212E0
3.377315089E0,-1.953668594E0,-1.252167463E0,9.619902611E0
3.379329325E0,-1.982398987E0,-1.242590666E0,9.629479408E0
3.381312713E0,-1.991975784E0,-1.249773264E0,9.636661530E0
3.383326795E0,-1.996764183E0,-1.252167463E0,9.646238327E0
3.385310799E0,-2.006340981E0,-1.278503656E0,9.658209801E0
3.387324111E0,-2.018311977E0,-1.283292055E0,9.677363396E0
3.389308654E0,-2.018311977E0,-1.278503656E0,9.667786598E0
3.391321966E0,-2.025494576E0,-1.280897856E0,9.648633003E0
3.393336356E0,-2.025494576E0,-1.273715258E0,9.651026726E0
3.395319514E0,-2.025494576E0,-1.271321058E0,9.674968719E0
3.397333672E0,-2.032677174E0,-1.300051570E0,9.677363396E0
3.399316984E0,-2.025494576E0,-1.309628367E0,9.672574997E0
3.401333911E0,-2.025494576E0,-1.309628367E0,9.672574997E0
3.403316147E0,-2.027888775E0,-1.312022567E0,9.674968719E0
3.405330536E0,-2.018311977E0,-1.300051570E0,9.665391922E0
3.407313387E0,-1.975216389E0,-1.290474772E0,9.651026726E0
3.409327852E0,-1.946485996E0,-1.288080573E0,9.653421402E0
3.411311242E0,-1.929726601E0,-1.292868972E0,9.653421402E0
3.413325631E0,-1.891419291E0,-1.271321058E0,9.629479408E0
3.415309096E0,-1.843535304E0,-1.276109457E0,9.610325813E0
3.417323178E0,-1.821987510E0,-1.271321058E0,9.600749016E0
3.419307567E0,-1.776497602E0,-1.266532660E0,9.598354340E0
3.421322033E0,-1.704671621E0,-1.252167463E0,9.588777542E0
3.423335883E0,-1.668758631E0,-1.247379065E0,9.588777542E0
3.425319196E0,-1.618480325E0,-1.276109457E0,9.600749016E0
3.427332738E0,-1.589749932E0,-1.273715258E0,9.612719536E0
3.429316742E0,-1.522712231E0,-1.278503656E0,9.627084732E0
3.431330901E0,-1.482010841E0,-1.273715258E0,9.627084732E0
3.433314367E0,-1.474828243E0,-1.285686255E0,9.634267807E0
3.435328526E0,-1.443703651E0,-1.288080573E0,9.646238327E0
3.437312837E0,-1.429338455E0,-1.292868972E0,9.665391922E0
3.439328458E0,-1.419761658E0,-1.300051570E0,9.667786598E0
3.441310693E0,-1.398213744E0,-1.314416766E0,9.665391922E0
3.443324543E0,-1.393425345E0,-1.319205165E0,9.670180321E0
3.445308163E0,-1.391031146E0,-1.316810966E0,9.670180321E0
3.447322629E0,-1.388636947E0,-1.321599364E0,9.653421402E0
3.449306403E0,-1.388636947E0,-1.300051570E0,9.643844604E0
3.451320484E0,-1.400607944E0,-1.297657371E0,9.641449928E0
3.453334104E0,-1.434126854E0,-1.300051570E0,9.643844604E0
3.455318416E0,-1.443703651E0,-1.278503656E0,9.631873131E0
3.457333112E0,-1.458068848E0,-1.276109457E0,9.634267807E0
3.459316271E0,-1.496376038E0,-1.288080573E0,9.634267807E0
3.461330967E0,-1.520318031E0,-1.300051570E0,9.639056206E0
3.463313819E0,-1.556231141E0,-1.288080573E0,9.648633003E0
3.465328284E0,-1.594538331E0,-1.283292055E0,9.636661530E0
3.467311674E0,-1.616086125E0,-1.288080573E0,9.627084732E0
3.469325755E0,-1.659181833E0,-1.276109457E0,9.627084732E0
3.471308912E0,-1.685518026E0,-1.249773264E0,9.612719536E0
3.473323302E0,-1.687912226E0,-1.252167463E0,9.612719536E0
3.475306768E0,-1.707065821E0,-1.268926859E0,9.607931137E0
3.477322080E0,-1.740584612E0,-1.247379065E0,9.593565941E0
3.479336854E0,-1.759738207E0,-1.233013868E0,9.583989143E0
3.481318089E0,-1.762132406E0,-1.223437071E0,9.572018623E0
3.483333170E0,-1.750161409E0,-1.211466074E0,9.548076630E0
3.485316559E0,-1.754949808E0,-1.218648672E0,9.540893555E0
3.487331025E0,-1.747767210E0,-1.218648672E0,9.536105156E0
3.489314491E0,-1.740584612E0,-1.225831270E0,9.531316757E0
3.491328265E0,-1.750161409E0,-1.225831270E0,9.533711433E0
3.493312577E0,-1.766920805E0,-1.213860273E0,9.543288231E0
3.495327736E0,-1.764526606E0,-1.216254473E0,9.552865028E0
3.497310509E0,-1.764526606E0,-1.233013868E0,9.552865028E0
3.499324975E0,-1.783680320E0,-1.221042871E0,9.564835548E0
3.501308903E0,-1.786074519E0,-1.223437071E0,9.574412346E0
3.503322753E0,-1.807622313E0,-1.230619669E0,9.591172218E0
3.505306142E0,-1.831564307E0,-1.221042871E0,9.605537415E0
3.507319993E0,-1.853112102E0,-1.223437071E0,9.605537415E0
3.509334228E0,-1.855506301E0,-1.237802267E0,9.615114212E0
3.511318232E0,-1.881842494E0,-1.249773264E0,9.612719536E0
3.513331775E0,-1.889025092E0,-1.242590666E0,9.615114212E0
3.515314780E0,-1.924938202E0,-1.233013868E0,9.612719536E0
3.517329553E0,-1.929726601E0,-1.213860273E0,9.605537415E0
3.519314481E0,-1.934514999E0,-1.201889277E0,9.612719536E0
3.521328639E0,-1.941697598E0,-1.213860273E0,9.607931137E0
3.523311182E0,-1.951274395E0,-1.221042871E0,9.598354340E0
3.525324956E0,-1.958456993E0,-1.216254473E0,9.595960617E0
3.527308652E0,-1.958456993E0,-1.211466074E0,9.600749016E0
3.529323503E0,-1.963245392E0,-1.218648672E0,9.615114212E0
3.531306507E0,-1.968033791E0,-1.242590666E0,9.631873131E0
3.533321358E0,-1.960851192E0,-1.252167463E0,9.646238327E0
3.535336670E0,-1.958456993E0,-1.259350061E0,9.648633003E0
3.537319521E0,-1.960851192E0,-1.261744261E0,9.665391922E0
3.539333910E0,-1.972822189E0,-1.264138460E0,9.698910713E0
3.541317068E0,-1.968033791E0,-1.266532660E0,9.706093788E0
3.543331534E0,-1.951274395E0,-1.271321058E0,9.682151794E0
3.545314307E0,-1.948880196E0,-1.276109457E0,9.670180321E0
3.547328466E0,-1.951274395E0,-1.280897856E0,9.665391922E0
3.549311855E0,-1.929726601E0,-1.280897856E0,9.660603523E0
3.551326860E0,-1.910573006E0,-1.256955862E0,9.651026726E0
3.553310249E0,-1.898601890E0,-1.264138460E0,9.653421402E0
3.555324176E0,-1.881842494E0,-1.259350061E0,9.646238327E0
3.557308796E0,-1.881842494E0,-1.242590666E0,9.641449928E0
3.559323569E0,-1.874659896E0,-1.261744261E0,9.631873131E0
3.561304728E0,-1.857900500E0,-1.256955862E0,9.603142738E0
3.563319809E0,-1.848323703E0,-1.252167463E0,9.593565941E0
3.565334045E0,-1.817199111E0,-1.254561663E0,9.586383820E0
3.567318280E0,-1.812410712E0,-1.247379065E0,9.591172218E0
3.569331899E0,-1.821987510E0,-1.240196466E0,9.591172218E0
3.571315289E0,-1.807622313E0,-1.261744261E0,9.586383820E0
3.573330293E0,-1.795651317E0,-1.264138460E0,9.591172218E0
3.575313451E0,-1.800439715E0,-1.268926859E0,9.595960617E0
3.577327532E0,-1.802833915E0,-1.261744261E0,9.607931137E0
3.579311845E0,-1.819593310E0,-1.268926859E0,9.627084732E0
3.581326003E0,-1.824381709E0,-1.252167463E0,9.622296333E0
3.583309392E0,-1.807622313E0,-1.266532660E0,9.615114212E0
3.585322935E0,-1.800439715E0,-1.259350061E0,9.615114212E0
3.587306324E0,-1.802833915E0,-1.261744261E0,9.607931137E0
3.589321406E0,-1.807622313E0,-1.254561663E0,9.612719536E0
3.591334948E0,-1.805228114E0,-1.256955862E0,9.603142738E0
3.593319030E0,-1.793257117E0,-1.233013868E0,9.607931137E0
3.595331957E0,-1.781286120E0,-1.221042871E0,9.619902611E0
3.597316807E0,-1.774103403E0,-1.218648672E0,9.634267807E0
3.599331889E0,-1.776497602E0,-1.244984865E0,9.643844604E0
3.601314739E0,-1.778891921E0,-1.230619669E0,9.653421402E0
3.603329513E0,-1.762132406E0,-1.230619669E0,9.655815125E0
3.605312210E0,-1.769315004E0,-1.252167463E0,9.662998199E0
3.607326676E0,-1.759738207E0,-1.247379065E0,9.655815125E0
3.609309527E0,-1.759738207E0,-1.237802267E0,9.660603523E0
3.611324300E0,-1.759738207E0,-1.244984865E0,9.677363396E0
3.613307382E0,-1.764526606E0,-1.249773264E0,9.679757118E0
3.615322463E0,-1.778891921E0,-1.244984865E0,9.682151794E0
3.617336545E0,-1.778891921E0,-1.247379065E0,9.677363396E0
3.619321241E0,-1.776497602E0,-1.237802267E0,9.665391922E0
3.621334400E0,-1.778891921E0,-1.240196466E0,9.653421402E0
3.623317865E0,-1.759738207E0,-1.244984865E0,9.651026726E0
3.625332331E0,-1.752555609E0,-1.240196466E0,9.646238327E0
3.627315643E0,-1.757344007E0,-1.216254473E0,9.639056206E0
3.629329494E0,-1.745373011E0,-1.223437071E0,9.643844604E0
3.631313191E0,-1.742978811E0,-1.213860273E0,9.643844604E0
3.633326810E0,-1.738190413E0,-1.211466074E0,9.627084732E0
3.635311046E0,-1.750161409E0,-1.228225470E0,9.607931137E0
3.637324666E0,-1.735796213E0,-1.206677675E0,9.603142738E0
3.639307362E0,-1.747767210E0,-1.206677675E0,9.605537415E0
3.641324598E0,-1.766920805E0,-1.199495077E0,9.600749016E0
3.643307063E0,-1.769315004E0,-1.192312479E0,9.598354340E0
3.645320684E0,-1.769315004E0,-1.201889277E0,9.603142738E0
3.647335072E0,-1.783680320E0,-1.206677675E0,9.574412346E0
3.649318539E0,-1.793257117E0,-1.201889277E0,9.560047150E0
3.651332389E0,-1.800439715E0,-1.185129881E0,9.526528358E0
3.653316931E0,-1.807622313E0,-1.177947283E0,9.512163162E0
3.655331167E0,-1.814804912E0,-1.175553083E0,9.495404243E0
3.657313940E0,-1.817199111E0,-1.161187768E0,9.481039047E0
3.659329253E0,-1.824381709E0,-1.146822572E0,9.471462250E0
3.661312719E0,-1.826775908E0,-1.134851575E0,9.469067574E0
3.663326493E0,-1.838746905E0,-1.149216771E0,9.473855972E0
3.665309651E0,-1.843535304E0,-1.149216771E0,9.483432770E0
3.667324039E0,-1.836352706E0,-1.130063176E0,9.483432770E0
3.669308121E0,-1.874659896E0,-1.142034173E0,9.478644371E0
3.671321894E0,-1.881842494E0,-1.142034173E0,9.481039047E0
3.673335746E0,-1.900996208E0,-1.146822572E0,9.512163162E0
3.675318903E0,-1.903390408E0,-1.144428372E0,9.533711433E0
3.677333601E0,-1.903390408E0,-1.146822572E0,9.548076630E0
3.679318528E0,-1.910573006E0,-1.151610970E0,9.562441826E0
3.681331532E0,-1.917755604E0,-1.170764685E0,9.550470352E0
3.683314921E0,-1.915361404E0,-1.170764685E0,9.552865028E0
3.685329618E0,-1.908178806E0,-1.154005170E0,9.555258751E0
3.687313392E0,-1.912967205E0,-1.149216771E0,9.550470352E0
3.689327473E0,-1.903390408E0,-1.139639974E0,9.569623947E0
3.691310939E0,-1.886630893E0,-1.134851575E0,9.581595421E0
3.693325405E0,-1.881842494E0,-1.151610970E0,9.583989143E0
3.695309409E0,-1.879448295E0,-1.142034173E0,9.574412346E0
3.697322260E0,-1.874659896E0,-1.139639974E0,9.576807022E0
3.699337649E0,-1.872265697E0,-1.139639974E0,9.572018623E0
3.701321346E0,-1.850717902E0,-1.139639974E0,9.574412346E0
3.703335504E0,-1.836352706E0,-1.134851575E0,9.583989143E0
3.705318586E0,-1.826775908E0,-1.130063176E0,9.588777542E0
3.707332821E0,-1.810016513E0,-1.139639974E0,9.583989143E0
3.709316440E0,-1.798045516E0,-1.165976286E0,9.593565941E0
3.711330368E0,-1.793257117E0,-1.177947283E0,9.593565941E0
3.713314911E0,-1.774103403E0,-1.165976286E0,9.586383820E0
3.715327608E0,-1.735796213E0,-1.161187768E0,9.583989143E0
3.717312766E0,-1.728613615E0,-1.165976286E0,9.593565941E0
3.719327617E0,-1.721431017E0,-1.161187768E0,9.605537415E0
3.721309082E0,-1.719036818E0,-1.170764685E0,9.605537415E0
3.723324163E0,-1.711854219E0,-1.189918280E0,9.600749016E0
3.725307938E0,-1.697489023E0,-1.192312479E0,9.600749016E0
3.727322019E0,-1.685518026E0,-1.194706678E0,9.605537415E0
3.729336177E0,-1.666364431E0,-1.204283476E0,9.634267807E0
3.731319874E0,-1.680729628E0,-1.211466074E0,9.622296333E0
3.733334033E0,-1.685518026E0,-1.209071875E0,9.622296333E0
3.735317729E0,-1.678335428E0,-1.197100878E0,9.617507935E0
3.737330964E0,-1.683123827E0,-1.192312479E0,9.605537415E0
3.739315969E0,-1.683123827E0,-1.194706678E0,9.605537415E0
3.741329434E0,-1.690306425E0,-1.204283476E0,9.617507935E0
3.743313132E0,-1.699883223E0,-1.187524080E0,9.617507935E0
3.745327597E0,-1.692700624E0,-1.182735682E0,9.612719536E0
3.747311294E0,-1.707065821E0,-1.192312479E0,9.619902611E0
3.749324606E0,-1.709460020E0,-1.194706678E0,9.634267807E0
3.751308533E0,-1.704671621E0,-1.197100878E0,9.639056206E0
3.753322384E0,-1.723825216E0,-1.197100878E0,9.641449928E0
3.755333542E0,-1.723825216E0,-1.204283476E0,9.639056206E0
3.757319932E0,-1.723825216E0,-1.221042871E0,9.631873131E0
3.759336243E0,-1.740584612E0,-1.242590666E0,9.629479408E0
3.761319095E0,-1.740584612E0,-1.235408068E0,9.615114212E0
3.763332945E0,-1.754949808E0,-1.213860273E0,9.605537415E0
3.765316872E0,-1.759738207E0,-1.206677675E0,9.593565941E0
3.767330723E0,-1.774103403E0,-1.197100878E0,9.593565941E0
3.769314419E0,-1.778891921E0,-1.192312479E0,9.605537415E0
3.771328347E0,-1.795651317E0,-1.194706678E0,9.615114212E0
3.773311736E0,-1.793257117E0,-1.194706678E0,9.624691010E0
3.775327664E0,-1.795651317E0,-1.204283476E0,9.631873131E0
3.777309591E0,-1.812410712E0,-1.213860273E0,9.636661530E0
3.779325211E0,-1.817199111E0,-1.218648672E0,9.634267807E0
3.781308293E0,-1.838746905E0,-1.225831270E0,9.643844604E0
3.783321527E0,-1.855506301E0,-1.218648672E0,9.658209801E0
3.785335455E0,-1.872265697E0,-1.218648672E0,9.655815125E0
3.787319690E0,-1.862688899E0,-1.233013868E0,9.653421402E0
3.789333541E0,-1.867477298E0,-1.221042871E0,9.655815125E0
3.791317007E0,-1.881842494E0,-1.218648672E0,9.648633003E0
3.793331165E0,-1.874659896E0,-1.213860273E0,9.651026726E0
3.795314554E0,-1.872265697E0,-1.211466074E0,9.646238327E0
3.797330481E0,-1.855506301E0,-1.223437071E0,9.636661530E0
3.799314486E0,-1.860294700E0,-1.221042871E0,9.648633003E0
3.801326260E0,-1.862688899E0,-1.225831270E0,9.643844604E0
3.803310572E0,-1.869871497E0,-1.235408068E0,9.627084732E0
3.805324423E0,-1.889025092E0,-1.237802267E0,9.617507935E0
3.807308350E0,-1.884236693E0,-1.247379065E0,9.617507935E0
3.809322278E0,-1.874659896E0,-1.237802267E0,9.627084732E0
3.811336974E0,-1.893813491E0,-1.247379065E0,9.619902611E0
3.813320056E0,-1.903390408E0,-1.247379065E0,9.617507935E0
3.815335752E0,-1.896207690E0,-1.247379065E0,9.622296333E0
3.817318296E0,-1.886630893E0,-1.252167463E0,9.617507935E0
3.819332454E0,-1.900996208E0,-1.247379065E0,9.617507935E0
3.821316381E0,-1.898601890E0,-1.218648672E0,9.629479408E0
3.823330539E0,-1.893813491E0,-1.216254473E0,9.619902611E0
3.825313005E0,-1.889025092E0,-1.206677675E0,9.639056206E0
3.827327856E0,-1.896207690E0,-1.218648672E0,9.658209801E0
3.829311168E0,-1.898601890E0,-1.228225470E0,9.655815125E0
3.831326250E0,-1.900996208E0,-1.228225470E0,9.646238327E0
3.833309946E0,-1.889025092E0,-1.213860273E0,9.631873131E0
3.835320489E0,-1.889025092E0,-1.206677675E0,9.622296333E0
3.837337109E0,-1.903390408E0,-1.199495077E0,9.622296333E0
3.839321959E0,-1.896207690E0,-1.187524080E0,9.610325813E0
3.841336426E0,-1.881842494E0,-1.177947283E0,9.600749016E0
3.843319199E0,-1.886630893E0,-1.187524080E0,9.591172218E0
3.845333127E0,-1.884236693E0,-1.189918280E0,9.581595421E0
3.847317362E0,-1.881842494E0,-1.180341482E0,9.574412346E0
3.849331212E0,-1.860294700E0,-1.156399369E0,9.562441826E0
3.851314678E0,-1.850717902E0,-1.161187768E0,9.569623947E0
3.853329144E0,-1.853112102E0,-1.158793569E0,9.564835548E0
3.855313380E0,-1.838746905E0,-1.158793569E0,9.555258751E0
3.857326922E0,-1.836352706E0,-1.139639974E0,9.548076630E0
3.859311004E0,-1.833958507E0,-1.137245774E0,9.545681953E0
3.861325162E0,-1.824381709E0,-1.118092179E0,9.560047150E0
3.863308474E0,-1.819593310E0,-1.110909581E0,9.564835548E0
3.865323633E0,-1.802833915E0,-1.118092179E0,9.572018623E0
3.867307252E0,-1.781286120E0,-1.118092179E0,9.581595421E0
3.869320180E0,-1.776497602E0,-1.130063176E0,9.591172218E0
3.871334723E0,-1.762132406E0,-1.146822572E0,9.600749016E0
3.873318112E0,-1.754949808E0,-1.149216771E0,9.595960617E0
3.875331885E0,-1.747767210E0,-1.168370485E0,9.600749016E0
3.877315659E0,-1.714248419E0,-1.161187768E0,9.600749016E0
3.879328587E0,-1.709460020E0,-1.168370485E0,9.598354340E0
3.881311283E0,-1.704671621E0,-1.163581967E0,9.588777542E0
3.883328826E0,-1.709460020E0,-1.154005170E0,9.581595421E0
3.885311984E0,-1.707065821E0,-1.154005170E0,9.579200745E0
3.887325835E0,-1.699883223E0,-1.151610970E0,9.579200745E0
3.889309224E0,-1.685518026E0,-1.106121182E0,9.540893555E0
3.891323690E0,-1.678335428E0,-1.101332784E0,9.533711433E0
3.893307387E0,-1.654393315E0,-1.120486379E0,9.526528358E0
3.895322391E0,-1.635239720E0,-1.118092179E0,9.507374763E0
3.897335011E0,-1.644816518E0,-1.122880578E0,9.509769440E0
3.899319938E0,-1.640028119E0,-1.149216771E0,9.502586365E0
3.901333482E0,-1.623268723E0,-1.185129881E0,9.531316757E0
3.903317178E0,-1.618480325E0,-1.185129881E0,9.536105156E0
3.905331105E0,-1.606509328E0,-1.206677675E0,9.531316757E0
3.907314495E0,-1.601720929E0,-1.209071875E0,9.533711433E0
3.909328960E0,-1.599326730E0,-1.211466074E0,9.533711433E0
3.911312658E0,-1.580173135E0,-1.206677675E0,9.519346237E0
3.913327046E0,-1.577778935E0,-1.187524080E0,9.519346237E0
3.915309590E0,-1.596932530E0,-1.180341482E0,9.526528358E0
3.917324594E0,-1.599326730E0,-1.156399369E0,9.569623947E0
3.919310136E0,-1.592144132E0,-1.154005170E0,9.579200745E0
3.921322218E0,-1.584961534E0,-1.161187768E0,9.619902611E0
3.923336915E0,-1.594538331E0,-1.199495077E0,9.634267807E0
3.925319996E0,-1.604115129E0,-1.223437071E0,9.622296333E0
3.927334231E0,-1.592144132E0,-1.280897856E0,9.607931137E0
3.929318236E0,-1.592144132E0,-1.290474772E0,9.631873131E0
3.931331471E0,-1.608903527E0,-1.290474772E0,9.639056206E0
3.933316014E0,-1.632845521E0,-1.302445769E0,9.639056206E0
3.935330249E0,-1.668758631E0,-1.290474772E0,9.639056206E0
3.937313946E0,-1.675941229E0,-1.288080573E0,9.627084732E0
3.939328412E0,-1.702277422E0,-1.273715258E0,9.615114212E0
3.941311493E0,-1.757344007E0,-1.237802267E0,9.586383820E0
3.943326498E0,-1.771709204E0,-1.221042871E0,9.572018623E0
3.945309887E0,-1.805228114E0,-1.182735682E0,9.550470352E0
3.947323814E0,-1.836352706E0,-1.154005170E0,9.548076630E0
3.949306896E0,-1.853112102E0,-1.156399369E0,9.516951561E0
3.951321054E0,-1.853112102E0,-1.132457376E0,9.464279175E0
3.953335212E0,-1.857900500E0,-1.120486379E0,9.435548782E0
3.955318601E0,-1.891419291E0,-1.072602391E0,9.397241592E0
3.957333914E0,-1.900996208E0,-1.036689281E0,9.361329079E0
3.959317918E0,-1.900996208E0,-1.031900883E0,9.363722801E0
3.961330614E0,-1.898601890E0,-1.015141487E0,9.375694275E0
3.963314619E0,-1.896207690E0,-1.027112484E0,9.380482674E0
3.965328777E0,-1.891419291E0,-1.031900883E0,9.390059471E0
3.967312090E0,-1.881842494E0,-1.060631394E0,9.382876396E0
3.969325940E0,-1.886630893E0,-1.106121182E0,9.378087997E0
3.971310637E0,-1.886630893E0,-1.132457376E0,9.375694275E0
3.973324180E0,-1.877054095E0,-1.180341482E0,9.363722801E0
3.975309337E0,-1.881842494E0,-1.213860273E0,9.404424667E0
3.977322265E0,-1.896207690E0,-1.240196466E0,9.433155060E0
3.979337346E0,-1.893813491E0,-1.314416766E0,9.464279175E0
3.981319890E0,-1.881842494E0,-1.350329757E0,9.485827446E0
3.983334048E0,-1.900996208E0,-1.403002143E0,9.507374763E0
3.985317745E0,-1.927332401E0,-1.458068848E0,9.497797966E0
3.987331595E0,-1.944091797E0,-1.477222443E0,9.471462250E0
3.989316215E0,-1.965639591E0,-1.513135433E0,9.469067574E0
3.991330373E0,-2.013523579E0,-1.541865945E0,9.495404243E0
3.993314377E0,-2.051830769E0,-1.551442742E0,9.531316757E0
3.995326921E0,-2.104503393E0,-1.551442742E0,9.605537415E0
3.997311848E0,-2.164358377E0,-1.549048543E0,9.622296333E0
3.999326084E0,-2.205059767E0,-1.544260144E0,9.619902611E0
4.001310011E0,-2.257732153E0,-1.592144132E0,9.636661530E0
4.003323630E0,-2.300827742E0,-1.592144132E0,9.641449928E0
4.005306712E0,-2.315192938E0,-1.589749932E0,9.658209801E0
4.007321716E0,-2.339135170E0,-1.568202138E0,9.713275909E0
4.009335337E0,-2.367865562E0,-1.561019540E0,9.737217903E0
4.011318648E0,-2.363077164E0,-1.556231141E0,9.742006302E0
4.013333422E0,-2.367865562E0,-1.541865945E0,9.749189377E0
4.015318042E0,-2.355894566E0,-1.537077546E0,9.749189377E0
4.017330738E0,-2.310404539E0,-1.515529633E0,9.763554573E0
4.019315897E0,-2.279279947E0,-1.515529633E0,9.792284966E0
4.021329439E0,-2.248155355E0,-1.520318031E0,9.792284966E0
4.023311675E0,-2.171540976E0,-1.520318031E0,9.792284966E0
4.025326756E0,-2.121262789E0,-1.522712231E0,9.797073364E0
4.027309838E0,-2.109291792E0,-1.525106430E0,9.792284966E0
4.029324534E0,-2.078166962E0,-1.517923832E0,9.756371498E0
4.031308308E0,-2.018311977E0,-1.510741234E0,9.739612579E0
4.033322159E0,-1.999158382E0,-1.513135433E0,9.727641106E0
4.035336009E0,-1.970427990E0,-1.491587639E0,9.701305389E0
4.037320860E0,-1.936909199E0,-1.462857246E0,9.648633003E0
4.039336249E0,-1.924938202E0,-1.443703651E0,9.631873131E0
4.041317177E0,-1.891419291E0,-1.419761658E0,9.586383820E0
4.043332027E0,-1.872265697E0,-1.386242747E0,9.555258751E0
4.045315954E0,-1.865083098E0,-1.393425345E0,9.524134636E0
4.047330190E0,-1.853112102E0,-1.398213744E0,9.483432770E0
4.049313886E0,-1.841141105E0,-1.405396342E0,9.473855972E0
4.051327660E0,-1.829170108E0,-1.410184860E0,9.473855972E0
4.053311664E0,-1.814804912E0,-1.412579060E0,9.488221169E0
4.055325823E0,-1.821987510E0,-1.417367458E0,9.504981041E0
4.057308981E0,-1.831564307E0,-1.443703651E0,9.531316757E0
4.059323677E0,-1.848323703E0,-1.453280449E0,9.528923035E0
4.061338144E0,-1.862688899E0,-1.450886250E0,9.519346237E0
4.063321533E0,-1.903390408E0,-1.465251446E0,9.495404243E0
4.065334845E0,-1.924938202E0,-1.491587639E0,9.490615845E0
4.067319388E0,-1.939303398E0,-1.498770237E0,9.493009567E0
4.069333239E0,-1.994369984E0,-1.515529633E0,9.509769440E0
4.071316397E0,-2.037465572E0,-1.517923832E0,9.497797966E0
4.073330785E0,-2.061407566E0,-1.510741234E0,9.495404243E0
4.075313637E0,-2.118868589E0,-1.513135433E0,9.514557838E0
4.077328333E0,-2.133233786E0,-1.515529633E0,9.512163162E0
4.079313876E0,-2.176329374E0,-1.510741234E0,9.507374763E0
4.081326496E0,-2.212242365E0,-1.496376038E0,9.481039047E0
4.083309962E0,-2.233790159E0,-1.486799240E0,9.461885452E0
4.085324735E0,-2.279279947E0,-1.443703651E0,9.469067574E0
