"Time (s)","Linear Acceleration x (m/s^2)","Linear Acceleration y (m/s^2)","Linear Acceleration z (m/s^2)"
1.530925200E-2,-6.289064884E-3,-4.872441292E-3,7.084274292E-2
2.330342300E-2,-1.041296721E-1,1.405650377E-2,4.564094543E-2
3.129936400E-2,-8.094877005E-2,3.690439463E-2,4.386425018E-2
3.731107000E-2,1.036840677E-2,9.433150291E-3,3.374958038E-2
3.932407500E-2,1.036840677E-2,9.433150291E-3,3.374958038E-2
4.732093900E-2,6.098324060E-2,3.702795506E-2,7.391834259E-2
5.531764800E-2,6.888759136E-2,7.409214973E-3,1.751136780E-2
6.331212800E-2,1.075044870E-1,6.276428699E-3,5.014419556E-3
7.130814600E-2,5.516767502E-2,2.743661404E-3,-1.944541931E-2
7.930447000E-2,-5.483388901E-3,-2.058321238E-2,4.298591614E-2
8.729895000E-2,-5.771309137E-2,-5.137348175E-2,7.917213440E-2
9.532627600E-2,-1.283888817E-1,-1.884168386E-2,8.097362518E-2
1.033208320E-1,-1.321949959E-1,-7.021367550E-3,8.017826080E-2
1.113164640E-1,-1.906246543E-1,1.801341772E-2,8.011531830E-2
1.193137130E-1,-1.787431240E-1,2.189403772E-2,-8.573532104E-3
1.273075770E-1,-1.494085789E-1,3.776729107E-2,-4.384040833E-3
1.353042100E-1,-1.611876488E-1,2.691066265E-2,-4.529380798E-2
1.432989970E-1,-1.582866907E-1,3.173685074E-2,-2.393150330E-2
1.513246300E-1,-1.528908014E-1,2.128082514E-2,4.529953003E-3
1.593221100E-1,-1.334396601E-1,-9.032845497E-3,3.062343597E-2
1.673163580E-1,-1.119937897E-1,6.485342979E-3,1.560878754E-2
1.753123760E-1,-7.056939602E-2,-4.973709583E-3,5.243301392E-2
1.833073940E-1,-4.424023628E-2,-2.590811253E-2,1.143484116E-1
1.913034880E-1,-3.838431835E-2,-2.196592093E-2,1.183004379E-1
1.993010440E-1,-2.150750160E-2,-2.909678221E-2,1.080961227E-1
2.073252930E-1,1.506578922E-2,-4.022610188E-2,8.487224579E-2
2.153213880E-1,1.792144775E-2,-4.579538107E-2,1.079082489E-1
2.233167900E-1,1.858794689E-2,-5.586391687E-2,7.763767242E-2
2.313118080E-1,2.992689610E-2,-4.789942503E-2,3.825664520E-2
2.393090560E-1,4.554891586E-2,-9.091675282E-3,6.106090546E-2
2.473026120E-1,9.468698502E-2,-3.268945217E-2,7.907867432E-2
2.553303220E-1,1.234180331E-1,-1.662808657E-2,3.480720520E-2
2.633248790E-1,1.511032581E-1,1.162600517E-2,-2.720069885E-2
2.713199740E-1,1.606084704E-1,1.190239191E-2,3.937816620E-2
2.793146830E-1,1.303420663E-1,-2.166098356E-2,5.686187744E-2
2.873120090E-1,1.137294769E-1,-1.934605837E-2,8.628177643E-2
2.953088730E-1,1.031295061E-1,-3.374564648E-2,1.597042084E-1
3.033025050E-1,6.382143497E-2,-4.532277584E-3,5.765342712E-2
3.112976000E-1,-2.576017380E-2,6.456369162E-2,-3.890800476E-2
3.193256180E-1,-2.388924360E-2,1.033813953E-1,-1.042356491E-1
3.273200210E-1,-2.871084213E-2,9.065270424E-2,-1.047878265E-1
3.353170380E-1,3.602480888E-2,6.691777706E-2,-1.363801956E-1
3.433117480E-1,1.061396599E-1,5.597656965E-2,-4.574966431E-2
3.513066120E-1,1.697148085E-1,3.347885609E-2,5.694293976E-2
3.593047060E-1,2.435790300E-1,-4.902338982E-2,1.956081390E-1
3.673287240E-1,2.965617180E-1,-1.229602695E-1,3.318691254E-1
3.753250500E-1,3.194676638E-1,-1.481840611E-1,3.077020645E-1
3.833208370E-1,3.241524696E-1,-1.124861836E-1,2.212734222E-1
3.913152390E-1,3.026857376E-1,-1.185784936E-1,1.683034897E-1
3.993131800E-1,1.954865456E-1,-1.018996239E-1,9.613609314E-2
4.073069670E-1,6.114912033E-2,-1.695871353E-2,-2.309799194E-3
4.153032920E-1,-1.902526617E-2,6.043583155E-2,-4.797649384E-2
4.233292330E-1,-8.338624239E-2,1.427953839E-1,-1.078653336E-1
4.313248670E-1,-7.514947653E-2,1.447300315E-1,-4.551029205E-2
4.393218850E-1,-5.051839352E-2,8.536887169E-2,2.645587921E-2
4.473162860E-1,-5.249124765E-2,3.620606661E-2,1.080217361E-1
4.553117660E-1,-3.282916546E-2,1.860648394E-2,1.369543076E-1
4.633064760E-1,-7.338666916E-2,-2.510458231E-2,1.802349091E-1
4.713025700E-1,-9.550750256E-2,-2.603960037E-2,1.180839539E-1
4.793299730E-1,-1.254023314E-1,-2.462106943E-2,4.390716553E-2
4.873252980E-1,-1.469228864E-1,-3.278255463E-2,3.905296326E-2
4.953204700E-1,-1.552358270E-1,-3.841924667E-2,2.213287354E-2
5.033164100E-1,-1.237533689E-1,-6.968379021E-4,-4.034042358E-2
5.113108900E-1,-7.868170738E-2,1.047095060E-1,-1.148090363E-1
5.193054460E-1,2.310568094E-2,1.440347433E-1,-1.174516678E-1
5.273026170E-1,1.073352098E-1,1.054334044E-1,-5.305004120E-2
5.353288660E-1,1.094415784E-1,1.013350487E-2,1.166877747E-1
5.433251150E-1,5.339145660E-2,-4.227578640E-2,2.432575226E-1
5.513202100E-1,-2.901649475E-2,-8.131963015E-2,2.931461334E-1
5.593166110E-1,-2.927750349E-2,-6.639558077E-2,2.281026840E-1
5.673110910E-1,5.520159006E-2,-6.444394588E-2,1.750440598E-1
5.753074170E-1,1.356496811E-1,-8.014214039E-2,9.325981140E-2
5.833021260E-1,1.256156564E-1,-7.738023996E-2,5.456542969E-2
5.913289130E-1,1.210367084E-1,-2.482974529E-2,4.941463470E-2
5.993258540E-1,1.265227795E-1,-2.296096087E-2,7.061576843E-2
6.073206420E-1,1.423066854E-1,-2.146238089E-2,2.960300446E-2
6.153160430E-1,1.565912366E-1,8.510458469E-2,-4.965877533E-2
6.233115230E-1,1.501941681E-1,1.678618193E-1,-8.573913574E-2
6.313072330E-1,9.912818670E-2,1.912880242E-1,-8.819580078E-2
6.393034810E-1,9.676665068E-2,1.652798653E-1,-3.066730499E-2
6.473284220E-1,8.377343416E-2,1.042627096E-1,-2.324008942E-2
6.553251320E-1,6.025248766E-2,8.962577581E-2,-1.802062988E-2
6.633195350E-1,4.038244486E-2,7.576221228E-2,-2.939701080E-2
6.713153210E-1,-8.609056473E-2,3.673171997E-2,-1.425266266E-2
6.793125700E-1,-1.808215976E-1,1.323562860E-2,3.934001923E-2
6.873058190E-1,-2.353576422E-1,-4.067158699E-2,6.660652161E-2
6.953030670E-1,-2.552456856E-1,-5.125528574E-2,8.899497986E-2
7.033280080E-1,-2.357836366E-1,-5.016350746E-2,7.772541046E-2
7.113239490E-1,-1.890239120E-1,-2.539539337E-2,1.603412628E-2
7.193211980E-1,-1.147025228E-1,-5.535244942E-3,2.113342285E-3
7.273156760E-1,1.806515455E-2,-3.111362457E-5,4.073810577E-2
7.353120020E-1,8.763873577E-2,-3.072088957E-2,2.037553787E-1
7.433065580E-1,1.336231232E-1,-2.866816521E-2,1.560621262E-1
7.513018830E-1,2.211794853E-1,1.573562622E-2,1.634626389E-1
7.593262090E-1,1.851580739E-1,-2.216631174E-2,1.589136124E-1
7.673232270E-1,1.142442226E-1,-4.151064157E-2,1.185026169E-1
7.753192450E-1,5.153810978E-2,-2.786397934E-2,9.969902039E-2
7.833146460E-1,-3.938204050E-2,-3.857254982E-2,9.288787842E-2
7.913103570E-1,-9.159237146E-2,-3.543454409E-2,1.904106140E-2
7.993076060E-1,-1.265416741E-1,8.577883244E-3,-4.037666321E-2
8.073016990E-1,-1.207782626E-1,4.805672169E-2,-8.780002594E-2
8.153291020E-1,-7.743722200E-2,1.144337654E-2,-4.187965393E-2
8.233236590E-1,-4.467177391E-2,-3.703278303E-2,8.296394348E-2
8.313192920E-1,-1.236188412E-2,1.486718655E-2,8.564853668E-2
8.393169240E-1,1.090681553E-2,-2.893865108E-3,2.296276093E-1
8.473110960E-1,4.637944698E-2,1.721006632E-2,2.165222168E-2
8.553073450E-1,9.997111559E-2,9.272712469E-2,-4.490566254E-2
8.633022080E-1,1.304000616E-1,9.950548410E-2,-1.520366669E-1
8.713276880E-1,1.589179039E-1,1.001843214E-1,-1.608762741E-1
8.793237830E-1,1.473613381E-1,2.538114786E-2,-2.591896057E-2
8.873194160E-1,1.529377699E-1,-3.950709105E-2,1.258678436E-1
8.953157410E-1,1.305144429E-1,-3.052461147E-2,1.053276062E-1
9.033106050E-1,1.186617017E-1,-4.112124443E-2,2.069721222E-1
9.113060080E-1,5.786323547E-2,-4.433810711E-3,7.052421570E-3
9.193029480E-1,2.992403507E-2,-6.021738052E-3,1.497020721E-1
9.273271970E-1,7.741570473E-3,1.142175198E-1,-2.582149506E-1
9.353245220E-1,7.029771805E-2,2.069423199E-1,-2.541208267E-1
9.433196170E-1,9.396076202E-2,5.675446987E-2,-8.162498474E-3
9.513143260E-1,-7.211804390E-3,-7.078558207E-2,1.998710632E-2
9.593110370E-1,-2.267825603E-2,5.836468935E-2,-9.524154663E-2
9.673061320E-1,6.618380547E-3,1.644239426E-1,-1.718826294E-1
9.753026870E-1,6.209135056E-2,1.760888100E-1,-2.029170990E-1
9.833279360E-1,1.896965504E-2,1.745825410E-1,-9.740829468E-2
9.913234160E-1,4.975116253E-2,4.021573067E-2,8.240985870E-2
9.973045820E-1,1.210880280E-2,-4.130101204E-2,1.498756409E-1
9.993175870E-1,4.926204681E-3,-4.130101204E-2,1.594524384E-1
1.007314528E0,-2.810990810E-2,-6.795507669E-2,2.367925644E-1
1.015310776E0,-9.044516087E-2,-1.119907498E-1,2.042303085E-1
1.023305871E0,-1.666725874E-1,-8.736157417E-2,7.834911346E-2
1.031300965E0,-1.990373135E-1,-6.559658051E-2,-4.314422607E-3
1.039329291E0,-2.666771412E-1,-2.703857422E-2,-5.810165405E-2
1.047323232E0,-3.814904690E-1,-2.612429857E-2,1.249980927E-2
1.055320096E0,-6.151564121E-1,-8.514338732E-2,9.218883514E-2
1.063314652E0,-7.426182032E-1,-5.835026503E-2,8.787441254E-2
1.071310285E0,-7.095898390E-1,-6.512844563E-2,1.195144653E-1
1.079306688E0,-6.458241940E-1,-8.163356781E-2,1.104183197E-1
1.087301089E0,-5.001176596E-1,-6.504970789E-2,4.838085175E-2
1.095327646E0,-3.024492264E-1,-4.611790180E-2,3.379631042E-2
1.103323664E0,-6.882202625E-2,-2.013665438E-2,-6.265640259E-4
1.111319297E0,1.172553301E-1,3.882646561E-3,2.898979187E-2
1.119315083E0,2.552230358E-1,-4.832333326E-2,1.348791122E-1
1.127310486E0,3.236621618E-1,-1.174294353E-1,1.425857544E-1
1.135305273E0,3.628227711E-1,-1.467706561E-1,2.558269501E-1
1.143300983E0,3.313938379E-1,-2.063702345E-1,3.284130096E-1
1.151327078E0,2.626643181E-1,-1.356981993E-1,1.328716278E-1
1.159324403E0,2.598639727E-1,-9.204393625E-2,3.801536560E-2
1.167319421E0,1.740636826E-1,-5.592697859E-2,-3.999423981E-2
1.175315208E0,7.740283012E-2,-4.127061367E-2,-6.515502930E-2
1.183309918E0,1.068651676E-2,-2.649289370E-2,-3.265857697E-2
1.191305321E0,-4.975187778E-2,-4.105865955E-3,-3.341102600E-2
1.199302645E0,-1.592714787E-1,-4.363846779E-2,-3.394317627E-2
1.207327202E0,-2.441754341E-1,-4.714632034E-2,3.987026215E-2
1.215323220E0,-3.278009892E-1,-1.012456417E-2,6.083869934E-2
1.223318007E0,-3.606979847E-1,-6.494104862E-3,6.477260590E-2
1.231314332E0,-3.107591867E-1,-1.731914282E-2,1.331987381E-1
1.237325115E0,-2.433223724E-1,-4.504662752E-2,5.770969391E-2
1.239308273E0,-2.433223724E-1,-4.504662752E-2,5.770969391E-2
1.247305137E0,-1.987144947E-1,2.526009083E-2,-2.277469635E-2
1.255301154E0,-1.378350258E-1,5.037325621E-2,-2.749443054E-3
1.263327634E0,-1.185966730E-1,1.848751307E-2,6.027317047E-2
1.271322421E0,-8.106708527E-2,-2.749270201E-2,1.064281464E-1
1.279319747E0,-8.327960968E-3,-3.497397900E-2,1.070051193E-1
1.287313841E0,9.054505825E-2,-5.427312851E-2,4.771327972E-2
1.295309551E0,2.073874474E-1,-8.057481050E-2,1.155223846E-1
1.303305953E0,2.245113850E-1,-1.125542521E-1,5.169773102E-2
1.311331510E0,1.417908669E-1,-5.185317993E-2,1.904296875E-2
1.319328758E0,-1.639866829E-2,-1.069724560E-3,-3.021907806E-2
1.327322545E0,-1.862671375E-1,1.895970106E-2,-4.109001160E-2
1.335318948E0,-3.136389256E-1,-1.548165083E-2,6.809234619E-4
1.343314580E0,-3.770575523E-1,-4.494035244E-2,4.715251923E-2
1.351309752E0,-3.476954699E-1,-2.659183741E-2,5.521774292E-2
1.359306616E0,-2.688091993E-1,3.564417362E-3,5.357074738E-2
1.367331634E0,-1.335412264E-1,-6.967067719E-3,5.654525757E-2
1.375327036E0,-1.886987686E-2,-1.263386011E-2,7.605552673E-2
1.383322669E0,5.111086369E-2,-4.224848747E-2,1.431961060E-1
1.391318379E0,6.034803391E-2,-5.059945583E-2,7.848644257E-2
1.399315320E0,1.030355692E-1,-6.883496046E-2,1.262645721E-1
1.407308645E0,1.053224802E-1,-9.718424082E-2,1.213636398E-1
1.415305279E0,9.607577324E-2,-7.111018896E-2,9.013175964E-2
1.423330835E0,1.114124060E-1,-5.283313990E-2,3.499603271E-2
1.431326544E0,9.642505646E-2,-1.786911488E-2,-1.762485504E-2
1.439323716E0,1.011995077E-1,1.478171349E-2,-1.268100739E-2
1.447318273E0,8.979904652E-2,-2.167975903E-2,5.224609375E-2
1.455314213E0,6.963670254E-2,-4.101979733E-2,6.706142426E-2
1.463309385E0,3.585779667E-2,-2.197718620E-2,2.994537354E-3
1.471304480E0,3.396356106E-2,-5.329167843E-2,8.474349976E-3
1.477316493E0,4.695212841E-2,-7.892251015E-3,-4.341125488E-2
1.479329421E0,4.695212841E-2,-7.892251015E-3,-4.341125488E-2
1.487325976E0,1.009519100E-1,4.039764404E-3,-5.693340302E-2
1.495322610E0,1.268271208E-1,-5.331277847E-3,1.586055756E-2
1.503318089E0,1.054947376E-1,-1.221394539E-2,6.722927094E-2
1.511312491E0,7.299494743E-2,-3.585755825E-2,8.521080017E-2
1.519309740E0,-2.802634239E-2,-1.423847675E-2,8.895683289E-2
1.527304604E0,-9.479689598E-2,-2.386879921E-2,8.563137054E-2
1.535331314E0,-1.396179199E-1,-1.445782185E-2,6.560611725E-2
1.543327024E0,-1.244238615E-1,2.136266232E-2,2.168178558E-2
1.551321580E0,-6.631302834E-2,2.154684067E-2,-7.870674133E-3
1.559319060E0,-8.257865906E-3,-4.739165306E-2,1.288604736E-2
1.567313538E0,-7.758498192E-3,-6.120622158E-2,5.758285522E-2
1.575309556E0,-4.802787304E-2,-5.142724514E-2,4.477787018E-2
1.583304420E0,-1.192339659E-1,8.508682251E-3,8.055686951E-3
1.591329977E0,-1.887657642E-1,3.275120258E-2,2.367973328E-3
1.599327455E0,-2.306090593E-1,-6.079673767E-5,-3.448486328E-3
1.607321704E0,-2.761037350E-1,-8.791804314E-3,6.715583801E-2
1.615317645E0,-2.842699289E-1,-1.993191242E-2,1.112575531E-1
1.623313431E0,-2.335350513E-1,-4.324615002E-2,1.743288040E-1
1.631308449E0,-1.288996935E-1,-5.976629257E-2,1.796979904E-1
1.639306314E0,-3.493249416E-2,-4.094004631E-2,7.228946686E-2
1.647330716E0,5.389702320E-2,-7.387399673E-4,5.099487305E-2
1.655327349E0,1.041786671E-1,-2.524447441E-2,2.725601196E-2
1.663322444E0,8.762180805E-2,1.748573780E-2,-1.078987122E-2
1.671317231E0,4.746973515E-2,-3.288686275E-2,3.744506836E-2
1.679314709E0,1.493966579E-2,-2.580094337E-2,3.068923950E-2
1.687308881E0,2.620184422E-2,-1.870632172E-2,3.842163086E-2
1.695304669E0,9.029126167E-2,-2.845644951E-2,3.075599670E-3
1.703330840E0,1.142538786E-1,3.433227539E-4,3.769874573E-3
1.711325857E0,9.603023529E-2,-1.393461227E-2,6.208610535E-2
1.719320106E0,2.101433277E-2,-2.585208416E-2,7.981586456E-2
1.727317355E0,-6.083238125E-2,-3.782689571E-2,1.191492081E-1
1.735313372E0,-2.050426006E-1,-7.648801804E-2,9.378242493E-2
1.743309082E0,-2.686080933E-1,-3.399872780E-2,5.628585815E-2
1.751304408E0,-3.044153452E-1,1.561892033E-2,-5.388259888E-4
1.759331503E0,-2.931950092E-1,1.760280132E-2,-7.205963135E-3
1.767325366E0,-2.397230864E-1,-1.349484921E-2,2.672958374E-2
1.775322307E0,-1.300252676E-1,-3.970241547E-2,8.200836182E-2
1.783317171E0,-3.844225407E-2,-5.659067631E-2,1.346282959E-1
1.791312188E0,8.975386620E-3,-4.057180882E-2,1.414995193E-1
1.799310745E0,2.760934830E-2,-3.452527523E-2,7.888603210E-2
1.807303994E0,5.819928646E-2,-7.132411003E-3,4.018974304E-2
1.815330781E0,9.930253029E-3,-4.198038578E-2,7.334709167E-2
1.823326106E0,7.025957108E-3,-3.632664680E-2,1.115798950E-3
1.831321201E0,6.187617779E-2,1.981496811E-2,-4.949188232E-2
1.839318449E0,1.943407059E-1,1.915597916E-2,3.102302551E-3
1.847312928E0,2.800678015E-1,-5.793929100E-2,7.746410370E-2
1.855308408E0,3.240281343E-1,-5.136895180E-2,5.866813660E-2
1.863304118E0,3.642280102E-1,-1.156604290E-2,1.128673553E-2
1.871330213E0,2.779772282E-1,-1.247954369E-2,-3.362560272E-2
1.879327230E0,1.073051691E-1,-3.505945206E-3,-5.903720856E-2
1.887320786E0,-1.159517765E-1,8.208394051E-3,-3.130054474E-2
1.895317727E0,-3.210692406E-1,-1.576936245E-2,2.544021606E-2
1.903312744E0,-4.335389137E-1,-5.164563656E-2,9.882831573E-2
1.911308532E0,-4.929014444E-1,-4.462015629E-2,1.359386444E-1
1.919304780E0,-4.365680218E-1,-4.996240139E-2,1.296243668E-1
1.927330106E0,-3.240723610E-1,-4.356598854E-2,1.134748459E-1
1.935326431E0,-1.915608644E-1,-2.059733868E-2,8.266639709E-2
1.943320910E0,-3.279209137E-3,-9.804129601E-3,4.913902283E-2
1.951317236E0,1.380943060E-1,5.503058434E-3,8.143424988E-3
1.967307964E0,3.220446110E-1,-4.046201706E-3,7.524490356E-4
1.975304366E0,2.773404121E-1,-1.682376862E-2,3.474235535E-3
1.983329538E0,1.285885572E-1,-5.659699440E-3,7.107067108E-2
1.991325555E0,-5.751383305E-2,-5.436527729E-2,1.148948669E-1
1.999322188E0,-2.438029051E-1,-9.885215759E-2,1.921367645E-1
2.007317283E0,-3.620296717E-1,-1.035969257E-1,2.833871841E-1
2.015313685E0,-4.001308680E-1,-6.861948967E-2,1.612081528E-1
2.023308395E0,-3.169555664E-1,-3.186404705E-2,1.489400864E-1
2.031303798E0,-2.349718809E-1,-5.059671402E-2,8.134365082E-2
2.039332124E0,-1.589937210E-1,-2.647304535E-2,3.983974457E-2
2.047325679E0,-7.449316978E-2,-5.027055740E-3,-9.065628052E-3
2.055322313E0,-3.402912617E-2,-3.383469582E-2,-3.067016602E-3
2.063316484E0,-6.600022316E-3,-1.472914219E-2,-4.034328461E-2
2.071312271E0,1.252365112E-2,-4.592895508E-2,8.738422394E-2
2.079308904E0,2.132892609E-3,-6.316065788E-2,6.170558929E-2
2.087303076E0,2.757978439E-2,-4.213333130E-3,1.077966690E-1
2.095330094E0,4.067575932E-2,-1.517307758E-2,7.955265045E-2
2.103325265E0,2.244377136E-2,4.793357849E-2,-1.098155975E-2
2.111320975E0,5.480289459E-2,9.732925892E-2,-5.588722229E-2
2.119318224E0,1.162420511E-1,8.312165737E-2,-6.229686737E-2
2.127312626E0,1.787122488E-1,7.266867161E-2,-9.231090546E-2
2.135308028E0,2.331267595E-1,8.765995502E-2,-1.266775131E-1
2.143303508E0,2.460383177E-1,3.449809551E-2,-1.127395630E-1
2.151329910E0,2.215961218E-1,1.811492443E-2,-5.783939362E-2
2.159326312E0,1.309471130E-1,1.656162739E-2,-2.429199219E-2
2.167320484E0,8.677208424E-2,8.167505264E-3,1.903915405E-2
2.175317348E0,6.020307541E-2,-1.431107521E-2,9.367179871E-2
2.183311596E0,2.483403683E-2,-6.088519096E-2,1.588401794E-1
2.191307845E0,4.765820503E-2,-3.390872478E-2,1.474418640E-1
2.199332478E0,1.019804478E-1,-5.063855648E-2,1.049089432E-1
2.207329727E0,1.086243391E-1,4.263639450E-3,6.957149506E-2
2.215325513E0,1.489834785E-1,4.269886017E-2,1.372537613E-1
2.223320531E0,2.377027273E-1,-8.152401447E-2,1.356029510E-1
2.231316318E0,3.124802113E-1,-6.021130085E-2,1.028394699E-1
2.239313258E0,2.634266615E-1,-1.816296577E-2,5.572986603E-2
2.247307430E0,1.893476248E-1,-3.610467911E-2,6.389331818E-2
2.255334218E0,2.655172348E-2,-4.710447788E-2,4.368877411E-2
2.263328928E0,-1.834322214E-1,-2.721071243E-2,4.837989807E-3
2.271324330E0,-4.537357092E-1,4.763603210E-2,-1.692199707E-2
2.279321886E0,-5.992166996E-1,-6.485223770E-3,-1.025676727E-2
2.287316058E0,-7.303420305E-1,1.789689064E-3,4.868793488E-2
2.295312383E0,-8.162205219E-1,-1.889991760E-2,8.602046967E-2
2.303307554E0,-8.116641045E-1,-1.826107502E-2,1.140823364E-1
2.311333342E0,-6.442490816E-1,-2.031719685E-2,1.277627945E-1
2.319330591E0,-4.016858339E-1,-1.082277298E-2,1.000099182E-1
2.327324531E0,-1.128509045E-1,-3.025484085E-2,1.046104431E-1
2.335320856E0,1.594576836E-1,-3.073430061E-2,4.091167450E-2
2.343315951E0,4.190713167E-1,-2.888047695E-2,6.721973419E-2
2.351311661E0,6.000479460E-1,-4.904508591E-2,5.482864380E-2
2.359308909E0,6.973669529E-1,-2.656948566E-2,4.045295715E-2
2.367333543E0,7.059829831E-1,-2.548015118E-2,2.650737762E-2
2.375330715E0,6.151076555E-1,1.175677776E-2,1.278305054E-2
2.383324578E0,4.059981108E-1,1.545906067E-2,2.086544037E-2
2.391320673E0,1.448398829E-1,1.448619366E-2,1.750946045E-2
2.399317614E0,-5.788743496E-2,6.448507309E-3,5.065250397E-2
2.407311400E0,-2.009501457E-1,2.460634708E-2,5.542182922E-2
2.415307495E0,-2.404938936E-1,3.565311432E-2,1.241302490E-2
2.423333667E0,-2.206304073E-1,3.505682945E-2,1.725101471E-2
2.431328762E0,-1.349056959E-1,1.322066784E-2,6.023311615E-2
2.437310236E0,-4.069507122E-2,-5.946397781E-3,3.841876984E-2
2.439323163E0,-4.069507122E-2,-5.946397781E-3,3.841876984E-2
2.447319874E0,3.169798851E-2,2.773904800E-2,3.812885284E-2
2.455316738E0,7.779407501E-2,-6.420612335E-4,7.138729095E-2
2.463311524E0,9.537065029E-2,-6.993997097E-2,1.692991257E-1
2.471306927E0,8.439922333E-2,-1.533651352E-2,5.408668518E-2
2.479334330E0,6.431007385E-2,-8.883476257E-3,9.214973450E-2
2.487328501E0,1.305973530E-2,7.053375244E-3,5.118560791E-2
2.495323980E0,9.897112846E-3,-5.723953247E-3,4.377841949E-2
2.503320306E0,2.360272408E-2,7.936716080E-3,2.682399750E-2
2.511316016E0,3.793716431E-3,1.530647278E-4,1.946067810E-2
2.519313264E0,2.230262756E-2,-2.193701267E-2,6.477737427E-2
2.527307051E0,1.937723160E-2,-5.134010315E-2,1.651639938E-1
2.535333838E0,1.187980175E-2,-5.970656872E-2,1.458177567E-1
2.543328626E0,-5.005955696E-3,-3.915071487E-3,1.288414001E-1
2.551324643E0,-3.899621964E-2,-3.376126289E-3,5.911064148E-2
2.559320661E0,-8.063018322E-2,1.882851124E-2,-2.983570099E-2
2.567316140E0,-5.607295036E-2,8.228051662E-2,-9.970664978E-2
2.575311849E0,-2.053380013E-2,6.071805954E-2,-1.576337814E-1
2.583307175E0,4.966259003E-3,9.556853771E-2,-1.101331711E-1
2.591333347E0,5.180251598E-2,1.030310392E-1,-1.487016678E-1
2.599329750E0,1.754103899E-1,8.071005344E-2,-8.652496338E-2
2.607324228E0,2.678256035E-1,-2.964162827E-2,9.062957764E-2
2.615320169E0,2.649211884E-1,-6.582212448E-2,2.103958130E-1
2.623315264E0,2.400497198E-1,-5.689609051E-2,2.107362747E-1
2.631311589E0,2.408016920E-1,1.355123520E-2,7.001113892E-2
2.639308222E0,2.443995476E-1,2.872908115E-2,5.623149872E-2
2.647332548E0,1.315494776E-1,-3.016257286E-2,6.895065308E-2
2.655329181E0,1.088786125E-2,3.543388844E-2,1.202726364E-1
2.663324045E0,4.211199284E-2,-7.126939297E-2,1.646003723E-1
2.671319370E0,8.179688454E-2,1.114165783E-2,1.042366028E-2
2.679313311E0,4.888308048E-2,5.579769611E-2,5.531215668E-2
2.687310867E0,-1.688659191E-2,-4.486238956E-2,1.506900787E-1
2.695306808E0,-1.198259592E-1,-1.238068342E-1,2.031955719E-1
2.703332365E0,-1.708558798E-1,-1.028170586E-1,1.649389267E-1
2.711328383E0,-1.091475487E-1,-7.793760300E-2,7.394886017E-2
2.719325400E0,-8.423936367E-2,-6.805384159E-2,1.626110077E-2
2.727319187E0,-7.010221481E-2,-6.816995144E-2,-3.688907623E-2
2.735315897E0,-9.530806541E-2,1.775276661E-2,-1.548719406E-1
2.743310914E0,-1.174162626E-1,6.332957745E-2,-2.635269165E-1
2.751306009E0,-1.877446175E-1,4.018437862E-2,-2.241296768E-1
2.759334642E0,-2.966362238E-1,-3.510475159E-2,-5.824184418E-2
2.767328507E0,-3.281087875E-1,-1.105667353E-1,1.504392624E-1
2.775323985E0,-3.038551807E-1,-1.488168240E-1,3.155803680E-1
2.783320234E0,-2.639504671E-1,-1.022089720E-1,2.361488342E-1
2.791315098E0,-1.501957178E-1,-6.474256516E-3,6.792068481E-2
2.799311423E0,-4.663813114E-2,1.009590626E-1,-7.171821594E-2
2.807305595E0,-3.547942638E-2,7.950699329E-2,-9.423732758E-2
2.815333536E0,-8.519399166E-2,8.513581753E-2,-1.120491028E-1
2.823328631E0,-1.350224018E-1,6.264889240E-2,-3.402900696E-2
2.831324725E0,-1.301060915E-1,2.389264107E-2,4.639625549E-2
2.839321589E0,-4.495894909E-2,-1.941895485E-2,5.722236633E-2
2.847314222E0,1.631529331E-1,-3.392744064E-2,2.710151672E-2
2.855311239E0,4.045655727E-1,2.009034157E-3,3.049373627E-2
2.863306565E0,5.973796844E-1,3.582262993E-2,7.882118225E-3
2.871332737E0,7.496750355E-1,-2.872943878E-5,2.534284592E-1
2.879329140E0,7.135691047E-1,-1.202230453E-1,3.094940186E-1
2.887323310E0,4.299752712E-1,-7.353401184E-2,2.029228210E-1
2.895319944E0,1.112774611E-1,-3.945887089E-2,6.129455566E-2
2.903314423E0,-1.590768099E-1,1.342892647E-3,-3.403091431E-2
2.911310440E0,-3.877333403E-1,2.315521240E-2,-1.096143723E-1
2.927332015E0,-5.953584909E-1,6.980788708E-2,-7.152462006E-2
2.935328571E0,-5.887392759E-1,1.529717445E-2,1.067390442E-1
2.943323973E0,-5.084003210E-1,-2.947843075E-2,6.467628479E-2
2.951319376E0,-3.025226593E-1,-1.453101635E-2,5.349349976E-2
2.959315394E0,-1.285243034E-1,-2.353179455E-2,1.303625107E-1
2.967310180E0,1.269924641E-2,-9.013748169E-2,2.065305710E-1
2.975307121E0,1.127072573E-1,-9.526526928E-2,1.791601181E-1
2.983332754E0,2.146900892E-1,-5.103576183E-2,1.444234848E-1
2.991327772E0,2.820484638E-1,-1.224792004E-2,3.799724579E-2
2.999325328E0,2.964519262E-1,3.380000591E-2,-5.369758606E-2
3.007318346E0,2.742404938E-1,5.889344215E-2,-1.115150452E-1
3.015315518E0,2.029496431E-1,4.413664341E-2,-1.259241104E-1
3.023310073E0,1.230844259E-1,-1.788032055E-2,1.074886322E-2
3.031305707E0,4.888904095E-2,-8.695232868E-2,1.164608002E-1
3.039333109E0,4.482018948E-2,-7.724964619E-2,1.336717606E-1
3.047326973E0,9.848737717E-2,-5.853533745E-2,1.532487869E-1
3.055323067E0,1.493339539E-1,-9.099102020E-2,1.510896683E-1
3.063318470E0,1.403547525E-1,-4.523313046E-2,1.129169464E-1
3.071314103E0,1.174978018E-1,-2.151370049E-2,8.912467957E-2
3.079311967E0,6.609320641E-3,1.916646957E-3,1.510810852E-2
3.087305908E0,-9.385204315E-2,-1.048183441E-2,-2.284240723E-2
3.095332080E0,-1.628812551E-1,4.452157021E-2,-7.984542847E-2
3.103327405E0,-2.414461374E-1,7.642531395E-2,-2.659797668E-2
3.111322807E0,-2.245720625E-1,6.627488136E-2,9.976387024E-3
3.119319825E0,-2.056590319E-1,2.327275276E-2,5.376243591E-2
3.127314843E0,-9.640109539E-2,7.124662399E-3,1.118774414E-1
3.135309937E0,-1.716148853E-2,-7.861351967E-2,1.721506119E-1
3.143305647E0,1.136760712E-1,-5.969274044E-2,1.651163101E-1
3.151331281E0,2.112162113E-1,-9.454429150E-2,2.657108307E-1
3.159325683E0,2.778226137E-1,-1.332013607E-1,2.081308365E-1
3.167322931E0,3.285017014E-1,-5.553221703E-2,8.112621307E-2
3.175319257E0,3.199578524E-1,2.176690102E-2,1.642799377E-2
3.183314121E0,1.903536320E-1,2.276623249E-2,-8.157348633E-2
3.191310138E0,6.010425091E-2,1.724529266E-2,-5.948066711E-2
3.199336541E0,-2.048707008E-2,-2.862119675E-2,-4.901218414E-2
3.207331712E0,-3.252387047E-2,-4.786610603E-3,-4.303359985E-2
3.215328038E0,-3.396749496E-2,1.690852642E-2,-1.529788971E-2
3.223322517E0,2.956819534E-2,-2.584147453E-2,2.210903168E-2
3.231318227E0,3.257048130E-2,-9.525907040E-2,1.599168777E-1
3.239315707E0,-4.673194885E-2,-7.694685459E-2,1.490211487E-1
3.247309339E0,-7.363545895E-2,-5.244576931E-2,1.355562210E-1
3.255336357E0,-1.363682747E-1,-2.631962299E-2,6.454944611E-2
3.263331452E0,-1.778726578E-1,9.166240692E-3,2.937507629E-2
3.271327239E0,-1.936242580E-1,3.513967991E-2,8.477210999E-3
3.279323487E0,-2.390563488E-1,3.051996231E-2,-1.490783691E-2
3.287318274E0,-2.756094933E-1,1.682639122E-2,7.143974304E-3
3.295314985E0,-3.007088900E-1,-1.819038391E-2,2.195262909E-2
3.303310002E0,-2.425473928E-1,5.463004112E-2,7.686614990E-4
3.311335866E0,-9.669852257E-2,1.517271996E-2,-6.175994873E-3
3.319333115E0,3.611671925E-2,3.126692772E-2,3.514289856E-3
3.327326748E0,1.375806332E-1,5.501878262E-2,2.998733521E-2
3.335323303E0,2.058049440E-1,2.150034904E-2,1.343822479E-2
3.343318475E0,2.154275179E-1,3.138244152E-2,2.109527588E-2
3.351313801E0,9.691023827E-2,-2.080011368E-2,6.010627747E-2
3.359311049E0,-6.347298622E-3,-3.432989120E-3,4.901599884E-2
3.367335451E0,-1.164134741E-1,-1.481056213E-2,5.714702606E-2
3.375332623E0,-2.175242901E-1,4.876255989E-3,4.361248016E-2
3.383326795E0,-2.714583874E-1,1.015627384E-2,7.543659210E-2
3.391321966E0,-2.975125313E-1,-1.809501648E-2,7.837772369E-2
3.407313387E0,-2.450739145E-1,-2.708303928E-2,8.123970032E-2
3.415309096E0,-1.138520241E-1,-1.270866394E-2,4.045581818E-2
3.423335883E0,5.917429924E-2,1.579785347E-2,1.856231689E-2
3.431330901E0,2.435736656E-1,-1.091921329E-2,5.639553070E-2
3.439328458E0,3.043507338E-1,-3.789031506E-2,9.674835205E-2
3.447322629E0,3.351871967E-1,-6.061446667E-2,8.217620850E-2
3.455318416E0,2.805228233E-1,-1.908338070E-2,6.049442291E-2
3.463313819E0,1.693139076E-1,-3.054726124E-2,7.724380493E-2
3.471308912E0,4.290735722E-2,5.490541458E-3,4.155254364E-2
3.479336854E0,-2.678012848E-2,1.973628998E-2,1.331138611E-2
3.487331025E0,-8.993744850E-3,3.168201447E-2,-3.383350372E-2
3.495327736E0,-1.922273636E-2,3.200244904E-2,-1.615619659E-2
3.503322753E0,-5.542171001E-2,1.587975025E-2,2.318286896E-2
3.511318232E0,-1.226532459E-1,-4.655361176E-3,4.583263397E-2
3.519314481E0,-1.687718630E-1,4.193913937E-2,4.687213898E-2
3.527308652E0,-1.871373653E-1,3.113162518E-2,3.577327728E-2
3.535336670E0,-1.830087900E-1,-1.780819893E-2,8.428573608E-2
3.543331534E0,-1.731424332E-1,-3.105592728E-2,1.181373596E-1
3.551326860E0,-1.309044361E-1,-1.833128929E-2,8.708572388E-2
3.559323569E0,-9.416687489E-2,-2.517795563E-2,6.781864166E-2
3.567318280E0,-3.181278706E-2,-1.297330856E-2,2.685737610E-2
3.575313451E0,-2.013754845E-2,-3.682565689E-2,3.129386902E-2
3.583309392E0,-2.777516842E-2,-3.682601452E-2,5.005550385E-2
3.591334948E0,-2.571237087E-2,-2.976107597E-2,3.769874573E-2
3.599331889E0,2.850890160E-3,-2.028608322E-2,7.805061340E-2
3.607326676E0,1.954329014E-2,-2.550268173E-2,8.964729309E-2
3.615322463E0,6.357431412E-4,-2.616393566E-2,1.156406403E-1
3.623317865E0,2.035045624E-2,-2.963316441E-2,8.417797089E-2
3.631313191E0,3.810977936E-2,-2.206206322E-3,7.671260834E-2
3.637324666E0,4.665577412E-2,1.132726669E-3,3.577899933E-2
3.639307362E0,3.468477726E-2,1.132726669E-3,3.817367554E-2
3.647335072E0,3.010034561E-4,-2.768993378E-3,6.842613220E-3
3.655331167E0,-2.946400642E-2,2.469491959E-2,-7.237243652E-2
3.663326493E0,-5.243062973E-2,4.793035984E-2,-9.412670135E-2
3.671321894E0,-9.537696838E-2,5.279111862E-2,-8.720684052E-2
3.679318528E0,-1.249712706E-1,4.168415070E-2,-6.155967712E-3
3.687313392E0,-1.288615465E-1,4.310595989E-2,-1.852798462E-2
3.695309409E0,-9.703600407E-2,4.971265793E-2,5.026817322E-3
3.703335504E0,-5.578601360E-2,5.701136589E-2,1.427459717E-2
3.711330368E0,-1.463878155E-2,1.457929611E-2,2.357196808E-2
3.719327617E0,5.512130260E-2,3.231751919E-2,3.528118134E-2
3.727322019E0,8.933436871E-2,1.070499420E-4,3.512954712E-2
3.735317729E0,9.547245502E-2,-8.683204651E-4,4.708385468E-2
3.743313132E0,7.390999794E-2,1.014196873E-2,4.726028442E-2
3.751308533E0,7.013702393E-2,2.031326294E-3,6.918048859E-2
3.759336243E0,3.595221043E-2,-4.194843769E-2,6.011390686E-2
3.767330723E0,4.739642143E-3,5.048394203E-3,2.481842041E-2
3.775327664E0,-1.420116425E-2,-7.025003433E-4,6.379032135E-2
3.783321527E0,-7.162165642E-2,-1.373612881E-2,9.074878693E-2
3.791317007E0,-9.567785263E-2,-1.263165474E-2,8.173561096E-2
3.799314486E0,-7.209408283E-2,-1.412022114E-2,8.223056793E-2
3.807308350E0,-9.451317787E-2,-3.981566429E-2,5.147075653E-2
3.815335752E0,-1.055488586E-1,-3.942799568E-2,5.648326874E-2
3.823330539E0,-1.026670933E-1,-8.146286011E-3,5.420017242E-2
3.831326250E0,-1.098939180E-1,-2.031528950E-2,8.050251007E-2
3.839321959E0,-1.055955887E-1,2.007555962E-2,4.445934296E-2
3.847317362E0,-9.191155434E-2,2.709531784E-2,8.397102356E-3
3.855313380E0,-4.991173744E-2,4.876959324E-2,-1.094436646E-2
3.863308474E0,-3.233945370E-2,9.748899937E-2,-1.558303833E-3
3.871334723E0,2.339482307E-2,6.337940693E-2,3.426074982E-2
3.879328587E0,7.472801208E-2,4.461121559E-2,3.196811676E-2
3.887325835E0,8.361136913E-2,6.508100033E-2,1.315689087E-2
3.895322391E0,1.486237049E-1,1.031081676E-1,-5.802631378E-2
3.903317178E0,1.669232845E-1,4.169654846E-2,-2.828788757E-2
3.911312658E0,2.077885866E-1,2.634441853E-2,-4.377269745E-2
3.919310136E0,1.995509863E-1,8.573698997E-2,1.764965057E-2
3.927334231E0,2.044218779E-1,-3.405749798E-2,4.821777344E-2
3.935330249E0,1.343668699E-1,-3.652882576E-2,8.150672913E-2
3.943326498E0,3.983008862E-2,3.989171982E-2,1.698017120E-2
3.951321054E0,-3.176116943E-2,1.358171701E-1,-8.792209625E-2
3.959317918E0,-6.792593002E-2,2.453476191E-1,-1.850404739E-1
3.967312090E0,-3.566348553E-2,2.272828817E-1,-1.619281769E-1
3.975309337E0,-2.144312859E-2,8.709752560E-2,-1.358480453E-1
3.983334048E0,-2.553689480E-2,-8.696389198E-2,-2.787971497E-2
3.991330373E0,-1.239650249E-1,-2.099114656E-1,-3.485488892E-2
3.999326084E0,-3.038567305E-1,-1.970763206E-1,9.410095215E-2
4.007321716E0,-4.288552999E-1,-2.074483633E-1,1.912193298E-1
4.015318042E0,-4.372253418E-1,-1.647653580E-1,2.304792404E-1
4.023311675E0,-2.450891733E-1,-1.382671595E-1,2.765550613E-1
4.031308308E0,-8.486139774E-2,-1.209524870E-1,2.264299393E-1
4.039336249E0,1.533079147E-2,-4.764473438E-2,1.209964752E-1
4.047330190E0,9.395253658E-2,3.578066826E-3,-2.521133423E-2
4.055325823E0,1.317379475E-1,-9.962081909E-3,-1.466751099E-3
4.063321533E0,5.638277531E-2,-5.237877369E-2,-8.987426758E-3
4.071316397E0,-7.288587093E-2,-9.955513477E-2,-4.783630371E-3
4.079313876E0,-2.083157301E-1,-8.718883991E-2,6.278991699E-3
4.087307432E0,-3.712487221E-1,-6.345510483E-4,7.216739655E-2
4.095334834E0,-5.139902830E-1,-7.238733768E-2,2.215290070E-1
4.103329929E0,-5.757802725E-1,-1.208159924E-1,1.600160599E-1
4.111325640E0,-4.658212662E-1,-1.347113848E-1,2.394218445E-1
4.117337345E0,-1.632581949E-1,-1.959497929E-1,3.393249512E-1
4.119319811E0,-1.632581949E-1,-1.959497929E-1,3.393249512E-1
4.127316444E0,3.817963600E-2,-8.181917667E-2,1.701927185E-1
4.135312539E0,2.355825901E-1,9.630560875E-3,2.449798584E-2
4.143308171E0,3.461169004E-1,-3.805816174E-2,4.383373260E-2
4.151334035E0,3.615887165E-1,-7.160604000E-2,6.807518005E-2
4.159330130E0,3.531371355E-1,-6.191956997E-2,4.974174500E-2
4.167325148E0,3.997174501E-1,8.989429474E-2,-1.475448608E-1
4.175321550E0,3.756742477E-1,9.490287304E-2,-9.055614471E-2
4.183316260E0,3.566399813E-1,-4.242241383E-2,2.413749695E-2
4.191312048E0,2.880471945E-1,-8.359599113E-2,9.354400635E-2
4.199309295E0,8.447110653E-2,-1.509189606E-2,-3.314018250E-2
4.207333852E0,-1.029633284E-1,-6.694316864E-2,6.788539886E-2
4.215330562E0,-2.966141701E-1,-2.135002613E-2,-9.197139740E-2
4.223325273E0,-4.452682734E-1,6.738603115E-2,-7.714176178E-2
4.231320674E0,-5.306694508E-1,-1.320719719E-2,1.172637939E-2
4.239317385E0,-4.988811016E-1,-2.621185780E-2,5.995082855E-2
4.247311864E0,-4.005703926E-1,-7.039594650E-2,1.272163391E-1
4.255308727E0,-1.769765615E-1,-1.686978340E-2,4.804039001E-2
4.263333438E0,-1.303350925E-2,3.874266148E-2,4.259681702E-2
4.271329071E0,9.109628201E-2,-1.605153084E-3,3.904533386E-2
4.279326935E0,1.675786972E-1,-1.811301708E-2,7.113170624E-2
4.287321106E0,1.700092554E-1,-3.971254826E-2,7.687473297E-2
4.295317509E0,1.397238970E-1,-1.839208603E-2,6.120872498E-2
4.303312296E0,6.967699528E-2,-5.467033386E-2,8.402156830E-2
4.311337852E0,1.208400726E-2,-3.845417500E-2,8.057022095E-2
4.319334793E0,-1.150763035E-2,-3.913152218E-2,5.085849762E-2
4.327329272E0,3.528237343E-3,-8.764624596E-3,8.584403992E-2
4.335326136E0,2.080285549E-2,-2.886939049E-2,6.091690063E-2
4.343320922E0,2.581858635E-2,-2.295064926E-2,6.940746307E-2
4.351316325E0,1.946926117E-3,5.741035938E-2,4.917240143E-2
4.357327800E0,-3.049254417E-3,2.089571953E-2,5.050086975E-2
4.359310497E0,-3.049254417E-3,2.089571953E-2,5.050086975E-2
4.367338515E0,8.672952652E-3,-6.086969376E-2,9.495353699E-2
4.375333917E0,1.047360897E-1,-1.119978428E-1,1.059246063E-1
4.383329935E0,1.513048410E-1,-5.846369267E-2,4.033088684E-2
4.391324491E0,1.390478611E-1,1.414561272E-2,-2.028465271E-2
4.399321047E0,7.749426365E-2,-1.728177071E-3,1.028537750E-2
4.407315834E0,3.583681583E-2,-4.615736008E-2,-4.465103149E-3
4.415311621E0,1.609599590E-2,-5.012202263E-2,1.603860855E-1
4.423307023E0,4.447174072E-2,-6.418871880E-2,7.381343842E-2
4.431333195E0,4.924952984E-2,1.133196354E-1,-7.254314423E-2
4.439330443E0,-4.410457611E-2,1.217323542E-1,-1.517210007E-1
4.447324923E0,-7.816708088E-2,-5.814528465E-2,1.761331558E-1
4.455321171E0,1.999044418E-2,-7.552945614E-2,9.703063965E-2
4.463316958E0,1.048924923E-1,-4.630446434E-3,5.401039124E-2
4.469327971E0,2.190243006E-1,-7.982730865E-3,-1.525592804E-2
4.471311976E0,2.357836962E-1,-3.194332123E-3,-2.722644806E-2
4.479339071E0,2.236338854E-1,-6.115436554E-3,6.642341614E-3
4.487333550E0,2.839457989E-2,-1.612544060E-2,2.400970459E-2
4.495329029E0,-1.706501245E-1,-2.302050591E-3,5.831432343E-2
4.503324432E0,-2.477957010E-1,-2.944231033E-3,5.665302277E-2
4.511320064E0,-2.872792482E-1,2.759790421E-2,1.656818390E-2
4.519316698E0,-2.654384375E-1,3.951311111E-2,-3.079986572E-2
4.527311562E0,-1.973805428E-1,-1.265716553E-2,1.017665863E-2
4.535337426E0,-2.096220255E-1,-2.676725388E-3,5.567264557E-2
4.543333443E0,-1.483151913E-1,7.188081741E-3,1.034154892E-1
4.551328461E0,3.610551357E-2,-3.341126442E-2,5.988121033E-2
4.559325787E0,1.314663887E-1,-2.204418182E-3,4.737663269E-2
4.567319957E0,2.029498816E-1,-4.673838615E-3,4.922580719E-2
4.575316514E0,1.698757410E-1,-1.203548908E-2,3.445529938E-2
4.583311070E0,1.355252266E-1,-2.667999268E-2,3.425216675E-2
4.591337473E0,5.640363693E-2,-5.120062828E-2,3.893280029E-2
4.599331336E0,-5.623102188E-4,-1.112592220E-2,2.935886383E-2
4.607328047E0,2.174007893E-2,-1.400864124E-2,6.055831909E-2
4.615324603E0,4.189920425E-2,-2.644896507E-3,1.038455963E-2
4.623319774E0,4.668831825E-3,2.085554600E-2,-1.580715179E-2
4.631315792E0,-5.231797695E-2,-8.103847504E-3,3.452777863E-2
4.639312964E0,-1.218771935E-1,-6.821298599E-2,1.134748459E-1
4.647337674E0,-1.775436401E-1,-3.531014919E-2,1.132669449E-1
4.655333383E0,-1.113142967E-1,9.377002716E-3,3.398132324E-2
4.663328401E0,-3.102409840E-2,2.559649944E-2,3.129100800E-2
4.671324496E0,5.886495113E-2,-1.762759686E-2,6.697273254E-2
4.679320437E0,1.590806246E-1,1.587069035E-2,3.817367554E-2
4.687315531E0,2.172795534E-1,1.848554611E-2,-7.139205933E-3
4.695311626E0,1.803035736E-1,-2.433061600E-4,5.152702332E-3
4.703337721E0,4.091858864E-2,2.200603485E-4,4.149913788E-2
4.711332277E0,-9.558165073E-2,-1.143753529E-2,2.764034271E-2
4.719329833E0,-1.747714281E-1,-1.839363575E-2,7.120037079E-2
4.727324005E0,-2.164291143E-1,-5.419468880E-2,6.192111969E-2
4.735320022E0,-2.062367201E-1,-6.389212608E-2,7.638835907E-2
4.743315348E0,-1.490758657E-1,-4.769694805E-2,8.821678162E-2
4.751310212E0,-9.747433662E-2,-5.542159081E-3,5.674457550E-2
4.759338230E0,-6.818878651E-2,5.328536034E-3,8.338928223E-3
4.767332709E0,-3.696978092E-2,1.616978645E-2,1.730060577E-2
4.775329034E0,2.965736389E-2,-1.123166084E-2,9.799957275E-2
4.783323822E0,9.377658367E-2,-1.722264290E-2,9.964942932E-2
4.791318916E0,1.226865053E-1,-1.374828815E-2,9.423732758E-2
4.799315241E0,1.286904812E-1,6.378173828E-3,5.549144745E-2
4.807310644E0,5.154132843E-2,9.697556496E-3,2.644157410E-2
4.815337431E0,-4.923939705E-2,-8.344650269E-3,1.423931122E-2
4.823332525E0,-1.647790670E-1,-1.913130283E-2,4.267215729E-2
4.831328159E0,-1.635602713E-1,-3.560900688E-3,6.381702423E-2
4.837308864E0,-1.341333389E-1,2.162992954E-2,2.980232239E-2
4.839322100E0,-1.341333389E-1,2.162992954E-2,2.980232239E-2
4.847319270E0,-9.086453915E-2,-5.894899368E-3,5.553531647E-2
4.855315981E0,-2.782583237E-3,-4.331421852E-2,1.122169495E-1
4.863310768E0,6.357026100E-2,-3.328502178E-2,7.782173157E-2
4.871336940E0,1.155871153E-1,-2.845847607E-2,6.970882416E-2
4.879333188E0,8.887207508E-2,-6.473946571E-2,5.919742584E-2
4.887327436E0,4.570722580E-2,-2.957653999E-2,-6.374359131E-3
4.895323685E0,2.697825432E-3,2.481234074E-2,-4.078102112E-2
4.903319164E0,-2.615725994E-2,-6.882309914E-3,-1.535511017E-2
4.911314566E0,-4.852116108E-2,9.690165520E-3,-5.464744568E-2
4.919311200E0,-5.688846111E-2,8.913660049E-2,-5.321598053E-2
4.927336449E0,-4.188036919E-2,6.396126747E-2,-4.220962524E-2
4.935333620E0,4.020214081E-3,2.505934238E-2,-2.422332764E-3
4.943328407E0,4.749906063E-2,3.462922573E-2,-1.283264160E-2
4.951323502E0,8.185410500E-2,3.997051716E-2,-1.526832581E-3
4.959320519E0,7.656836510E-2,5.086112022E-2,1.487827301E-2
4.967314921E0,7.231616974E-2,2.407550812E-3,4.831123352E-2
4.975311862E0,7.856905460E-2,-9.925127029E-3,6.758403778E-2
4.983336804E0,7.618236542E-2,-3.677463531E-2,1.420764923E-1
4.991332513E0,4.802477360E-2,-4.738259315E-2,8.731555939E-2
4.999328839E0,7.058107853E-2,2.056884766E-2,4.454135895E-2
5.007323010E0,5.029904842E-2,-2.657175064E-2,7.122325897E-2
5.015319643E0,-1.532828808E-2,-9.243845940E-3,6.438922882E-2
5.023315430E0,-6.172573566E-2,5.530238152E-3,5.754375458E-2
5.031309910E0,-1.084327698E-1,-2.291703224E-2,7.217216492E-2
5.039336620E0,-1.441979408E-1,-7.333850861E-2,6.499767303E-2
5.047332329E0,-1.545376778E-1,-3.787827492E-2,3.845119476E-2
5.055328347E0,-1.294130087E-1,-9.706616402E-3,4.053688049E-2
5.063323212E0,-9.052073956E-2,-1.740169525E-2,3.772735596E-2
5.071318844E0,-2.828633785E-2,-6.008863449E-3,5.634498596E-2
5.077329627E0,-9.693503380E-3,-1.878178120E-2,6.046295166E-2
5.079312708E0,-9.693503380E-3,-1.878178120E-2,6.046295166E-2
5.087310880E0,3.235852718E-2,-2.463150024E-2,4.769515991E-2
5.095336744E0,4.309725761E-2,1.729416847E-2,3.248310089E-2
5.103331838E0,6.595158577E-2,-1.255786419E-2,6.519031525E-2
5.111327548E0,6.720161438E-2,-2.099716663E-2,5.716800690E-2
5.119323874E0,5.695378780E-2,-3.270983696E-3,1.326560974E-3
5.127318122E0,1.606869698E-2,2.190172672E-2,1.743984222E-2
5.135315294E0,-3.082275391E-3,1.600778103E-2,4.078102112E-2
5.143311004E0,-5.349206924E-2,-1.132833958E-2,4.974651337E-2
5.151336330E0,-7.281398773E-2,9.370446205E-3,3.957462311E-2
5.159332962E0,-3.475260735E-2,-5.838871002E-3,5.572700500E-2
5.167327749E0,-1.360332966E-2,-1.143229008E-2,6.467437744E-2
5.175324075E0,-9.489774704E-3,-1.958274841E-2,6.636524200E-2
5.183318246E0,1.361298561E-2,-8.782267570E-3,3.687477112E-2
5.191313956E0,3.445553780E-2,-1.496315002E-2,5.526161194E-2
5.199341359E0,2.915930748E-2,-9.193301201E-3,4.016494751E-2
5.207335762E0,4.569172859E-2,-3.452658653E-3,4.426860809E-2
5.215332471E0,2.908444405E-2,-2.405714989E-2,6.041336060E-2
5.223327181E0,2.465319633E-2,-1.381981373E-2,5.021953583E-2
5.231322892E0,1.794493198E-2,-1.088702679E-2,5.678939819E-2
5.239319909E0,-7.075071335E-4,-8.647441864E-4,3.222656250E-2
5.247314619E0,-6.047368050E-2,2.352440357E-2,3.871631622E-2
5.255341714E0,-7.990801334E-2,-4.744410515E-3,7.626533508E-2
5.263336270E0,-4.922592640E-2,-2.597987652E-2,5.151748657E-2
5.271331980E0,-2.310264111E-2,1.019680500E-2,7.650375366E-3
5.279328536E0,-6.521105766E-3,8.197665215E-3,-7.459640503E-3
5.287323016E0,2.411675453E-2,-7.905960083E-3,1.332473755E-2
5.295318802E0,9.060978889E-3,-1.196944714E-2,6.760406494E-2
5.303314435E0,2.273857594E-2,5.380034447E-3,6.440448761E-2
5.311340376E0,6.331574917E-2,1.313388348E-2,5.412197113E-2
5.319333933E0,1.140863895E-1,-3.665196896E-2,7.266998291E-2
5.327331719E0,1.150051355E-1,-3.634345531E-2,3.380775452E-2
5.335327814E0,6.598961353E-2,1.421880722E-2,6.976127625E-3
5.343323524E0,7.872343063E-3,1.716017723E-2,3.293800354E-2
5.351317926E0,-4.992079735E-2,5.927443504E-3,6.377315521E-2
5.359315483E0,-1.073631048E-1,-3.364086151E-4,3.484153748E-2
5.367340116E0,-7.605516911E-2,1.522576809E-2,1.315975189E-2
5.375336749E0,-5.435943604E-2,2.148926258E-2,-1.306533813E-3
5.383331305E0,-1.141095161E-2,2.574408054E-2,9.880065918E-4
5.391326400E0,1.235044003E-2,4.702138901E-2,3.443717957E-2
5.399323649E0,4.791581631E-2,2.302718163E-2,4.154968262E-2
5.407318358E0,9.107768536E-2,1.342260838E-2,-8.719444275E-3
5.415314453E0,7.722413540E-2,2.571785450E-2,1.296329498E-2
5.423339702E0,8.584427834E-2,-9.117901325E-2,2.407264709E-1
5.431336258E0,6.167900562E-2,-1.015508175E-2,1.333217621E-1
5.439332275E0,3.070414066E-2,1.666501760E-1,-1.392135620E-1
5.447327370E0,-2.160525322E-2,2.378308773E-2,1.461791992E-2
5.455324080E0,-1.076574326E-1,-8.290004730E-2,7.986068726E-2
5.463318251E0,-1.487822533E-1,-2.744591236E-2,6.829738617E-2
5.471313269E0,-7.601296902E-2,2.300226688E-2,2.778911591E-2
5.479340749E0,-2.994906902E-2,3.804481030E-2,1.649856567E-3
5.487335536E0,1.164281368E-2,1.991736889E-2,3.068256378E-2
5.495331784E0,4.871881008E-2,-1.950347424E-2,1.431083679E-2
5.503326340E0,1.005879641E-1,-2.523219585E-2,1.240539551E-2
5.511321974E0,8.082199097E-2,-2.141964436E-2,4.165363312E-2
5.519318914E0,5.643796921E-2,-1.535427570E-2,7.809829712E-2
5.527313393E0,3.924918175E-2,-7.276892662E-3,8.815479279E-2
5.535340258E0,-1.860296726E-2,6.063771248E-2,2.878379822E-2
5.543335045E0,-5.006277561E-2,5.698943138E-2,1.016235352E-2
5.551331062E0,-1.176227331E-1,-1.565754414E-2,4.423999786E-2
5.559324849E0,-1.619498730E-1,-4.277551174E-2,8.777332306E-2
5.567321483E0,-1.448552608E-1,-2.240622044E-2,1.023693085E-1
5.575318500E0,-1.280995607E-1,-2.851927280E-2,6.900119781E-2
5.583313902E0,-4.694771767E-2,-2.268552780E-2,7.628536224E-2
5.591339459E0,5.056858063E-4,-2.676248550E-4,9.291648865E-3
5.599337015E0,5.730271339E-2,1.269125938E-2,-7.449150085E-3
5.607331109E0,2.058827877E-2,1.970767975E-3,3.807163239E-2
5.615326281E0,1.509702206E-2,-3.287637234E-2,6.921863556E-2
5.623322837E0,1.003682613E-2,-4.169845581E-2,8.364105225E-2
5.631317393E0,2.193939686E-2,1.137948036E-2,4.537868500E-2
5.639314873E0,4.849565029E-2,2.366125584E-2,1.433753967E-2
5.647339198E0,5.391466618E-2,3.401160240E-2,-1.895618439E-2
5.655335216E0,7.421565056E-2,2.331316471E-2,-1.617527008E-2
5.663331002E0,1.021596193E-1,2.265214920E-2,8.303642273E-3
5.671326097E0,1.328064203E-1,4.865837097E-2,4.725265503E-2
5.679322962E0,1.160656214E-1,1.751196384E-2,7.915306091E-2
5.687317440E0,1.048048735E-1,-2.785634995E-2,7.289314270E-2
5.695314074E0,1.014753580E-1,-3.030204773E-2,5.477714539E-2
5.703340015E0,4.610228539E-2,2.954006195E-3,2.238273621E-2
5.711334494E0,-2.791082859E-2,7.564544678E-3,1.643562317E-2
5.719331434E0,-8.685970306E-2,-4.497754574E-2,4.657649994E-2
5.727325606E0,-1.411783695E-1,-6.409728527E-2,9.104347229E-2
5.735322470E0,-2.010673285E-1,-5.017864704E-2,5.389690399E-2
5.743318180E0,-2.045892477E-1,6.443023682E-3,2.846527100E-2
5.751313352E0,-2.018814087E-1,2.480483055E-2,1.962375641E-2
5.759340446E0,-1.834316254E-1,9.764075279E-3,2.258110046E-2
5.767334849E0,-1.444948912E-1,2.600193024E-2,2.775764465E-2
5.775331789E0,-1.181885004E-1,3.282880783E-2,2.086448669E-2
5.783326884E0,-2.787065506E-2,1.773238182E-3,3.546333313E-2
5.791321979E0,9.099686146E-2,-2.896535397E-2,3.810501099E-2
5.799315535E0,1.764349937E-1,-5.260026455E-2,4.314613342E-2
5.807312783E0,1.906700134E-1,-3.582286835E-2,2.910900116E-2
5.815340186E0,1.936354637E-1,-2.663457394E-2,3.669071198E-2
5.823334666E0,1.157820225E-1,-1.050055027E-2,5.871295929E-2
5.831330683E0,2.168726921E-2,-3.294992447E-2,5.684947968E-2
5.839326393E0,-1.214790344E-2,-1.737236977E-2,6.220436096E-2
5.847321872E0,2.392899990E-2,-6.832361221E-3,6.282329559E-2
5.855317889E0,5.572128296E-2,-1.088511944E-2,3.956413269E-2
5.863313292E0,9.028339386E-2,-3.192949295E-2,4.986000061E-2
5.871338849E0,6.058263779E-2,-5.456566811E-3,9.897232056E-3
5.879335405E0,1.940333843E-2,4.506099224E-2,1.074504852E-2
5.887330499E0,-9.068095684E-2,3.378391266E-2,-4.998207092E-3
5.895327132E0,-1.527749300E-1,3.009510040E-2,-8.687019348E-3
5.903321612E0,-2.543737888E-1,3.644514084E-2,4.253387451E-2
5.911316783E0,-3.357497454E-1,3.576278687E-7,-3.334522247E-2
5.919313647E0,-3.486125469E-1,1.635122299E-2,4.384899139E-2
5.927339203E0,-2.863601446E-1,-5.089855194E-2,1.016330719E-1
5.935334683E0,-9.142649174E-2,-5.857372284E-2,1.184091568E-1
5.943330931E0,8.300971985E-2,-2.834713459E-2,1.157159805E-1
5.951326103E0,2.043045759E-1,3.876209259E-3,3.626155853E-2
5.959322736E0,2.954635620E-1,3.873133659E-2,1.268386841E-4
5.967228922E0,3.093070984E-1,-7.524013519E-3,2.421188354E-2
5.975225223E0,2.425575256E-1,-3.954362869E-2,5.082702637E-2
5.983250756E0,1.241238117E-1,-4.787492752E-2,5.364894867E-2
5.991246135E0,3.568613529E-2,-3.006267548E-2,3.274154663E-2
5.999242436E0,-8.921265602E-3,4.556059837E-3,1.049041748E-5
6.007236584E0,-7.454252243E-2,5.688428879E-3,2.245426178E-2
6.015233194E0,-1.425679922E-1,9.394288063E-3,4.971218109E-2
6.023228957E0,-1.946865320E-1,-8.592247963E-3,9.115314484E-2
6.031224259E0,-1.688990593E-1,-2.455031872E-2,6.050205231E-2
6.039248637E0,-1.250653267E-1,2.384781837E-3,5.355167389E-2
6.047245170E0,-1.012908220E-1,-1.159083843E-2,5.836677551E-2
6.055242394E0,-9.501957893E-2,-6.418073177E-2,7.496261597E-2
6.063237235E0,-7.260560989E-2,-5.984711647E-2,1.224861145E-1
6.071232536E0,-7.241904736E-2,-4.160845280E-2,8.601284027E-2
6.079228838E0,-1.728606224E-2,4.588019848E-2,6.394386292E-3
6.087223986E0,7.847321033E-2,4.290461540E-3,5.803108215E-3
6.095250672E0,5.220282078E-2,-1.404274702E-1,1.847648621E-1
6.103245512E0,7.173764706E-2,3.847956657E-3,2.609920502E-2
6.111240891E0,8.980584145E-2,2.421612740E-1,-3.645277023E-1
6.119237808E0,-2.375900745E-2,7.055747509E-2,6.874179840E-2
6.127231956E0,-1.259979010E-1,-2.352327108E-1,2.337207794E-1
6.135228796E0,-1.483851671E-1,3.010535240E-2,1.090011597E-1
6.143223559E0,-4.190015793E-2,-6.799340248E-3,3.918266296E-2
6.151249476E0,1.296758652E-3,-4.509687424E-4,-8.348083496E-2
6.159246933E0,8.627414703E-3,9.017753601E-2,-6.719875336E-2
6.167240850E0,2.023231983E-2,-6.798577309E-2,9.027481079E-2
6.175236767E0,1.043164730E-2,-5.404126644E-2,1.136598587E-1
6.183232454E0,4.245197773E-2,4.124450684E-2,-4.471111298E-2
6.191227525E0,6.766569614E-2,6.773102283E-2,-4.011249542E-2
6.199224442E0,3.781485558E-2,-3.466057777E-2,6.989288330E-2
6.207249743E0,-2.054655552E-2,-1.994144917E-2,8.414173126E-2
6.215245737E0,5.424261093E-3,3.296351433E-2,6.255912781E-2
6.223240808E0,5.077660084E-2,1.888465881E-2,1.948070526E-2
6.231235802E0,3.162729740E-2,4.989743233E-3,2.194595337E-2
6.239232489E0,-2.591025829E-2,-1.126098633E-2,3.158473969E-2
6.247226944E0,-1.877164841E-2,1.085710526E-2,2.208423615E-2
6.255253938E0,-1.812100410E-3,1.411676407E-2,3.661632538E-2
6.263249009E0,4.162180424E-2,-6.164312363E-2,5.117321014E-2
6.271244388E0,5.419576168E-2,-2.035295963E-2,4.658603668E-2
6.279238613E0,2.132809162E-2,1.347172260E-2,4.436016083E-2
6.287235530E0,-2.590012550E-2,1.854801178E-2,4.452610016E-2
6.295232139E0,-9.221422672E-2,2.045154572E-3,5.427742004E-2
6.303226825E0,-9.918487072E-2,-7.240533829E-3,3.760242462E-2
6.311253358E0,-1.114182472E-1,1.692283154E-2,2.800941467E-2
6.319249352E0,-9.534740448E-2,2.875089645E-3,5.426311493E-2
6.327244115E0,-1.512920856E-2,-2.081537247E-2,3.731822968E-2
6.335240032E0,2.430641651E-2,1.022577286E-3,1.557540894E-2
6.343236103E0,4.447245598E-2,-1.051783562E-3,3.451728821E-2
6.351231097E0,5.524981022E-2,-3.175652027E-2,5.111598969E-2
6.359228630E0,5.934906006E-2,-2.241134644E-4,5.104732513E-2
6.367253008E0,4.943192005E-2,1.679658890E-2,2.947425842E-2
6.375249233E0,3.268289566E-2,5.125880241E-3,1.994419098E-2
6.383244304E0,4.017448425E-2,-1.554608345E-3,2.247238159E-2
6.391239990E0,-7.297992706E-3,-1.792383194E-2,3.936767578E-2
6.399236908E0,-3.318536282E-2,-1.039183140E-2,3.232097626E-2
6.407230826E0,-6.142735481E-2,4.270911217E-3,-3.455162048E-3
6.415227358E0,-8.036589622E-2,7.125020027E-3,1.820182800E-2
6.423252044E0,-7.585632801E-2,-2.586627007E-2,6.850719452E-2
6.431248346E0,-8.396506310E-2,-3.265857697E-2,7.078552246E-2
6.439244955E0,-8.546066284E-2,8.516311646E-4,5.853271484E-2
6.447239642E0,-5.879747868E-2,1.518690586E-2,5.574703217E-2
6.455235636E0,-2.523910999E-2,-8.884191513E-3,5.289173126E-2
6.463231091E0,8.129119873E-3,-3.561437130E-2,8.827018738E-2
6.471225855E0,5.334305763E-2,-3.143441677E-2,5.176639557E-2
6.479253464E0,6.749069691E-2,-2.278566360E-2,5.113983154E-2
6.487248227E0,6.299233437E-2,-9.619832039E-3,2.423381805E-2
6.495244529E0,5.399596691E-2,-6.085038185E-3,5.483245850E-2
6.503239061E0,1.183462143E-2,-9.886980057E-3,2.561950684E-2
6.511234440E0,-4.722690582E-2,1.239621639E-2,2.028656006E-2
6.517246127E0,-9.961736202E-2,-2.285289764E-2,5.315589905E-2
6.519228588E0,-9.961736202E-2,-2.285289764E-2,5.315589905E-2
6.527226120E0,-1.071590185E-1,-3.200399876E-2,5.714130402E-2
6.535252499E0,-1.176743507E-1,-2.450013161E-2,6.579303741E-2
6.543247262E0,-5.939531326E-2,-1.267755032E-2,1.005964279E-1
6.551243256E0,-9.331703186E-3,-2.271866798E-2,6.094551086E-2
6.559239635E0,2.605605125E-2,-1.382517815E-2,8.106327057E-2
6.567234706E0,7.368707657E-2,-2.437520027E-2,6.527900696E-2
6.575231008E0,1.578601599E-1,1.276099682E-2,5.198001862E-2
6.583225463E0,1.425163746E-1,9.168863297E-3,7.238674164E-2
6.591252150E0,8.258378506E-2,4.642355442E-2,2.833747864E-2
6.599248220E0,2.585673332E-2,7.463014126E-2,3.239822388E-2
6.607242599E0,-5.183982849E-2,9.652030468E-2,3.908634186E-2
6.615238593E0,-1.413208246E-1,6.210494041E-2,4.358196259E-2
6.623234049E0,-1.686952114E-1,6.480324268E-2,1.080808640E-1
6.631230043E0,-1.488829851E-1,2.768123150E-2,2.132854462E-1
6.639226576E0,-1.450945139E-1,2.242958546E-2,1.914072037E-1
6.647251801E0,-8.917951584E-2,2.734589577E-2,1.695175171E-1
6.655248103E0,-6.180763245E-2,3.988790512E-2,1.812486649E-1
6.663243174E0,-1.125693321E-3,3.856241703E-2,2.863912582E-1
6.671237937E0,5.496776104E-2,-5.596113205E-2,3.365325928E-1
6.679235162E0,4.622054100E-2,-1.534872055E-1,3.366994858E-1
6.687229386E0,-3.651785851E-2,-8.712685108E-2,-4.405975342E-4
6.695225919E0,-1.099582911E-1,6.028783321E-2,9.609794617E-2
6.703251221E0,-4.467114210E-1,-7.803642750E-2,5.081281662E-1
6.711246907E0,-8.550614119E-1,-1.580114365E-1,4.809818268E-1
6.719243132E0,-1.152645707E0,-1.000965834E-1,4.705657959E-1
6.727237895E0,-1.309743762E0,-5.260992050E-2,5.488996506E-1
6.735234274E0,-1.262995481E0,-1.333265305E-1,6.070976257E-1
6.743229575E0,-1.093933821E0,-3.670803308E-1,8.859872818E-1
6.751225031E0,-1.007616878E0,-5.306026936E-1,8.871011734E-1
6.757236026E0,-1.097126722E0,-4.596453905E-1,8.239440918E-1
6.759249025E0,-1.097126722E0,-4.596453905E-1,8.239440918E-1
6.767246250E0,-1.048410416E0,-3.320674896E-1,5.397176743E-1
6.775242782E0,-9.219021797E-1,-5.068498850E-1,2.342281342E-1
6.783237853E0,-5.688564777E-1,-9.170178175E-1,1.524162292E-1
6.791232693E0,-2.981842756E-1,-1.027725935E0,7.445621490E-2
6.799230226E0,-1.455370188E-1,-8.953727484E-1,-6.620693207E-2
6.807224374E0,-2.429778576E-1,-6.578484774E-1,-3.119325638E-1
6.815251445E0,-2.833064795E-1,-5.302088261E-1,-6.163988113E-1
6.823246439E0,-4.063194990E-1,-2.754654884E-1,-5.945453644E-1
6.831242433E0,-5.192638636E-1,-8.795058727E-2,-5.942506790E-1
6.839238504E0,-6.712939739E-1,4.412412643E-2,-5.444793701E-1
6.847232959E0,-7.689551115E-1,1.100635529E-1,-6.228170395E-1
6.855230107E0,-7.790420055E-1,1.289781332E-1,-6.077365875E-1
6.863224255E0,-7.480362654E-1,6.130886078E-2,-6.117706299E-1
6.871250710E0,-6.771279573E-1,-8.132231236E-2,-4.959936142E-1
6.879246781E0,-6.074079275E-1,-1.664640903E-1,-4.284543991E-1
6.887241853E0,-5.807449818E-1,-1.747318506E-1,-4.405431747E-1
6.895237847E0,-5.519574881E-1,-8.756875992E-2,-4.941730499E-1
6.903232918E0,-5.152952671E-1,8.621788025E-2,-5.971212387E-1
6.911228220E0,-4.410824776E-1,1.765090227E-1,-6.372671127E-1
6.919225752E0,-2.798449993E-1,2.478013039E-1,-5.645933151E-1
6.927250362E0,-1.492884159E-1,2.697150707E-1,-4.677238464E-1
6.935246125E0,-6.026172638E-2,2.428960800E-1,-3.535394669E-1
6.943242042E0,-5.162000656E-3,1.681493521E-1,-3.290643692E-1
6.951237498E0,2.325010300E-2,1.223495007E-1,-2.859888077E-1
6.959233799E0,6.601691246E-2,7.465386391E-2,-1.901645660E-1
6.967227563E0,1.272032261E-1,3.923559189E-2,-7.238292694E-2
6.975223941E0,2.196708918E-1,4.647815228E-2,1.956462860E-2
6.983249782E0,3.049461842E-1,4.577481747E-2,2.387046814E-2
6.991245160E0,4.378901720E-1,1.088640690E-1,-1.350593567E-2
6.999239000E0,5.524415970E-1,2.605609298E-1,-6.827068329E-2
7.007236764E0,6.081933975E-1,3.353801966E-1,-1.342248917E-1
7.015232450E0,5.912939310E-1,4.356018305E-1,-2.339324951E-1
7.023227829E0,5.396982431E-1,4.629660249E-1,-3.124170303E-1
7.031222900E0,5.923897028E-1,5.043414831E-1,-2.522592545E-1
7.039250663E0,6.919047832E-1,4.333481193E-1,-6.113624573E-2
7.047245118E0,8.137131929E-1,3.527951241E-1,8.545017242E-2
7.055241420E0,8.913408518E-1,2.579241991E-1,1.990356445E-1
7.063236183E0,9.013328552E-1,1.583569646E-1,2.988862991E-1
7.071231870E0,8.581269979E-1,6.164872646E-2,3.233776093E-1
7.079229094E0,7.984424829E-1,5.431568623E-2,2.613201141E-1
7.087253319E0,6.839685440E-1,6.240355968E-2,2.425756454E-1
7.095249313E0,6.835763454E-1,8.990585804E-2,2.218503952E-1
7.103245000E0,8.114093542E-1,1.219778657E-1,3.349695206E-1
7.111240378E0,1.027652860E0,1.463260651E-1,4.876699448E-1
7.119237064E0,1.189400554E0,1.464378834E-1,5.293378830E-1
7.127230906E0,1.321271896E0,1.658327579E-1,4.860191345E-1
7.135227823E0,1.391844392E0,1.859366298E-1,3.864946365E-1
7.143223124E0,1.370834351E0,2.353191376E-1,2.094411850E-1
7.151249349E0,1.269909859E0,2.206314802E-1,5.830764771E-2
7.159245959E0,1.164667726E0,1.826604605E-1,3.204631805E-2
7.167239799E0,9.658834934E-1,9.552431107E-2,1.291007996E-1
7.175236101E0,7.344650030E-1,3.582948446E-2,2.471132278E-1
7.183230479E0,5.645432472E-1,-3.194093704E-2,3.550519943E-1
7.191227089E0,4.173927307E-1,-7.192116976E-2,4.479846954E-1
7.199253852E0,3.173151016E-1,-7.036095858E-2,4.536123276E-1
7.207248615E0,2.621990442E-1,-7.048499584E-2,4.457349777E-1
7.215244994E0,2.372293472E-1,-5.809783936E-2,3.974704742E-1
7.223240295E0,1.694651842E-1,-4.523062706E-2,2.822704315E-1
7.231235674E0,1.039580107E-1,-1.742357016E-2,7.851600647E-2
7.237246823E0,5.977392197E-3,-2.938878536E-2,-4.115962982E-2
7.239229822E0,5.977392197E-3,-1.981198788E-2,-5.552482605E-2
7.247226816E0,-1.003471613E-1,-4.882216454E-3,-1.050453186E-1
7.255253887E0,-1.159517765E-1,8.046984673E-3,-8.620166779E-2
7.263248881E0,-1.157193184E-1,-1.661068201E-2,-1.494483948E-1
7.271243721E0,-3.443658352E-2,-3.996098042E-2,-1.417913437E-1
7.279240946E0,1.171386242E-2,-9.780806303E-2,-2.270793915E-2
7.287235401E0,1.704299450E-2,-1.977692246E-1,-4.853725433E-2
7.295231319E0,-1.260817051E-2,-2.338469028E-1,-2.290048599E-1
7.303227005E0,-1.218094826E-1,-2.393845320E-1,-4.297828674E-1
7.311221153E0,-1.893000603E-1,-2.031685114E-1,-5.672588348E-1
7.319249839E0,-1.623311043E-1,-2.239208817E-1,-6.179981232E-1
7.327243295E0,2.012252808E-4,-2.938206196E-1,-4.583959579E-1
7.335240212E0,1.427235603E-1,-3.523259759E-1,-3.480777740E-1
7.343234744E0,2.828998566E-1,-4.170352221E-1,-2.064609528E-1
7.351230738E0,3.277014494E-1,-4.729652405E-1,-4.600715637E-2
7.359226963E0,2.427661419E-1,-5.807696581E-1,1.191625595E-1
7.367251880E0,1.454279423E-1,-6.280164719E-1,3.177947998E-1
7.375248260E0,5.139565468E-2,-6.749354601E-1,5.095329285E-1
7.383242946E0,-6.398439407E-3,-6.599106789E-1,6.971702576E-1
7.391239017E0,-1.872467995E-2,-6.083042622E-1,8.158607483E-1
7.399235934E0,1.497308016E-1,-6.211574078E-1,9.424858093E-1
7.407229774E0,4.047323465E-1,-6.579557657E-1,9.859237671E-1
7.415226384E0,7.445273399E-1,-6.415950060E-1,1.020196915E0
7.423252455E0,9.174988866E-1,-7.370297909E-1,7.153501511E-1
7.431247295E0,9.199515581E-1,-6.198920012E-1,2.268104553E-1
7.439244135E0,9.102267623E-1,-3.602057695E-1,-1.393232346E-1
7.447238898E0,8.467153311E-1,-4.062139988E-2,-2.677774429E-1
7.455234277E0,6.194555759E-1,3.046289682E-1,-3.985404968E-1
7.463229732E0,3.486996889E-1,5.723143220E-1,-4.218893051E-1
7.471225342E0,1.268783808E-1,5.146703124E-1,-2.560195923E-1
7.477237952E0,-1.150197983E-1,2.709701061E-1,-4.456615448E-2
7.479250259E0,-1.150197983E-1,2.709701061E-1,-4.456615448E-2
7.487247176E0,-4.390215874E-1,1.392294168E-1,6.387519836E-2
7.495243555E0,-8.267835379E-1,8.906996250E-2,8.331871033E-2
7.503238318E0,-1.051334381E0,-1.243233681E-3,1.202726364E-1
7.511233620E0,-1.250246882E0,-1.807487011E-2,7.144069672E-2
7.519230844E0,-1.384691596E0,6.092011929E-2,-1.557159424E-1
7.527225300E0,-1.440307617E0,1.734969616E-1,-9.709358215E-2
7.535251755E0,-1.346930385E0,2.426078320E-1,-2.992630005E-3
7.543246826E0,-1.246047735E0,2.685542107E-1,3.027725220E-2
7.551241974E0,-1.106981039E0,2.501575947E-1,-1.236581802E-1
7.559239122E0,-1.050615549E0,2.721937895E-1,-2.178306580E-1
7.567233578E0,-1.053593159E0,2.913091183E-1,-3.332843781E-1
7.575230264E0,-1.129977465E0,3.523214459E-1,-2.904682159E-1
7.583224950E0,-1.172617197E0,3.376063704E-1,-1.661596298E-1
7.591250867E0,-1.047400475E0,3.045797944E-1,1.513576508E-2
7.599247477E0,-7.961180210E-1,1.992827654E-1,1.138153076E-1
7.607242548E0,-5.104093552E-1,1.277863979E-1,1.608686447E-1
7.615239081E0,-1.888892651E-1,9.513354301E-2,-2.774333954E-2
7.623233845E0,-7.045745850E-2,8.480572701E-2,-2.813148499E-2
7.631229531E0,-8.320379257E-2,1.911089420E-1,1.020431519E-1
7.639225294E0,-1.831016541E-1,2.831428647E-1,3.301143646E-2
7.647251057E0,-2.012548447E-1,3.135726452E-1,7.882690430E-2
7.655246821E0,-1.491384506E-1,3.744745255E-2,1.119775772E-1
7.663242122E0,-1.234505177E-1,-7.815551758E-2,1.848897934E-1
7.671237809E0,1.267576218E-2,3.684318066E-2,-9.937381744E-2
7.679233803E0,1.473710537E-1,1.645660400E-2,2.715101242E-1
7.687229181E0,2.175056934E-1,1.087462902E-2,3.850650787E-2
7.695224868E0,2.168512344E-1,4.675614834E-2,1.195135117E-1
7.703250092E0,1.824896336E-1,5.651247501E-2,5.748176575E-2
7.711246394E0,1.498472691E-1,8.775973320E-2,5.481719971E-3
7.715243314E0,9.003853798E-2,8.795523643E-2,-1.250953674E-1
7.717227312E0,2.300095558E-2,9.513783455E-2,-2.208633423E-1
7.719240234E0,2.300095558E-2,9.513783455E-2,-2.208633423E-1
7.727236921E0,-9.739828110E-2,1.363841891E-1,-3.054571152E-1
7.735233761E0,-2.041301727E-1,2.360193729E-1,-4.708795547E-1
7.743228832E0,-4.216582775E-1,4.659473896E-1,-5.614852905E-1
7.751223903E0,-7.306275368E-1,6.574546099E-1,-6.365499496E-1
7.759251281E0,-9.219732285E-1,4.493405819E-1,-5.713005066E-1
7.767245814E0,-1.265221596E0,-8.585929871E-2,-3.838539124E-2
7.775241500E0,-1.572603703E0,-3.041599989E-1,3.157777786E-1
7.783237186E0,-1.538283587E0,-3.778800964E-1,7.342758179E-1
7.791232873E0,-1.060370684E0,-4.035818577E-2,7.573032379E-1
7.799228482E0,-3.756096363E-1,1.060061455E-1,7.017383575E-1
7.807223630E0,5.345399380E-1,-1.016193628E-1,7.711820602E-1
7.815250701E0,1.144345522E0,-2.961274385E-1,4.625673294E-1
7.823245080E0,1.457228541E0,-1.706169844E-1,-1.040315628E-1
7.831241074E0,1.556891680E0,5.567491055E-2,-5.454626083E-1
7.839237452E0,1.578786612E0,1.201738715E-1,-5.396022797E-1
7.847232216E0,1.232193828E0,-6.093728542E-2,-1.008205414E-1
7.855228210E0,5.532321930E-1,-1.054136753E-1,1.400823593E-1
7.863223820E0,-1.660101414E-1,1.288020015E-1,1.225776672E-1
7.871249352E0,-7.104554176E-1,5.101258755E-1,-3.513698578E-1
7.879246346E0,-8.031158447E-1,6.390492916E-1,5.604438782E-1
7.887240417E0,-7.256238461E-1,2.199115157E-1,3.758172989E-1
7.895237950E0,-6.035780907E-1,3.902364969E-1,-4.591436386E-1
7.903232482E0,-5.014829636E-1,4.124845266E-1,-9.241943359E-1
7.911227553E0,-6.595282555E-1,2.878420353E-1,-8.722953796E-1
7.919224778E0,-8.603022099E-1,-6.615400314E-3,-6.123332977E-1
7.927249311E0,-9.174542427E-1,-2.926924229E-1,-1.826305389E-1
7.935245612E0,-8.508150578E-1,-4.071791172E-1,-1.412000656E-1
7.943240452E0,-4.781053066E-1,-8.041536808E-1,8.316612244E-1
7.951236062E0,-7.086944580E-2,-7.797067165E-1,7.345895767E-1
7.959229979E0,6.578493118E-2,-2.944115400E-1,8.902969360E-1
7.967227435E0,1.308522224E-1,-8.706140518E-2,6.816339493E-1
7.975223121E0,3.530337811E-1,5.564236641E-2,1.913166046E-1
7.983248961E0,5.474920273E-1,7.127201557E-2,-1.106262207E-1
7.991245340E0,5.043137074E-1,9.538924694E-2,-4.543399811E-1
7.999242257E0,5.806140900E-1,-2.647602558E-2,-2.584762573E-1
8.007235789E0,7.668732405E-1,-1.258349419E-1,1.785955429E-1
8.015232322E0,8.101793528E-1,9.174525738E-2,-8.713436127E-2
8.023226854E0,7.008312941E-1,3.049360514E-1,6.154069901E-1
8.031222233E0,3.180601597E-1,2.223025560E-1,3.316612244E-1
8.039250842E0,-1.063277721E-1,1.758872271E-1,-2.388095856E-2
8.047244913E0,-1.068243980E-1,3.182739019E-1,-1.449489594E-1
8.055239984E0,1.407861710E-1,1.796873808E-1,-1.672639847E-1
8.063235670E0,3.219976425E-1,1.921296120E-2,-3.400020599E-1
8.071231357E0,2.720873356E-1,-9.348917007E-2,-1.841630936E-1
8.079227966E0,1.248478889E-2,-2.048636675E-1,-3.600149155E-1
8.087222499E0,-3.281838894E-1,-2.701095343E-1,-2.265071869E-2
8.095248954E0,-6.714103222E-1,-1.522203684E-1,-1.211919785E-1
8.103244257E0,-8.313031197E-1,-6.390714645E-2,3.993263245E-1
8.111239712E0,-7.652835846E-1,-7.728827000E-2,1.531457901E-1
8.119237168E0,-5.174376965E-1,4.546964169E-2,2.773189545E-1
8.127231085E0,-1.803560257E-1,-1.487518549E-1,4.169654846E-1
8.135226771E0,8.450388908E-2,-1.578011513E-1,1.989011765E-1
8.143222073E0,3.026158810E-1,-6.310546398E-2,1.461715698E-1
8.151248836E0,5.451493263E-1,-2.702832222E-2,7.736587524E-2
8.159244830E0,5.579442978E-1,8.566403389E-2,-1.487417221E-1
8.167239286E0,3.365242481E-1,1.394161582E-1,-1.369075775E-1
8.175236203E0,-1.272392273E-2,1.175630093E-1,-1.525688171E-1
8.183231659E0,-2.610054016E-1,9.946906567E-2,-9.302139282E-2
8.191226422E0,-4.783632755E-1,1.043596268E-1,2.651500702E-2
8.197236878E0,-5.664296150E-1,8.375787735E-2,4.970836639E-2
8.199250416E0,-5.784008503E-1,6.460428238E-2,6.886196136E-2
8.207247641E0,-5.754134655E-1,3.694820404E-2,1.847820282E-1
8.215243558E0,-4.740600586E-1,1.844477654E-2,1.228475571E-1
8.223239552E0,-3.158879280E-1,1.123178005E-2,2.323265076E-1
8.231235007E0,-1.584553719E-1,9.359920025E-2,2.473402023E-1
8.239231232E0,1.020312309E-2,1.241270304E-1,-7.563304901E-2
8.247226611E0,1.473772526E-1,2.594637871E-2,-5.866718292E-2
8.255253066E0,9.864354134E-2,-3.297102451E-2,-2.663946152E-1
8.263247522E0,-4.937458038E-2,-9.769046307E-2,-2.604970932E-1
8.271243208E0,-3.257658482E-1,-1.186611652E-1,-1.105957031E-1
8.279238971E0,-5.028495789E-1,-1.440565586E-1,-1.063556671E-1
8.287234889E0,-5.329313278E-1,-2.882057428E-1,2.471284866E-1
8.295230575E0,-2.865135670E-1,-4.345797300E-1,3.833637238E-1
8.303225415E0,1.157379150E-1,-3.597296476E-1,6.531181335E-1
8.311221024E0,4.734370708E-1,-2.286506891E-1,3.538913727E-1
8.319248480E0,7.286889553E-1,-1.206860542E-1,1.535167694E-1
8.327242551E0,1.055364847E0,-1.399251223E-1,1.383457184E-1
8.335238930E0,1.228414059E0,-2.559093237E-1,-1.217784882E-1
8.343234539E0,1.021391869E0,-3.637109995E-1,-2.069044113E-1
8.351229919E0,4.579048157E-1,-3.161765337E-1,-3.302879333E-1
8.359226220E0,-4.480743408E-2,-1.471924782E-1,-3.118524551E-1
8.367251830E0,-5.292673111E-1,3.800702095E-2,-3.640842438E-2
8.375248362E0,-8.349332809E-1,1.654441357E-1,1.038122177E-1
8.383243202E0,-9.191665649E-1,1.207292080E-1,2.578125000E-1
8.391237966E0,-8.203234673E-1,4.910695553E-2,3.747854233E-1
8.399234267E0,-4.831099510E-1,-3.956961632E-2,4.421358109E-1
8.407229261E0,-7.769274712E-2,-1.497231722E-1,7.576961517E-1
8.415225640E0,2.833693027E-1,-2.537323236E-1,8.274135590E-1
8.423251403E0,7.869634628E-1,-3.604424000E-1,8.885145187E-1
8.431246243E0,1.251530409E0,-4.440307617E-1,9.544773102E-1
8.439241007E0,1.858197689E0,-6.185228825E-1,7.518501282E-1
8.447237924E0,2.159047127E0,-7.222756147E-1,6.347780228E-1
8.455234456E0,2.454605579E0,-8.741348982E-1,4.370870590E-1
8.463228912E0,2.836354017E0,-9.133312702E-1,3.925132751E-2
8.471224906E0,3.374632835E0,-1.127389312E0,1.029736519E0
8.479252592E0,4.068158150E0,-1.307001591E0,8.300142288E-1
8.487246432E0,4.200925350E0,-1.109938383E0,6.328611374E-1
8.495241888E0,3.975573063E0,-8.112396002E-1,5.773372650E-1
8.503238113E0,3.617290258E0,-4.507364035E-1,3.729352951E-1
8.511233799E0,3.328371286E0,-3.011338711E-1,2.937622070E-1
8.519230485E0,3.056528091E0,-3.771568537E-1,3.597164154E-1
8.527224249E0,2.728635311E0,-5.291714668E-1,3.239164352E-1
8.535251396E0,2.208851099E0,-6.780834198E-1,1.763544083E-1
8.543246391E0,1.707861423E0,-7.547845840E-1,-1.728057861E-3
8.551241769E0,1.291944981E0,-7.563896179E-1,-1.077680588E-1
8.559238455E0,8.521566391E-1,-6.218924522E-1,-1.615056992E-1
8.567232603E0,4.492737949E-1,-4.975581169E-1,-3.285322189E-1
8.575230059E0,-5.585896969E-2,-2.981684208E-1,-3.217239380E-1
8.583224514E0,-4.577420354E-1,-1.473566294E-1,-3.017892838E-1
8.591250433E0,-9.552699924E-1,-1.562714577E-2,-2.281961441E-1
8.599246965E0,-1.464640856E0,8.721864223E-2,-2.329292297E-1
8.607242113E0,-1.874089241E0,8.575856686E-2,-2.181587219E-1
8.615237184E0,-2.275703430E0,9.295618534E-2,-2.018566132E-1
8.623233409E0,-2.572697878E0,9.711384773E-2,-2.776002884E-1
8.631228480E0,-2.831254959E0,1.605391502E-2,-4.832706451E-1
8.639224474E0,-2.987130642E0,2.043426037E-2,-7.084608078E-1
8.647250314E0,-3.051886320E0,2.411639690E-2,-7.302494049E-1
8.655246077E0,-3.153486729E0,1.189109087E-1,-8.863534927E-1
8.663241456E0,-3.108473301E0,2.023402452E-1,-1.011496544E0
8.671236834E0,-3.050485611E0,2.962783575E-1,-9.786977768E-1
8.677247522E0,-3.024198055E0,3.567701578E-1,-7.973108292E-1
8.679230598E0,-3.033774853E0,3.639527559E-1,-7.590036392E-1
8.687227899E0,-2.963722944E0,3.418301344E-1,-5.412683487E-1
8.695223893E0,-3.009666443E0,1.941906214E-1,-2.627496719E-1
8.703249118E0,-2.990302563E0,-6.635427475E-3,-4.540920258E-2
8.711245112E0,-3.036891937E0,-3.031450510E-1,1.144161224E-1
8.719242337E0,-3.092045546E0,-6.098955870E-1,1.114931107E-1
8.727236408E0,-3.100253344E0,-7.984392643E-1,-2.734470367E-2
8.735232402E0,-3.026050568E0,-7.112922668E-1,-5.201988220E-1
8.743227473E0,-2.919955492E0,-4.173291922E-1,-8.434820175E-1
8.751224159E0,-2.705116272E0,-3.181231022E-2,-1.272476196E0
8.759250845E0,-2.464243889E0,2.705845833E-1,-1.580149174E0
8.767244993E0,-2.203319788E0,4.576985836E-1,-1.760737896E0
8.775241064E0,-1.838220358E0,4.138877392E-1,-1.689054489E0
8.783235520E0,-1.473210335E0,2.461018562E-1,-1.398574352E0
8.791231514E0,-1.119264126E0,-2.992749214E-2,-1.062214851E0
8.799228969E0,-9.587485790E-1,-2.181586027E-1,-7.014894485E-1
8.807222886E0,-9.065852165E-1,-3.245340586E-1,-4.272060394E-1
8.815249573E0,-7.690291405E-1,-4.026015997E-1,-3.908348083E-2
8.823244644E0,-6.241571903E-1,-3.814308643E-1,1.910429001E-1
8.831239792E0,-4.056828022E-1,-2.694368362E-1,2.289094925E-1
8.839237633E0,-2.117435932E-1,-6.502234936E-2,2.111129761E-1
8.847231396E0,-1.584417820E-1,1.756047010E-1,1.868305206E-1
8.855228390E0,-1.836376190E-1,2.561792135E-1,2.455940247E-1
8.863223076E0,-3.337590694E-1,3.173702955E-1,4.030103683E-1
8.871248609E0,-5.230112076E-1,2.571204901E-1,6.322565079E-1
8.879246218E0,-6.294677258E-1,1.836189032E-1,6.491699219E-1
8.887240289E0,-5.780906677E-1,4.793775082E-2,8.609390259E-1
8.895236052E0,-4.499020576E-1,-1.065397263E-2,1.108429909E0
8.903231354E0,-2.757179737E-1,-5.011677742E-2,1.289813995E0
8.911226502E0,-2.317285538E-2,-1.645112038E-2,1.303560257E0
8.919220881E0,4.354364872E-1,4.624903202E-2,9.641399384E-1
8.927248644E0,8.477511406E-1,1.954298019E-1,6.073637009E-1
8.935244946E0,1.216197491E0,3.090307713E-1,3.232660294E-1
8.943239632E0,1.531622410E0,3.916403055E-1,-3.402709961E-3
8.951235395E0,1.661327124E0,4.625391960E-1,-1.952447891E-1
8.959231389E0,1.589532137E0,4.292345047E-1,-6.234741211E-2
8.967227306E0,1.363632202E0,2.265214920E-1,4.118480682E-1
8.975222993E0,1.149135590E0,7.226228714E-3,6.451082230E-1
8.983248217E0,1.037535667E0,-1.000524759E-1,9.528789520E-1
8.991243904E0,1.080957413E0,-1.210411787E-1,9.140005112E-1
8.999240513E0,1.300658107E0,-4.216933250E-2,6.613254547E-1
9.007234738E0,1.511587739E0,5.511999130E-2,4.522809982E-1
9.015231655E0,1.615478754E0,5.688273907E-2,1.297550201E-1
9.023226649E0,1.521833181E0,6.420218945E-2,5.799674988E-2
9.031222028E0,1.346579432E0,3.048658371E-3,1.639814377E-1
9.039249099E0,1.005671620E0,1.408970356E-2,2.191839218E-1
9.047243939E0,7.033367157E-1,4.185950756E-2,2.459459305E-1
9.055239933E0,4.364006519E-1,8.137023449E-2,1.337270737E-1
9.063235235E0,2.444207668E-1,7.065176964E-2,2.180299759E-1
9.071230382E0,2.026071548E-1,2.856826782E-2,2.540826797E-1
9.079226685E0,2.052495480E-1,5.091750622E-2,1.548280716E-1
9.087221679E0,2.036325932E-1,1.159466505E-1,6.839942932E-2
9.095248519E0,2.706251144E-1,9.735310078E-2,3.997516632E-2
9.103243821E0,3.453772068E-1,2.236044407E-2,7.419013977E-2
9.111238277E0,3.251767159E-1,1.292288303E-2,1.016540527E-1
9.119235271E0,2.522482872E-1,1.709222794E-3,1.179447174E-1
9.127229957E0,1.384592056E-1,-3.283357620E-2,1.619901657E-1
9.135227182E0,-7.129430771E-3,-4.573118687E-2,1.928396225E-1
9.143221330E0,-9.725093842E-2,-4.941904545E-2,1.861000061E-1
9.151247170E0,-1.931507587E-1,-1.769590378E-2,1.413621902E-1
9.159241318E0,-1.749644279E-1,1.846933365E-2,1.178913116E-1
9.167238312E0,-1.201453209E-1,2.118933201E-2,1.011610031E-1
9.175234536E0,-1.396179199E-2,4.779219627E-2,1.008329391E-1
9.183229684E0,1.270465851E-1,4.099130630E-2,6.911373138E-2
9.191225294E0,2.456657887E-1,5.339980125E-2,9.943675995E-2
9.199252442E0,3.204007149E-1,-3.637313843E-3,1.080121994E-1
9.207247128E0,3.704411983E-1,6.209254265E-3,1.211662292E-1
9.215243199E0,3.935525417E-1,2.316260338E-2,1.150140762E-1
9.223238193E0,4.115297794E-1,3.983175755E-2,1.590251923E-1
9.231233879E0,5.028054714E-1,3.929734230E-3,1.525526047E-1
9.239230565E0,5.385949612E-1,-3.434789181E-2,1.483898163E-1
9.247225636E0,5.543042421E-1,1.829159260E-2,4.823493958E-2
9.255252015E0,4.536542892E-1,6.370663643E-2,-4.207515717E-2
9.263246471E0,3.272511959E-1,6.384336948E-2,-2.622222900E-2
9.271242772E0,6.521797180E-2,3.337121010E-2,1.749801636E-2
9.279239074E0,-1.128141880E-1,1.039087772E-2,3.141880035E-2
9.287232914E0,-2.321572304E-1,2.839767933E-2,5.588531494E-2
9.295229601E0,-2.616188526E-1,1.803719997E-2,7.595348358E-2
9.303224364E0,-2.102158070E-1,-4.118800163E-3,1.150665283E-1
9.311251050E0,-1.145277023E-1,7.126212120E-3,1.155462265E-1
9.319248044E0,-3.203797340E-2,2.287411690E-2,9.411907196E-2
9.327242424E0,3.765106201E-2,2.886199951E-2,7.005691528E-2
9.335238802E0,2.278804779E-2,2.281045914E-2,6.973171234E-2
9.343233873E0,-4.812717438E-3,2.439022064E-3,8.358192444E-2
9.351228944E0,-7.116556168E-2,5.152904987E-2,4.704570770E-2
9.359225784E0,-9.213781357E-2,1.109071970E-1,3.932285309E-2
9.367251086E0,-1.157121658E-1,8.277225494E-2,7.002162933E-2
9.375247619E0,-2.140238285E-1,8.883202076E-2,5.280971527E-2
9.383242382E0,-3.193101883E-1,1.502852440E-1,-6.485271454E-2
9.391237837E0,-3.597836494E-1,1.067712307E-1,-8.664512634E-2
9.397248909E0,-3.710021973E-1,1.175165176E-3,5.870819092E-2
9.399231601E0,-3.710021973E-1,1.175165176E-3,5.870819092E-2
9.407228825E0,-2.507352829E-1,-6.865000725E-2,9.085655212E-2
9.415225743E0,1.381061077E-1,-1.265943050E-1,1.458339691E-1
9.423249814E0,6.268610954E-1,-1.225992441E-1,1.401605606E-1
9.431245808E0,8.755009174E-1,-1.432698965E-1,1.132698059E-1
9.439243263E0,9.574362040E-1,-9.468770027E-2,1.099367142E-1
9.447237411E0,8.473231792E-1,-6.739473343E-2,7.721996307E-2
9.455233097E0,6.531573534E-1,9.854435921E-3,-4.895210266E-2
9.463228245E0,3.205335140E-1,6.740295887E-2,-4.702472687E-2
9.471223931E0,-6.674933434E-2,3.640985489E-2,-2.534866333E-3
9.479251233E0,-4.045636654E-1,9.910583496E-3,6.739521027E-2
9.487245766E0,-5.487039089E-1,2.613759041E-2,1.090583801E-1
9.495242606E0,-5.512454510E-1,4.239881039E-2,6.164264679E-2
9.503237369E0,-4.216008186E-1,4.669773579E-2,4.728794098E-2
9.511232748E0,-2.266163826E-1,-8.772492409E-3,9.238719940E-2
9.519230049E0,-2.123284340E-2,-3.312397003E-2,8.682632446E-2
9.527223274E0,1.282155514E-1,-1.477134228E-2,5.944824219E-2
9.535250268E0,2.418420315E-1,1.544010639E-2,4.643821716E-2
9.543245416E0,2.391810417E-1,2.641236782E-2,4.803276062E-2
9.551241102E0,1.560828686E-1,3.012824059E-2,4.984951019E-2
9.559238250E0,-1.030087471E-2,2.683389187E-2,1.590442657E-2
9.567232399E0,-1.266624928E-1,2.109289169E-3,4.416370392E-2
9.575228470E0,-1.501736641E-1,3.695964813E-3,9.384250641E-2
9.583222926E0,-1.236989498E-1,7.791042328E-3,8.361434937E-2
9.591249612E0,-5.410599709E-2,3.119015694E-2,1.355934143E-2
9.599246529E0,5.630731583E-2,2.375447750E-2,-8.535385132E-3
9.607240985E0,1.094467640E-1,-2.471208572E-3,2.214336395E-2
9.615236440E0,8.402204514E-2,-1.902985573E-2,5.294322968E-2
9.623231203E0,6.393051147E-2,2.417290211E-2,4.794692993E-2
9.631227428E0,4.930615425E-2,2.428162098E-2,6.226634979E-2
9.639221345E0,1.581430435E-2,1.240575314E-2,7.186508179E-2
9.647248955E0,-1.265501976E-2,2.203249931E-2,6.475162506E-2
9.655245333E0,-5.170345306E-3,5.084359646E-2,6.004810333E-2
9.663240404E0,-5.056381226E-3,5.428314209E-3,7.445240021E-2
9.671235783E0,1.177453995E-2,1.030230522E-2,5.054092407E-2
9.679232931E0,-2.461910248E-3,1.980972290E-2,3.859043121E-2
9.687227694E0,-2.649474144E-2,-9.095430374E-3,3.135871887E-2
9.695223380E0,-7.471895218E-2,-4.404425621E-3,3.365707397E-2
9.703248913E0,-9.217810631E-2,-4.663705826E-3,3.823661804E-2
9.711244599E0,-7.177829742E-2,-1.931846142E-2,7.382869720E-2
9.719241593E0,-2.046465874E-2,4.086494446E-3,1.308803558E-1
9.727235664E0,-9.941339493E-3,1.525282860E-2,1.208305359E-1
9.735231966E0,1.296687126E-2,6.959176064E-2,4.625034332E-2
9.743227421E0,5.308294296E-2,9.334754944E-2,-1.119346619E-1
9.751221877E0,5.772900581E-2,4.386925697E-2,-8.550834656E-2
9.759248640E0,2.114152908E-2,-4.355871677E-2,5.337333679E-2
9.767244327E0,-6.180334091E-2,-6.679916382E-2,9.381675720E-2
9.775240551E0,-1.338863373E-2,1.091957092E-4,6.462001801E-2
9.783234776E0,2.299571037E-2,-2.641320229E-3,4.974079132E-2
9.791230770E0,5.468583107E-2,-1.008486748E-2,2.292728424E-2
9.799227687E0,7.212591171E-2,-3.205513954E-2,5.597209930E-2
9.807223298E0,6.115913391E-2,-1.360428333E-2,3.877353668E-2
9.815247984E0,2.638816833E-3,4.051196575E-2,3.597927094E-2
9.823244516E0,-1.511621475E-2,3.478395939E-2,4.996109009E-2
9.831239972E0,-4.231905937E-2,1.475882530E-2,9.271526337E-2
9.839236812E0,-3.838849068E-2,1.137614250E-2,8.038711548E-2
9.847231268E0,-2.024221420E-2,-8.967638016E-3,1.206645966E-1
9.855227569E0,2.087831497E-3,-6.819462776E-2,1.511325836E-1
9.863222025E0,-4.664421082E-3,-2.754616737E-2,1.215581894E-1
9.871248481E0,-3.027510643E-2,-4.220843315E-3,1.159095764E-1
9.879241782E0,-7.519721985E-2,-1.733314991E-2,5.028820038E-2
9.887239546E0,-7.483983040E-2,-1.858460903E-2,5.164146423E-2
9.895234309E0,-1.060352325E-1,-1.291286945E-2,3.609466553E-2
9.903231226E0,-6.103658676E-2,6.704556942E-2,-3.939247131E-2
9.911225758E0,5.326032639E-3,9.505569935E-2,-1.411476135E-1
9.919222368E0,9.047508240E-2,1.433714628E-1,-1.638021469E-1
9.927247900E0,1.686048508E-1,6.364130974E-2,-6.172943115E-2
9.935243510E0,1.658818722E-1,3.521895409E-2,-7.152557373E-5
9.943238888E0,1.326544285E-1,3.755092621E-5,4.264259338E-2
9.951234575E0,1.125550270E-1,2.244973183E-2,4.973602295E-2
9.959230953E0,1.196942329E-1,-1.011037827E-2,6.902503967E-2
9.967226024E0,6.745481491E-2,2.420294285E-2,3.333377838E-2
9.975222326E0,1.839613914E-2,1.786470413E-2,3.614330292E-2
9.983247858E0,-1.339578629E-2,1.866245270E-2,1.061000824E-1
9.991243160E0,-6.189370155E-2,-4.451751709E-3,9.706687927E-2
9.999239154E0,-9.586095810E-2,2.499997616E-2,5.932712555E-2
1.000723430E1,-8.212351799E-2,3.951072693E-3,7.178974152E-2
1.001523114E1,-6.413888931E-2,-2.447235584E-2,1.008548737E-1
1.002322652E1,-6.120467186E-2,-2.928996086E-2,6.266975403E-2
1.003122075E1,-3.479981422E-2,-2.009522915E-2,4.347419739E-2
1.003924812E1,-5.922889709E-2,-1.351261139E-2,6.002712250E-2
1.004724289E1,-6.964588165E-2,2.401018143E-2,3.816223145E-2
1.005524011E1,-4.934835434E-2,1.359796524E-2,2.098083496E-2
1.006323426E1,-2.009868622E-2,-1.598644257E-2,5.392932892E-2
1.007122902E1,-1.771879196E-2,-2.646207809E-3,6.039142609E-2
1.007922648E1,-2.286434174E-2,1.526403427E-2,3.800964355E-2
1.008722070E1,-4.187583923E-3,2.128088474E-2,1.082515717E-2
1.009524739E1,-9.377241135E-3,1.545572281E-2,3.156185150E-2
1.010324308E1,9.749174118E-3,2.428722382E-2,3.567218781E-2
1.011123792E1,1.949286461E-2,-5.031466484E-3,6.858253479E-2
1.011724961E1,3.429317474E-2,3.905177116E-3,9.197139740E-2
1.011923199E1,3.429317474E-2,3.905177116E-3,9.197139740E-2
1.012722829E1,4.929614067E-2,1.029324532E-2,8.186531067E-2
1.013522552E1,4.059839249E-2,2.149081230E-2,3.351211548E-2
1.014322120E1,5.639934540E-2,2.557694912E-2,3.797149658E-2
1.015124643E1,5.592131615E-2,5.914568901E-3,1.384162903E-2
1.015924311E1,4.618644714E-2,8.106589317E-3,1.377391815E-2
1.016723811E1,4.886746407E-2,8.085370064E-3,2.341365814E-2
1.017523325E1,5.178833008E-2,-1.573121548E-2,2.595043182E-2
1.018322917E1,5.495238304E-2,-1.086831093E-2,5.965900421E-2
1.019122455E1,3.667235374E-2,1.079487801E-2,3.114986420E-2
1.019922093E1,-7.565259933E-3,3.011202812E-2,1.710033417E-2
1.020724669E1,-2.777123451E-2,1.722812653E-3,6.295299530E-2
1.021524269E1,-5.774331093E-2,-5.145430565E-3,8.960533142E-2
1.022323745E1,-8.077669144E-2,3.103554249E-2,5.394458771E-2
1.023123283E1,-8.958101273E-2,3.378808498E-2,2.784252167E-2
1.023922921E1,-7.976269722E-2,8.049845695E-3,3.038406372E-2
1.024722328E1,-6.093144417E-2,3.888964653E-3,5.913448334E-2
1.025522058E1,-3.041481972E-2,-2.615809441E-3,5.909538269E-2
1.026324604E1,1.198029518E-2,-2.054929733E-3,5.422878265E-2
1.027124211E1,3.771853447E-2,1.777172089E-2,3.503799438E-2
1.027923864E1,8.771562576E-2,1.607692242E-2,4.705047607E-2
1.028723309E1,9.010052681E-2,-2.288818359E-3,4.716777802E-2
1.029522909E1,5.913043022E-2,-2.330851555E-2,6.643867493E-2
1.030322416E1,4.037046432E-2,3.328680992E-3,5.939197540E-2
1.031125008E1,2.641677856E-3,-1.325893402E-2,6.673622131E-2
1.031924630E1,-3.729748726E-2,-1.085782051E-2,6.451988220E-2
1.032724137E1,-4.622244835E-2,2.271389961E-2,1.679706573E-2
1.033523714E1,-3.864121437E-2,3.732323647E-2,2.650356293E-2
1.034323251E1,-4.089188576E-2,1.866173744E-2,2.182292938E-2
1.035122812E1,-2.406358719E-2,1.693868637E-2,4.348945618E-2
1.035922204E1,-4.861593246E-3,4.887568951E-2,2.447128296E-2
1.036724965E1,2.391362190E-2,3.065776825E-2,5.096054077E-2
1.037524657E1,4.811596870E-2,-2.346694469E-2,6.552982330E-2
1.038324110E1,5.100321770E-2,-9.994506836E-4,3.705406189E-2
1.039123702E1,5.639362335E-2,1.168322563E-2,6.124496460E-2
1.039923370E1,5.705618858E-2,-1.628994942E-2,5.912208557E-2
1.040722785E1,1.261305809E-2,-1.318800449E-2,6.186866760E-2
1.041522446E1,-1.969075203E-2,6.556391716E-3,5.984878540E-2
1.042324961E1,-9.553408623E-2,-1.211476326E-2,2.179622650E-2
1.043124568E1,-1.383070946E-1,9.890794754E-3,3.870010376E-2
1.043924137E1,-1.602041721E-1,1.755952835E-2,5.545234680E-2
1.044723605E1,-8.463525772E-2,8.443951607E-3,4.091358185E-2
1.045523297E1,-6.450772285E-2,2.088594437E-2,4.544258118E-2
1.046322750E1,-3.753829002E-2,2.372348309E-2,2.594661713E-2
1.047122342E1,-3.692626953E-3,1.958203316E-2,4.711151123E-2
1.047924995E1,2.997446060E-2,-1.077556610E-2,5.388832092E-2
1.048724433E1,3.008580208E-2,-1.958990097E-2,7.502174377E-2
1.048922871E1,2.066063881E-2,-1.416695118E-2,6.980991364E-2
1.049124248E1,2.784323692E-2,-4.590153694E-3,6.502151489E-2
1.049322710E1,3.742003441E-2,-6.984353065E-3,8.417510986E-2
1.049524132E1,3.502583504E-2,-2.195954323E-3,7.220458984E-2
1.050323609E1,3.522944450E-2,1.251602173E-2,7.174873352E-2
1.051123147E1,2.850222588E-2,7.591247559E-4,6.175518036E-2
1.051922838E1,2.681040764E-2,5.687355995E-3,3.744316101E-2
1.052722315E1,4.226183891E-2,1.308917999E-2,3.477859497E-2
1.053524991E1,6.527948380E-2,1.325213909E-2,2.740764618E-2
1.054324460E1,2.632641792E-2,2.057647705E-2,2.727985382E-2
1.055124036E1,1.413583755E-2,2.316284180E-2,1.289367676E-2
1.055923689E1,-1.446652412E-2,1.867151260E-2,3.691005707E-2
1.056723173E1,-4.548883438E-2,-2.453207970E-3,5.375862122E-2
1.057522773E1,-6.000709534E-2,-4.526376724E-3,5.616760254E-2
1.058322303E1,-6.262016296E-2,2.923369408E-2,4.418277740E-2
1.059124894E1,-2.230525017E-2,1.751136780E-2,3.216075897E-2
1.059924248E1,3.231954575E-2,1.128673553E-3,5.605888367E-2
1.060724024E1,3.895998001E-2,8.694052696E-3,6.317329407E-2
1.061523654E1,2.157998085E-2,-4.139423370E-2,4.390716553E-2
1.062323108E1,-2.864837646E-3,6.546735764E-3,3.901100159E-2
1.063122638E1,-1.784944534E-2,3.060841560E-2,1.733875275E-2
1.063922337E1,-1.598453522E-2,4.285740852E-2,3.162384033E-2
1.064724883E1,3.433227539E-4,4.575395584E-2,2.872467041E-3
1.065524397E1,-2.627825737E-2,-1.320803165E-2,2.927970886E-2
1.066323989E1,6.941795349E-3,3.820693493E-2,3.178119659E-2
1.067123473E1,1.154112816E-2,1.077604294E-2,7.982063293E-2
1.067923219E1,6.845712662E-3,2.379179001E-3,5.368804932E-2
1.068722610E1,2.405691147E-2,6.336665154E-2,-5.887031555E-3
1.069522264E1,4.131007195E-2,4.073572159E-2,-7.820129395E-4
1.070324786E1,9.436607361E-4,-5.676388741E-3,1.216278076E-1
1.071124301E1,-6.103515625E-2,-2.588307858E-2,1.386585236E-1
1.071924054E1,-4.353594780E-2,2.545273304E-2,5.040645599E-2
1.072723492E1,-3.315496445E-2,-1.199376583E-2,7.945728302E-2
1.073523153E1,-1.318264008E-2,-1.379716396E-2,7.494926453E-2
1.074322629E1,1.202702522E-2,5.733251572E-3,6.811904907E-2
1.075122144E1,3.991055489E-2,-8.247256279E-3,3.980636597E-2
1.075924874E1,2.696180344E-2,-2.229773998E-2,4.257774353E-2
1.076724412E1,-1.008224487E-2,-5.120527744E-2,8.115005493E-2
1.077523950E1,-3.065419197E-2,-3.752732277E-2,1.123943329E-1
1.078323457E1,-2.264404297E-2,-5.300402641E-3,6.929016113E-2
1.079123118E1,-1.238203049E-2,-9.292840958E-3,5.722999573E-2
1.079922810E1,-3.836846352E-2,-5.178511143E-2,1.025238037E-1
1.080722171E1,-4.092264175E-2,-6.123185158E-2,6.622219086E-2
1.081524839E1,-3.180885315E-2,5.111956596E-2,-3.713607788E-3
1.082324385E1,-1.094770432E-2,5.589413643E-2,5.331993103E-3
1.083123884E1,1.687765121E-2,2.013313770E-2,2.153587341E-2
1.083523638E1,1.635289192E-2,2.806746960E-2,-5.174636841E-3
1.083721945E1,2.592968941E-2,6.876897812E-2,-7.939529419E-2
1.083923268E1,2.592968941E-2,6.876897812E-2,-7.939529419E-2
1.084722991E1,4.485440254E-2,2.690172195E-2,5.684280396E-2
1.085522621E1,1.234881878E-1,-9.659278393E-2,1.092147827E-1
1.086322159E1,4.269361496E-2,-5.547988415E-2,1.593294144E-1
1.087124774E1,-1.129627228E-2,7.379996777E-2,-1.137266159E-1
1.087924381E1,2.585577965E-2,1.390973330E-1,-1.855316162E-1
1.088723849E1,-4.031896591E-2,1.644062996E-2,-3.218746185E-2
1.089523449E1,-2.151172161E-1,-2.130270004E-4,1.761198044E-1
1.090322987E1,-2.301423550E-1,-1.278146505E-1,2.883844376E-1
1.091122532E1,-1.546230316E-1,4.554438591E-2,-8.079242706E-2
1.091922255E1,-7.759571075E-3,2.024564743E-1,-1.938543320E-1
1.092724685E1,1.280877590E-1,-6.591820717E-2,1.190538406E-1
1.093524307E1,1.348166466E-1,-5.182754993E-2,1.327180862E-1
1.094323784E1,1.454989910E-1,1.128913164E-1,-9.031295776E-2
1.095123329E1,1.641507149E-1,2.772688866E-3,-1.620674133E-2
1.095923021E1,4.416513443E-2,-5.669629574E-2,7.476806641E-2
1.096722497E1,-5.125880241E-2,7.294201851E-2,-5.199050903E-2
1.097522128E1,-1.488947868E-2,3.519451618E-2,6.791019440E-2
1.098324650E1,-1.948285103E-2,-9.601116180E-2,1.278820038E-1
1.099124180E1,-2.835655212E-2,5.763268471E-2,-4.188060760E-2
1.099923880E1,1.550650597E-2,8.946371078E-2,-5.595970154E-2
1.100723348E1,-8.432865143E-4,-3.277063370E-4,6.641960144E-2
1.101522978E1,-6.983232498E-2,1.527965069E-2,1.337490082E-1
1.102322462E1,-1.004724503E-1,1.836776733E-3,7.654190063E-2
1.103122023E1,-3.301095963E-2,7.564306259E-3,4.326438904E-2
1.103924730E1,1.259160042E-2,-1.048111916E-2,3.627777100E-2
1.104724214E1,2.455949783E-2,5.768680573E-2,7.719993591E-3
1.105523845E1,7.540464401E-2,8.789920807E-2,-1.346969604E-2
1.106323375E1,1.005504131E-1,1.597703695E-1,-6.309318542E-2
1.107122913E1,7.858920097E-2,1.924190521E-1,-8.118534088E-2
1.107922274E1,9.859657288E-2,1.074095964E-1,-3.880786896E-2
1.108721965E1,5.055022240E-2,-1.427388191E-2,1.133155823E-2
1.109524634E1,-2.984499931E-2,8.133769035E-3,1.154422760E-2
1.110324233E1,-8.594608307E-2,-1.734304428E-2,2.621555328E-2
1.111123717E1,-1.306853294E-1,-5.029320717E-2,1.916122437E-2
1.111923378E1,-2.025775909E-1,-6.963372231E-3,7.083892822E-3
1.112722855E1,-2.132689953E-1,-1.164686680E-2,7.375621796E-2
1.113522477E1,-1.369049549E-1,-1.341649294E-1,1.591444016E-1
1.114321930E1,-4.735755920E-2,-1.479310989E-1,2.033348083E-1
1.115124576E1,3.942322731E-2,-8.192658424E-2,1.178884506E-1
1.115924260E1,1.597545147E-1,-1.457273960E-2,2.031230927E-2
1.116723713E1,1.605076790E-1,-9.874582291E-3,2.325820923E-2
1.117523282E1,9.917688370E-2,-5.106878281E-2,7.406234741E-2
1.118322820E1,9.719848633E-3,-3.294503689E-2,7.703876495E-2
1.119122442E1,-5.058670044E-2,1.770138741E-3,8.008766174E-2
1.119925034E1,-1.518039703E-1,-2.836346626E-2,6.150627136E-2
1.120724564E1,-1.747758389E-1,-2.496564388E-2,5.232334137E-2
1.121524110E1,-2.322516441E-1,-5.785012245E-2,1.242494583E-1
1.122323671E1,-2.141551971E-1,-3.391516209E-2,7.850742340E-2
1.123123247E1,-1.252768040E-1,3.048801422E-2,3.966236115E-2
1.123922939E1,-6.482124329E-3,3.021883965E-2,6.277656555E-2
1.124722407E1,1.216154099E-1,8.788943291E-3,1.122283936E-1
1.125522068E1,2.460029125E-1,-2.741694450E-3,7.579517365E-2
1.126324537E1,2.373139858E-1,-3.832101822E-2,1.324558258E-2
1.127124075E1,1.741166115E-1,3.865039349E-2,-4.916954041E-2
1.127923828E1,7.806444168E-2,-1.346850395E-2,4.662227631E-2
1.128723212E1,-5.125570297E-2,-6.308031082E-2,4.911804199E-2
1.129522873E1,-1.467621326E-1,4.566669464E-3,9.476757050E-2
1.130322372E1,-1.709704399E-1,-9.834790230E-2,1.354131699E-1
1.131124902E1,-1.432340145E-1,4.232048988E-3,2.737903595E-2
1.131924379E1,-1.234967709E-1,9.985613823E-2,-1.717901230E-1
1.132724094E1,-1.071422100E-1,2.374124527E-2,3.832435608E-2
1.133523732E1,-1.326005459E-1,-6.190586090E-2,1.141099930E-1
1.134323239E1,-1.082231998E-1,2.894639969E-3,3.410625458E-2
1.135122715E1,2.836537361E-2,2.702808380E-2,-1.244258881E-2
1.135922399E1,1.095263958E-1,-5.150246620E-2,6.068134308E-2
1.136724952E1,1.503975391E-1,-4.148614407E-2,7.643795013E-2
1.137524559E1,1.732826233E-1,1.381421089E-2,2.300262451E-2
1.138324128E1,1.709871292E-1,4.538643360E-2,1.536083221E-2
1.139123597E1,1.334259510E-1,-1.823067665E-3,3.663730621E-2
1.139923296E1,5.346226692E-2,-2.737104893E-2,6.527519226E-2
1.140722765E1,-6.581068039E-3,-1.722037792E-2,6.053733826E-2
1.141522279E1,-6.882262230E-2,1.172697544E-2,1.747894287E-2
1.142324925E1,-1.142687798E-1,2.415740490E-2,-1.116657257E-2
1.143124370E1,-1.578662395E-1,1.037442684E-2,3.190803528E-2
1.143924093E1,-1.711325645E-1,-1.533794403E-2,8.198833466E-2
1.144723569E1,-1.323249340E-1,6.527900696E-3,3.850650787E-2
1.145523230E1,-8.940124512E-2,2.344608307E-2,5.230617523E-2
1.146322645E1,9.138584137E-4,-4.978895187E-3,3.249740601E-2
1.147122268E1,5.529236794E-2,7.362246513E-3,6.297302246E-2
1.147924982E1,7.628321648E-2,-6.739020348E-3,8.149051666E-2
1.148724420E1,8.356928825E-2,-4.089832306E-3,4.748821259E-2
1.149524027E1,7.502651215E-2,5.941271782E-3,4.246139526E-2
1.150323557E1,7.682251930E-2,-2.721071243E-2,6.871986389E-2
1.151123157E1,5.297231674E-2,-4.145622253E-2,5.200195312E-2
1.151922756E1,4.132175446E-2,4.462480545E-2,8.961677551E-3
1.152722210E1,5.865812302E-3,7.374107838E-2,-2.199554443E-2
1.153525001E1,-1.746773720E-2,-6.445169449E-3,3.819942474E-2
1.154324454E1,-4.330730438E-2,-2.897167206E-2,5.051612854E-2
1.155123985E1,-7.889413834E-2,-3.967857361E-2,6.277084351E-2
1.155722023E1,-3.355479240E-2,-1.980745792E-2,6.524848938E-2
1.155923338E1,-3.355479240E-2,-1.980745792E-2,6.524848938E-2
1.156723091E1,-2.932000160E-2,-4.829061031E-2,7.952690125E-2
1.157522660E1,-1.098513603E-2,-5.569744110E-2,8.887958527E-2
1.158322198E1,2.160406113E-2,-5.407857895E-2,6.699085236E-2
1.159124782E1,2.302432060E-2,-3.613483906E-2,6.177997589E-2
1.159924450E1,2.694630623E-2,1.754474640E-2,2.304649353E-2
1.160723919E1,1.920413971E-2,2.359592915E-2,2.033805847E-2
1.161523549E1,-3.854513168E-2,-1.550841331E-2,3.450679779E-2
1.162323087E1,-1.036019325E-1,-6.592035294E-3,4.627513885E-2
1.163122540E1,-1.428549290E-1,4.696846008E-5,3.639221191E-2
1.163922263E1,-1.446301937E-1,2.107715607E-2,2.632522583E-2
1.164724808E1,-8.493137360E-2,2.547025681E-2,5.919647217E-2
1.165524408E1,-6.653738022E-2,-1.065766811E-2,6.083488464E-2
1.166323892E1,3.750681877E-2,-6.151080132E-3,-2.145576477E-2
1.167123514E1,1.172473431E-1,-7.861566544E-2,1.786298752E-1
1.167923175E1,1.877665520E-1,-8.481156826E-2,3.151512146E-2
1.168722590E1,1.925613880E-1,-3.945827484E-4,8.814430237E-2
1.169522128E1,1.960017681E-1,-7.099151611E-3,-1.058578491E-3
1.170324689E1,1.337480545E-1,1.015545130E-1,-1.593179703E-1
1.171124311E1,2.428150177E-2,1.011545658E-1,-9.937667847E-2
1.171923949E1,-1.259856224E-1,-1.816004515E-1,2.526597977E-1
1.172723425E1,-2.116770744E-1,-7.984161377E-2,1.711759567E-1
1.173523056E1,-1.394674778E-1,1.605597734E-1,-2.287988663E-1
1.174322524E1,-6.384849548E-3,1.643323898E-2,4.383945465E-2
1.175122093E1,1.560187340E-2,-1.829566956E-1,2.563714981E-1
1.175924831E1,9.229898453E-3,-7.634043694E-3,6.896591187E-2
1.176724276E1,1.446835995E-1,1.050680876E-1,-8.724594116E-2
1.177523876E1,1.676669121E-1,-1.399111748E-2,3.435897827E-2
1.178323360E1,4.741048813E-2,-5.152297020E-2,1.010122299E-1
1.179122952E1,-3.142666817E-2,2.794897556E-2,4.088401794E-2
1.179724128E1,-3.580880165E-2,5.736875534E-2,-3.591346741E-2
1.179922343E1,-3.580880165E-2,5.736875534E-2,-3.591346741E-2
1.180722004E1,-9.071278572E-2,6.360673904E-2,-5.039310455E-2
1.181524765E1,-1.631159782E-1,-2.047550678E-2,9.787082672E-2
1.182324218E1,-1.430630684E-1,-9.293174744E-2,1.668634415E-1
1.183123818E1,-8.243060112E-2,1.126050949E-2,3.702640533E-2
1.183923509E1,4.026007652E-2,9.399473667E-2,-1.000204086E-1
1.184722916E1,1.000111103E-1,-2.191901207E-3,2.300262451E-3
1.185522585E1,9.980273247E-2,-5.045330524E-2,1.189708710E-1
1.186322092E1,4.993510246E-2,-4.182684422E-2,9.922027588E-2
1.187124707E1,4.647350311E-2,1.205968857E-2,4.851245880E-2
1.187924337E1,6.065249443E-2,3.833532333E-3,2.814292908E-3
1.188723814E1,7.288575172E-2,1.509881020E-2,1.951885223E-2
1.189523413E1,6.385517120E-2,4.941463470E-3,6.503868103E-2
1.190322943E1,4.559516907E-2,-1.001203060E-2,4.599094391E-2
1.191122489E1,2.038216591E-2,1.335620880E-3,3.656673431E-2
1.191922088E1,-1.688861847E-2,-4.300236702E-3,5.581760406E-2
1.192724641E1,-4.727172852E-2,-1.979422569E-2,1.012935638E-1
1.193524241E1,-4.681324959E-2,-4.059016705E-2,7.719230652E-2
1.194323771E1,-2.478456497E-2,-4.979777336E-2,5.542945862E-2
1.195123247E1,4.263210297E-2,-2.096307278E-2,8.627510071E-2
1.195922970E1,7.911086082E-2,-5.219495296E-2,7.403373718E-2
1.196722392E1,1.254532337E-1,-2.290964127E-3,4.266071320E-2
1.197522015E1,1.318397522E-1,1.158273220E-2,5.692863464E-2
1.198324637E1,9.361290932E-2,1.442432404E-3,-1.241302490E-2
1.199124229E1,2.517747879E-2,3.955972195E-2,-5.036258698E-2
1.199923836E1,-9.092569351E-2,6.182312965E-3,-9.201049805E-3
1.200723343E1,-1.932940483E-1,-1.510107517E-2,4.859828949E-2
1.201522943E1,-2.677733898E-1,9.158134460E-3,3.199672699E-2
1.202322326E1,-2.711827755E-1,4.807662964E-2,2.724170685E-2
1.203124995E1,-2.322893143E-1,2.258682251E-2,7.262039185E-2
1.203723033E1,-1.465249062E-1,3.323161602E-2,8.668231964E-2
1.203924410E1,-1.465249062E-1,3.323161602E-2,8.668231964E-2
1.204724109E1,-1.612901688E-2,1.029837132E-2,9.096145630E-2
1.205523770E1,1.405589581E-1,1.599001884E-2,8.563899994E-2
1.206323239E1,2.092134953E-1,1.948726177E-2,3.019523621E-2
1.207122785E1,1.881451607E-1,3.752541542E-2,6.188392639E-3
1.207922507E1,1.392869949E-1,-2.565431595E-2,3.988361359E-2
1.208721891E1,3.155112267E-2,-7.633209229E-3,3.306770325E-2
1.209524590E1,-3.710889816E-2,1.534759998E-2,1.927185059E-2
1.210324221E1,-7.944226265E-2,2.428233624E-2,-4.051208496E-3
1.211123666E1,-1.367943287E-1,2.870392799E-2,-1.550960541E-2
1.211923358E1,-1.928207874E-1,1.408517361E-2,1.829719543E-2
1.212722803E1,-2.118935585E-1,1.132571697E-2,5.656623840E-2
1.213522503E1,-1.890451908E-1,-1.325607300E-3,1.040954590E-1
1.214321918E1,-1.431083679E-1,-3.813827038E-2,9.632873535E-2
1.215124555E1,-5.492901802E-2,-1.777768135E-2,6.438255310E-2
1.215924193E1,9.954428673E-2,-3.115999699E-2,6.335926056E-2
1.216723600E1,2.014687061E-1,-3.301250935E-2,4.074764252E-2
1.217523238E1,2.468570471E-1,-3.939390182E-3,4.944324493E-2
1.218322745E1,2.619980574E-1,-4.695260525E-2,9.420967102E-2
1.219122314E1,1.488256454E-1,1.276981831E-2,-9.276390076E-3
1.219922067E1,1.035714149E-2,6.080782413E-2,-7.137298584E-3
1.220724490E1,-4.130721092E-2,2.073431015E-2,2.154922485E-2
1.221524120E1,-1.479344368E-1,6.036102772E-2,-2.624797821E-2
1.222323565E1,-1.834347248E-1,1.153684855E-1,-7.883548737E-2
1.223123203E1,-1.867005825E-1,-1.023131609E-1,2.968845367E-1
1.223922795E1,-1.669468880E-1,-1.246834993E-1,1.814308167E-1
1.224722341E1,-6.491589546E-2,1.663227081E-1,-1.565256119E-1
1.225525017E1,1.372933388E-1,1.424976587E-1,-1.831369400E-1
1.226324493E1,1.092941761E-1,-8.350050449E-2,8.964920044E-2
1.227124085E1,4.853892326E-2,-4.148936272E-2,9.922409058E-2
1.227923408E1,1.950287819E-2,-1.434588432E-2,7.294368744E-2
1.228723099E1,5.066776276E-2,-3.308820724E-2,4.667949677E-2
1.229522791E1,3.426241875E-2,5.520462990E-3,3.004550934E-2
1.230322213E1,5.594682693E-2,-6.361365318E-3,6.600379944E-2
1.231124851E1,3.683876991E-2,-2.573943138E-2,1.162576675E-1
1.231924551E1,-2.275633812E-2,-1.209318638E-2,8.986854553E-2
1.232724019E1,-4.397559166E-2,1.090037823E-2,7.064437866E-2
1.233523626E1,-1.376464367E-1,-2.387332916E-2,7.277965546E-2
1.234323164E1,-1.171228886E-1,1.039862633E-3,5.078220367E-2
1.235122694E1,-7.802295685E-2,2.111744881E-2,5.498409271E-2
1.235922332E1,-6.093382835E-2,2.888917923E-3,1.838207245E-2
1.236724793E1,-1.279044151E-2,5.453741550E-2,8.168220520E-3
1.237524516E1,4.092693329E-3,2.283215523E-2,4.348182678E-2
1.238323954E1,-1.492214203E-2,8.104920387E-3,3.813266754E-2
1.239123530E1,-2.624511719E-3,5.098617077E-2,-4.376697540E-2
1.239923252E1,-1.712393761E-2,-5.457127094E-2,1.447763443E-1
1.240722660E1,1.486539841E-3,-1.128249168E-1,1.392107010E-1
1.241522320E1,3.980827332E-2,7.514834404E-2,-8.176517487E-2
1.242324812E1,8.104085922E-2,1.056789160E-1,-1.086082458E-1
1.243124381E1,9.829497337E-2,-2.849781513E-2,7.051849365E-2
1.243924073E1,1.298761368E-2,-2.151894569E-2,1.036701202E-1
1.244723487E1,-3.578519821E-2,6.696164608E-2,-7.850360870E-2
1.245523064E1,-1.976871490E-2,4.825592041E-2,5.308055878E-2
1.246322625E1,6.337165833E-4,-7.572066784E-2,1.414909363E-1
1.247122109E1,-3.153586388E-2,1.054549217E-2,2.634811401E-2
1.247924908E1,3.010678291E-2,7.291972637E-2,-3.841114044E-2
1.248724384E1,4.389238358E-2,1.122236252E-2,2.379322052E-2
1.249524007E1,2.448844910E-2,-4.065513611E-2,1.052618027E-1
1.250323483E1,-6.622791290E-3,-1.142871380E-2,5.985164642E-2
1.251123029E1,-6.548404694E-3,3.923451900E-2,2.161979675E-2
1.251922405E1,-2.323055267E-2,8.821964264E-3,3.371524811E-2
1.252722220E1,-4.719972610E-2,1.677095890E-2,4.819202423E-2
1.253524742E1,-4.738903046E-2,5.836486816E-4,4.344844818E-2
1.254324342E1,-2.630615234E-2,1.000881195E-3,3.862094879E-2
1.255123787E1,-1.516842842E-2,-8.257985115E-3,3.369617462E-2
1.255923571E1,-8.869886398E-3,3.831863403E-3,4.070091248E-2
1.256718884E1,-1.218986511E-2,-8.135080338E-3,3.570747375E-2
1.257518459E1,-3.692626953E-3,6.058573723E-3,3.304767609E-2
1.258317988E1,-1.934051514E-2,-3.573656082E-3,2.557277679E-2
1.259120571E1,-3.048968315E-2,-1.325082779E-2,3.957462311E-2
1.259920208E1,-3.490138054E-2,-1.580333710E-2,6.783485413E-2
1.260719676E1,-1.309299469E-2,1.507270336E-2,6.014251709E-2
1.261519374E1,1.494169235E-3,1.241195202E-2,5.722808838E-2
1.262318872E1,1.869511604E-2,2.897119522E-2,1.606559753E-2
1.263118348E1,2.178263664E-2,3.397381306E-2,3.752708435E-3
1.263918038E1,1.307106018E-2,1.299309731E-2,3.223419189E-2
1.264720537E1,6.928443909E-3,-7.863998413E-3,6.077194214E-2
1.265520197E1,1.052355766E-2,-7.278800011E-3,8.214569092E-2
1.266319703E1,4.787945747E-2,2.750873566E-3,3.172874451E-2
1.267119240E1,5.708408356E-2,8.703470230E-4,2.995491028E-3
1.267918923E1,2.359700203E-2,-5.692124367E-3,2.943325043E-2
1.268718313E1,2.160549164E-3,3.318607807E-2,3.433322906E-2
1.269518027E1,-1.451182365E-2,3.625082970E-2,2.727317810E-2
1.270320518E1,-6.463527679E-2,-1.184582710E-3,5.617046356E-2
1.271120086E1,-5.979275703E-2,-7.654309273E-3,6.108093262E-2
1.271919776E1,1.680302620E-2,2.572655678E-3,5.159854889E-2
1.272719229E1,5.739641190E-2,3.181219101E-3,1.336193085E-2
1.273518758E1,6.199860573E-2,-5.839228630E-3,4.213714600E-2
1.274318302E1,5.733513832E-2,-1.742708683E-2,6.616497040E-2
1.275117901E1,2.908468246E-2,-7.774829865E-3,5.909824371E-2
1.275920299E1,2.002000809E-2,1.475930214E-3,6.155586243E-2
1.276720051E1,-3.294467926E-3,-8.558154106E-3,5.204677582E-2
1.277519619E1,-4.102182388E-2,-4.305124283E-3,4.251480103E-2
1.278319210E1,-9.118199348E-2,-2.478003502E-3,6.639575958E-2
1.279118723E1,-1.110005379E-1,8.753061295E-3,5.655956268E-2
1.279918406E1,-1.216011047E-1,-1.116633415E-2,5.382251740E-2
1.280717882E1,-8.241558075E-2,1.689004898E-2,2.705097198E-2
1.281520534E1,-7.731676102E-3,9.099841118E-3,4.568767548E-2
1.282320040E1,5.949854851E-2,-1.538693905E-2,3.793907166E-2
1.283119546E1,1.006183624E-1,2.227342129E-2,1.346588135E-2
1.283919291E1,8.954310417E-2,1.934921741E-2,1.305675507E-2
1.284718735E1,7.883048058E-2,3.097450733E-2,1.754379272E-2
1.285518311E1,3.503894806E-2,-1.468169689E-2,5.567359924E-2
1.286317778E1,3.471374512E-3,-3.888988495E-2,5.553627014E-2
1.287120369E1,-3.949880600E-3,3.866553307E-3,5.064296722E-2
1.287920121E1,2.717089653E-2,1.791274548E-2,5.059337616E-2
1.288719474E1,1.531934738E-2,5.680322647E-3,8.409881592E-2
1.289519249E1,-2.541971207E-2,1.009333134E-2,2.657318115E-2
1.290318663E1,-3.259754181E-2,4.850506783E-3,2.411079407E-2
1.291118176E1,-7.844090462E-2,1.999497414E-3,4.311752319E-2
1.291917859E1,-5.753350258E-2,-2.490901947E-2,6.922626495E-2
1.292720350E1,-2.256441116E-2,-8.884191513E-3,4.736042023E-2
1.293520041E1,-9.324312210E-3,1.182961464E-2,3.741168976E-2
1.294319547E1,3.928899765E-3,2.060425282E-2,2.507495880E-2
1.295119084E1,3.157997131E-2,-1.617729664E-2,3.907299042E-2
1.295918867E1,4.965353012E-2,-5.193471909E-3,4.587078094E-2
1.296718134E1,3.654408455E-2,-1.536250114E-3,6.699848175E-2
1.297517848E1,2.322220802E-2,1.630508900E-2,3.777503967E-2
1.298320370E1,-6.751775742E-3,1.257562637E-2,3.011989594E-2
1.299119945E1,-1.995277405E-2,4.052281380E-3,2.964973450E-2
1.299717944E1,-2.098560333E-3,-2.142906189E-3,5.788516998E-2
1.299919290E1,-2.098560333E-3,-2.142906189E-3,5.788516998E-2
1.300718980E1,-2.015924454E-2,-3.486752510E-3,7.415962219E-2
1.301518648E1,-1.394152641E-2,3.106904030E-2,2.346706390E-2
1.302318092E1,-7.435083389E-3,9.718692303E-2,4.027366638E-3
1.303117683E1,1.139378548E-2,1.353635788E-1,-1.732339859E-1
1.303920451E1,-1.754069328E-2,8.372163773E-2,4.953861237E-2
1.304719834E1,-2.056360245E-2,-1.352616549E-1,2.483158112E-1
1.305519586E1,2.017998695E-2,1.373744011E-2,1.806259155E-3
1.306319008E1,1.215572357E-1,1.269155741E-1,-1.224155426E-1
1.307118598E1,1.437575817E-1,2.316498756E-2,-6.457328796E-2
1.307918227E1,5.642795563E-2,2.559018135E-2,4.380702972E-2
1.308717587E1,-2.048659325E-2,6.799101830E-3,8.298683167E-2
1.310319853E1,-1.051254272E-1,-1.342364550E-1,3.120555878E-1
1.311119367E1,-2.842831612E-2,-1.744948626E-1,4.132204056E-1
1.311919027E1,1.987625360E-1,-1.329848766E-1,3.948125839E-1
1.312718533E1,3.411803246E-1,-8.323311806E-2,1.777944565E-1
1.313518124E1,4.037289619E-1,1.367866993E-2,3.283500671E-2
1.314317661E1,3.850357533E-1,4.797899723E-2,-1.097412109E-1
1.315120213E1,2.539662123E-1,1.113616228E-1,-1.780033112E-1
1.315919935E1,1.218724251E-2,9.375643730E-2,-7.819652557E-2
1.316719410E1,-3.246943951E-1,9.741783142E-3,-4.703044891E-2
1.317519008E1,-5.645792484E-1,5.561995506E-2,-3.942108154E-2
1.318318514E1,-7.069144249E-1,7.787084579E-2,-4.918384552E-2
1.319118020E1,-7.270576954E-1,2.589309216E-2,4.109573364E-2
1.319920765E1,-7.074065208E-1,-1.683676243E-2,7.127380371E-2
1.320720179E1,-6.077065468E-1,-9.756684303E-3,1.082611084E-1
1.321519808E1,-4.266686440E-1,-1.985847950E-2,1.158933640E-1
1.322319337E1,-1.871392727E-1,-2.522659302E-2,4.604339600E-2
1.323118843E1,1.712155342E-2,3.305792809E-3,-6.540012360E-2
1.323720073E1,2.145864964E-1,-3.473234177E-2,8.970260620E-3
1.323918234E1,2.528936863E-1,-3.473234177E-2,8.970260620E-3
1.324718009E1,4.288105965E-1,-7.278811932E-2,2.773475647E-2
1.325517577E1,5.873004198E-1,-1.067185402E-2,1.093482971E-2
1.326320160E1,7.030167580E-1,1.834368706E-2,-5.067157745E-2
1.327119697E1,6.517634392E-1,1.451194286E-2,-7.612228394E-2
1.327919457E1,4.740792513E-1,3.972721100E-2,-7.508277893E-2
1.328718801E1,2.695399523E-1,4.133772850E-2,-4.244613647E-2
1.329518523E1,5.771875381E-3,3.330564499E-2,3.395271301E-2
1.330317998E1,-1.522755623E-1,2.541851997E-2,7.747364044E-2
1.331120589E1,-2.253055573E-1,-1.596844196E-2,4.465675354E-2
1.331920210E1,-2.717695236E-1,3.115856647E-2,-1.924133301E-2
1.332719716E1,-2.260551453E-1,5.462133884E-2,-3.308868408E-2
1.333519323E1,-1.915946007E-1,3.529679775E-2,2.216434479E-2
1.334318829E1,-1.651842594E-1,2.093243599E-2,8.203697205E-2
1.335118427E1,-1.228106022E-1,1.131093502E-2,8.665657043E-2
1.335917995E1,-4.041552544E-2,2.794218063E-2,5.998611450E-2
1.336720578E1,1.770424843E-2,2.073419094E-2,7.156372070E-2
1.337520138E1,7.319355011E-2,-5.578875542E-3,5.675888062E-2
1.338319705E1,1.075134277E-1,-8.124828339E-3,5.398464203E-2
1.339119211E1,1.187169552E-1,-1.097083092E-3,2.505970001E-2
1.339918964E1,9.006476402E-2,8.408188820E-3,1.070117950E-2
1.340718377E1,3.804588318E-2,-3.600001335E-3,1.563072205E-2
1.341517984E1,-2.820992470E-2,-1.102924347E-3,8.639335632E-3
1.342320567E1,-7.311320305E-2,2.528774738E-2,2.074909210E-2
1.343120034E1,-1.185865402E-1,1.097834110E-2,6.146240234E-2
1.343919663E1,-1.097042561E-1,2.078020573E-2,4.458045959E-2
1.344719146E1,-9.411144257E-2,4.502952099E-2,8.451461792E-3
1.345518737E1,-3.323149681E-2,3.135085106E-2,1.782226562E-2
1.346318366E1,1.999473572E-2,-2.276778221E-2,4.628086090E-2
1.347117911E1,1.787352562E-2,-6.979060173E-2,9.142112732E-2
1.347920309E1,6.137084961E-2,-2.161037922E-2,7.186698914E-2
1.348720000E1,6.502413750E-2,-4.837870598E-3,6.443309784E-2
1.349519652E1,4.277944565E-2,-6.830692291E-5,9.206771851E-3
1.350319197E1,2.110171318E-2,2.893602848E-2,4.430770874E-3
1.351118757E1,-2.916383743E-2,-1.132476330E-2,4.041099548E-2
1.351918424E1,-5.825734138E-2,-8.612394333E-3,3.558921814E-2
1.352717807E1,-4.926681519E-2,2.282118797E-2,4.747390747E-2
1.353520483E1,-1.415801048E-2,2.072954178E-2,4.494571686E-2
1.354320012E1,-7.488727570E-4,2.073168755E-3,3.762245178E-2
1.355119618E1,7.867813110E-3,2.506732941E-3,6.620311737E-2
1.355919186E1,-5.164861679E-3,-2.843058109E-2,7.796573639E-2
1.356718684E1,-5.836725235E-3,-1.663696766E-2,7.779026031E-2
1.357518228E1,1.027965546E-2,3.090071678E-2,3.450012207E-2
1.358317858E1,-3.349375725E-2,2.334523201E-2,5.105400085E-2
1.359120348E1,-5.094051361E-2,1.341843605E-2,3.169536591E-2
1.359920070E1,-4.469943047E-2,1.144886017E-3,5.777931213E-2
1.360719514E1,-9.994506836E-3,-8.792519569E-3,3.351497650E-2
1.361519144E1,2.694034576E-2,-4.429697990E-3,3.554153442E-2
1.362318619E1,3.292870522E-2,-1.216912270E-2,5.674362183E-2
1.363118148E1,2.228474617E-2,-5.751609802E-3,5.878829956E-2
1.363917877E1,2.402925491E-2,-1.866412163E-2,7.047748566E-2
1.364720360E1,1.867651939E-2,-1.975834370E-2,1.013164520E-1
1.365520051E1,-2.012157440E-2,-2.372562885E-2,1.009769440E-1
1.366319503E1,-4.453063011E-2,-4.013335705E-2,1.580343246E-1
1.367119063E1,-8.607292175E-2,-9.315514565E-2,2.484273911E-1
1.367918669E1,-8.679485321E-2,-8.275103569E-2,2.333250046E-1
1.368718175E1,-4.124832153E-2,-5.182158947E-2,1.703643799E-1
1.369517797E1,-1.225805283E-2,-1.907479763E-2,2.596473694E-2
1.370320349E1,-5.805969238E-2,4.005384445E-2,-1.161565781E-1
1.371119863E1,-8.569931984E-2,1.237598658E-1,-2.320680618E-1
1.371919269E1,-1.405036449E-1,1.442040205E-1,-2.354326248E-1
1.372718967E1,-1.480159760E-1,1.229273081E-1,-1.525392532E-1
1.373518681E1,-1.560823917E-1,1.245050430E-1,-1.318311691E-1
1.374318095E1,-1.618437767E-1,1.824692488E-1,-1.755952835E-1
1.375117693E1,-1.080384254E-1,2.156056166E-1,-1.761093140E-1
1.375920407E1,-9.926319122E-3,1.116563082E-1,-4.015731812E-2
1.376719844E1,1.157062054E-1,4.485428333E-2,1.579599380E-1
1.377519450E1,1.679199934E-1,5.095720291E-3,3.611507416E-1
1.378318979E1,2.314447165E-1,-8.521556854E-3,2.797851562E-1
1.379118462E1,2.949442863E-1,8.668065071E-3,9.594058990E-2
1.379918184E1,2.952761650E-1,-1.739442348E-2,9.675121307E-2
1.380717621E1,1.686588526E-1,-1.536244154E-1,7.173061371E-2
1.381520242E1,-5.179858208E-2,1.317707300E-1,6.871795654E-2
1.382319840E1,-1.201782227E-1,3.602759838E-1,1.666231155E-1
1.383119339E1,-1.516973972E-1,2.487913370E-1,6.050729752E-1
1.383919099E1,-2.096145153E-1,-2.964818478E-2,9.008541107E-1
1.384718443E1,-2.606072426E-1,-2.900185585E-1,9.943532944E-1
1.385518111E1,-4.083423615E-1,-3.248934746E-1,9.567651749E-1
1.386317579E1,-8.156838417E-1,-1.964021921E-1,6.980762482E-1
1.387120138E1,-1.098994255E0,-2.475452423E-1,3.039474487E-1
1.387919945E1,-1.607940197E0,-2.488466501E-1,-2.883501053E-1
1.388719297E1,-2.401130199E0,-2.920196056E-1,1.823892593E-1
1.389518934E1,-3.827147245E0,-5.347065926E-1,2.701501846E-1
1.390318471E1,-5.003861427E0,-1.060965419E0,-6.761360168E-2
1.391118038E1,-5.331468582E0,-1.435536981E0,-3.877077103E-1
1.391917721E1,-4.469247818E0,-1.669358969E0,-5.720558167E-1
1.392720212E1,-3.285882235E0,-1.863490224E0,-3.469152451E-1
1.393519780E1,-2.347602606E0,-1.705981016E0,-3.320045471E-1
1.394319293E1,-1.996646881E0,-1.152118564E0,-4.175167084E-1
1.395118800E1,-1.937398195E0,-4.084286690E-1,-4.539041519E-1
1.395518606E1,-1.892801285E0,-1.036237478E-1,-4.091262817E-1
1.395719998E1,-1.921531677E0,2.626891136E-1,-5.719318390E-1
1.395918236E1,-1.921531677E0,2.626891136E-1,-5.719318390E-1
1.396717904E1,-1.774297237E0,5.929697156E-1,-6.873044968E-1
1.397517595E1,-1.328742981E0,7.085586190E-1,-6.428556442E-1
1.398320109E1,-8.950929642E-1,6.028017998E-1,-6.317024231E-1
1.399119676E1,-5.490968227E-1,3.070591092E-1,-6.506080627E-1
1.399919344E1,-4.066963196E-1,7.867217064E-3,-7.881402969E-1
1.400718758E1,-4.063820839E-1,-1.539556980E-1,-9.549407959E-1
1.401518441E1,-4.639184475E-1,-2.098370790E-1,-1.079124451E0
1.402318008E1,-4.454107285E-1,-1.633090973E-1,-1.093423843E0
1.403117491E1,-2.673394680E-1,-1.078213453E-1,-9.518976212E-1
1.403920159E1,4.439949989E-2,-7.648158073E-2,-7.574653625E-1
1.404719727E1,3.887913227E-1,-6.877732277E-2,-5.319108963E-1
1.405519302E1,7.130835056E-1,-1.507816315E-1,-2.130155563E-1
1.406318777E1,9.343109131E-1,-2.870687246E-1,7.878589630E-2
1.407118337E1,1.105096102E0,-4.464020729E-1,3.433933258E-1
1.407918066E1,1.236874342E0,-4.955470562E-1,5.730381012E-1
1.408717472E1,1.334108591E0,-5.587557554E-1,7.122373581E-1
1.409520125E1,1.472161770E0,-5.079097748E-1,5.553779602E-1
1.410319623E1,1.634364486E0,-4.157652855E-1,3.834133148E-1
1.411119222E1,1.824365973E0,-2.047498226E-1,2.110471725E-1
1.411918858E1,1.937996864E0,-2.886843681E-2,9.853553772E-2
1.412718357E1,1.973307252E0,1.806424856E-1,-3.695583344E-2
1.413517932E1,1.919600844E0,2.257233858E-1,-1.342172623E-1
1.414317377E1,2.059440613E0,2.055571079E-1,-1.899261475E-1
1.415120044E1,2.363463402E0,5.778837204E-2,-1.704921722E-1
1.415919735E1,2.701235294E0,-9.859764576E-2,-2.174663544E-2
1.416719187E1,3.002754450E0,-2.919759750E-1,1.183042526E-1
1.417518716E1,3.064344883E0,-3.952916861E-1,3.154020309E-1
1.418318223E1,2.932683468E0,-4.879592657E-1,4.377727509E-1
1.419117852E1,2.575510502E0,-4.459303617E-1,3.796749115E-1
1.419920288E1,2.150699139E0,-4.368927479E-1,3.084106445E-1
1.420720002E1,1.863776445E0,-3.875985146E-1,2.513341904E-1
1.421519578E1,1.621287107E0,-3.534827232E-1,2.561559677E-1
1.422319176E1,1.391435742E0,-2.949697971E-1,1.410627365E-1
1.423118682E1,1.203272581E0,-1.913133860E-1,-4.090690613E-2
1.423918365E1,1.052222610E0,-1.048867702E-1,-1.175336838E-1
1.424717756E1,1.027986407E0,-2.898812294E-3,-2.090911865E-1
1.425517385E1,1.135582328E0,5.530107021E-2,-2.735118866E-1
1.426319999E1,1.206673622E0,9.424805641E-2,-2.304925919E-1
1.427119528E1,1.168586969E0,8.005881310E-2,-1.190013885E-1
1.427919165E1,9.782602787E-1,-1.152205467E-2,1.635150909E-1
1.428718640E1,6.068664789E-1,-2.081533670E-1,9.345426559E-1
1.429518292E1,3.384524584E-1,-4.834311008E-1,1.778249741E0
1.430317714E1,-2.542972565E-3,-8.170279264E-1,2.425224304E0
1.431120328E1,-4.601101875E-1,-8.901435137E-1,2.188363075E0
1.431920049E1,-1.101739407E0,-6.596041918E-1,1.302212715E0
1.432719494E1,-1.472724557E0,-2.306057215E-1,4.286985397E-1
1.433519092E1,-1.298108697E0,1.530772448E-1,2.890205383E-2
1.434318691E1,-6.373060942E-1,4.386608601E-1,-5.975818634E-2
1.435118127E1,-8.601117134E-2,5.079264641E-1,-7.520866394E-2
1.435917880E1,3.141905069E-1,4.472225904E-1,-4.700851440E-2
1.436720317E1,2.572168112E-1,3.641690016E-1,8.710670471E-2
1.437519938E1,-2.504358292E-1,2.503856421E-1,-1.468944550E-1
1.438319444E1,-9.646989107E-1,2.863445282E-1,-9.499454498E-2
1.439119042E1,-1.389651060E0,3.266812563E-1,-3.363885880E-1
1.439918702E1,-1.546636462E0,3.804092407E-1,-5.406093597E-1
1.440718032E1,-1.441144824E0,4.769405127E-1,-7.267093658E-1
1.441517684E1,-1.030325651E0,6.187193990E-1,4.172229767E-1
1.442320367E1,-1.185881853E0,8.788169622E-1,1.471691132E-1
1.443119904E1,-1.006862044E0,7.502342463E-1,4.221639633E-1
1.443919256E1,-7.500003576E-1,4.627441168E-1,1.562576294E-1
1.444719001E1,-6.247642040E-1,3.066220284E-1,-2.308731079E-1
1.445518630E1,-6.258553267E-1,1.579016447E-1,-2.458620071E-1
1.446318082E1,-7.188515663E-1,1.401300430E-1,-5.730142593E-1
1.447117642E1,-9.770082235E-1,2.096865177E-1,-9.081830978E-1
1.447920410E1,-1.199642062E0,1.641676426E-1,-4.059991837E-1
1.448719893E1,-9.535267353E-1,3.574073315E-2,-2.454118729E-1
1.449519399E1,-7.296942472E-1,-5.108749866E-2,-1.133842468E-1
1.450318966E1,-3.236848116E-1,-1.034303904E-1,-1.112794876E-1
1.451118495E1,7.654309273E-2,-4.054546356E-3,-6.613092422E-1
1.451918186E1,2.677968740E-1,1.644022465E-1,-5.370531082E-1
1.452717631E1,2.613639832E-1,2.464194298E-1,-4.587020874E-1
1.453520314E1,5.389604568E-1,1.467905045E-1,-9.809780121E-2
1.454319781E1,8.375597000E-1,-1.236494780E-1,-2.616882324E-3
1.455119357E1,5.110919476E-1,-3.462809324E-1,-1.647081375E-1
1.455919047E1,1.039600372E-2,-4.673053026E-1,-4.772472382E-2
1.456718430E1,-3.455367088E-1,-4.708760977E-1,2.406425476E-1
1.457518113E1,-4.093613625E-1,-4.773184061E-1,4.960937500E-1
1.458317535E1,-5.063807964E-1,-3.262848854E-1,1.119022369E-1
1.459120179E1,-5.951604843E-1,-1.235153675E-1,4.768371582E-2
1.459919932E1,-6.520922184E-1,-1.354932785E-3,-3.435707092E-2
1.460719346E1,-7.491567135E-1,6.567251682E-2,-1.694278717E-1
1.461518936E1,-8.027832508E-1,2.741312981E-2,1.792907715E-1
1.462318481E1,-6.714148521E-1,2.587616444E-2,2.119760513E-1
1.463117925E1,-3.286819458E-1,-3.256201744E-3,2.722864151E-1
1.463917701E1,-4.480218887E-2,5.285429955E-2,1.514348984E-1
1.464720138E1,1.286418438E-1,1.877255440E-1,-9.038925171E-2
1.465519705E1,1.762485504E-1,2.706607580E-1,7.160091400E-2
1.466319296E1,1.866295338E-1,2.620772123E-1,6.560134888E-2
1.467118863E1,9.537577629E-2,2.121274471E-1,6.941509247E-2
1.467918193E1,2.682757378E-2,1.347513199E-1,9.311771393E-2
1.468717914E1,-4.338145256E-2,7.331907749E-2,1.888275146E-4
1.469517566E1,-1.739320755E-1,5.217194557E-2,-7.074928284E-2
1.470320149E1,-3.469412327E-1,1.886010170E-2,-2.181243896E-2
1.471119655E1,-5.465691090E-1,-1.245355606E-2,1.026821136E-2
1.471919354E1,-6.764073372E-1,-5.898237228E-3,4.719829559E-2
1.472718798E1,-7.295982838E-1,2.412557602E-3,-6.373691559E-2
1.473518512E1,-7.153279781E-1,5.127799511E-2,-6.377696991E-2
1.474317964E1,-6.353256702E-1,6.657397747E-2,1.552772522E-2
1.475117501E1,-4.620234966E-1,7.449638844E-2,5.350685120E-2
1.475920238E1,-2.612993717E-1,3.257811069E-2,1.905078888E-1
1.476719644E1,-7.731723785E-2,4.711151123E-4,1.771907806E-1
1.477519304E1,4.604077339E-2,-3.114306927E-2,1.097755432E-1
1.478318818E1,7.772827148E-2,-3.363180161E-2,4.637241364E-2
1.479118355E1,5.109429359E-2,2.494215965E-3,-7.228469849E-2
1.479917976E1,-6.340074539E-2,5.529987812E-2,7.964134216E-3
1.480717459E1,-1.192073822E-1,9.334146976E-2,-6.473636627E-2
1.481520135E1,-1.716861725E-1,1.503521204E-1,2.799224854E-2
1.482319602E1,-2.165613174E-1,1.062855721E-1,1.135864258E-1
1.483119170E1,-1.555850506E-1,1.267658472E-1,-2.814102173E-2
1.483918861E1,-5.773735046E-2,7.132637501E-2,2.967090607E-1
1.484718213E1,-6.417036057E-3,1.067062616E-1,1.208724976E-1
1.485517935E1,1.014590263E-1,4.274213314E-2,1.963453293E-1
1.486317410E1,1.221151352E-1,1.061916351E-3,1.710844040E-1
1.487120031E1,1.651191711E-1,5.241751671E-3,1.201152802E-2
1.487919660E1,1.978359222E-1,-2.603375912E-2,1.575145721E-1
1.488719128E1,1.920039654E-1,-1.927149296E-2,2.343940735E-2
1.489518726E1,1.309089661E-1,3.105199337E-2,-8.125495911E-2
1.490318263E1,-1.849102974E-2,1.106314659E-1,-5.826950073E-2
1.491117808E1,-1.692938805E-1,1.310865879E-1,-1.815795898E-2
1.491917183E1,-3.219349384E-1,-3.524065018E-2,3.135490417E-1
1.492719951E1,-3.676040173E-1,-8.081400394E-2,4.167833328E-1
1.493519588E1,-3.557269573E-1,-1.302103996E-1,7.203235626E-1
1.494319125E1,-2.288873196E-1,-1.478779316E-1,4.849538803E-1
1.495118654E1,-2.049276829E-1,-1.441773176E-1,2.376127243E-1
1.495918406E1,-4.886224270E-1,2.328562737E-2,-1.368207932E-1
1.496717735E1,-6.169936657E-1,1.105192900E-1,-5.919408798E-1
1.497517457E1,-4.612703323E-1,1.120954752E-1,3.736019135E-2
1.498319940E1,-2.676367760E-2,3.331649303E-2,1.237497330E-1
1.499119454E1,2.241020203E-1,6.843328476E-2,-1.331529617E-1
1.499919206E1,4.503979683E-1,-4.843008518E-2,-1.270380020E-1
1.500718620E1,4.832987785E-1,-8.832907677E-2,-5.825004578E-1
1.501518249E1,8.509373665E-2,-7.449400425E-2,-1.172756195E0
1.502317747E1,-4.315619469E-1,-7.139754295E-2,-1.316747665E0
1.503117284E1,-9.762828350E-1,-9.122240543E-2,-1.307204247E0
1.503919990E1,-1.554232836E0,-2.126997709E-1,-1.085808754E0
1.504719473E1,-1.776671886E0,-3.799690008E-1,-8.937854767E-1
1.505519071E1,-1.509748936E0,-6.334670782E-1,-5.077276230E-1
1.506318547E1,-1.191652298E0,-6.833165884E-1,2.550096512E-1
1.507118138E1,-8.174121380E-1,-7.319964170E-1,1.215015411E0
1.507917774E1,-4.204952717E-1,-8.213231564E-1,1.471265793E0
1.508717219E1,-2.539634705E-3,-8.990331888E-1,1.272081375E0
1.509519894E1,4.274690151E-1,-9.998593330E-1,1.066791534E0
1.510319516E1,6.931631565E-1,-9.109050035E-1,8.840970993E-1
1.511119022E1,6.435203552E-1,-5.160146952E-1,4.244165421E-1
1.511918651E1,4.633101225E-1,-7.635903358E-2,4.403924942E-1
1.512718157E1,7.169139385E-1,1.447542906E-1,1.801671982E-1
1.513517732E1,1.430326223E0,2.617136240E-1,-6.608419418E-1
1.514317300E1,1.745074630E0,4.310923815E-1,-8.425292969E-1
1.515119852E1,2.138137817E0,7.108899951E-1,-9.489593506E-1
1.515717874E1,1.947558403E0,1.042410731E0,-7.028932571E-1
1.515919205E1,1.892491698E0,1.073535323E0,-4.395313263E-1
1.516718980E1,1.485206366E0,1.152846098E0,7.833013535E-1
1.517518517E1,1.023996234E0,1.143385887E0,8.596849442E-1
1.518318092E1,1.034462929E0,9.189303517E-1,7.075643539E-1
1.519117690E1,1.170341253E0,5.820688009E-1,4.443950653E-1
1.519920327E1,1.076077104E0,2.799373865E-1,3.783016205E-1
1.520719803E1,7.122542858E-1,7.655107975E-2,2.239084244E-1
1.521519401E1,-1.752316952E-2,1.181364059E-1,5.577659607E-2
1.522318938E1,-9.424120188E-1,2.308027744E-1,-2.038412094E-1
1.523118421E1,-1.452600360E0,2.279857397E-1,-3.448953629E-1
1.523918104E1,-1.383246899E0,1.385583878E-1,-3.242063522E-1
1.524717556E1,-8.084988594E-1,-7.398402691E-2,-7.165241241E-2
1.525517247E1,-5.093407631E-2,-2.441622019E-1,6.189346313E-2
1.526319791E1,7.988952994E-1,-4.523878098E-1,6.094493866E-1
1.527119367E1,1.439429045E0,-4.222704172E-1,2.887353897E-1
1.527919088E1,1.837024331E0,-3.647992611E-1,5.258760452E-1
1.528718433E1,2.088384151E0,-2.374453545E-1,3.449440002E-1
1.529518070E1,2.218605042E0,-1.414730549E-1,2.929191589E-1
1.530317630E1,2.283320427E0,-2.993583679E-3,1.931638718E-1
1.531120220E1,2.281826735E0,1.002587080E-1,2.233381271E-1
1.531919850E1,2.120869398E0,1.740995646E-1,3.718852997E-1
1.532719286E1,1.992305398E0,1.582632065E-1,4.402103424E-1
1.533518916E1,1.917371154E0,6.090593338E-2,7.277650833E-1
1.534318360E1,1.874779463E0,-5.280506611E-2,7.287588120E-1
1.535117928E1,1.825500250E0,-1.622997522E-1,8.068752289E-1
1.535917711E1,1.710539818E0,-2.394801378E-1,8.636808395E-1
1.536720148E1,1.474334955E0,-3.047426939E-1,8.917703629E-1
1.537519800E1,1.210265398E0,-2.796911001E-1,8.838825226E-1
1.538319275E1,8.783486485E-1,-1.858363152E-1,7.824182510E-1
1.539118812E1,6.187920570E-1,-1.093000174E-1,6.998586655E-1
1.539719980E1,3.215855360E-1,-2.148914337E-2,6.651430130E-1
1.539918234E1,3.024319112E-1,-1.670074463E-2,6.555662155E-1
1.540717955E1,1.362114549E-1,8.272802830E-2,5.708131790E-1
1.541517584E1,3.913575411E-2,1.034452915E-1,4.697580338E-1
1.542320067E1,1.211619377E-2,7.627344131E-2,5.775585175E-1
1.543119727E1,-2.336519957E-2,7.643461227E-3,6.474952698E-1
1.543919272E1,-5.767261982E-2,-7.057261467E-2,5.645608902E-1
1.544718801E1,-1.400222182E-1,-1.330657005E-1,3.838863373E-1
1.545518307E1,-2.624208331E-1,-2.154087424E-1,3.114614487E-1
1.546317882E1,-5.049790740E-1,-2.316472530E-1,2.682123184E-1
1.547117481E1,-7.284497619E-1,-2.670474648E-1,1.272411346E-1
1.547920218E1,-9.854897261E-1,-2.109898329E-1,-1.518774033E-1
1.548719601E1,-1.215581059E0,-1.197777987E-1,-3.387937546E-1
1.549519230E1,-1.440097094E0,-6.244832277E-2,-5.651435852E-1
1.550318767E1,-1.510355592E0,-1.583695412E-2,-6.560907364E-1
1.551118357E1,-1.505545855E0,3.101825714E-4,-6.285066605E-1
1.551917963E1,-1.499536991E0,-2.180224657E-2,-5.401659012E-1
1.552717400E1,-1.471322536E0,-8.266484737E-2,-4.418363571E-1
1.553520083E1,-1.448385477E0,-1.861786246E-1,-2.902660370E-1
1.554319589E1,-1.485583901E0,-3.102595210E-1,-3.272218704E-1
1.555119149E1,-1.550468326E0,-4.112069011E-1,-3.873157501E-1
1.555918848E1,-1.661582470E0,-4.176622033E-1,-5.782260895E-1
1.556718223E1,-1.712525845E0,-3.567133546E-1,-7.370271683E-1
1.557517883E1,-1.685831785E0,-2.038038969E-1,-9.957056046E-1
1.558317428E1,-1.567375183E0,-7.917302847E-2,-1.199028015E0
1.559119949E1,-1.374811649E0,1.004922390E-1,-1.340377808E0
1.559919640E1,-1.258534670E0,1.994038820E-1,-1.374606133E0
1.560719138E1,-1.272875786E0,2.086343765E-1,-1.342361450E0
1.561518675E1,-1.189149261E0,1.002879739E-1,-1.212334633E0
1.562318220E1,-1.089347005E0,-2.709811926E-2,-1.140277863E0
1.563117787E1,-1.007748842E0,-1.925430894E-1,-8.961067200E-1
1.565519505E1,-1.352217436E0,-6.682502031E-1,-7.247915268E-1
1.566319096E1,-1.421048999E0,-6.634227037E-1,-7.609186172E-1
1.567118610E1,-1.489963889E0,-6.107766032E-1,-8.597269058E-1
1.567918239E1,-1.442338943E0,-4.446277618E-1,-1.007459641E0
1.568717745E1,-1.366152048E0,-2.832809687E-1,-1.169090271E0
1.569517436E1,-1.213798761E0,-1.105343103E-1,-1.182451248E0
