"Time (s)","Gyroscope x (rad/s)","Gyroscope y (rad/s)","Gyroscope z (rad/s)"
7.233583000E-3,8.674286306E-2,1.343903504E-2,-6.719517708E-2
9.338579000E-3,8.674286306E-2,1.343903504E-2,-6.719517708E-2
1.132188200E-2,8.674286306E-2,1.343903504E-2,-6.719517708E-2
1.333641800E-2,8.674286306E-2,1.343903504E-2,-6.719517708E-2
1.532002900E-2,8.674286306E-2,1.343903504E-2,-6.719517708E-2
1.733425600E-2,8.674286306E-2,1.343903504E-2,-6.719517708E-2
1.931794400E-2,8.674286306E-2,1.343903504E-2,-6.719517708E-2
2.133209500E-2,8.674286306E-2,1.343903504E-2,-6.719517708E-2
2.331516800E-2,8.674286306E-2,1.343903504E-2,-6.719517708E-2
2.532985600E-2,8.674286306E-2,1.343903504E-2,-6.719517708E-2
2.731392900E-2,8.674286306E-2,1.343903504E-2,-6.719517708E-2
2.932708000E-2,8.674286306E-2,1.343903504E-2,-6.719517708E-2
3.131053800E-2,8.674286306E-2,1.343903504E-2,-6.719517708E-2
3.332522600E-2,8.674286306E-2,1.343903504E-2,-6.719517708E-2
3.533883700E-2,8.674286306E-2,1.343903504E-2,-6.719517708E-2
3.732275700E-2,8.674286306E-2,1.343903504E-2,-6.719517708E-2
3.933721500E-2,8.674286306E-2,1.343903504E-2,-6.719517708E-2
4.132036500E-2,8.674286306E-2,1.343903504E-2,-6.719517708E-2
4.333513000E-2,8.674286306E-2,1.343903504E-2,-6.719517708E-2
4.531874200E-2,8.674286306E-2,1.343903504E-2,-6.719517708E-2
4.733512300E-2,8.674286306E-2,1.343903504E-2,-6.719517708E-2
4.931596500E-2,8.674286306E-2,1.343903504E-2,-6.719517708E-2
5.133050000E-2,8.674286306E-2,1.343903504E-2,-6.719517708E-2
5.331418900E-2,8.674286306E-2,1.343903504E-2,-6.719517708E-2
5.532857000E-2,8.674286306E-2,1.343903504E-2,-6.719517708E-2
5.731202700E-2,8.674286306E-2,1.343903504E-2,-6.719517708E-2
5.932610000E-2,8.674286306E-2,1.343903504E-2,-6.719517708E-2
6.134002000E-2,8.674286306E-2,1.343903504E-2,-6.719517708E-2
6.332363100E-2,8.674286306E-2,1.343903504E-2,-6.719517708E-2
6.533808900E-2,8.674286306E-2,1.343903504E-2,-6.719517708E-2
6.732308500E-2,8.674286306E-2,1.343903504E-2,-6.719517708E-2
6.933592800E-2,8.674286306E-2,1.343903504E-2,-6.719517708E-2
7.131992400E-2,1.453859210E-1,3.237585723E-2,-1.014036313E-1
7.333345900E-2,1.435533315E-1,3.420845419E-2,-1.014036313E-1
7.531691600E-2,1.386664063E-1,3.543018550E-2,-1.020144969E-1
7.733168200E-2,1.356120855E-1,3.420845419E-2,-1.014036313E-1
7.931498600E-2,1.313360333E-1,3.604105115E-2,-1.032362282E-1
8.132913600E-2,1.288925707E-1,3.420845419E-2,-1.050688252E-1
8.331251700E-2,1.258382350E-1,3.420845419E-2,-1.081231460E-1
8.532674400E-2,1.221730486E-1,3.420845419E-2,-1.087340117E-1
8.731227900E-2,1.160643995E-1,3.604105115E-2,-1.111774743E-1
8.932573600E-2,1.130100712E-1,3.665191308E-2,-1.154535338E-1
9.133873200E-2,1.099557430E-1,3.604105115E-2,-1.185078546E-1
9.332303700E-2,1.062905490E-1,3.420845419E-2,-1.203404516E-1
9.533687900E-2,9.957103431E-2,3.237585723E-2,-1.252273768E-1
9.731987500E-2,9.468411654E-2,3.420845419E-2,-1.264491081E-1
9.933494800E-2,9.285151958E-2,2.993239649E-2,-1.325577646E-1
1.013180220E-1,8.979719132E-2,2.932153270E-2,-1.337794960E-1
1.033324800E-1,8.429940045E-2,2.687807009E-2,-1.392772794E-1
1.053171680E-1,7.880161703E-2,2.321287990E-2,-1.447750628E-1
1.073310100E-1,7.574728876E-2,2.015855350E-2,-1.472185254E-1
1.093140070E-1,7.208210230E-2,1.954768784E-2,-1.533271819E-1
1.113278490E-1,6.658431143E-2,1.832595654E-2,-1.588249654E-1
1.133116150E-1,6.352998316E-2,1.832595654E-2,-1.606575549E-1
1.153256870E-1,5.803219974E-2,2.138028294E-2,-1.704314053E-1
1.173404540E-1,5.131268129E-2,2.199114859E-2,-1.747074574E-1
1.193229880E-1,4.825835302E-2,2.138028294E-2,-1.783726513E-1
1.213377530E-1,4.581489414E-2,2.138028294E-2,-1.857030392E-1
1.233208260E-1,3.909537569E-2,2.138028294E-2,-1.905899495E-1
1.253345930E-1,3.665191308E-2,2.138028294E-2,-1.924225539E-1
1.273188960E-1,2.932153270E-2,1.710422710E-2,-1.991420686E-1
1.293331230E-1,2.199114859E-2,2.015855350E-2,-2.064724565E-1
1.313170420E-1,2.015855350E-2,2.076941915E-2,-2.107485086E-1
1.333309620E-1,1.282817032E-2,1.710422710E-2,-2.156354338E-1
1.353149580E-1,7.941247895E-3,1.832595654E-2,-2.199114859E-1
1.373293390E-1,0.000000000E0,1.527163107E-2,-2.229658216E-1
1.393121810E-1,-9.773843922E-3,1.343903504E-2,-2.296853364E-1
1.413260240E-1,-1.404990070E-2,1.160643995E-2,-2.327396572E-1
1.433401740E-1,-2.321287990E-2,7.330383174E-3,-2.376265824E-1
1.453250930E-1,-3.481931984E-2,3.665191587E-3,-2.461786866E-1
1.473391660E-1,-3.909537569E-2,3.054326167E-3,-2.504547536E-1
1.493226250E-1,-4.825835302E-2,-1.832595794E-3,-2.559525371E-1
1.513370050E-1,-6.047565863E-2,-6.108652335E-3,-2.626720667E-1
1.533198470E-1,-6.719517708E-2,-8.552113548E-3,-2.700024247E-1
1.553343050E-1,-7.757988572E-2,-1.466076635E-2,-2.748893499E-1
1.573173790E-1,-9.101892263E-2,-2.138028294E-2,-2.858849466E-1
1.593327590E-1,-9.590584040E-2,-2.382374369E-2,-2.895501256E-1
1.613149090E-1,-1.056796908E-1,-3.298672289E-2,-2.999348342E-1
1.633293670E-1,-1.203404516E-1,-3.665191308E-2,-3.060434759E-1
1.653130560E-1,-1.270599663E-1,-4.153883830E-2,-3.103195429E-1
1.673292830E-1,-1.380555481E-1,-4.642575979E-2,-3.188716471E-1
1.693120480E-1,-1.417207420E-1,-5.009094998E-2,-3.207042515E-1
1.713243520E-1,-1.557706445E-1,-5.436700583E-2,-3.310889602E-1
1.733397330E-1,-1.643227488E-1,-5.803219974E-2,-3.365867436E-1
1.753234220E-1,-1.716531366E-1,-6.169738993E-2,-3.414736688E-1
1.773369560E-1,-1.850921661E-1,-6.414084882E-2,-3.475823104E-1
1.793210290E-1,-1.942551434E-1,-6.780604273E-2,-3.543018401E-1
1.813357180E-1,-2.015855312E-1,-6.841690838E-2,-3.573561609E-1
1.833185610E-1,-2.131919712E-1,-7.024950534E-2,-3.652974069E-1
1.853342490E-1,-2.241875380E-1,-7.391469181E-2,-3.720169365E-1
1.873173220E-1,-2.284636050E-1,-7.513642311E-2,-3.738495409E-1
1.893311650E-1,-2.364048511E-1,-7.269296050E-2,-3.793473244E-1
1.913144690E-1,-2.437352389E-1,-7.696902007E-2,-3.878994286E-1
1.933283880E-1,-2.504547536E-1,-7.574728876E-2,-3.903428912E-1
1.953119990E-1,-2.577851415E-1,-7.757988572E-2,-3.946189582E-1
1.973267650E-1,-2.687807083E-1,-7.452555746E-2,-3.988949955E-1
1.993099150E-1,-2.712241709E-1,-7.513642311E-2,-4.037819207E-1
2.013239880E-1,-2.797762752E-1,-7.513642311E-2,-4.074471295E-1
2.033384460E-1,-2.840523422E-1,-7.269296050E-2,-4.111123085E-1
2.053221350E-1,-2.926044464E-1,-6.719517708E-2,-4.166100919E-1
2.073362850E-1,-3.023782969E-1,-6.536258012E-2,-4.239404798E-1
2.093199730E-1,-3.084869385E-1,-6.536258012E-2,-4.257730842E-1
2.113338920E-1,-3.164281845E-1,-6.536258012E-2,-4.312708676E-1
2.133171970E-1,-3.237585723E-1,-6.536258012E-2,-4.367686510E-1
2.153314240E-1,-3.286454976E-1,-6.230825558E-2,-4.410447180E-1
2.173157270E-1,-3.371976018E-1,-6.414084882E-2,-4.477642179E-1
2.193292620E-1,-3.457497358E-1,-6.169738993E-2,-4.532620013E-1
2.213131820E-1,-3.494149148E-1,-6.414084882E-2,-4.575380683E-1
2.233270240E-1,-3.573561609E-1,-6.230825558E-2,-4.624249935E-1
2.253104050E-1,-3.665191531E-1,-6.230825558E-2,-4.685336351E-1
2.273258620E-1,-3.744603992E-1,-6.475171447E-2,-4.752531648E-1
2.293390130E-1,-3.799581826E-1,-6.597344577E-2,-4.813618064E-1
2.313224710E-1,-3.848451078E-1,-6.658431143E-2,-4.844161272E-1
2.333366210E-1,-3.940080702E-1,-6.963863969E-2,-4.905247986E-1
2.353206170E-1,-4.031710625E-1,-7.513642311E-2,-4.996877611E-1
2.373350750E-1,-4.074471295E-1,-7.513642311E-2,-5.039638281E-1
2.393184560E-1,-4.135557711E-1,-8.185594529E-2,-5.088507533E-1
2.413325290E-1,-4.227187634E-1,-8.796459436E-2,-5.161811113E-1
2.433165250E-1,-4.269948006E-1,-9.040805697E-2,-5.192354321E-1
2.453295220E-1,-4.331034720E-1,-9.224065393E-2,-5.253441334E-1
2.473140560E-1,-4.428772926E-1,-9.834930301E-2,-5.302310586E-1
2.493285140E-1,-4.447098970E-1,-9.896016866E-2,-5.338962078E-1
2.513122020E-1,-4.477642179E-1,-1.044579595E-1,-5.406157374E-1
2.533258140E-1,-4.532620013E-1,-1.075122803E-1,-5.442809463E-1
2.553399640E-1,-4.599815309E-1,-1.075122803E-1,-5.479460955E-1
2.573248060E-1,-4.673119187E-1,-1.105666086E-1,-5.546656251E-1
2.593380330E-1,-4.746423066E-1,-1.087340117E-1,-5.583308339E-1
2.613217990E-1,-4.789183438E-1,-1.081231460E-1,-5.650503635E-1
2.633359490E-1,-4.844161272E-1,-1.081231460E-1,-5.711590052E-1
2.653198680E-1,-4.862487316E-1,-1.044579595E-1,-5.736024380E-1
2.673347110E-1,-4.966334403E-1,-1.014036313E-1,-5.784893632E-1
2.693167840E-1,-5.051855445E-1,-9.529497474E-2,-5.888741016E-1
2.713316270E-1,-5.082398653E-1,-9.224065393E-2,-5.925393105E-1
2.733158530E-1,-5.155702829E-1,-8.491026610E-2,-6.017022729E-1
2.753293880E-1,-5.265658498E-1,-7.635815442E-2,-6.120869517E-1
2.773125390E-1,-5.290092826E-1,-7.086037099E-2,-6.175847650E-1
2.793276120E-1,-5.351179838E-1,-5.925392732E-2,-6.267477274E-1
2.813103000E-1,-5.430592299E-1,-5.192354694E-2,-6.383541822E-1
2.833245270E-1,-5.461135507E-1,-4.337143153E-2,-6.407976151E-1
2.853383700E-1,-5.503895879E-1,-3.176499158E-2,-6.517932415E-1
2.873241350E-1,-5.577199459E-1,-1.649336144E-2,-6.640105247E-1
2.893358230E-1,-5.632177591E-1,-9.162978269E-3,-6.707300544E-1
2.913205120E-1,-5.668829679E-1,3.665191587E-3,-6.817256212E-1
2.933355090E-1,-5.717698932E-1,1.649336144E-2,-6.951646209E-1
2.953180430E-1,-5.736024380E-1,2.076941915E-2,-6.969972253E-1
2.973321160E-1,-5.754350424E-1,3.359758854E-2,-7.092145681E-1
2.993164200E-1,-5.778785348E-1,3.604105115E-2,-7.153232098E-1
3.013308780E-1,-5.821545720E-1,4.276056588E-2,-7.226535678E-1
3.033136440E-1,-5.870414972E-1,4.642575979E-2,-7.330383062E-1
3.053281780E-1,-5.913175344E-1,4.764748737E-2,-7.379252315E-1
3.073124050E-1,-5.968153477E-1,4.825835302E-2,-7.476990819E-1
3.093260170E-1,-6.053674817E-1,4.581489414E-2,-7.580837607E-1
3.113394750E-1,-6.096435189E-1,4.337143153E-2,-7.611380816E-1
3.133237780E-1,-6.175847650E-1,3.420845419E-2,-7.721336484E-1
3.153376980E-1,-6.322455406E-1,2.748893574E-2,-7.837401032E-1
3.173213100E-1,-6.383541822E-1,1.832595654E-2,-7.929030657E-1
3.193354600E-1,-6.517932415E-1,7.330383174E-3,-8.069530129E-1
3.213192250E-1,-6.652322412E-1,-8.552113548E-3,-8.258898258E-1
3.233332980E-1,-6.743952036E-1,-1.893682219E-2,-8.326093554E-1
3.253164490E-1,-6.884451509E-1,-3.665191308E-2,-8.564330935E-1
3.273329830E-1,-7.067710757E-1,-5.314527452E-2,-8.747590184E-1
3.293152100E-1,-7.122688890E-1,-6.414084882E-2,-8.881980777E-1
3.313281290E-1,-7.299839854E-1,-8.063421398E-2,-9.101892114E-1
3.333127420E-1,-7.385360599E-1,-9.040805697E-2,-9.205739498E-1
3.353271220E-1,-7.531968355E-1,-1.050688252E-1,-9.450085163E-1
3.373101950E-1,-7.727445364E-1,-1.185078546E-1,-9.645562172E-1
3.393243450E-1,-7.819074988E-1,-1.240056455E-1,-9.755517840E-1
3.413381880E-1,-7.959573865E-1,-1.356120855E-1,-9.963212013E-1
3.433218760E-1,-8.130616546E-1,-1.441642046E-1,-1.012814522E0
3.453379490E-1,-8.234463334E-1,-1.459967941E-1,-1.023199320E0
3.473207150E-1,-8.405506015E-1,-1.502728462E-1,-1.036638379E0
3.493339420E-1,-8.600982428E-1,-1.496619880E-1,-1.053131700E0
3.513176310E-1,-8.668177724E-1,-1.496619880E-1,-1.059851170E0
3.533311650E-1,-8.833111525E-1,-1.435533315E-1,-1.073901057E0
3.553153920E-1,-9.028588533E-1,-1.313360333E-1,-1.086729288E0
3.573296200E-1,-9.138544202E-1,-1.252273768E-1,-1.092227101E0
3.593136160E-1,-9.340129495E-1,-1.099557430E-1,-1.103222609E0
3.613270730E-1,-9.425650835E-1,-1.007927656E-1,-1.109942198E0
3.633110690E-1,-9.639453292E-1,-8.002334833E-2,-1.124602914E0
3.653246050E-1,-9.871582389E-1,-5.803219974E-2,-1.139874578E0
3.673391390E-1,-9.969320893E-1,-4.214970022E-2,-1.146594048E0
3.693233660E-1,-1.021366715E0,-1.282817032E-2,-1.164919972E0
3.713372080E-1,-1.040914416E0,1.771509275E-2,-1.180802464E0
3.733200510E-1,-1.051299095E0,3.665191308E-2,-1.193019867E0
3.753356630E-1,-1.068403363E0,6.902777404E-2,-1.209513187E0
3.773178890E-1,-1.081842303E0,1.044579595E-1,-1.232115149E0
3.793329620E-1,-1.085507512E0,1.209513173E-1,-1.239445567E0
3.813166520E-1,-1.095281363E0,1.514945775E-1,-1.259604096E0
3.833307250E-1,-1.102000952E0,1.820378453E-1,-1.271210551E0
3.853144130E-1,-1.105055213E0,1.973094791E-1,-1.280373573E0
3.873292550E-1,-1.108720422E0,2.199114859E-1,-1.294423461E0
3.893120210E-1,-1.112996459E0,2.449569702E-1,-1.306029916E0
3.913258630E-1,-1.116661668E0,2.583959997E-1,-1.311527729E0
3.933408590E-1,-1.119716048E0,2.785545588E-1,-1.320690632E0
3.953242400E-1,-1.120937705E0,2.913827300E-1,-1.325577617E0
3.973384670E-1,-1.127046347E0,3.121521473E-1,-1.331686258E0
3.993217720E-1,-1.130100727E0,3.268128932E-1,-1.337794900E0
4.013356910E-1,-1.129489779E0,3.329215646E-1,-1.338405728E0
4.033189940E-1,-1.131322384E0,3.384193480E-1,-1.342681766E0
4.053338360E-1,-1.133154988E0,3.420845270E-1,-1.346957922E0
4.073196030E-1,-1.134376764E0,3.408628106E-1,-1.350012183E0
4.093322140E-1,-1.134987593E0,3.378084898E-1,-1.351233959E0
4.113147490E-1,-1.138041973E0,3.310889602E-1,-1.354288220E0
4.133295140E-1,-1.136820197E0,3.213151097E-1,-1.357342601E0
4.153125880E-1,-1.139874578E0,3.084869385E-1,-1.362229466E0
4.173269680E-1,-1.144150615E0,2.932153046E-1,-1.366505504E0
4.193104260E-1,-1.143539786E0,2.840523422E-1,-1.370170712E0
4.213245770E-1,-1.150870085E0,2.681698501E-1,-1.379333735E0
4.233387270E-1,-1.157589674E0,2.492330223E-1,-1.383609772E0
4.253232610E-1,-1.159422278E0,2.388483137E-1,-1.388496757E0
4.273377960E-1,-1.171028733E0,2.217440903E-1,-1.395216227E0
4.293208690E-1,-1.177137375E0,2.125810981E-1,-1.400714040E0
4.313347120E-1,-1.188743711E0,1.991420686E-1,-1.411098719E0
4.333180920E-1,-1.200961113E0,1.881465018E-1,-1.419650793E0
4.353316270E-1,-1.207680583E0,1.844813079E-1,-1.428202987E0
4.373159310E-1,-1.221119642E0,1.863138974E-1,-1.441641927E0
4.393306970E-1,-1.238834739E0,1.973094791E-1,-1.458746195E0
4.413131540E-1,-1.245554209E0,2.021963894E-1,-1.464854836E0
4.433285350E-1,-1.263880134E0,2.266310006E-1,-1.481348276E0
4.453115320E-1,-1.284649611E0,2.535090744E-1,-1.502117634E0
4.473256820E-1,-1.292590857E0,2.693915665E-1,-1.511280656E0
4.493402160E-1,-1.309695125E0,3.072652221E-1,-1.531439185E0
4.513235970E-1,-1.324355841E0,3.481931984E-1,-1.553430319E0
4.533380540E-1,-1.330464482E0,3.659082949E-1,-1.560760736E0
4.553216670E-1,-1.342681766E0,4.068362415E-1,-1.579697490E0
4.573355090E-1,-1.355509996E0,4.489859641E-1,-1.591914773E0
4.593188890E-1,-1.362840414E0,4.697553813E-1,-1.602910399E0
4.613331160E-1,-1.372003317E0,5.131267905E-1,-1.610851645E0
4.633171130E-1,-1.378111959E0,5.381723046E-1,-1.618182063E0
4.653321860E-1,-1.389107585E0,5.815436840E-1,-1.623679876E0
4.673154900E-1,-1.401324868E0,6.243042946E-1,-1.625512362E0
4.693297170E-1,-1.409876943E0,6.493497491E-1,-1.626123309E0
4.713130210E-1,-1.418429136E0,6.927211881E-1,-1.630399346E0
4.733266330E-1,-1.429424644E0,7.275404930E-1,-1.631010175E0
4.753106290E-1,-1.436755061E0,7.483099103E-1,-1.630399346E0
4.773243940E-1,-1.445307136E0,7.788531780E-1,-1.631621122E0
4.793386220E-1,-1.453248382E0,8.014551997E-1,-1.632842779E0
4.813226180E-1,-1.455691934E0,8.087855577E-1,-1.631621122E0
4.833361520E-1,-1.458746195E0,8.228355050E-1,-1.635286212E0
4.853191480E-1,-1.458746195E0,8.277224302E-1,-1.636507988E0
4.873361450E-1,-1.458135366E0,8.277224302E-1,-1.637118816E0
4.893186030E-1,-1.453859329E0,8.271115422E-1,-1.639562368E0
4.913317530E-1,-1.448361516E0,8.179485798E-1,-1.641394973E0
4.933161330E-1,-1.447139740E0,8.124507666E-1,-1.645060062E0
4.953298990E-1,-1.441031098E0,7.996225953E-1,-1.645671010E0
4.973138950E-1,-1.433700681E0,7.922922373E-1,-1.649947047E0
4.993275070E-1,-1.428202987E0,7.757988572E-1,-1.651168704E0
5.013117350E-1,-1.415985584E0,7.593054771E-1,-1.654833913E0
5.033253460E-1,-1.411098719E0,7.525860071E-1,-1.653612256E0
5.053400340E-1,-1.404990077E0,7.367035151E-1,-1.657277465E0
5.073238000E-1,-1.393994451E0,7.214318514E-1,-1.657888293E0
5.093375650E-1,-1.392772794E0,7.159340382E-1,-1.660331726E0
5.113204080E-1,-1.386664152E0,7.061602473E-1,-1.658499122E0
5.133347890E-1,-1.377501130E0,7.012733221E-1,-1.657888293E0
5.153191690E-1,-1.378722906E0,7.012733221E-1,-1.654833913E0
5.173333190E-1,-1.372003317E0,7.067710757E-1,-1.653612256E0
5.193167010E-1,-1.366505504E0,7.195992470E-1,-1.647503614E0
5.213302350E-1,-1.363451242E0,7.293730974E-1,-1.646892667E0
5.233144620E-1,-1.361618638E0,7.501425147E-1,-1.641394973E0
5.253274580E-1,-1.357342601E0,7.788531780E-1,-1.638340592E0
5.273117630E-1,-1.354288220E0,7.922922373E-1,-1.632842779E0
5.293255280E-1,-1.350623012E0,8.332201838E-1,-1.624290705E0
5.313403700E-1,-1.348179579E0,8.552113175E-1,-1.622458100E0
5.333246740E-1,-1.342681766E0,9.028588533E-1,-1.612073421E0
5.353378250E-1,-1.329853654E0,9.529497623E-1,-1.603521228E0
5.373224360E-1,-1.323745012E0,9.779952765E-1,-1.597412586E0
5.393363550E-1,-1.307251573E0,1.025642753E0,-1.588249683E0
5.413196590E-1,-1.291980028E0,1.072679400E0,-1.572978020E0
5.433341170E-1,-1.284038782E0,1.093448758E0,-1.563204169E0
5.453181130E-1,-1.265712738E0,1.134376764E0,-1.548543453E0
5.473326480E-1,-1.252273798E0,1.172250390E0,-1.530828357E0
5.493157210E-1,-1.246165156E0,1.193630695E0,-1.523497939E0
5.513289480E-1,-1.231504321E0,1.226617455E0,-1.508226275E0
5.533135600E-1,-1.218676209E0,1.258993268E0,-1.492343783E0
5.553270940E-1,-1.210734963E0,1.273653984E0,-1.485624313E0
5.573110900E-1,-1.197906733E0,1.302364707E0,-1.474017859E0
5.593252410E-1,-1.196684957E0,1.315192819E0,-1.467909217E0
5.613399290E-1,-1.182635069E0,1.334129691E0,-1.459967971E0
5.633230020E-1,-1.171639562E0,1.352455616E0,-1.453859329E0
5.653366140E-1,-1.166752577E0,1.358564258E0,-1.451415777E0
5.673220720E-1,-1.154535294E0,1.363451242E0,-1.449583173E0
5.693353760E-1,-1.142318010E0,1.360396862E0,-1.446528912E0
5.713180640E-1,-1.134987593E0,1.356120825E0,-1.444085479E0
5.733325990E-1,-1.122159481E0,1.345125318E0,-1.441641927E0
5.753171340E-1,-1.109331250E0,1.328631878E0,-1.439198494E0
5.773312840E-1,-1.102000952E0,1.321912408E0,-1.437976837E0
5.793138190E-1,-1.087340117E0,1.298699498E0,-1.433700681E0
5.813282760E-1,-1.075733662E0,1.271210551E0,-1.428813815E0
5.833118890E-1,-1.065959811E0,1.258993268E0,-1.428202987E0
5.853270380E-1,-1.059851170E0,1.232726097E0,-1.420872569E0
5.873101110E-1,-1.047023058E0,1.208902359E0,-1.413542151E0
5.893244920E-1,-1.045801282E0,1.196684957E0,-1.409876943E0
5.913381040E-1,-1.040914416E0,1.178969979E0,-1.398270488E0
5.933214850E-1,-1.036027431E0,1.167974353E0,-1.393383622E0
5.953359420E-1,-1.030529618E0,1.156367898E0,-1.381777167E0
5.973196310E-1,-1.023199320E0,1.151481032E0,-1.368949056E0
5.993337050E-1,-1.017090678E0,1.149648428E0,-1.361007810E0
6.013171620E-1,-1.007316828E0,1.152702689E0,-1.345125318E0
6.033316200E-1,-9.975429177E-1,1.167363524E0,-1.329242826E0
6.053146160E-1,-9.926560521E-1,1.174693823E0,-1.320690632E0
6.073288440E-1,-9.816604257E-1,1.198517561E0,-1.299310327E0
6.093124550E-1,-9.688322544E-1,1.230282545E0,-1.275486588E0
6.113269890E-1,-9.615018964E-1,1.247997642E0,-1.265712738E0
6.133103700E-1,-9.450085163E-1,1.291369081E0,-1.239445567E0
6.153244440E-1,-9.254608750E-1,1.336573124E0,-1.210124016E0
6.173392860E-1,-9.175195694E-1,1.361007810E0,-1.196074128E0
6.193232050E-1,-8.930850029E-1,1.411709547E0,-1.164309144E0
6.213365090E-1,-8.698720932E-1,1.463633180E0,-1.131322384E0
6.233201210E-1,-8.588765264E-1,1.489900351E0,-1.109331250E0
6.253351940E-1,-8.374962807E-1,1.542434692E0,-1.071457624E0
6.273189590E-1,-8.283332586E-1,1.566869378E0,-1.049466491E0
6.293331090E-1,-8.063421249E-1,1.619403720E0,-1.007316828E0
6.313157990E-1,-7.910705209E-1,1.670105577E0,-9.627236128E-1
6.333303330E-1,-7.825183868E-1,1.694540143E0,-9.401215911E-1
6.353140210E-1,-7.703011036E-1,1.740355134E0,-8.943067193E-1
6.373280940E-1,-7.593054771E-1,1.783115625E0,-8.491026759E-1
6.393118610E-1,-7.538077235E-1,1.800830722E0,-8.265006542E-1
6.413265490E-1,-7.452555895E-1,1.838093519E0,-7.843509912E-1
6.433090830E-1,-7.354817390E-1,1.864360690E0,-7.391469479E-1
6.453229250E-1,-7.299839854E-1,1.875967145E0,-7.202101350E-1
6.473395380E-1,-7.220427394E-1,1.894904017E0,-6.805039048E-1
6.493219950E-1,-7.116580009E-1,1.910175562E0,-6.493497491E-1
6.513345300E-1,-7.067710757E-1,1.915062547E0,-6.346889734E-1
6.533194490E-1,-6.945537925E-1,1.922392964E0,-6.065891981E-1
6.553336000E-1,-6.841690540E-1,1.923003793E0,-5.858197808E-1
6.573166730E-1,-6.750060916E-1,1.919949412E0,-5.736024380E-1
6.593311300E-1,-6.652322412E-1,1.916895151E0,-5.522221923E-1
6.613145880E-1,-6.560692787E-1,1.909564734E0,-5.442809463E-1
6.633290460E-1,-6.444628239E-1,1.900401831E0,-5.290092826E-1
6.653127350E-1,-6.310238242E-1,1.881464958E0,-5.112941861E-1
6.673271920E-1,-6.285803318E-1,1.872912884E0,-5.021312237E-1
6.693104960E-1,-6.194173694E-1,1.849699974E0,-4.905247986E-1
6.713244160E-1,-6.084218025E-1,1.819767594E0,-4.789183438E-1
6.733381810E-1,-6.053674817E-1,1.806328535E0,-4.703662395E-1
6.753228700E-1,-5.943718553E-1,1.775174379E0,-4.581489265E-1
6.773364040E-1,-5.821545720E-1,1.745852828E0,-4.440990388E-1
6.793197860E-1,-5.778785348E-1,1.729970336E0,-4.367686510E-1
6.813345510E-1,-5.644394755E-1,1.703703165E0,-4.221078753E-1
6.833182390E-1,-5.479460955E-1,1.678657651E0,-4.062253833E-1
6.853316970E-1,-5.424483418E-1,1.665218711E0,-3.988949955E-1
6.873148480E-1,-5.283984542E-1,1.643838406E0,-3.817907870E-1
6.893296130E-1,-5.241223574E-1,1.634064555E0,-3.744603992E-1
6.913135320E-1,-5.100724697E-1,1.616960287E0,-3.573561609E-1
6.933276820E-1,-4.972442985E-1,1.598023534E0,-3.402519524E-1
6.953119860E-1,-4.886921942E-1,1.587027907E0,-3.298672438E-1
6.973261360E-1,-4.728097022E-1,1.566258430E0,-3.139847219E-1
6.993092860E-1,-4.612032473E-1,1.548543453E0,-2.932153046E-1
7.013230510E-1,-4.538728893E-1,1.538769603E0,-2.840523422E-1
7.033375100E-1,-4.392121136E-1,1.518000126E0,-2.632829249E-1
7.053218140E-1,-4.221078753E-1,1.499063253E0,-2.431243658E-1
7.073351170E-1,-4.153883755E-1,1.486235142E0,-2.296853364E-1
7.093191130E-1,-3.988949955E-1,1.469741821E0,-2.107485086E-1
7.113331870E-1,-3.824016452E-1,1.448361516E0,-1.875356287E-1
7.133163370E-1,-3.744603992E-1,1.440420270E0,-1.747074574E-1
7.153307950E-1,-3.512475193E-1,1.412320495E0,-1.502728462E-1
7.173144830E-1,-3.310889602E-1,1.383609772E0,-1.227839142E-1
7.193288650E-1,-3.213151097E-1,1.367727280E0,-1.123992056E-1
7.213128610E-1,-3.017674387E-1,1.327410221E0,-8.491026610E-2
7.233260870E-1,-2.938261926E-1,1.308473349E0,-7.147123665E-2
7.253092370E-1,-2.779437006E-1,1.268156290E0,-4.825835302E-2
7.273266960E-1,-2.638937831E-1,1.222952247E0,-2.260201424E-2
7.293086150E-1,-2.577851415E-1,1.200350165E0,-1.343903504E-2
7.313220720E-1,-2.394591719E-1,1.149648428E0,6.719517522E-3
7.333359910E-1,-2.235766798E-1,1.092227101E0,2.626720630E-2
7.353202190E-1,-2.156354338E-1,1.061683774E0,3.359758854E-2
7.373335230E-1,-1.997529417E-1,9.969320893E-1,4.886921868E-2
7.393183650E-1,-1.850921661E-1,9.254608750E-1,5.925392732E-2
7.413312840E-1,-1.759291887E-1,8.839219809E-1,6.352998316E-2
7.433153580E-1,-1.649336219E-1,8.075638413E-1,6.963863969E-2
7.453297390E-1,-1.539380401E-1,7.208209634E-1,7.452555746E-2
7.473138120E-1,-1.472185254E-1,6.756169796E-1,7.696902007E-2
7.493276540E-1,-1.374446750E-1,5.870414972E-1,7.696902007E-2
7.513109590E-1,-1.325577646E-1,4.990769029E-1,7.696902007E-2
7.533254160E-1,-1.282816976E-1,4.508185387E-1,7.635815442E-2
7.553393350E-1,-1.246165112E-1,3.604104817E-1,7.696902007E-2
7.573226390E-1,-1.233947799E-1,3.145956099E-1,7.513642311E-2
7.593365590E-1,-1.191187203E-1,2.254092693E-1,7.635815442E-2
7.613201700E-1,-1.142318025E-1,1.417207420E-1,7.757988572E-2
7.633347050E-1,-1.099557430E-1,9.834930301E-2,7.880161703E-2
7.653183930E-1,-1.081231460E-1,1.954768784E-2,8.124507964E-2
7.673324670E-1,-9.834930301E-2,-5.070181563E-2,8.735372871E-2
7.693158480E-1,-9.590584040E-2,-8.307767659E-2,8.857546002E-2
7.713309970E-1,-9.468411654E-2,-1.459967941E-1,9.712757170E-2
7.733136860E-1,-9.101892263E-2,-1.985312104E-1,1.081231460E-1
7.753282210E-1,-9.224065393E-2,-2.193006277E-1,1.123992056E-1
7.773119100E-1,-9.224065393E-2,-2.590068579E-1,1.246165112E-1
7.793260590E-1,-9.224065393E-2,-2.834414840E-1,1.374446750E-1
7.813093630E-1,-9.162978828E-2,-2.950479090E-1,1.484402567E-1
7.833228990E-1,-9.285151958E-2,-3.158173263E-1,1.631010175E-1
7.853385870E-1,-9.529497474E-2,-3.219259977E-1,1.808161139E-1
7.873228910E-1,-9.529497474E-2,-3.231477141E-1,1.912008226E-1
7.893355020E-1,-9.834930301E-2,-3.249803185E-1,2.101376504E-1
7.913194990E-1,-1.007927656E-1,-3.243694305E-1,2.180788964E-1
7.933337260E-1,-1.020144969E-1,-3.176499307E-1,2.333505303E-1
7.953167990E-1,-1.069014147E-1,-3.109304011E-1,2.480112910E-1
7.973311790E-1,-1.087340117E-1,-3.048217595E-1,2.541199327E-1
7.993151760E-1,-1.117883399E-1,-2.962696552E-1,2.614503205E-1
8.013293260E-1,-1.142318025E-1,-2.858849466E-1,2.712241709E-1
8.033124760E-1,-1.166752651E-1,-2.846632004E-1,2.736676335E-1
8.053269340E-1,-1.191187203E-1,-2.724458873E-1,2.767219543E-1
8.073120840E-1,-1.246165112E-1,-2.632829249E-1,2.779437006E-1
8.093256190E-1,-1.252273768E-1,-2.590068579E-1,2.791654170E-1
8.113077690E-1,-1.282816976E-1,-2.498438805E-1,2.761110961E-1
8.133225340E-1,-1.276708394E-1,-2.437352389E-1,2.742784917E-1
8.153363770E-1,-1.295034289E-1,-2.412917763E-1,2.706133127E-1
8.173198350E-1,-1.276708394E-1,-2.388483137E-1,2.675589919E-1
8.193345230E-1,-1.252273768E-1,-2.400700450E-1,2.651155293E-1
8.213179040E-1,-1.221730486E-1,-2.467895597E-1,2.602286041E-1
8.233324390E-1,-1.197295859E-1,-2.565633953E-1,2.553416789E-1
8.253163580E-1,-1.185078546E-1,-2.614503205E-1,2.522873580E-1
8.273312000E-1,-1.166752651E-1,-2.724458873E-1,2.443460971E-1
8.293139660E-1,-1.136209369E-1,-2.852740586E-1,2.370157093E-1
8.313283470E-1,-1.148426682E-1,-2.926044464E-1,2.333505303E-1
8.333117280E-1,-1.130100712E-1,-3.011565804E-1,2.235766798E-1
8.353255700E-1,-1.136209369E-1,-3.109304011E-1,2.150245607E-1
8.373089510E-1,-1.136209369E-1,-3.133738637E-1,2.083050460E-1
8.393228710E-1,-1.166752651E-1,-3.164281845E-1,1.973094791E-1
8.413372510E-1,-1.197295859E-1,-3.225368559E-1,1.850921661E-1
8.433212470E-1,-1.221730486E-1,-3.237585723E-1,1.777617931E-1
8.453350890E-1,-1.270599663E-1,-3.292563558E-1,1.649336219E-1
8.473193940E-1,-1.337794960E-1,-3.310889602E-1,1.527163088E-1
8.493329290E-1,-1.356120855E-1,-3.347541690E-1,1.453859210E-1
8.513166940E-1,-1.398881376E-1,-3.341432810E-1,1.313360333E-1
8.533307670E-1,-1.417207420E-1,-3.353650272E-1,1.313360333E-1
8.553151480E-1,-1.484402567E-1,-3.353650272E-1,1.166752651E-1
8.573280670E-1,-1.521054506E-1,-3.335324228E-1,1.105666086E-1
8.593123710E-1,-1.539380401E-1,-3.335324228E-1,1.087340117E-1
8.613262130E-1,-1.533271819E-1,-3.323107064E-1,1.014036313E-1
8.633102100E-1,-1.545489132E-1,-3.329215646E-1,9.957103431E-2
8.653246680E-1,-1.521054506E-1,-3.292563558E-1,1.001819000E-1
8.673394330E-1,-1.472185254E-1,-3.274237812E-1,9.834930301E-2
8.693225060E-1,-1.392772794E-1,-3.304781020E-1,9.896016866E-2
8.713363490E-1,-1.362229437E-1,-3.292563558E-1,9.957103431E-2
8.733196530E-1,-1.203404516E-1,-3.292563558E-1,1.020144969E-1
8.753334950E-1,-1.075122803E-1,-3.323107064E-1,1.044579595E-1
8.773181060E-1,-9.651670605E-2,-3.286454976E-1,1.056796908E-1
8.793319500E-1,-8.002334833E-2,-3.188716471E-1,1.056796908E-1
8.813156380E-1,-6.169738993E-2,-2.993239760E-1,1.093448773E-1
8.833295570E-1,-5.253441259E-2,-2.822197378E-1,1.105666086E-1
8.853131680E-1,-3.665191308E-2,-2.455678284E-1,1.154535338E-1
8.873295500E-1,-3.115412779E-2,-2.217440903E-1,1.203404516E-1
8.893113920E-1,-1.893682219E-2,-1.710422635E-1,1.282816976E-1
8.913249270E-1,-1.160643995E-2,-1.075122803E-1,1.423316002E-1
8.933393840E-1,-6.719517522E-3,-7.269296050E-2,1.496619880E-1
8.953245350E-1,-3.054326167E-3,-6.108652451E-4,1.679879427E-1
8.973374540E-1,6.108652451E-4,7.941248268E-2,1.869247705E-1
8.993202960E-1,3.665191587E-3,1.221730486E-1,1.991420686E-1
9.013349850E-1,7.330383174E-3,2.040289938E-1,2.223549485E-1
9.033184430E-1,1.038470957E-2,2.864958048E-1,2.486221492E-1
9.053337470E-1,1.282817032E-2,3.268128932E-1,2.590068579E-1
9.073177430E-1,1.282817032E-2,4.025602043E-1,2.840523422E-1
9.093307390E-1,1.588249579E-2,4.728097022E-1,3.042109013E-1
9.113146590E-1,1.588249579E-2,5.039638281E-1,3.152064681E-1
9.133288860E-1,1.893682219E-2,5.656611919E-1,3.335324228E-1
9.153119590E-1,1.954768784E-2,5.943718553E-1,3.396410644E-1
9.173261080E-1,1.893682219E-2,6.469063163E-1,3.585779071E-1
9.193100290E-1,2.015855350E-2,6.933320761E-1,3.665191531E-1
9.213244860E-1,2.076941915E-2,7.141014934E-1,3.714060783E-1
9.233384050E-1,2.321287990E-2,7.495316267E-1,3.793473244E-1
9.253217090E-1,3.054326214E-2,7.678576112E-1,3.872885704E-1
9.273353210E-1,3.298672289E-2,7.739662528E-1,3.885102868E-1
9.293199330E-1,3.909537569E-2,7.733554244E-1,3.903428912E-1
9.313331590E-1,4.764748737E-2,7.635815740E-1,3.909537494E-1
9.333174630E-1,5.253441259E-2,7.519751191E-1,3.958406746E-1
9.353319220E-1,6.047565863E-2,7.263187766E-1,3.988949955E-1
9.373146100E-1,7.452555746E-2,6.957755089E-1,4.013384581E-1
9.393293750E-1,7.819075137E-2,6.780604124E-1,4.025602043E-1
9.413130640E-1,9.101892263E-2,6.334672570E-1,4.068362415E-1
9.433265990E-1,1.014036313E-1,5.876523852E-1,4.123340547E-1
9.453118260E-1,1.069014147E-1,5.577199459E-1,4.166100919E-1
9.473260530E-1,1.105666086E-1,4.978551865E-1,4.233296216E-1
9.493093560E-1,1.123992056E-1,4.642575979E-1,4.269948006E-1
9.513231990E-1,1.111774743E-1,3.927863538E-1,4.367686510E-1
9.533373490E-1,1.111774743E-1,3.115412891E-1,4.428772926E-1
9.553201910E-1,1.099557430E-1,2.706133127E-1,4.434881806E-1
9.573348800E-1,1.142318025E-1,1.826487035E-1,4.434881806E-1
9.593185690E-1,1.221730486E-1,8.918632567E-2,4.459316432E-1
9.613330270E-1,1.288925707E-1,4.153883830E-2,4.471533597E-1
9.633167150E-1,1.386664063E-1,-5.619960278E-2,4.379903674E-1
9.653297110E-1,1.557706445E-1,-1.545489132E-1,4.282165468E-1
9.673155540E-1,1.655444801E-1,-2.028072625E-1,4.227187634E-1
9.693287810E-1,1.844813079E-1,-2.993239760E-1,4.019493461E-1
9.713111610E-1,2.034181207E-1,-3.915646076E-1,3.811798990E-1
9.733265420E-1,2.144137025E-1,-4.379903674E-1,3.701843321E-1
9.753086930E-1,2.357939780E-1,-5.216789246E-1,3.420845270E-1
9.773240740E-1,2.528982162E-1,-6.017022729E-1,3.158173263E-1
9.793376850E-1,2.638937831E-1,-6.340781450E-1,3.054326177E-1
9.813210660E-1,2.828305960E-1,-7.018841505E-1,2.767219543E-1
9.833357550E-1,2.913827300E-1,-7.263187766E-1,2.632829249E-1
9.853198280E-1,3.042109013E-1,-7.733554244E-1,2.388483137E-1
9.873342080E-1,3.164281845E-1,-8.142833710E-1,2.174680233E-1
9.893175890E-1,3.237585723E-1,-8.277224302E-1,2.095267773E-1
9.913317400E-1,3.329215646E-1,-8.472700715E-1,1.905899495E-1
9.933148900E-1,3.481931984E-1,-8.539896011E-1,1.759291887E-1
9.953283470E-1,3.561344445E-1,-8.521569967E-1,1.710422635E-1
9.973120360E-1,3.738495409E-1,-8.521569967E-1,1.673770845E-1
9.993262630E-1,3.891211748E-1,-8.362745047E-1,1.649336219E-1
1.001310182E0,3.958406746E-1,-8.307767510E-1,1.673770845E-1
1.003324640E0,4.068362415E-1,-8.081747293E-1,1.710422635E-1
1.005338867E0,4.117231667E-1,-7.782423496E-1,1.783726513E-1
1.007321864E0,4.147774875E-1,-7.605272532E-1,1.820378453E-1
1.009336014E0,4.208861589E-1,-7.189884186E-1,1.881465018E-1
1.011320317E0,4.306600094E-1,-6.731734872E-1,1.960877478E-1
1.013334775E0,4.355469346E-1,-6.469063163E-1,1.997529417E-1
1.015317926E0,4.447098970E-1,-5.955936313E-1,2.083050460E-1
1.017331768E0,4.483750761E-1,-5.705481172E-1,2.101376504E-1
1.019315687E0,4.605923891E-1,-5.143485069E-1,2.180788964E-1
1.021330221E0,4.703662395E-1,-4.550946057E-1,2.241875380E-1
1.023313834E0,4.783074856E-1,-4.251621962E-1,2.302961946E-1
1.025328599E0,4.886921942E-1,-3.671300113E-1,2.406809032E-1
1.027311749E0,5.076290369E-1,-3.066543639E-1,2.559525371E-1
1.029325206E0,5.241223574E-1,-2.761110961E-1,2.608394623E-1
1.031309203E0,5.583308339E-1,-2.144137025E-1,2.809980214E-1
1.033322199E0,5.839871764E-1,-1.582140923E-1,3.097086847E-1
1.035337811E0,5.943718553E-1,-1.307251602E-1,3.225368559E-1
1.037321268E0,6.090326309E-1,-7.696902007E-2,3.524692357E-1
1.039335727E0,6.169738770E-1,-2.932153270E-2,3.811798990E-1
1.041319031E0,6.236934066E-1,-5.497787148E-3,3.933972120E-1
1.043333257E0,6.334672570E-1,3.481931984E-2,4.221078753E-1
1.045315946E0,6.395758986E-1,7.147123665E-2,4.532620013E-1
1.047332866E0,6.407976151E-1,8.796459436E-2,4.691445231E-1
1.049314477E0,6.414085031E-1,1.117883399E-1,4.923573732E-1
1.051328242E0,6.426302195E-1,1.197295859E-1,5.045747161E-1
1.053312238E0,6.426302195E-1,1.331686229E-1,5.296201706E-1
1.055327389E0,6.536257863E-1,1.392772794E-1,5.485569835E-1
1.057310385E0,6.652322412E-1,1.386664063E-1,5.577199459E-1
1.059323920E0,6.896668673E-1,1.307251602E-1,5.742133260E-1
1.061338993E0,7.141014934E-1,1.178969890E-1,5.888741016E-1
1.063322143E0,7.257078886E-1,1.081231460E-1,5.986479521E-1
1.065336832E0,7.470881939E-1,8.368854225E-2,6.145304441E-1
1.067321212E0,7.623597980E-1,5.497787148E-2,6.285803318E-1
1.069334132E0,7.696902156E-1,3.726277873E-2,6.359107494E-1
1.071317129E0,7.782423496E-1,1.832595794E-3,6.487388611E-1
1.073331586E0,7.904596329E-1,-3.665191308E-2,6.585127115E-1
1.075315351E0,7.947356701E-1,-5.314527452E-2,6.633996367E-1
1.077329809E0,8.075638413E-1,-8.796459436E-2,6.658431292E-1
1.079312883E0,8.130616546E-1,-1.038470939E-1,6.676757336E-1
1.081327263E0,8.216137290E-1,-1.350012124E-1,6.658431292E-1
1.083311336E0,8.319984674E-1,-1.643227488E-1,6.591235995E-1
1.085324794E0,8.326093554E-1,-1.728748679E-1,6.548475623E-1
1.087308868E0,8.399397135E-1,-1.905899495E-1,6.432411075E-1
1.089323018E0,8.448266387E-1,-2.028072625E-1,6.298020482E-1
1.091337091E0,8.454375267E-1,-2.046398520E-1,6.212499738E-1
1.093321087E0,8.497135639E-1,-2.070833147E-1,6.053674817E-1
1.095335007E0,8.515461683E-1,-2.046398520E-1,5.931501389E-1
1.097318310E0,8.491026759E-1,-2.015855312E-1,5.839871764E-1
1.099332229E0,8.491026759E-1,-1.924225539E-1,5.717698932E-1
1.101316841E0,8.484918475E-1,-1.777617931E-1,5.607742667E-1
1.103330915E0,8.503243923E-1,-1.728748679E-1,5.583308339E-1
1.105314603E0,8.497135639E-1,-1.557706445E-1,5.516113043E-1
1.107329138E0,8.558222055E-1,-1.392772794E-1,5.497786999E-1
1.109311287E0,8.564330935E-1,-1.288925707E-1,5.497786999E-1
1.111326054E0,8.625417352E-1,-1.087340117E-1,5.528330207E-1
1.113309434E0,8.643743396E-1,-9.834930301E-2,5.528330207E-1
1.115323584E0,8.729264140E-1,-7.880161703E-2,5.601634383E-1
1.117338657E0,8.814785480E-1,-5.803219974E-2,5.650503635E-1
1.119321731E0,8.863654733E-1,-5.070181563E-2,5.687155724E-1
1.121335881E0,8.936958313E-1,-3.298672289E-2,5.748242140E-1
1.123319569E0,9.010262489E-1,-1.832595654E-2,5.791002512E-1
1.125332796E0,9.010262489E-1,-1.221730467E-2,5.821545720E-1
1.127318562E0,9.101892114E-1,-6.108652451E-4,5.852088928E-1
1.129331866E0,9.199630618E-1,8.552113548E-3,5.858197808E-1
1.131314554E0,9.230173826E-1,1.343903504E-2,5.882632136E-1
1.133328473E0,9.346238375E-1,1.832595654E-2,5.864306092E-1
1.135312701E0,9.437867999E-1,1.832595654E-2,5.876523852E-1
1.137326851E0,9.486737251E-1,1.893682219E-2,5.882632136E-1
1.139310924E0,9.602801800E-1,1.466076635E-2,5.870414972E-1
1.141324381E0,9.688322544E-1,7.941247895E-3,5.845980644E-1
1.143339148E0,9.737191796E-1,7.330383174E-3,5.815436840E-1
1.145323528E0,9.804387093E-1,-1.221730490E-3,5.864306092E-1
1.147337678E0,9.853256345E-1,-7.941247895E-3,5.839871764E-1
1.149321366E0,9.957103729E-1,-1.893682219E-2,5.852088928E-1
1.151334825E0,1.007927656E0,-2.748893574E-2,5.852088928E-1
1.153317667E0,1.010371089E0,-3.176499158E-2,5.827654600E-1
1.155332048E0,1.021977544E0,-4.581489414E-2,5.870414972E-1
1.157315736E0,1.030529618E0,-5.375614017E-2,5.870414972E-1
1.159330194E0,1.034805775E0,-5.986479297E-2,5.870414972E-1
1.161313883E0,1.043968678E0,-7.391469181E-2,5.858197808E-1
1.163328340E0,1.053742528E0,-8.796459436E-2,5.882632136E-1
1.165311183E0,1.057407737E0,-9.590584040E-2,5.882632136E-1
1.167325256E0,1.072068453E0,-1.075122803E-1,5.931501389E-1
1.169310176E0,1.084285855E0,-1.172861308E-1,5.913175344E-1
1.171323787E0,1.094670534E0,-1.203404516E-1,5.925393105E-1
1.173337629E0,1.108720422E0,-1.252273768E-1,5.955936313E-1
1.175321934E0,1.122159481E0,-1.227839142E-1,5.974262357E-1
1.177334853E0,1.130711555E0,-1.191187203E-1,6.004805565E-1
1.179319080E0,1.145983219E0,-1.105666086E-1,6.065891981E-1
1.181333306E0,1.152702689E0,-1.020144969E-1,6.084218025E-1
1.183316380E0,1.169196129E0,-8.185594529E-2,6.145304441E-1
1.185332299E0,1.183856845E0,-5.742133409E-2,6.181956530E-1
1.187315680E0,1.191187263E0,-4.276056588E-2,6.200281978E-1
1.189329291E0,1.205237150E0,-9.162978269E-3,6.255260110E-1
1.191312288E0,1.219897866E0,2.748893574E-2,6.322455406E-1
1.193326823E0,1.224173903E0,4.948008433E-2,6.359107494E-1
1.195310511E0,1.232115149E0,9.162978828E-2,6.407976151E-1
1.197324584E0,1.238834739E0,1.368338168E-1,6.475171447E-1
1.199307735E0,1.240056396E0,1.582140923E-1,6.487388611E-1
1.201322423E0,1.244332552E0,2.107485086E-1,6.542366743E-1
1.203336573E0,1.248608589E0,2.602286041E-1,6.603453159E-1
1.205319338E0,1.251662850E0,2.858849466E-1,6.621779203E-1
1.207335642E0,1.253495455E0,3.408628106E-1,6.640105247E-1
1.209318716E0,1.252273798E0,3.964515328E-1,6.621779203E-1
1.211331635E0,1.249830246E0,4.239404798E-1,6.640105247E-1
1.213316016E0,1.250441194E0,4.825835526E-1,6.621779203E-1
1.215329781E0,1.249219418E0,5.100724697E-1,6.652322412E-1
1.217312932E0,1.244943380E0,5.717698932E-1,6.627888083E-1
1.219326697E0,1.243721604E0,6.310238242E-1,6.640105247E-1
1.221311616E0,1.243110776E0,6.621779203E-1,6.658431292E-1
1.223325844E0,1.238834739E0,7.226535678E-1,6.670648456E-1
1.225310071E0,1.232726097E0,7.751879692E-1,6.719517708E-1
1.227324605E0,1.228450060E0,8.026769161E-1,6.756169796E-1
1.229337447E0,1.222341299E0,8.509352803E-1,6.860016584E-1
1.231321214E0,1.218065262E0,8.936958313E-1,6.988298297E-1
1.233335594E0,1.216843605E0,9.101892114E-1,7.024950385E-1
1.235318359E0,1.213789225E0,9.468411207E-1,7.159340382E-1
1.237333125E0,1.213178396E0,9.786061049E-1,7.275404930E-1
1.239316583E0,1.211345792E0,9.926560521E-1,7.299839854E-1
1.241330656E0,1.208902359E0,1.012203693E0,7.452555895E-1
1.243314960E0,1.207680583E0,1.019534111E0,7.476990819E-1
1.245327879E0,1.207069755E0,1.037860036E0,7.574729323E-1
1.247311876E0,1.208291411E0,1.047023058E0,7.654141784E-1
1.249327256E0,1.207680583E0,1.048244715E0,7.696902156E-1
1.251310714E0,1.210124016E0,1.048244715E0,7.739662528E-1
1.253324172E0,1.213789225E0,1.044579625E0,7.794640660E-1
1.255338398E0,1.218065262E0,1.039692640E0,7.819074988E-1
1.257322088E0,1.228450060E0,1.031140566E0,7.831292152E-1
1.259335622E0,1.248608589E0,1.012814522E0,7.849618196E-1
1.261320157E0,1.259604096E0,1.002429843E0,7.831292152E-1
1.263334076E0,1.280373573E0,9.804387093E-1,7.794640660E-1
1.265317765E0,1.296866894E0,9.553932548E-1,7.757988572E-1
1.267332530E0,1.298088670E0,9.419541955E-1,7.751879692E-1
1.269315295E0,1.301753879E0,9.150761366E-1,7.739662528E-1
1.271329445E0,1.305419087E0,8.827002645E-1,7.770205736E-1
1.273313750E0,1.298699498E0,8.668177724E-1,7.745771408E-1
1.275327515E0,1.291369081E0,8.289441466E-1,7.819074988E-1
1.277310588E0,1.284649611E0,8.124507666E-1,7.861835957E-1
1.279325046E0,1.275486588E0,7.715228200E-1,7.916813493E-1
1.281309120E0,1.260215044E0,7.238753438E-1,7.977899909E-1
1.283322346E0,1.252884626E0,6.939429045E-1,8.020660877E-1
1.285337035E0,1.241278172E0,6.377432942E-1,8.081747293E-1
1.287322338E0,1.230893493E0,5.778785348E-1,8.136724830E-1
1.289334874E0,1.226617455E0,5.430592299E-1,8.161159754E-1
1.291317716E0,1.215621829E0,4.740314186E-1,8.167268038E-1
1.293332481E0,1.199128509E0,4.007275999E-1,8.136724830E-1
1.295316785E0,1.187522054E0,3.665191531E-1,8.118399382E-1
1.297330244E0,1.169196129E0,2.944370508E-1,8.038986921E-1
1.299314547E0,1.150870085E0,2.235766798E-1,7.953465581E-1
1.301328159E0,1.139263630E0,1.905899495E-1,7.837401032E-1
1.303311771E0,1.117272496E0,1.337794960E-1,7.733554244E-1
1.305326305E0,1.095892191E0,8.063421398E-2,7.580837607E-1
1.307310301E0,1.086118460E0,5.742133409E-2,7.525860071E-1
1.309324682E0,1.064127207E0,2.015855350E-2,7.342600226E-1
1.311307218E0,1.056796908E0,4.886921961E-3,7.275404930E-1
1.313321983E0,1.033583999E0,-1.221730467E-2,7.122688890E-1
1.315335440E0,1.014036298E0,-1.832595654E-2,7.000515461E-1
1.317319513E0,1.004873276E0,-1.527163107E-2,6.927211881E-1
1.319334202E0,9.822713137E-1,-3.665191587E-3,6.817256212E-1
1.321317045E0,9.621127844E-1,2.504547499E-2,6.756169796E-1
1.323331118E0,9.486737251E-1,4.459316283E-2,6.713408828E-1
1.325315114E0,9.315695167E-1,8.735372871E-2,6.737843752E-1
1.327328725E0,9.144652486E-1,1.398881376E-1,6.762278080E-1
1.329312645E0,9.059131742E-1,1.685988009E-1,6.798930168E-1
1.331326795E0,8.943067193E-1,2.302961946E-1,6.896668673E-1
1.333310791E0,8.778133392E-1,2.938261926E-1,7.067710757E-1
1.335325018E0,8.686503768E-1,3.268128932E-1,7.153232098E-1
1.337308092E0,8.546004891E-1,3.909537494E-1,7.403686643E-1
1.339322165E0,8.460483551E-1,4.544837475E-1,7.501425147E-1
1.341336622E0,8.332201838E-1,4.844161272E-1,7.757988572E-1
1.343320003E0,8.197811842E-1,5.448917747E-1,8.038986921E-1
1.345334538E0,8.136724830E-1,5.723807216E-1,8.167268038E-1
1.347318150E0,8.069530129E-1,6.236934066E-1,8.436049223E-1
1.349332069E0,8.008443117E-1,6.701191664E-1,8.704829812E-1
1.351315065E0,7.947356701E-1,6.902777553E-1,8.820894361E-1
1.353330139E0,7.904596329E-1,7.281513810E-1,9.010262489E-1
1.355313827E0,7.867944241E-1,7.568620443E-1,9.193521738E-1
1.357327746E0,7.837401032E-1,7.696902156E-1,9.254608750E-1
1.359311665E0,7.739662528E-1,7.916813493E-1,9.382890463E-1
1.361325893E0,7.648032904E-1,8.075638413E-1,9.450085163E-1
1.363309581E0,7.599163651E-1,8.112290502E-1,9.474520087E-1
1.365323039E0,7.495316267E-1,8.148942590E-1,9.492846131E-1
1.367339112E0,7.391469479E-1,8.100073338E-1,9.474520087E-1
1.369321801E0,7.336491346E-1,8.038986921E-1,9.431759119E-1
1.371335028E0,7.183775306E-1,7.867944241E-1,9.346238375E-1
1.373319331E0,7.104362845E-1,7.757988572E-1,9.303477407E-1
1.375332943E0,6.945537925E-1,7.458664775E-1,9.156870246E-1
1.377316632E0,6.768386960E-1,7.110471725E-1,8.998045325E-1
1.379331320E0,6.695083380E-1,6.902777553E-1,8.912523985E-1
1.381314470E0,6.517932415E-1,6.407976151E-1,8.735373020E-1
1.383328620E0,6.316346526E-1,5.894849896E-1,8.533787727E-1
1.385313463E0,6.249151230E-1,5.595525503E-1,8.429940343E-1
1.387327613E0,6.047565937E-1,5.027421117E-1,8.216137290E-1
1.389310378E0,5.852088928E-1,4.434881806E-1,8.020660877E-1
1.391323913E0,5.760459304E-1,4.135557711E-1,7.935139537E-1
1.393338756E0,5.558874011E-1,3.518583775E-1,7.721336484E-1
1.395322367E0,5.345070958E-1,2.913827300E-1,7.574729323E-1
1.397336825E0,5.222898126E-1,2.620611787E-1,7.489207983E-1
1.399320513E0,5.002986193E-1,2.034181207E-1,7.354817390E-1
1.401333818E0,4.807509482E-1,1.502728462E-1,7.250970602E-1
1.403318122E0,4.715879560E-1,1.264491081E-1,7.195992470E-1
1.405331348E0,4.544837475E-1,7.574728876E-2,7.128797174E-1
1.407315268E0,4.447098970E-1,5.436700583E-2,7.073819637E-1
1.409329726E0,4.288274050E-1,9.773843922E-3,7.018841505E-1
1.411313799E0,4.153883755E-1,-3.176499158E-2,6.976081133E-1
1.413327949E0,4.092797041E-1,-5.375614017E-2,6.982190013E-1
1.415311637E0,3.988949955E-1,-9.346238524E-2,6.939429045E-1
1.417324865E0,3.909537494E-1,-1.313360333E-1,6.963863969E-1
1.419308861E0,3.866777122E-1,-1.496619880E-1,6.957755089E-1
1.421323011E0,3.811798990E-1,-1.869247705E-1,6.963863969E-1
1.423336545E0,3.701843321E-1,-2.193006277E-1,6.988298297E-1
1.425321696E0,3.622430861E-1,-2.388483137E-1,7.000515461E-1
1.427336231E0,3.488040566E-1,-2.700024247E-1,7.012733221E-1
1.429318688E0,3.384193480E-1,-2.981022298E-1,7.031059265E-1
1.431332838E0,3.329215646E-1,-3.127630055E-1,7.055493593E-1
1.433315835E0,3.249803185E-1,-3.365867436E-1,7.067710757E-1
1.435330908E0,3.188716471E-1,-3.604104817E-1,7.043276429E-1
1.437314289E0,3.145956099E-1,-3.732386529E-1,7.049384713E-1
1.439327823E0,3.115412891E-1,-3.946189582E-1,7.073819637E-1
1.441311820E0,3.078760803E-1,-4.037819207E-1,7.073819637E-1
1.443325124E0,3.023782969E-1,-4.233296216E-1,7.067710757E-1
1.445309658E0,2.913827300E-1,-4.392121136E-1,7.079927921E-1
1.447324500E0,2.889392674E-1,-4.495968223E-1,7.092145681E-1
1.449308190E0,2.748893499E-1,-4.642575979E-1,7.122688890E-1
1.451320801E0,2.559525371E-1,-4.807509482E-1,7.141014934E-1
1.453335874E0,2.480112910E-1,-4.856378734E-1,7.183775306E-1
1.455320101E0,2.272418737E-1,-4.972442985E-1,7.244861722E-1
1.457334559E0,2.076941878E-1,-5.106833577E-1,7.324274182E-1
1.459317709E0,1.960877478E-1,-5.174028873E-1,7.385360599E-1
1.461331859E0,1.685988009E-1,-5.302310586E-1,7.489207983E-1
1.463315163E0,1.380555481E-1,-5.412266254E-1,7.617489696E-1
1.465329698E0,1.209513173E-1,-5.534439087E-1,7.690793276E-1
1.467313694E0,8.918632567E-2,-5.674937963E-1,7.812966704E-1
1.469327152E0,5.619960278E-2,-5.809328556E-1,7.984008789E-1
1.471311225E0,3.726277873E-2,-5.852088928E-1,8.057312369E-1
1.473324683E0,0.000000000E0,-5.955936313E-1,8.240572214E-1
1.475308448E0,-1.649336144E-2,-6.004805565E-1,8.301658630E-1
1.477322521E0,-5.681046844E-2,-6.096435189E-1,8.533787727E-1
1.479336671E0,-9.468411654E-2,-6.114761233E-1,8.729264140E-1
1.481320668E0,-1.136209369E-1,-6.090326309E-1,8.827002645E-1
1.483333895E0,-1.484402567E-1,-6.072000265E-1,9.004153609E-1
1.485318276E0,-1.771509200E-1,-6.010913849E-1,9.205739498E-1
1.487332118E0,-1.948660165E-1,-5.943718553E-1,9.315695167E-1
1.489316038E0,-2.241875380E-1,-5.888741016E-1,9.511171579E-1
1.491330495E0,-2.510656118E-1,-5.839871764E-1,9.694431424E-1
1.493313338E0,-2.638937831E-1,-5.827654600E-1,9.767735004E-1
1.495327718E0,-2.901609838E-1,-5.815436840E-1,9.938777685E-1
1.497311715E0,-3.133738637E-1,-5.876523852E-1,1.009149432E0
1.499325942E0,-3.225368559E-1,-5.949827433E-1,1.015868902E0
1.501309246E0,-3.445279896E-1,-6.120869517E-1,1.025642753E0
1.503323088E0,-3.597996235E-1,-6.346889734E-1,1.039692640E0
1.505338546E0,-3.640756905E-1,-6.481280327E-1,1.046412110E0
1.507321312E0,-3.781255782E-1,-6.780604124E-1,1.058629513E0
1.509335692E0,-3.824016452E-1,-6.957755089E-1,1.064738154E0
1.511319457E0,-3.964515328E-1,-7.257078886E-1,1.080620646E0
1.513332608E0,-4.117231667E-1,-7.629706860E-1,1.093448758E0
1.515317220E0,-4.239404798E-1,-7.855727077E-1,1.099557400E0
1.517331139E0,-4.434881806E-1,-8.252789378E-1,1.112996459E0
1.519315058E0,-4.624249935E-1,-8.668177724E-1,1.125824690E0
1.521329209E0,-4.660901725E-1,-8.894197941E-1,1.133765936E0
1.523313205E0,-4.807509482E-1,-9.303477407E-1,1.146594048E0
1.525325893E0,-4.905247986E-1,-9.700540304E-1,1.161865711E0
1.527311966E0,-4.941899776E-1,-9.871582389E-1,1.168585181E0
1.529324963E0,-5.051855445E-1,-1.025031924E0,1.176526427E0
1.531307344E0,-5.131267905E-1,-1.058018565E0,1.187522054E0
1.533318801E0,-5.222898126E-1,-1.083064079E0,1.194852471E0
1.535336874E0,-5.265658498E-1,-1.094670534E0,1.200961113E0
1.537320333E0,-5.314527750E-1,-1.106276989E0,1.202793717E0
1.539333867E0,-5.412266254E-1,-1.126435518E0,1.208902359E0
1.541317478E0,-5.564982295E-1,-1.145983219E0,1.213178396E0
1.543331705E0,-5.632177591E-1,-1.152091861E0,1.216232657E0
1.545315318E0,-5.821545720E-1,-1.165530920E0,1.218676209E0
1.547330467E0,-5.980370641E-1,-1.172861218E0,1.220508814E0
1.549313848E0,-6.072000265E-1,-1.174693823E0,1.222341299E0
1.551327921E0,-6.267477274E-1,-1.175304770E0,1.224784851E0
1.553311380E0,-6.487388611E-1,-1.167974353E0,1.227839112E0
1.555325760E0,-6.615670323E-1,-1.160643935E0,1.226617455E0
1.557309141E0,-6.866125464E-1,-1.145983219E0,1.229060888E0
1.559323291E0,-7.092145681E-1,-1.121548533E0,1.230893493E0
1.561337826E0,-7.208209634E-1,-1.106887817E0,1.230282545E0
1.563321130E0,-7.446447611E-1,-1.070235968E0,1.233947754E0
1.565334433E0,-7.690793276E-1,-1.025642753E0,1.236391306E0
1.567318737E0,-7.812966704E-1,-1.007316828E0,1.235780358E0
1.569333196E0,-8.087855577E-1,-9.596692920E-1,1.241278172E0
1.571316807E0,-8.197811842E-1,-9.352346659E-1,1.243110776E0
1.573330957E0,-8.442157507E-1,-8.875871897E-1,1.245554209E0
1.575314107E0,-8.588765264E-1,-8.399397135E-1,1.253495455E0
1.577328258E0,-8.631525636E-1,-8.148942590E-1,1.253495455E0
1.579312484E0,-8.729264140E-1,-7.672467232E-1,1.255328059E0
1.581326634E0,-8.814785480E-1,-7.250970602E-1,1.258993268E0
1.583310092E0,-8.827002645E-1,-7.043276429E-1,1.261436701E0
1.585324550E0,-8.857545853E-1,-6.670648456E-1,1.264491081E0
1.587308162E0,-8.869763613E-1,-6.279694438E-1,1.271210551E0
1.589321773E0,-8.869763613E-1,-6.120869517E-1,1.274875760E0
1.591335923E0,-8.888089061E-1,-5.784893632E-1,1.279151797E0
1.593319535E0,-8.906415105E-1,-5.430592299E-1,1.285260439E0
1.595334301E0,-8.924741149E-1,-5.277875662E-1,1.287093043E0
1.597317450E0,-8.955284357E-1,-4.880813360E-1,1.292590857E0
1.599332139E0,-8.924741149E-1,-4.550946057E-1,1.302975535E0
1.601314674E0,-8.900306821E-1,-4.367686510E-1,1.307251573E0
1.603329055E0,-8.863654733E-1,-3.976732790E-1,1.315803766E0
1.605312435E0,-8.839219809E-1,-3.842342496E-1,1.321912408E0
1.607326585E0,-8.833111525E-1,-3.506366611E-1,1.334740520E0
1.609309659E0,-8.833111525E-1,-3.200933933E-1,1.348179579E0
1.611325117E0,-8.833111525E-1,-3.048217595E-1,1.354899168E0
1.613308420E0,-8.851437569E-1,-2.803871334E-1,1.367727280E0
1.615322955E0,-8.839219809E-1,-2.565633953E-1,1.379944563E0
1.617336798E0,-8.827002645E-1,-2.498438805E-1,1.390940189E0
1.619320717E0,-8.820894361E-1,-2.309070677E-1,1.405600905E0
1.621334636E0,-8.814785480E-1,-2.180788964E-1,1.417207360E0
1.623318017E0,-8.796459436E-1,-2.119702399E-1,1.423926830E0
1.625334014E0,-8.735373020E-1,-2.052507252E-1,1.434922457E0
1.627316702E0,-8.625417352E-1,-2.028072625E-1,1.448361516E0
1.629329391E0,-8.576548100E-1,-2.009746730E-1,1.451415777E0
1.631314002E0,-8.497135639E-1,-2.076941878E-1,1.463022232E0
1.633328460E0,-8.466592431E-1,-2.199114859E-1,1.466076612E0
1.635312380E0,-8.417723179E-1,-2.278527319E-1,1.470352650E0
1.637325991E0,-8.319984674E-1,-2.455678284E-1,1.472796082E0
1.639310218E0,-8.252789378E-1,-2.553416789E-1,1.474017859E0
1.641323753E0,-8.069530129E-1,-2.828305960E-1,1.475850463E0
1.643337903E0,-7.904596329E-1,-3.115412891E-1,1.473407030E0
1.645320745E0,-7.855727077E-1,-3.298672438E-1,1.471574426E0
1.647335433E0,-7.684684992E-1,-3.732386529E-1,1.467298269E0
1.649318584E0,-7.538077235E-1,-4.214970171E-1,1.459357023E0
1.651333580E0,-7.458664775E-1,-4.471533597E-1,1.453248382E0
1.653317269E0,-7.220427394E-1,-5.051855445E-1,1.444085479E0
1.655331495E0,-6.982190013E-1,-5.644394755E-1,1.430646420E0
1.657314185E0,-6.872233748E-1,-5.968153477E-1,1.423316002E0
1.659329027E0,-6.615670323E-1,-6.652322412E-1,1.407433510E0
1.661313023E0,-6.395758986E-1,-7.324274182E-1,1.388496757E0
1.663327096E0,-6.285803318E-1,-7.678576112E-1,1.378111959E0
1.665311708E0,-6.047565937E-1,-8.374962807E-1,1.356120825E0
1.667324935E0,-5.931501389E-1,-8.698720932E-1,1.342681766E0
1.669308008E0,-5.674937963E-1,-9.358455539E-1,1.317636371E0
1.671322773E0,-5.522221923E-1,-1.001208186E0,1.288314819E0
1.673336616E0,-5.461135507E-1,-1.033583999E0,1.272432327E0
1.675320382E0,-5.332853794E-1,-1.100779176E0,1.241889000E0
1.677334454E0,-5.186246037E-1,-1.164919972E0,1.203404546E0
1.679318450E0,-5.106833577E-1,-1.197906733E0,1.188132882E0
1.681332601E0,-4.935791194E-1,-1.257160664E0,1.150870085E0
1.683316290E0,-4.795292318E-1,-1.317025423E0,1.110553026E0
1.685329593E0,-4.728097022E-1,-1.349401355E0,1.091616154E0
1.687315051E0,-4.654793143E-1,-1.408655286E0,1.052520871E0
1.689327433E0,-4.557054639E-1,-1.467298269E0,1.009760261E0
1.691311967E0,-4.489859641E-1,-1.496619821E0,9.896016717E-1
1.693325194E0,-4.367686510E-1,-1.549154282E0,9.505063295E-1
1.695308882E0,-4.214970171E-1,-1.596801758E0,9.089674950E-1
1.697323110E0,-4.166100919E-1,-1.619403720E0,8.918632865E-1
1.699337875E0,-4.050036669E-1,-1.659720898E0,8.533787727E-1
1.701321256E0,-4.037819207E-1,-1.678657651E0,8.332201838E-1
1.703334790E0,-3.933972120E-1,-1.711644411E0,7.959573865E-1
1.705319403E0,-3.824016452E-1,-1.742187738E0,7.605272532E-1
1.707333168E0,-3.762930036E-1,-1.752572417E0,7.397578359E-1
1.709316933E0,-3.634648323E-1,-1.773341775E0,7.049384713E-1
1.711331314E0,-3.543018401E-1,-1.794111252E0,6.682865620E-1
1.713315695E0,-3.530801237E-1,-1.800219893E0,6.505714655E-1
1.715328614E0,-3.481931984E-1,-1.815491557E0,6.157521605E-1
1.717311995E0,-3.371976018E-1,-1.822821856E0,5.809328556E-1
1.719326760E0,-3.310889602E-1,-1.828319669E0,5.650503635E-1
1.721310680E0,-3.200933933E-1,-1.828319669E0,5.302310586E-1
1.723324292E0,-3.084869385E-1,-1.827097893E0,4.935791194E-1
1.725308518E0,-3.011565804E-1,-1.825265408E0,4.776966274E-1
1.727323899E0,-2.974913716E-1,-1.820989251E0,4.428772926E-1
1.729305435E0,-2.950479090E-1,-1.811215401E0,4.074471295E-1
1.731320815E0,-2.907718420E-1,-1.805717707E0,3.903428912E-1
1.733334119E0,-2.852740586E-1,-1.791667819E0,3.518583775E-1
1.735318038E0,-2.828305960E-1,-1.780672193E0,3.365867436E-1
1.737331958E0,-2.809980214E-1,-1.761735320E0,2.999348342E-1
1.739315569E0,-2.803871334E-1,-1.737911582E0,2.626720667E-1
1.741329488E0,-2.809980214E-1,-1.728748679E0,2.443460971E-1
1.743313408E0,-2.834414840E-1,-1.702481389E0,2.064724565E-1
1.745327866E0,-2.846632004E-1,-1.675603390E0,1.692096740E-1
1.747312247E0,-2.834414840E-1,-1.660331726E0,1.459967941E-1
1.749325089E0,-2.803871334E-1,-1.632231951E0,1.044579595E-1
1.751309162E0,-2.803871334E-1,-1.605964780E0,6.230825558E-2
1.753323005E0,-2.834414840E-1,-1.593747377E0,4.153883830E-2
1.755337463E0,-2.852740586E-1,-1.569923639E0,-5.497787148E-3
1.757321766E0,-2.883284092E-1,-1.543656468E0,-5.131268129E-2
1.759335301E0,-2.901609838E-1,-1.531439185E0,-7.696902007E-2
1.761318298E0,-2.858849466E-1,-1.508837104E0,-1.252273768E-1
1.763332832E0,-2.871066630E-1,-1.483791709E0,-1.734857261E-1
1.765315905E0,-2.846632004E-1,-1.474017859E0,-1.979203373E-1
1.767333440E0,-2.858849466E-1,-1.458135366E0,-2.467895597E-1
1.769314590E0,-2.877175212E-1,-1.447750688E0,-2.700024247E-1
1.771327817E0,-2.889392674E-1,-1.433700681E0,-3.182607889E-1
1.773312198E0,-2.883284092E-1,-1.422705173E0,-3.665191531E-1
1.775326578E0,-2.907718420E-1,-1.417818189E0,-3.909537494E-1
1.777309422E0,-2.944370508E-1,-1.409876943E0,-4.349360466E-1
1.779323495E0,-2.981022298E-1,-1.405600905E0,-4.801400900E-1
1.781338875E0,-3.029891551E-1,-1.404990077E0,-5.027421117E-1
1.783321717E0,-3.078760803E-1,-1.406211853E0,-5.455026627E-1
1.785336407E0,-3.090978265E-1,-1.407433510E0,-5.864306092E-1
1.787319480E0,-3.103195429E-1,-1.408044338E0,-6.096435189E-1
1.789334552E0,-3.133738637E-1,-1.412931323E0,-6.481280327E-1
1.791317318E0,-3.194825351E-1,-1.421483397E0,-6.878342628E-1
1.793331469E0,-3.194825351E-1,-1.427592039E0,-7.079927921E-1
1.795315234E0,-3.268128932E-1,-1.440420270E0,-7.440338731E-1
1.797329691E0,-3.292563558E-1,-1.448972344E0,-7.593054771E-1
1.799313380E0,-3.316998184E-1,-1.461800575E0,-7.953465581E-1
1.801327838E0,-3.365867436E-1,-1.476461291E0,-8.265006542E-1
1.803310834E0,-3.390302062E-1,-1.483791709E0,-8.442157507E-1
1.805324369E0,-3.414736688E-1,-1.500895858E0,-8.759807348E-1
1.807310518E0,-3.481931984E-1,-1.509448051E0,-9.065240026E-1
1.809321977E0,-3.463605940E-1,-1.516167521E0,-9.217956662E-1
1.811337050E0,-3.488040566E-1,-1.522276163E0,-9.492846131E-1
1.813320661E0,-3.524692357E-1,-1.525941372E0,-9.779952765E-1
1.815334504E0,-3.524692357E-1,-1.527163148E0,-9.920451641E-1
1.817318270E0,-3.561344445E-1,-1.528384805E0,-1.019534111E0
1.819332727E0,-3.591887653E-1,-1.523497939E0,-1.046412110E0
1.821316108E0,-3.640756905E-1,-1.519832730E0,-1.060462117E0
1.823330565E0,-3.707951903E-1,-1.511891484E0,-1.088561893E0
1.825314178E0,-3.744603992E-1,-1.496619821E0,-1.114218235E0
1.827329020E0,-3.762930036E-1,-1.486845970E0,-1.128878951E0
1.829312016E0,-3.897320330E-1,-1.466687441E0,-1.155757070E0
1.831326166E0,-3.964515328E-1,-1.455691934E0,-1.167974353E0
1.833309240E0,-4.092797041E-1,-1.425148606E0,-1.193019867E0
1.835323774E0,-4.239404798E-1,-1.395216227E0,-1.218676209E0
1.837307386E0,-4.306600094E-1,-1.376279354E0,-1.228450060E0
1.839321843E0,-4.434881806E-1,-1.340238333E0,-1.251052022E0
1.841335379E0,-4.569272101E-1,-1.299921274E0,-1.269988894E0
1.843318836E0,-4.648684561E-1,-1.280984402E0,-1.279151797E0
1.845332909E0,-4.734205604E-1,-1.238223910E0,-1.296256065E0
1.847319367E0,-4.844161272E-1,-1.186911225E0,-1.306640744E0
1.849332364E0,-4.856378734E-1,-1.163087368E0,-1.312138557E0
1.851314129E0,-4.929682612E-1,-1.109331250E0,-1.318247199E0
1.853328971E0,-5.027421117E-1,-1.050688267E0,-1.322523236E0
1.855312582E0,-5.064072609E-1,-1.021977544E0,-1.324966669E0
1.857327349E0,-5.186246037E-1,-9.578366876E-1,-1.324355841E0
1.859310806E0,-5.253441334E-1,-8.857545853E-1,-1.322523236E0
1.861324264E0,-5.314527750E-1,-8.478809595E-1,-1.320690632E0
1.863308567E0,-5.345070958E-1,-7.703011036E-1,-1.312749386E0
1.865323411E0,-5.357288122E-1,-7.275404930E-1,-1.309695125E0
1.867307714E0,-5.375614166E-1,-6.450737119E-1,-1.298699498E0
1.869320326E0,-5.381723046E-1,-5.650503635E-1,-1.284649611E0
1.871334399E0,-5.400048494E-1,-5.271766782E-1,-1.280984402E0
1.873317549E0,-5.369505286E-1,-4.483750761E-1,-1.263880134E0
1.875332238E0,-5.302310586E-1,-3.750712574E-1,-1.250441194E0
1.877315926E0,-5.216789246E-1,-3.414736688E-1,-1.239445567E0
1.879329768E0,-5.112941861E-1,-2.712241709E-1,-1.220508814E0
1.881312919E0,-4.978551865E-1,-2.052507252E-1,-1.199128509E0
1.883327915E0,-4.917465150E-1,-1.759291887E-1,-1.188743711E0
1.885310757E0,-4.838052690E-1,-1.154535338E-1,-1.167363524E0
1.887327061E0,-4.715879560E-1,-5.558873713E-2,-1.142928839E0
1.889308827E0,-4.654793143E-1,-2.809980139E-2,-1.131322384E0
1.891323362E0,-4.489859641E-1,2.382374369E-2,-1.105055213E0
1.893306742E0,-4.398229718E-1,4.886921868E-2,-1.095281363E0
1.895320892E0,-4.178318381E-1,8.979719132E-2,-1.068403363E0
1.897335043E0,-3.995058835E-1,1.270599663E-1,-1.046412110E0
1.899318424E0,-3.885102868E-1,1.429424733E-1,-1.032973170E0
1.901332804E0,-3.659082949E-1,1.734857261E-1,-1.007316828E0
1.903316493E0,-3.396410644E-1,2.028072625E-1,-9.804387093E-1
1.905331566E0,-3.280346394E-1,2.125810981E-1,-9.657779336E-1
1.907315639E0,-3.060434759E-1,2.321287990E-1,-9.376781583E-1
1.909329097E0,-2.858849466E-1,2.467895597E-1,-9.083566070E-1
1.911312785E0,-2.779437006E-1,2.553416789E-1,-8.936958313E-1
1.913326705E0,-2.645046413E-1,2.669481039E-1,-8.582656980E-1
1.915310009E0,-2.486221492E-1,2.742784917E-1,-8.216137290E-1
1.917323928E0,-2.388483137E-1,2.809980214E-1,-8.026769161E-1
1.919307924E0,-2.290744632E-1,2.907718420E-1,-7.623597980E-1
1.921321460E0,-2.229658216E-1,3.005456924E-1,-7.177666426E-1
1.923335533E0,-2.205223590E-1,3.066543639E-1,-6.951646209E-1
1.925319298E0,-2.211332172E-1,3.145956099E-1,-6.456845403E-1
1.927334909E0,-2.217440903E-1,3.255911767E-1,-5.986479521E-1
1.929318368E0,-2.199114859E-1,3.335324228E-1,-5.729916096E-1
1.931331287E0,-2.193006277E-1,3.475823104E-1,-5.167919993E-1
1.933315590E0,-2.174680233E-1,3.530801237E-1,-4.923573732E-1
1.935328817E0,-2.211332172E-1,3.683517575E-1,-4.392121136E-1
1.937313045E0,-2.321287990E-1,3.872885704E-1,-3.824016452E-1
1.939328503E0,-2.339613885E-1,3.933972120E-1,-3.543018401E-1
1.941311268E0,-2.461786866E-1,4.111123085E-1,-2.999348342E-1
1.943325341E0,-2.602286041E-1,4.349360466E-1,-2.498438805E-1
1.945310338E0,-2.645046413E-1,4.410447180E-1,-2.229658216E-1
1.947324103E0,-2.797762752E-1,4.630358517E-1,-1.765400618E-1
1.949306561E0,-2.956587672E-1,4.801400900E-1,-1.301143020E-1
1.951321018E0,-3.048217595E-1,4.886921942E-1,-1.087340117E-1
1.953335246E0,-3.194825351E-1,5.039638281E-1,-6.597344577E-2
1.955318011E0,-3.298672438E-1,5.167919993E-1,-2.565634064E-2
1.957332699E0,-3.347541690E-1,5.222898126E-1,-4.886921961E-3
1.959316080E0,-3.414736688E-1,5.351179838E-1,3.665191308E-2
1.961330308E0,-3.475823104E-1,5.369505286E-1,5.864306539E-2
1.963314227E0,-3.573561609E-1,5.381723046E-1,9.957103431E-2
1.965328069E0,-3.701843321E-1,5.406157374E-1,1.441642046E-1
1.967313296E0,-3.775147200E-1,5.400048494E-1,1.655444801E-1
1.969325293E0,-3.848451078E-1,5.345070958E-1,2.101376504E-1
1.971309597E0,-3.946189582E-1,5.265658498E-1,2.559525371E-1
1.973324131E0,-3.982841372E-1,5.192354321E-1,2.791654170E-1
1.975307512E0,-4.092797041E-1,5.057964325E-1,3.286454976E-1
1.977321893E0,-4.190535545E-1,4.856378734E-1,3.805690408E-1
1.979336043E0,-4.251621962E-1,4.764748812E-1,4.013384581E-1
1.981319116E0,-4.312708676E-1,4.550946057E-1,4.532620013E-1
1.983333881E0,-4.337143302E-1,4.276056588E-1,5.027421117E-1
1.985318263E0,-4.361577928E-1,4.105014503E-1,5.283984542E-1
1.987332105E0,-4.447098970E-1,3.817907870E-1,5.791002512E-1
1.989315101E0,-4.532620013E-1,3.451388776E-1,6.273586154E-1
1.991329559E0,-4.569272101E-1,3.268128932E-1,6.505714655E-1
1.993312402E0,-4.679227769E-1,2.901609838E-1,7.006624341E-1
1.995327398E0,-4.734205604E-1,2.742784917E-1,7.202101350E-1
1.997310471E0,-4.789183438E-1,2.406809032E-1,7.641924024E-1
1.999324620E0,-4.899139404E-1,2.076941878E-1,8.032878041E-1
2.001308310E0,-4.948008358E-1,1.918116808E-1,8.246681094E-1
2.003323383E0,-5.094616413E-1,1.582140923E-1,8.625417352E-1
2.005305917E0,-5.198463202E-1,1.258382350E-1,8.943067193E-1
2.007321529E0,-5.222898126E-1,1.105666086E-1,9.120218158E-1
2.009335448E0,-5.271766782E-1,8.063421398E-2,9.419541955E-1
2.011318445E0,-5.283984542E-1,4.642575979E-2,9.688322544E-1
2.013333287E0,-5.320636034E-1,3.115412779E-2,9.828822017E-1
2.015315667E0,-5.357288122E-1,-6.108652451E-4,1.007316828E0
2.017330817E0,-5.406157374E-1,-3.481931984E-2,1.028086185E0
2.019313584E0,-5.455026627E-1,-4.948008433E-2,1.035416603E0
2.021326733E0,-5.510004759E-1,-8.246681094E-2,1.054353356E0
2.023312576E0,-5.564982295E-1,-1.117883399E-1,1.068403363E0
2.025326496E0,-5.577199459E-1,-1.264491081E-1,1.075122833E0
2.027309799E0,-5.644394755E-1,-1.551597714E-1,1.089783549E0
2.029324257E0,-5.662720799E-1,-1.685988009E-1,1.094059706E0
2.031306714E0,-5.693264008E-1,-1.966986060E-1,1.103222609E0
2.033321481E0,-5.711590052E-1,-2.223549485E-1,1.112996459E0
2.035335323E0,-5.711590052E-1,-2.327396572E-1,1.116050839E0
2.037319396E0,-5.699372888E-1,-2.522873580E-1,1.124602914E0
2.039333238E0,-5.681046844E-1,-2.736676335E-1,1.131933331E0
2.041316927E0,-5.674937963E-1,-2.828305960E-1,1.135598540E0
2.043331923E0,-5.607742667E-1,-2.999348342E-1,1.144761443E0
2.045314150E0,-5.522221923E-1,-3.145956099E-1,1.150870085E0
2.047330684E0,-5.461135507E-1,-3.194825351E-1,1.153924465E0
2.049311681E0,-5.338962078E-1,-3.304781020E-1,1.160643935E0
2.051326985E0,-5.210680366E-1,-3.341432810E-1,1.167363524E0
2.053310058E0,-5.143485069E-1,-3.359758854E-1,1.171028733E0
2.055324285E0,-4.929682612E-1,-3.341432810E-1,1.174082994E0
2.057308205E0,-4.856378734E-1,-3.329215646E-1,1.173472166E0
2.059322739E0,-4.660901725E-1,-3.237585723E-1,1.178359032E0
2.061336812E0,-4.398229718E-1,-3.133738637E-1,1.180191636E0
2.063319654E0,-4.294382632E-1,-3.042109013E-1,1.180191636E0
2.065334112E0,-4.037819207E-1,-2.852740586E-1,1.180191636E0
2.067318955E0,-3.781255782E-1,-2.608394623E-1,1.181413412E0
2.069332182E0,-3.634648323E-1,-2.474004179E-1,1.181413412E0
2.071315947E0,-3.396410644E-1,-2.144137025E-1,1.180191636E0
2.073329174E0,-3.090978265E-1,-1.783726513E-1,1.172250390E0
2.075313171E0,-2.962696552E-1,-1.569923609E-1,1.169806957E0
2.077327859E0,-2.681698501E-1,-1.099557430E-1,1.167363524E0
2.079310932E0,-2.425135076E-1,-6.169738993E-2,1.156978726E0
2.081325774E0,-2.327396572E-1,-3.665191308E-2,1.152091861E0
2.083308848E0,-2.113593817E-1,2.260201424E-2,1.142318010E0
2.085322921E0,-1.899790913E-1,8.307767659E-2,1.127046347E0
2.087339225E0,-1.789835095E-1,1.148426682E-1,1.120326877E0
2.089320221E0,-1.563815027E-1,1.820378453E-1,1.105666041E0
2.091335526E0,-1.435533315E-1,2.168571651E-1,1.097724795E0
2.093318368E0,-1.233947799E-1,2.877175212E-1,1.079398870E0
2.095333133E0,-1.050688252E-1,3.604104817E-1,1.060462117E0
2.097316206E0,-9.529497474E-2,3.927863538E-1,1.049466491E0
2.099330357E0,-7.635815442E-2,4.642575979E-1,1.029307961E0
2.101314353E0,-5.436700583E-2,5.332853794E-1,1.006705880E0
2.103328810E0,-4.520402849E-2,5.662720799E-1,9.944885969E-1
2.105313423E0,-2.748893574E-2,6.322455406E-1,9.724974632E-1
2.107326957E0,-1.404990070E-2,6.945537925E-1,9.474520087E-1
2.109310030E0,-5.497787148E-3,7.232644558E-1,9.346238375E-1
2.111324488E0,8.552113548E-3,7.849618196E-1,9.077457786E-1
2.113307792E0,2.260201424E-2,8.393288255E-1,8.827002645E-1
2.115322019E0,3.115412779E-2,8.649851680E-1,8.680394888E-1
2.117336477E0,4.276056588E-2,9.193521738E-1,8.466592431E-1
2.119320165E0,5.558873713E-2,9.645562172E-1,8.246681094E-1
2.121333699E0,5.986479297E-2,9.871582389E-1,8.136724830E-1
2.123317696E0,6.902777404E-2,1.025031924E0,7.916813493E-1
2.125331231E0,7.269296050E-2,1.043357849E0,7.825183868E-1
2.127316765E0,8.979719132E-2,1.076344609E0,7.629706860E-1
2.129329915E0,1.087340117E-1,1.104444385E0,7.483099103E-1
2.131312451E0,1.172861308E-1,1.117883444E0,7.373143435E-1
2.133327139E0,1.331686229E-1,1.136209369E0,7.214318514E-1
2.135311135E0,1.490511149E-1,1.149037480E0,7.073819637E-1
2.137324977E0,1.569923609E-1,1.150870085E0,6.988298297E-1
2.139308974E0,1.753183305E-1,1.152702689E0,6.847799420E-1
2.141323432E0,1.918116808E-1,1.147815824E0,6.743952036E-1
2.143306889E0,2.003637999E-1,1.142928839E0,6.664539576E-1
2.145320731E0,2.186897546E-1,1.128268123E0,6.524040699E-1
2.147335113E0,2.327396572E-1,1.114829063E0,6.407976151E-1
2.149318878E0,2.443460971E-1,1.100168347E0,6.346889734E-1
2.151332644E0,2.675589919E-1,1.078788042E0,6.200281978E-1
2.153316332E0,2.950479090E-1,1.049466491E0,6.072000265E-1
2.155330175E0,3.066543639E-1,1.032973170E0,6.004805565E-1
2.157314171E0,3.292563558E-1,9.957103729E-1,5.845980644E-1
2.159328398E0,3.384193480E-1,9.767735004E-1,5.784893632E-1
2.161311471E0,3.561344445E-1,9.248499870E-1,5.619960427E-1
2.163326545E0,3.707951903E-1,8.710938692E-1,5.461135507E-1
2.165309310E0,3.769038618E-1,8.429940343E-1,5.351179838E-1
2.167325844E0,3.946189582E-1,7.837401032E-1,5.167919993E-1
2.169306456E0,4.105014503E-1,7.208209634E-1,4.923573732E-1
2.171322145E0,4.190535545E-1,6.890559793E-1,4.831944108E-1
2.173336680E0,4.337143302E-1,6.243042946E-1,4.544837475E-1
2.175319137E0,4.434881806E-1,5.583308339E-1,4.251621962E-1
2.177334133E0,4.495968223E-1,5.216789246E-1,4.098905921E-1
2.179316669E0,4.605923891E-1,4.477642179E-1,3.744603992E-1
2.181331126E0,4.703662395E-1,3.738495409E-1,3.384193480E-1
2.183315661E0,4.728097022E-1,3.353650272E-1,3.194825351E-1
2.185329580E0,4.844161272E-1,2.553416789E-1,2.803871334E-1
2.187314115E0,4.850270152E-1,2.131919712E-1,2.577851415E-1
2.189326496E0,4.923573732E-1,1.325577646E-1,2.138028294E-1
2.191310415E0,4.972442985E-1,5.009094998E-2,1.716531366E-1
2.193324872E0,5.027421117E-1,7.330383174E-3,1.496619880E-1
2.195308331E0,5.131267905E-1,-7.452555746E-2,1.069014147E-1
2.197322173E0,5.241223574E-1,-1.539380401E-1,6.475171447E-2
2.199336323E0,5.296201706E-1,-1.930334121E-1,4.276056588E-2
2.201320550E0,5.393940210E-1,-2.712241709E-1,6.108652451E-4
2.203334470E0,5.448917747E-1,-3.524692357E-1,-3.909537569E-2
2.205318158E0,5.503895879E-1,-3.909537494E-1,-6.169738993E-2
2.207333769E0,5.534439087E-1,-4.740314186E-1,-1.020144969E-1
2.209317150E0,5.534439087E-1,-5.467243791E-1,-1.404990107E-1
2.211330147E0,5.552765131E-1,-5.858197808E-1,-1.600466967E-1
2.213314989E0,5.546656251E-1,-6.603453159E-1,-1.966986060E-1
2.215327985E0,5.503895879E-1,-7.281513810E-1,-2.333505303E-1
2.217311366E0,5.503895879E-1,-7.599163651E-1,-2.498438805E-1
2.219324901E0,5.461135507E-1,-8.246681094E-1,-2.871066630E-1
2.221310051E0,5.436700583E-1,-8.515461683E-1,-3.029891551E-1
2.223323586E0,5.400048494E-1,-9.053022861E-1,-3.329215646E-1
2.225307889E0,5.369505286E-1,-9.523389339E-1,-3.634648323E-1
2.227321809E0,5.332853794E-1,-9.761626720E-1,-3.793473244E-1
2.229335575E0,5.277875662E-1,-1.017090678E0,-4.062253833E-1
2.231319571E0,5.210680366E-1,-1.055575132E0,-4.361577928E-1
2.233332797E0,5.210680366E-1,-1.072068453E0,-4.477642179E-1
2.235316487E0,5.131267905E-1,-1.105055213E0,-4.740314186E-1
2.237330944E0,5.039638281E-1,-1.132544160E0,-4.984660447E-1
2.239314325E0,4.954117239E-1,-1.145983219E0,-5.119050741E-1
2.241329090E0,4.880813360E-1,-1.171028733E0,-5.332853794E-1
2.243312164E0,4.770857692E-1,-1.189965487E0,-5.577199459E-1
2.245326083E0,4.709770977E-1,-1.197906733E0,-5.662720799E-1
2.247311848E0,4.642575979E-1,-1.212567568E0,-5.876523852E-1
2.249323229E0,4.526511431E-1,-1.221119642E0,-6.035348773E-1
2.251307841E0,4.495968223E-1,-1.224784851E0,-6.145304441E-1
2.253321991E0,4.367686510E-1,-1.227839112E0,-6.322455406E-1
2.255335526E0,4.294382632E-1,-1.227839112E0,-6.395758986E-1
2.257320445E0,4.166100919E-1,-1.222341299E0,-6.560692787E-1
2.259334365E0,4.074471295E-1,-1.210124016E0,-6.719517708E-1
2.261317669E0,4.043927789E-1,-1.202793717E0,-6.780604124E-1
2.263331511E0,3.940080702E-1,-1.183856845E0,-6.914994717E-1
2.265316122E0,3.836233616E-1,-1.159422278E0,-7.067710757E-1
2.267330273E0,3.775147200E-1,-1.145983219E0,-7.110471725E-1
2.269313654E0,3.683517575E-1,-1.114218235E0,-7.238753438E-1
2.271326957E0,3.622430861E-1,-1.081231475E0,-7.342600226E-1
2.273310876E0,3.579670191E-1,-1.064127207E0,-7.403686643E-1
2.275325412E0,3.512475193E-1,-1.023199320E0,-7.483099103E-1
2.277309100E0,3.500257730E-1,-9.828822017E-1,-7.562511563E-1
2.279322635E0,3.475823104E-1,-9.651671052E-1,-7.593054771E-1
2.281306861E0,3.433062732E-1,-9.260717034E-1,-7.672467232E-1
2.283321012E0,3.353650272E-1,-8.875871897E-1,-7.733554244E-1
2.285335162E0,3.304781020E-1,-8.704829812E-1,-7.794640660E-1
2.287320158E0,3.231477141E-1,-8.338310719E-1,-7.831292152E-1
2.289333077E0,3.133738637E-1,-8.161159754E-1,-7.855727077E-1
2.291315843E0,2.993239760E-1,-7.819074988E-1,-7.922922373E-1
2.293330839E0,2.877175212E-1,-7.495316267E-1,-7.971791625E-1
2.295313912E0,2.785545588E-1,-7.336491346E-1,-7.990117669E-1
2.297328370E0,2.675589919E-1,-7.031059265E-1,-8.002334833E-1
2.299312675E0,2.547308207E-1,-6.719517708E-1,-8.057312369E-1
2.301325978E0,2.486221492E-1,-6.579018831E-1,-8.057312369E-1
2.303309897E0,2.382374406E-1,-6.310238242E-1,-8.093964458E-1
2.305324740E0,2.266310006E-1,-6.041457057E-1,-8.075638413E-1
2.307309275E0,2.223549485E-1,-5.913175344E-1,-8.069530129E-1
2.309321963E0,2.113593817E-1,-5.687155724E-1,-8.063421249E-1
2.311336113E0,2.052507252E-1,-5.497786999E-1,-8.014551997E-1
2.313319801E0,2.009746730E-1,-5.412266254E-1,-7.984008789E-1
2.315334183E0,1.905899495E-1,-5.265658498E-1,-7.935139537E-1
2.317317564E0,1.844813079E-1,-5.155702829E-1,-7.916813493E-1
2.319331483E0,1.771509200E-1,-5.106833577E-1,-7.855727077E-1
2.321315171E0,1.655444801E-1,-5.033529401E-1,-7.788531780E-1
2.323329014E0,1.624901593E-1,-4.990769029E-1,-7.757988572E-1
2.325312318E0,1.508837193E-1,-4.960225821E-1,-7.660250068E-1
2.327329929E0,1.429424733E-1,-4.911356568E-1,-7.586946487E-1
2.329309925E0,1.362229437E-1,-4.880813360E-1,-7.538077235E-1
2.331325307E0,1.276708394E-1,-4.831944108E-1,-7.446447611E-1
2.333308995E0,1.215621829E-1,-4.807509482E-1,-7.336491346E-1
2.335322530E0,1.191187203E-1,-4.783074856E-1,-7.299839854E-1
2.337306526E0,1.136209369E-1,-4.715879560E-1,-7.153232098E-1
2.339320061E0,1.069014147E-1,-4.636467099E-1,-7.000515461E-1
2.341335442E0,1.044579595E-1,-4.605923891E-1,-6.927211881E-1
2.343317592E0,9.712757170E-2,-4.520402849E-1,-6.780604124E-1
2.345333818E0,8.979719132E-2,-4.440990388E-1,-6.627888083E-1
2.347316892E0,8.613199741E-2,-4.410447180E-1,-6.517932415E-1
2.349330427E0,7.635815442E-2,-4.312708676E-1,-6.322455406E-1
2.351313884E0,7.147123665E-2,-4.257730842E-1,-6.212499738E-1
2.353328034E0,6.230825558E-2,-4.123340547E-1,-5.998696685E-1
2.355311647E0,4.825835302E-2,-3.970624208E-1,-5.791002512E-1
2.357325258E0,4.337143153E-2,-3.878994286E-1,-5.687155724E-1
2.359309254E0,3.298672289E-2,-3.695734739E-1,-5.436700583E-1
2.361324327E0,2.321287990E-2,-3.475823104E-1,-5.192354321E-1
2.363307093E0,1.893682219E-2,-3.378084898E-1,-5.070181489E-1
2.365320551E0,7.941247895E-3,-3.127630055E-1,-4.813618064E-1
2.367337778E0,6.108652451E-4,-2.840523422E-1,-4.532620013E-1
2.369320004E0,-3.054326167E-3,-2.700024247E-1,-4.392121136E-1
2.371333771E0,-1.282817032E-2,-2.388483137E-1,-4.117231667E-1
2.373317459E0,-2.138028294E-2,-2.064724565E-1,-3.824016452E-1
2.375331378E0,-2.626720630E-2,-1.905899495E-1,-3.665191531E-1
2.377314989E0,-3.604105115E-2,-1.521054506E-1,-3.378084898E-1
2.379328525E0,-4.276056588E-2,-1.154535338E-1,-3.097086847E-1
2.381313213E0,-4.886921868E-2,-9.834930301E-2,-2.932153046E-1
2.383326978E0,-5.558873713E-2,-6.291911751E-2,-2.645046413E-1
2.385311667E0,-6.047565863E-2,-4.581489414E-2,-2.480112910E-1
2.387325510E0,-6.536258012E-2,-1.343903504E-2,-2.211332172E-1
2.389308583E0,-6.841690838E-2,1.832595654E-2,-1.912008226E-1
2.391322425E0,-6.719517708E-2,3.298672289E-2,-1.753183305E-1
2.393306421E0,-6.719517708E-2,5.986479297E-2,-1.466076523E-1
2.395320187E0,-6.291911751E-2,8.429940045E-2,-1.203404516E-1
2.397334337E0,-5.986479297E-2,9.346238524E-2,-1.062905490E-1
2.399317410E0,-5.497787148E-2,1.191187203E-1,-7.574728876E-2
2.401332175E0,-5.619960278E-2,1.386664063E-1,-4.520402849E-2
2.403316172E0,-5.497787148E-2,1.472185254E-1,-3.359758854E-2
2.405329476E0,-5.803219974E-2,1.679879427E-1,-6.108652451E-4
2.407315626E0,-6.108652428E-2,1.857030392E-1,3.054326214E-2
2.409326314E0,-6.475171447E-2,1.918116808E-1,4.398229718E-2
2.411311003E0,-7.086037099E-2,2.034181207E-1,7.452555746E-2
2.413326076E0,-7.696902007E-2,2.119702399E-1,1.056796908E-1
2.415309765E0,-7.880161703E-2,2.144137025E-1,1.240056455E-1
2.417322991E0,-8.552113175E-2,2.162462920E-1,1.539380401E-1
2.419307296E0,-8.735372871E-2,2.144137025E-1,1.698205322E-1
2.421320754E0,-9.224065393E-2,2.113593817E-1,2.040289938E-1
2.423335288E0,-9.957103431E-2,2.040289938E-1,2.339613885E-1
2.425320207E0,-1.026253626E-1,1.985312104E-1,2.498438805E-1
2.427334358E0,-1.087340117E-1,1.875356287E-1,2.779437006E-1
2.429316508E0,-1.185078546E-1,1.728748679E-1,3.042109013E-1
2.431331504E0,-1.221730486E-1,1.612684280E-1,3.158173263E-1
2.433314269E0,-1.350012124E-1,1.478293836E-1,3.414736688E-1
2.435329035E0,-1.490511149E-1,1.233947799E-1,3.634648323E-1
2.437312185E0,-1.557706445E-1,1.136209369E-1,3.738495409E-1
2.439326643E0,-1.728748679E-1,9.162978828E-2,3.903428912E-1
2.441311177E0,-1.912008226E-1,7.208210230E-2,4.031710625E-1
2.443324790E0,-1.997529417E-1,6.108652428E-2,4.092797041E-1
2.445307247E0,-2.131919712E-1,4.398229718E-2,4.184426963E-1
2.447324166E0,-2.260201424E-1,3.054326214E-2,4.251621962E-1
2.449306624E0,-2.309070677E-1,2.382374369E-2,4.263839424E-1
2.451319159E0,-2.419026345E-1,2.015855350E-2,4.282165468E-1
2.453334232E0,-2.467895597E-1,2.138028294E-2,4.269948006E-1
2.455317920E0,-2.577851415E-1,2.260201424E-2,4.257730842E-1
2.457331763E0,-2.730567753E-1,3.481931984E-2,4.202753007E-1
2.459315221E0,-2.822197378E-1,4.031710699E-2,4.159992337E-1
2.461329371E0,-3.005456924E-1,6.169738993E-2,4.135557711E-1
2.463312752E0,-3.176499307E-1,8.491026610E-2,4.117231667E-1
2.465328055E0,-3.262020350E-1,9.834930301E-2,4.092797041E-1
2.467311745E0,-3.445279896E-1,1.252273768E-1,4.123340547E-1
2.469324741E0,-3.622430861E-1,1.588249654E-1,4.166100919E-1
2.471308429E0,-3.695734739E-1,1.722639948E-1,4.184426963E-1
2.473322579E0,-3.860668242E-1,1.985312104E-1,4.318817258E-1
2.475306883E0,-4.007275999E-1,2.278527319E-1,4.459316432E-1
2.477320649E0,-4.098905921E-1,2.419026345E-1,4.526511431E-1
2.479334799E0,-4.233296216E-1,2.712241709E-1,4.746423066E-1
2.481318871E0,-4.288274050E-1,2.840523422E-1,4.850270152E-1
2.483333253E0,-4.422664344E-1,3.121521473E-1,5.064072609E-1
2.485315788E0,-4.508185387E-1,3.408628106E-1,5.308418870E-1
2.487332707E0,-4.563163519E-1,3.573561609E-1,5.424483418E-1
2.489313626E0,-4.709770977E-1,3.885102868E-1,5.626068711E-1
2.491328007E0,-4.776966274E-1,4.208861589E-1,5.864306092E-1
2.493312311E0,-4.819726646E-1,4.392121136E-1,5.968153477E-1
2.495325846E0,-4.899139404E-1,4.758640230E-1,6.169738770E-1
2.497309842E0,-4.978551865E-1,5.082398653E-1,6.310238242E-1
2.499323762E0,-4.984660447E-1,5.241223574E-1,6.401867867E-1
2.501307142E0,-5.002986193E-1,5.619960427E-1,6.554583907E-1
2.503321600E0,-5.002986193E-1,5.907067060E-1,6.664539576E-1
2.505336288E0,-5.009095073E-1,6.053674817E-1,6.713408828E-1
2.507320285E0,-4.978551865E-1,6.365215778E-1,6.780604124E-1
2.509333896E0,-4.899139404E-1,6.627888083E-1,6.847799420E-1
2.511317200E0,-4.886921942E-1,6.756169796E-1,6.884451509E-1
2.513331350E0,-4.789183438E-1,6.957755089E-1,6.921103001E-1
2.515315116E0,-4.734205604E-1,7.043276429E-1,6.927211881E-1
2.517329574E0,-4.618141353E-1,7.220427394E-1,6.927211881E-1
2.519312954E0,-4.483750761E-1,7.367035151E-1,6.951646209E-1
2.521327104E0,-4.422664344E-1,7.440338731E-1,6.969972253E-1
2.523311024E0,-4.276056588E-1,7.544185519E-1,6.969972253E-1
2.525324251E0,-4.147774875E-1,7.648032904E-1,7.000515461E-1
2.527310170E0,-4.086688459E-1,7.703011036E-1,6.982190013E-1
2.529322705E0,-3.921754956E-1,7.764097452E-1,6.994407177E-1
2.531305856E0,-3.787364662E-1,7.757988572E-1,6.988298297E-1
2.533320928E0,-3.714060783E-1,7.800748944E-1,6.969972253E-1
2.535333540E0,-3.585779071E-1,7.800748944E-1,6.933320761E-1
2.537317844E0,-3.426954150E-1,7.806857824E-1,6.896668673E-1
2.539332610E0,-3.402519524E-1,7.782423496E-1,6.872233748E-1
2.541316298E0,-3.298672438E-1,7.715228200E-1,6.786713004E-1
2.543330448E0,-3.213151097E-1,7.684684992E-1,6.707300544E-1
2.545313829E0,-3.182607889E-1,7.629706860E-1,6.676757336E-1
2.547328902E0,-3.072652221E-1,7.562511563E-1,6.591235995E-1
2.549311975E0,-3.029891551E-1,7.544185519E-1,6.536257863E-1
2.551326048E0,-2.926044464E-1,7.458664775E-1,6.444628239E-1
2.553309198E0,-2.773328125E-1,7.452555895E-1,6.298020482E-1
2.555323964E0,-2.712241709E-1,7.415903807E-1,6.249151230E-1
2.557307345E0,-2.577851415E-1,7.428121567E-1,6.096435189E-1
2.559321726E0,-2.419026345E-1,7.440338731E-1,5.968153477E-1
2.561335337E0,-2.339613885E-1,7.458664775E-1,5.852088928E-1
2.563318642E0,-2.186897546E-1,7.544185519E-1,5.729916096E-1
2.565333099E0,-2.009746730E-1,7.593054771E-1,5.558874011E-1
2.567319249E0,-1.960877478E-1,7.666358948E-1,5.479460955E-1
2.569330091E0,-1.789835095E-1,7.788531780E-1,5.314527750E-1
2.571315858E0,-1.612684280E-1,7.874053121E-1,5.192354321E-1
2.573329469E0,-1.521054506E-1,7.947356701E-1,5.149593949E-1
2.575312234E0,-1.350012124E-1,7.990117669E-1,5.045747161E-1
2.577326692E0,-1.191187203E-1,8.063421249E-1,4.954117239E-1
2.579310073E0,-1.117883399E-1,8.057312369E-1,4.917465150E-1
2.581324223E0,-9.773843735E-2,8.045095205E-1,4.819726646E-1
2.583308450E0,-9.162978828E-2,8.020660877E-1,4.783074856E-1
2.585322908E0,-7.696902007E-2,8.032878041E-1,4.703662395E-1
2.587306597E0,-6.536258012E-2,7.977899909E-1,4.612032473E-1
2.589320208E0,-5.619960278E-2,7.941248417E-1,4.563163519E-1
2.591333743E0,-4.153883830E-2,7.861835957E-1,4.453207552E-1
2.593317739E0,-2.565634064E-2,7.764097452E-1,4.349360466E-1
2.595332428E0,-2.015855350E-2,7.709119320E-1,4.269948006E-1
2.597315809E0,-4.886921961E-3,7.556403279E-1,4.123340547E-1
2.599329651E0,1.221730467E-2,7.367035151E-1,4.001167417E-1
2.601313416E0,2.321287990E-2,7.250970602E-1,3.885102868E-1
2.603327490E0,4.214970022E-2,7.012733221E-1,3.720169365E-1
2.605311563E0,6.169738993E-2,6.695083380E-1,3.561344445E-1
2.607326867E0,6.902777404E-2,6.511823535E-1,3.475823104E-1
2.609309324E0,8.429940045E-2,6.169738770E-1,3.262020350E-1
2.611322552E0,9.957103431E-2,5.736024380E-1,3.060434759E-1
2.613307471E0,1.056796908E-1,5.528330207E-1,2.956587672E-1
2.615321390E0,1.221730486E-1,5.131267905E-1,2.736676335E-1
2.617335155E0,1.288925707E-1,4.893030524E-1,2.638937831E-1
2.619319229E0,1.472185254E-1,4.422664344E-1,2.443460971E-1
2.621332994E0,1.631010175E-1,3.940080702E-1,2.241875380E-1
2.623316990E0,1.692096740E-1,3.701843321E-1,2.119702399E-1
2.625331525E0,1.826487035E-1,3.152064681E-1,1.881465018E-1
2.627315137E0,1.960877478E-1,2.553416789E-1,1.692096740E-1
2.629328672E0,2.021963894E-1,2.247984111E-1,1.563815027E-1
2.631312437E0,2.193006277E-1,1.588249654E-1,1.337794960E-1
2.633326587E0,2.333505303E-1,9.162978828E-2,1.117883399E-1
2.635310199E0,2.382374406E-1,5.375614017E-2,1.014036313E-1
2.637324118E0,2.522873580E-1,-2.076941915E-2,7.513642311E-2
2.639307807E0,2.687807083E-1,-9.162978828E-2,5.131268129E-2
2.641322803E0,2.755002379E-1,-1.295034289E-1,3.665191308E-2
2.643305953E0,2.877175212E-1,-2.028072625E-1,9.773843922E-3
2.645319103E0,2.950479090E-1,-2.382374406E-1,-7.941247895E-3
2.647334869E0,3.066543639E-1,-3.109304011E-1,-3.543018550E-2
2.649317018E0,3.207042515E-1,-3.817907870E-1,-6.414084882E-2
2.651332092E0,3.249803185E-1,-4.153883755E-1,-8.307767659E-2
2.653315704E0,3.378084898E-1,-4.789183438E-1,-1.111774743E-1
2.655329007E0,3.481931984E-1,-5.436700583E-1,-1.429424733E-1
2.657313619E0,3.536909819E-1,-5.742133260E-1,-1.569923609E-1
2.659326462E0,3.610213697E-1,-6.352998614E-1,-1.875356287E-1
2.661310535E0,3.683517575E-1,-6.908885837E-1,-2.199114859E-1
2.663325300E0,3.732386529E-1,-7.195992470E-1,-2.351831198E-1
2.665309296E0,3.811798990E-1,-7.745771408E-1,-2.663372457E-1
2.667324601E0,3.842342496E-1,-8.252789378E-1,-2.956587672E-1
2.669306520E0,3.842342496E-1,-8.460483551E-1,-3.115412891E-1
2.671320054E0,3.897320330E-1,-8.906415105E-1,-3.402519524E-1
2.673335050E0,3.897320330E-1,-9.260717034E-1,-3.689626157E-1
2.675318740E0,3.927863538E-1,-9.419541955E-1,-3.824016452E-1
2.677333197E0,3.927863538E-1,-9.718865752E-1,-4.123340547E-1
2.679316347E0,3.921754956E-1,-9.841039181E-1,-4.288274050E-1
2.681330420E0,3.933972120E-1,-1.008538485E0,-4.575380683E-1
2.683314186E0,3.952298164E-1,-1.031751394E0,-4.874704778E-1
2.685327644E0,3.921754956E-1,-1.041525245E0,-5.027421117E-1
2.687313486E0,3.872885704E-1,-1.058629513E0,-5.332853794E-1
2.689327328E0,3.866777122E-1,-1.071457624E0,-5.638286471E-1
2.691309171E0,3.854559660E-1,-1.078788042E0,-5.797111392E-1
2.693324013E0,3.836233616E-1,-1.092227101E0,-6.090326309E-1
2.695307317E0,3.836233616E-1,-1.103222609E0,-6.377432942E-1
2.697322467E0,3.836233616E-1,-1.106887817E0,-6.536257863E-1
2.699305233E0,3.836233616E-1,-1.114218235E0,-6.805039048E-1
2.701318768E0,3.824016452E-1,-1.122770309E0,-7.073819637E-1
2.703333533E0,3.848451078E-1,-1.128268123E0,-7.183775306E-1
2.705317760E0,3.781255782E-1,-1.136209369E0,-7.440338731E-1
2.707332526E0,3.732386529E-1,-1.142318010E0,-7.672467232E-1
2.709315291E0,3.726277947E-1,-1.144761443E0,-7.751879692E-1
2.711330056E0,3.665191531E-1,-1.147815824E0,-7.977899909E-1
2.713312283E0,3.640756905E-1,-1.149648428E0,-8.087855577E-1
2.715328203E0,3.640756905E-1,-1.149037480E0,-8.301658630E-1
2.717309815E0,3.597996235E-1,-1.145983219E0,-8.460483551E-1
2.719324195E0,3.616322279E-1,-1.143539786E0,-8.509352803E-1
2.721308268E0,3.604104817E-1,-1.136209369E0,-8.686503768E-1
2.723322419E0,3.640756905E-1,-1.124602914E0,-8.820894361E-1
2.725305800E0,3.646865487E-1,-1.120326877E0,-8.845328689E-1
2.727323026E0,3.634648323E-1,-1.106276989E0,-8.979719281E-1
2.729303022E0,3.646865487E-1,-1.086118460E0,-9.053022861E-1
2.731317173E0,3.622430861E-1,-1.076955438E0,-9.071348906E-1
2.733332246E0,3.640756905E-1,-1.056796908E0,-9.138544202E-1
2.735316165E0,3.610213697E-1,-1.028086185E0,-9.181304574E-1
2.737329700E0,3.640756905E-1,-1.015258074E0,-9.162978530E-1
2.739313774E0,3.616322279E-1,-9.822713137E-1,-9.169087410E-1
2.741328154E0,3.591887653E-1,-9.498954415E-1,-9.138544202E-1
2.743311304E0,3.561344445E-1,-9.254608750E-1,-9.114109278E-1
2.745326377E0,3.524692357E-1,-8.772025108E-1,-9.059131742E-1
2.747310297E0,3.536909819E-1,-8.539896011E-1,-8.985827565E-1
2.749323524E0,3.469714522E-1,-8.014551997E-1,-8.863654733E-1
2.751306982E0,3.408628106E-1,-7.440338731E-1,-8.698720932E-1
2.753321670E0,3.408628106E-1,-7.183775306E-1,-8.582656980E-1
2.755305128E0,3.329215646E-1,-6.554583907E-1,-8.405506015E-1
2.757319509E0,3.304781020E-1,-5.894849896E-1,-8.173376918E-1
2.759333351E0,3.280346394E-1,-5.601634383E-1,-8.038986921E-1
2.761316116E0,3.194825351E-1,-4.911356568E-1,-7.764097452E-1
2.763331498E0,3.127630055E-1,-4.227187634E-1,-7.513642311E-1
2.765314032E0,3.127630055E-1,-3.872885704E-1,-7.391469479E-1
2.767330259E0,3.042109013E-1,-3.176499307E-1,-7.092145681E-1
2.769313409E0,2.968805134E-1,-2.449569702E-1,-6.792821288E-1
2.771326560E0,2.950479090E-1,-2.101376504E-1,-6.652322412E-1
2.773310325E0,2.907718420E-1,-1.404990107E-1,-6.365215778E-1
2.775324475E0,2.864958048E-1,-1.044579595E-1,-6.212499738E-1
2.777308394E0,2.840523422E-1,-3.665191308E-2,-5.931501389E-1
2.779322237E0,2.834414840E-1,2.687807009E-2,-5.650503635E-1
2.781306310E0,2.816088796E-1,5.986479297E-2,-5.540547967E-1
2.783320075E0,2.773328125E-1,1.185078546E-1,-5.290092826E-1
2.785334841E0,2.748893499E-1,1.747074574E-1,-5.027421117E-1
2.787318530E0,2.742784917E-1,2.009746730E-1,-4.911356568E-1
2.789332449E0,2.718350291E-1,2.516764700E-1,-4.642575979E-1
2.791315522E0,2.693915665E-1,2.987131178E-1,-4.428772926E-1
2.793329980E0,2.681698501E-1,3.219259977E-1,-4.294382632E-1
2.795313669E0,2.712241709E-1,3.695734739E-1,-4.074471295E-1
2.797327434E0,2.693915665E-1,4.098905921E-1,-3.811798990E-1
2.799311430E0,2.657263875E-1,4.312708676E-1,-3.671300113E-1
2.801325965E0,2.620611787E-1,4.709770977E-1,-3.365867436E-1
2.803309346E0,2.559525371E-1,5.064072609E-1,-3.066543639E-1
2.805322881E0,2.504547536E-1,5.259549618E-1,-2.901609838E-1
2.807308338E0,2.431243658E-1,5.546656251E-1,-2.565633953E-1
2.809320334E0,2.376265824E-1,5.699372888E-1,-2.394591719E-1
2.811334561E0,2.333505303E-1,5.955936313E-1,-2.046398520E-1
2.813319173E0,2.235766798E-1,6.230825782E-1,-1.667662114E-1
2.815332939E0,2.199114859E-1,6.377432942E-1,-1.478293836E-1
2.817317242E0,2.174680233E-1,6.615670323E-1,-1.093448773E-1
2.819330469E0,2.107485086E-1,6.829473376E-1,-6.475171447E-2
2.821315389E0,2.070833147E-1,6.969972253E-1,-4.703662544E-2
2.823328616E0,1.991420686E-1,7.171558142E-1,-6.719517522E-3
2.825312689E0,1.918116808E-1,7.367035151E-1,3.420845419E-2
2.827327147E0,1.887573600E-1,7.446447611E-1,5.253441259E-2
2.829310451E0,1.795943826E-1,7.574729323E-1,9.285151958E-2
2.831323986E0,1.716531366E-1,7.623597980E-1,1.313360333E-1
2.833308058E0,1.649336219E-1,7.641924024E-1,1.514945775E-1
2.835322517E0,1.527163088E-1,7.641924024E-1,1.832595766E-1
2.837305821E0,1.374446750E-1,7.617489696E-1,2.168571651E-1
2.839319971E0,1.319468915E-1,7.574729323E-1,2.327396572E-1
2.841333582E0,1.160643995E-1,7.489207983E-1,2.620611787E-1
2.843317579E0,1.062905490E-1,7.446447611E-1,2.748893499E-1
2.845331113E0,9.101892263E-2,7.348709106E-1,3.023782969E-1
2.847317186E0,7.330382615E-2,7.220427394E-1,3.249803185E-1
2.849329798E0,6.414084882E-2,7.141014934E-1,3.347541690E-1
2.851312564E0,4.825835302E-2,6.982190013E-1,3.555235863E-1
2.853328329E0,2.871066704E-2,6.750060916E-1,3.769038618E-1
2.855311018E0,1.527163107E-2,6.646214128E-1,3.836233616E-1
2.857325552E0,-2.443460980E-3,6.414085031E-1,4.007275999E-1
2.859308934E0,-2.504547499E-2,6.181956530E-1,4.135557711E-1
2.861322391E0,-3.543018550E-2,6.096435189E-1,4.202753007E-1
2.863306156E0,-5.742133409E-2,5.907067060E-1,4.294382632E-1
2.865321768E0,-7.880161703E-2,5.729916096E-1,4.337143302E-1
2.867304303E0,-9.040805697E-2,5.693264008E-1,4.355469346E-1
2.869318684E0,-1.044579595E-1,5.497786999E-1,4.440990388E-1
2.871332526E0,-1.240056455E-1,5.424483418E-1,4.471533597E-1
2.873314984E0,-1.325577646E-1,5.369505286E-1,4.502076805E-1
2.875330133E0,-1.502728462E-1,5.290092826E-1,4.563163519E-1
2.877314669E0,-1.582140923E-1,5.271766782E-1,4.544837475E-1
2.879328280E0,-1.704314053E-1,5.216789246E-1,4.618141353E-1
2.881311353E0,-1.826487035E-1,5.204572082E-1,4.685336351E-1
2.883325811E0,-1.899790913E-1,5.241223574E-1,4.721988440E-1
2.885309192E0,-1.985312104E-1,5.271766782E-1,4.813618064E-1
2.887325496E0,-2.070833147E-1,5.320636034E-1,4.923573732E-1
2.889306415E0,-2.101376504E-1,5.400048494E-1,5.002986193E-1
2.891322334E0,-2.150245607E-1,5.522221923E-1,5.106833577E-1
2.893305177E0,-2.193006277E-1,5.687155724E-1,5.259549618E-1
2.895318943E0,-2.223549485E-1,5.784893632E-1,5.332853794E-1
2.897333477E0,-2.247984111E-1,6.010913849E-1,5.448917747E-1
2.899316550E0,-2.321287990E-1,6.224716902E-1,5.607742667E-1
2.901331624E0,-2.339613885E-1,6.365215778E-1,5.674937963E-1
2.903314928E0,-2.376265824E-1,6.627888083E-1,5.815436840E-1
2.905330077E0,-2.437352389E-1,6.878342628E-1,5.888741016E-1
2.907313998E0,-2.449569702E-1,7.018841505E-1,6.010913849E-1
2.909326686E0,-2.492330223E-1,7.269296646E-1,6.126978397E-1
2.911310067E0,-2.522873580E-1,7.422012687E-1,6.157521605E-1
2.913325063E0,-2.559525371E-1,7.648032904E-1,6.279694438E-1
2.915308444E0,-2.596177161E-1,7.874053121E-1,6.352998614E-1
2.917322056E0,-2.577851415E-1,7.990117669E-1,6.395758986E-1
2.919306052E0,-2.651155293E-1,8.197811842E-1,6.456845403E-1
2.921320740E0,-2.645046413E-1,8.387179971E-1,6.530149579E-1
2.923333967E0,-2.700024247E-1,8.448266387E-1,6.530149579E-1
2.925317964E0,-2.669481039E-1,8.637634516E-1,6.591235995E-1
2.927333960E0,-2.718350291E-1,8.820894361E-1,6.609562039E-1
2.929316109E0,-2.718350291E-1,8.881980777E-1,6.621779203E-1
2.931329644E0,-2.663372457E-1,9.059131742E-1,6.597344875E-1
2.933313949E0,-2.608394623E-1,9.217956662E-1,6.591235995E-1
2.935327868E0,-2.590068579E-1,9.297369123E-1,6.591235995E-1
2.937311556E0,-2.547308207E-1,9.492846131E-1,6.566801667E-1
2.939325937E0,-2.510656118E-1,9.547823668E-1,6.536257863E-1
2.941309626E0,-2.431243658E-1,9.718865752E-1,6.475171447E-1
2.943323237E0,-2.321287990E-1,9.889908433E-1,6.389650702E-1
2.945306926E0,-2.260201424E-1,9.969320893E-1,6.322455406E-1
2.947322229E0,-2.125810981E-1,1.010371089E0,6.206390858E-1
2.949304688E0,-1.936442852E-1,1.021977544E0,6.102544069E-1
2.951318530E0,-1.844813079E-1,1.028086185E0,6.029239893E-1
2.953332988E0,-1.716531366E-1,1.039081812E0,5.876523852E-1
2.955316676E0,-1.539380401E-1,1.047023058E0,5.705481172E-1
2.957330596E0,-1.490511149E-1,1.051909924E0,5.626068711E-1
2.959314515E0,-1.319468915E-1,1.056796908E0,5.430592299E-1
2.961328742E0,-1.142318025E-1,1.061683774E0,5.271766782E-1
2.963312738E0,-1.050688252E-1,1.063516378E0,5.161811113E-1
2.965325966E0,-8.491026610E-2,1.065348983E0,4.978551865E-1
2.967311500E0,-6.475171447E-2,1.065348983E0,4.807509482E-1
2.969324035E0,-5.497787148E-2,1.065348983E0,4.740314186E-1
2.971308108E0,-3.481931984E-2,1.059851170E0,4.593706727E-1
2.973321951E0,-2.504547499E-2,1.055575132E0,4.495968223E-1
2.975305331E0,-7.330383174E-3,1.047023058E0,4.379903674E-1
2.977319712E0,9.773843922E-3,1.037249207E0,4.269948006E-1
2.979334477E0,1.588249579E-2,1.030529618E0,4.208861589E-1
2.981317628E0,2.932153270E-2,1.015868902E0,4.111123085E-1
2.983332086E0,3.909537569E-2,1.002429843E0,4.025602043E-1
2.985316697E0,4.886921868E-2,9.914342761E-1,3.995058835E-1
2.987330770E0,6.414084882E-2,9.743300676E-1,3.940080702E-1
2.989313844E0,7.941248268E-2,9.560040832E-1,3.891211748E-1
2.991327994E0,8.735372871E-2,9.431759119E-1,3.830125034E-1
2.993311067E0,1.020144969E-1,9.217956662E-1,3.781255782E-1
2.995325293E0,1.185078546E-1,9.034696817E-1,3.738495409E-1
2.997309213E0,1.264491081E-1,8.955284357E-1,3.701843321E-1
2.999323363E0,1.398881376E-1,8.729264140E-1,3.683517575E-1
3.001305898E0,1.453859210E-1,8.503243923E-1,3.677408695E-1
3.003320971E0,1.576032341E-1,8.423831463E-1,3.579670191E-1
3.005334814E0,1.698205322E-1,8.295549750E-1,3.481931984E-1
3.007319964E0,1.747074574E-1,8.246681094E-1,3.414736688E-1
3.009333190E0,1.875356287E-1,8.210029006E-1,3.280346394E-1
3.011316263E0,1.960877478E-1,8.277224302E-1,3.103195429E-1
3.013330183E0,2.003637999E-1,8.368853927E-1,3.048217595E-1
3.015313872E0,2.119702399E-1,8.478809595E-1,2.901609838E-1
3.017328329E0,2.186897546E-1,8.582656980E-1,2.742784917E-1
3.019311941E0,2.254092693E-1,8.619308472E-1,2.651155293E-1
3.021326092E0,2.382374406E-1,8.662069440E-1,2.522873580E-1
3.023310164E0,2.455678284E-1,8.655960560E-1,2.394591719E-1
3.025324545E0,2.535090744E-1,8.631525636E-1,2.315179259E-1
3.027308849E0,2.608394623E-1,8.527678847E-1,2.199114859E-1
3.029322077E0,2.663372457E-1,8.368853927E-1,2.089159191E-1
3.031305534E0,2.687807083E-1,8.258898258E-1,2.028072625E-1
3.033319684E0,2.730567753E-1,8.008443117E-1,1.936442852E-1
3.035333449E0,2.736676335E-1,7.690793276E-1,1.820378453E-1
3.037316600E0,2.730567753E-1,7.550294399E-1,1.771509200E-1
3.039331288E0,2.755002379E-1,7.147123218E-1,1.685988009E-1
3.041315054E0,2.742784917E-1,6.994407177E-1,1.606575549E-1
3.043328896E0,2.767219543E-1,6.579018831E-1,1.521054506E-1
3.045313124E0,2.724458873E-1,6.126978397E-1,1.380555481E-1
3.047328889E0,2.718350291E-1,5.894849896E-1,1.301143020E-1
3.049310346E0,2.700024247E-1,5.412266254E-1,1.166752651E-1
3.051323958E0,2.638937831E-1,4.893030524E-1,1.014036313E-1
3.053308801E0,2.620611787E-1,4.612032473E-1,8.979719132E-2
3.055322412E0,2.577851415E-1,4.074471295E-1,7.147123665E-2
3.057306716E0,2.504547536E-1,3.500257730E-1,5.009094998E-2
3.059320250E0,2.461786866E-1,3.200933933E-1,4.031710699E-2
3.061334632E0,2.425135076E-1,2.614503205E-1,1.527163107E-2
3.063318320E0,2.382374406E-1,1.979203373E-1,-1.038470957E-2
3.065333470E0,2.394591719E-1,1.679879427E-1,-2.199114859E-2
3.067316466E0,2.333505303E-1,1.014036313E-1,-5.009094998E-2
3.069330309E0,2.315179259E-1,6.719517708E-2,-6.536258012E-2
3.071313152E0,2.290744632E-1,-3.054326167E-3,-9.285151958E-2
3.073327840E0,2.272418737E-1,-7.819075137E-2,-1.185078546E-1
3.075311605E0,2.247984111E-1,-1.160643995E-1,-1.337794960E-1
3.077326371E0,2.223549485E-1,-1.918116808E-1,-1.624901593E-1
3.079309060E0,2.211332172E-1,-2.663372457E-1,-1.924225539E-1
3.081323825E0,2.199114859E-1,-3.023782969E-1,-2.064724565E-1
3.083306590E0,2.168571651E-1,-3.701843321E-1,-2.357939780E-1
3.085321126E0,2.083050460E-1,-4.398229718E-1,-2.657263875E-1
3.087306352E0,2.058615834E-1,-4.703662395E-1,-2.834414840E-1
3.089319887E0,2.009746730E-1,-5.314527750E-1,-3.158173263E-1
3.091332806E0,1.954768747E-1,-5.858197808E-1,-3.463605940E-1
3.093317111E0,1.948660165E-1,-6.133087277E-1,-3.640756905E-1
3.095330953E0,1.954768747E-1,-6.615670323E-1,-3.927863538E-1
3.097314256E0,1.954768747E-1,-7.018841505E-1,-4.214970171E-1
3.099328714E0,1.948660165E-1,-7.244861722E-1,-4.337143302E-1
3.101312788E0,1.979203373E-1,-7.611380816E-1,-4.605923891E-1
3.103326630E0,1.966986060E-1,-7.800748944E-1,-4.728097022E-1
3.105310626E0,2.015855312E-1,-8.100073338E-1,-4.929682612E-1
3.107325007E0,1.973094791E-1,-8.387179971E-1,-5.143485069E-1
3.109308158E0,1.954768747E-1,-8.515461683E-1,-5.241223574E-1
3.111321923E0,1.905899495E-1,-8.735373020E-1,-5.387831330E-1
3.113305919E0,1.850921661E-1,-8.875871897E-1,-5.497786999E-1
3.115319761E0,1.844813079E-1,-8.906415105E-1,-5.571091175E-1
3.117333989E0,1.808161139E-1,-9.004153609E-1,-5.668829679E-1
3.119317600E0,1.765400618E-1,-9.004153609E-1,-5.717698932E-1
3.121331750E0,1.747074574E-1,-8.985827565E-1,-5.766568184E-1
3.123315207E0,1.716531366E-1,-8.979719281E-1,-5.797111392E-1
3.125329589E0,1.618792862E-1,-8.906415105E-1,-5.858197808E-1
3.127314585E0,1.576032341E-1,-8.851437569E-1,-5.864306092E-1
3.129324658E0,1.551597714E-1,-8.747590184E-1,-5.888741016E-1
3.131311731E0,1.459967941E-1,-8.564330935E-1,-5.888741016E-1
3.133325574E0,1.423316002E-1,-8.484918475E-1,-5.894849896E-1
3.135309339E0,1.362229437E-1,-8.326093554E-1,-5.913175344E-1
3.137323412E0,1.337794960E-1,-8.222246170E-1,-5.919284225E-1
3.139306870E0,1.307251602E-1,-8.038986921E-1,-5.937610269E-1
3.141321021E0,1.258382350E-1,-7.880161405E-1,-5.955936313E-1
3.143304632E0,1.227839142E-1,-7.776314616E-1,-5.974262357E-1
3.145319782E0,1.221730486E-1,-7.605272532E-1,-6.010913849E-1
3.147334163E0,1.178969890E-1,-7.403686643E-1,-6.059783101E-1
3.149316621E0,1.209513173E-1,-7.342600226E-1,-6.078109145E-1
3.151331386E0,1.233947799E-1,-7.171558142E-1,-6.175847650E-1
3.153314152E0,1.301143020E-1,-6.976081133E-1,-6.243042946E-1
3.155328071E0,1.313360333E-1,-6.878342628E-1,-6.298020482E-1
3.157312375E0,1.350012124E-1,-6.664539576E-1,-6.383541822E-1
3.159326756E0,1.404990107E-1,-6.499606371E-1,-6.493497491E-1
3.161309829E0,1.447750628E-1,-6.401867867E-1,-6.566801667E-1
3.163323363E0,1.527163088E-1,-6.212499738E-1,-6.664539576E-1
3.165307437E0,1.588249654E-1,-6.035348773E-1,-6.725626588E-1
3.167323741E0,1.618792862E-1,-5.919284225E-1,-6.774495840E-1
3.169306429E0,1.704314053E-1,-5.723807216E-1,-6.805039048E-1
3.171319118E0,1.753183305E-1,-5.607742667E-1,-6.835582256E-1
3.173333884E0,1.863138974E-1,-5.400048494E-1,-6.860016584E-1
3.175317495E0,1.942551434E-1,-5.125159621E-1,-6.835582256E-1
3.177331722E0,2.009746730E-1,-4.984660447E-1,-6.792821288E-1
3.179315333E0,2.138028294E-1,-4.703662395E-1,-6.731734872E-1
3.181328638E0,2.247984111E-1,-4.398229718E-1,-6.627888083E-1
3.183312634E0,2.339613885E-1,-4.257730842E-1,-6.542366743E-1
3.185328630E0,2.461786866E-1,-3.897320330E-1,-6.365215778E-1
3.187311934E0,2.626720667E-1,-3.536909819E-1,-6.151412725E-1
3.189325162E0,2.706133127E-1,-3.359758854E-1,-6.035348773E-1
3.191308927E0,2.877175212E-1,-2.993239760E-1,-5.723807216E-1
3.193322461E0,3.145956099E-1,-2.663372457E-1,-5.412266254E-1
3.195306765E0,3.292563558E-1,-2.516764700E-1,-5.253441334E-1
3.197321224E0,3.543018401E-1,-2.174680233E-1,-4.874704778E-1
3.199304835E0,3.665191531E-1,-2.040289938E-1,-4.667010605E-1
3.201318446E0,3.817907870E-1,-1.753183305E-1,-4.245513380E-1
3.203332904E0,3.952298164E-1,-1.453859210E-1,-3.799581826E-1
3.205316285E0,4.001167417E-1,-1.319468915E-1,-3.585779071E-1
3.207332512E0,4.025602043E-1,-1.014036313E-1,-3.090978265E-1
3.209313124E0,4.019493461E-1,-7.147123665E-2,-2.608394623E-1
3.211328504E0,4.062253833E-1,-5.986479297E-2,-2.357939780E-1
3.213311347E0,4.019493461E-1,-3.298672289E-2,-1.826487035E-1
3.215326036E0,3.982841372E-1,-1.343903504E-2,-1.325577646E-1
3.217309493E0,3.964515328E-1,-4.276056774E-3,-1.056796908E-1
3.219324182E0,3.903428912E-1,1.099557430E-2,-5.558873713E-2
3.221307332E0,3.854559660E-1,2.626720630E-2,-6.719517522E-3
3.223321790E0,3.824016452E-1,3.298672289E-2,1.710422710E-2
3.225306017E0,3.756821156E-1,4.520402849E-2,6.169738993E-2
3.227320782E0,3.665191531E-1,6.291911751E-2,1.050688252E-1
3.229333702E0,3.646865487E-1,7.391469181E-2,1.240056455E-1
3.231317083E0,3.543018401E-1,1.007927656E-1,1.649336219E-1
3.233331617E0,3.463605940E-1,1.130100712E-1,1.808161139E-1
3.235314998E0,3.310889602E-1,1.398881376E-1,2.162462920E-1
3.237329072E0,3.170390725E-1,1.710422635E-1,2.455678284E-1
3.239312452E0,3.097086847E-1,1.863138974E-1,2.602286041E-1
3.241327218E0,2.938261926E-1,2.211332172E-1,2.828305960E-1
3.243310598E0,2.767219543E-1,2.541199327E-1,3.005456924E-1
3.245324518E0,2.681698501E-1,2.712241709E-1,3.139847219E-1
3.247309437E0,2.443460971E-1,3.072652221E-1,3.292563558E-1
3.249323279E0,2.150245607E-1,3.402519524E-1,3.420845270E-1
3.251305737E0,1.985312104E-1,3.555235863E-1,3.457497358E-1
3.253320734E0,1.667662114E-1,3.909537494E-1,3.579670191E-1
3.255303576E0,1.331686229E-1,4.129449129E-1,3.659082949E-1
3.257317649E0,1.166752651E-1,4.294382632E-1,3.671300113E-1
3.259331876E0,8.674286306E-2,4.495968223E-1,3.769038618E-1
3.261315565E0,5.192354694E-2,4.642575979E-1,3.842342496E-1
3.263329946E0,3.481931984E-2,4.703662395E-1,3.885102868E-1
3.265315173E0,1.221730490E-3,4.783074856E-1,3.933972120E-1
3.267328169E0,-1.588249579E-2,4.819726646E-1,3.946189582E-1
3.269311473E0,-5.314527452E-2,4.801400900E-1,4.013384581E-1
3.271325623E0,-8.429940045E-2,4.783074856E-1,4.117231667E-1
3.273309311E0,-1.020144969E-1,4.734205604E-1,4.166100919E-1
3.275324077E0,-1.319468915E-1,4.550946057E-1,4.276056588E-1
3.277306304E0,-1.612684280E-1,4.324925840E-1,4.422664344E-1
3.279320993E0,-1.759291887E-1,4.184426963E-1,4.477642179E-1
3.281304681E0,-2.058615834E-1,3.854559660E-1,4.648684561E-1
3.283319216E0,-2.315179259E-1,3.494149148E-1,4.819726646E-1
3.285332443E0,-2.437352389E-1,3.286454976E-1,4.899139404E-1
3.287318824E0,-2.687807083E-1,2.858849466E-1,5.088507533E-1
3.289327512E0,-2.956587672E-1,2.492330223E-1,5.271766782E-1
3.291315816E0,-3.060434759E-1,2.302961946E-1,5.351179838E-1
3.293329044E0,-3.310889602E-1,1.973094791E-1,5.522221923E-1
3.295312347E0,-3.543018401E-1,1.692096740E-1,5.626068711E-1
3.297326805E0,-3.646865487E-1,1.576032341E-1,5.736024380E-1
3.299310801E0,-3.854559660E-1,1.386664063E-1,5.864306092E-1
3.301324644E0,-3.958406746E-1,1.313360333E-1,5.900958180E-1
3.303308332E0,-4.159992337E-1,1.172861308E-1,6.023131609E-1
3.305323790E0,-4.373795092E-1,1.075122803E-1,6.078109145E-1
3.307306478E0,-4.459316432E-1,1.038470939E-1,6.114761233E-1
3.309320398E0,-4.660901725E-1,9.590584040E-2,6.169738770E-1
3.311333933E0,-4.838052690E-1,9.346238524E-2,6.218608022E-1
3.313317852E0,-4.923573732E-1,9.224065393E-2,6.261368990E-1
3.315332002E0,-5.064072609E-1,9.407325089E-2,6.340781450E-1
3.317315076E0,-5.180137157E-1,9.590584040E-2,6.420193911E-1
3.319329610E0,-5.265658498E-1,1.014036313E-1,6.469063163E-1
3.321313298E0,-5.351179838E-1,1.087340117E-1,6.542366743E-1
3.323327679E0,-5.448917747E-1,1.227839142E-1,6.664539576E-1
3.325310753E0,-5.461135507E-1,1.313360333E-1,6.731734872E-1
3.327327441E0,-5.522221923E-1,1.478293836E-1,6.866125464E-1
3.329309899E0,-5.540547967E-1,1.576032341E-1,6.939429045E-1
3.331323126E0,-5.558874011E-1,1.783726513E-1,7.079927921E-1
3.333307353E0,-5.564982295E-1,2.009746730E-1,7.263187766E-1
3.335320657E0,-5.571091175E-1,2.138028294E-1,7.318165898E-1
3.337304653E0,-5.540547967E-1,2.394591719E-1,7.458664775E-1
3.339318803E0,-5.491678715E-1,2.657263875E-1,7.562511563E-1
3.341333262E0,-5.473352671E-1,2.822197378E-1,7.623597980E-1
3.343316334E0,-5.375614166E-1,3.097086847E-1,7.703011036E-1
3.345331100E0,-5.283984542E-1,3.402519524E-1,7.788531780E-1
3.347315019E0,-5.253441334E-1,3.567453027E-1,7.819074988E-1
3.349328323E0,-5.161811113E-1,3.891211748E-1,7.855727077E-1
3.351312858E0,-5.039638281E-1,4.233296216E-1,7.904596329E-1
3.353326085E0,-4.996877611E-1,4.440990388E-1,7.898487449E-1
3.355309773E0,-4.874704778E-1,4.752531648E-1,7.880161405E-1
3.357323693E0,-4.709770977E-1,5.094616413E-1,7.898487449E-1
3.359307689E0,-4.648684561E-1,5.277875662E-1,7.904596329E-1
3.361322070E0,-4.483750761E-1,5.638286471E-1,7.867944241E-1
3.363305450E0,-4.379903674E-1,5.815436840E-1,7.849618196E-1
3.365319986E0,-4.208861589E-1,6.145304441E-1,7.806857824E-1
3.367335905E0,-4.043927789E-1,6.505714655E-1,7.788531780E-1
3.369316593E0,-3.946189582E-1,6.688974500E-1,7.745771408E-1
3.371331974E0,-3.805690408E-1,7.073819637E-1,7.703011036E-1
3.373314971E0,-3.665191531E-1,7.483099103E-1,7.648032904E-1
3.375329198E0,-3.597996235E-1,7.690793276E-1,7.617489696E-1
3.377312886E0,-3.445279896E-1,8.148942590E-1,7.531968355E-1
3.379327343E0,-3.274237812E-1,8.655960560E-1,7.483099103E-1
3.381310725E0,-3.176499307E-1,8.936958313E-1,7.415903807E-1
3.383325106E0,-2.968805134E-1,9.486737251E-1,7.330383062E-1
3.385309102E0,-2.687807083E-1,9.963212013E-1,7.257078886E-1
3.387324482E0,-2.553416789E-1,1.022588372E0,7.220427394E-1
3.389307325E0,-2.260201424E-1,1.072068453E0,7.134906054E-1
3.391320245E0,-1.997529417E-1,1.119105101E0,7.049384713E-1
3.393335010E0,-1.899790913E-1,1.139874578E0,6.988298297E-1
3.395318083E0,-1.685988009E-1,1.182024240E0,6.884451509E-1
3.397332157E0,-1.582140923E-1,1.202182770E0,6.817256212E-1
3.399315922E0,-1.459967941E-1,1.240056396E0,6.701191664E-1
3.401330379E0,-1.398881376E-1,1.279151797E0,6.548475623E-1
3.403314068E0,-1.368338168E-1,1.296256065E0,6.475171447E-1
3.405327603E0,-1.295034289E-1,1.328021049E0,6.334672570E-1
3.407313368E0,-1.258382350E-1,1.354899168E0,6.175847650E-1
3.409327595E0,-1.215621829E-1,1.367727280E0,6.126978397E-1
3.411308745E0,-1.203404516E-1,1.385442376E0,5.998696685E-1
3.413323281E0,-1.148426682E-1,1.394605398E0,5.888741016E-1
3.415307584E0,-1.130100712E-1,1.395827055E0,5.852088928E-1
3.417322042E0,-1.081231460E-1,1.388496757E0,5.784893632E-1
3.419304730E0,-1.032362282E-1,1.371392488E0,5.742133260E-1
3.421318650E0,-1.020144969E-1,1.360396862E0,5.729916096E-1
3.423334031E0,-9.346238524E-2,1.330464482E0,5.723807216E-1
3.425317335E0,-8.368854225E-2,1.293201685E0,5.772676468E-1
3.427332100E0,-8.002334833E-2,1.272432327E0,5.784893632E-1
3.429315251E0,-7.269296050E-2,1.222952247E0,5.809328556E-1
3.431329324E0,-6.841690838E-2,1.193019867E0,5.839871764E-1
3.433312781E0,-5.864306539E-2,1.135598540E0,5.900958180E-1
3.435326239E0,-5.009094998E-2,1.065348983E0,5.913175344E-1
3.437310313E0,-4.642575979E-2,1.031751394E0,5.907067060E-1
3.439324462E0,-3.665191308E-2,9.560040832E-1,5.900958180E-1
3.441308381E0,-2.687807009E-2,8.759807348E-1,5.882632136E-1
3.443322608E0,-2.015855350E-2,8.319984674E-1,5.870414972E-1
3.445305605E0,-8.552113548E-3,7.458664775E-1,5.839871764E-1
3.447322217E0,1.221730490E-3,6.524040699E-1,5.742133260E-1
3.449303213E0,9.773843922E-3,6.029239893E-1,5.693264008E-1
3.451319209E0,2.504547499E-2,5.021312237E-1,5.583308339E-1
3.453332436E0,3.970624134E-2,3.964515328E-1,5.473352671E-1
3.455316048E0,4.825835302E-2,3.414736688E-1,5.406157374E-1
3.457330275E0,6.719517708E-2,2.290744632E-1,5.259549618E-1
3.459313348E0,7.574728876E-2,1.728748679E-1,5.198463202E-1
3.461328652E0,9.407325089E-2,5.192354694E-2,5.027421117E-1
3.463311417E0,1.154535338E-1,-7.208210230E-2,4.819726646E-1
3.465326260E0,1.246165112E-1,-1.295034289E-1,4.697553813E-1
3.467310179E0,1.453859210E-1,-2.455678284E-1,4.416555762E-1
3.469324022E0,1.704314053E-1,-3.579670191E-1,4.147774875E-1
3.471307787E0,1.814269722E-1,-4.105014503E-1,3.988949955E-1
3.473321014E0,2.034181207E-1,-5.112941861E-1,3.683517575E-1
3.475305010E0,2.223549485E-1,-6.053674817E-1,3.329215646E-1
3.477319084E0,2.357939780E-1,-6.524040699E-1,3.164281845E-1
3.479333618E0,2.535090744E-1,-7.440338731E-1,2.809980214E-1
3.481316999E0,2.669481039E-1,-8.307767510E-1,2.443460971E-1
3.483330764E0,2.742784917E-1,-8.717046976E-1,2.309070677E-1
3.485313838E0,2.889392674E-1,-9.505063295E-1,1.948660165E-1
3.487330219E0,3.029891551E-1,-1.020755768E0,1.643227488E-1
3.489313522E0,3.078760803E-1,-1.054964304E0,1.459967941E-1
3.491326441E0,3.231477141E-1,-1.114218235E0,1.154535338E-1
3.493309592E0,3.274237812E-1,-1.140485406E0,1.007927656E-1
3.495324896E0,3.439171314E-1,-1.189965487E0,7.269296050E-2
3.497307738E0,3.616322279E-1,-1.232115149E0,3.970624134E-2
3.499322119E0,3.683517575E-1,-1.251662850E0,2.626720630E-2
3.501305885E0,3.860668242E-1,-1.288925648E0,-6.108652451E-4
3.503319727E0,3.970624208E-1,-1.323745012E0,-2.626720630E-2
3.505335031E0,4.050036669E-1,-1.341460109E0,-4.214970022E-2
3.507318181E0,4.135557711E-1,-1.367116451E0,-6.658431143E-2
3.509332024E0,4.208861589E-1,-1.391551018E0,-9.162978828E-2
3.511315020E0,4.257730842E-1,-1.403768301E0,-1.026253626E-1
3.513329477E0,4.343251884E-1,-1.422705173E0,-1.276708394E-1
3.515313550E0,4.392121136E-1,-1.437976837E0,-1.539380401E-1
3.517327393E0,4.398229718E-1,-1.442863703E0,-1.643227488E-1
3.519311313E0,4.434881806E-1,-1.450194120E0,-1.869247705E-1
3.521325155E0,4.465425014E-1,-1.454470158E0,-2.113593817E-1
3.523308535E0,4.520402849E-1,-1.455080986E0,-2.217440903E-1
3.525323071E0,4.563163519E-1,-1.450804949E0,-2.412917763E-1
3.527308836E0,4.569272101E-1,-1.446528912E0,-2.528982162E-1
3.529316601E0,4.654793143E-1,-1.442863703E0,-2.712241709E-1
3.531334674E0,4.715879560E-1,-1.436144233E0,-2.871066630E-1
3.533318440E0,4.758640230E-1,-1.433700681E0,-2.944370508E-1
3.535332283E0,4.838052690E-1,-1.421483397E0,-3.072652221E-1
3.537316279E0,4.941899776E-1,-1.411098719E0,-3.145956099E-1
3.539330659E0,4.990769029E-1,-1.402546644E0,-3.225368559E-1
3.541314041E0,5.094616413E-1,-1.389718413E0,-3.286454976E-1
3.543328806E0,5.186246037E-1,-1.378111959E0,-3.365867436E-1
3.545312494E0,5.222898126E-1,-1.370781660E0,-3.384193480E-1
3.547327567E0,5.296201706E-1,-1.353677392E0,-3.445279896E-1
3.549310718E0,5.363397002E-1,-1.334129691E0,-3.518583775E-1
3.551323637E0,5.387831330E-1,-1.323745012E0,-3.536909819E-1
3.553307249E0,5.430592299E-1,-1.295645237E0,-3.567453027E-1
3.555322091E0,5.522221923E-1,-1.264491081E0,-3.567453027E-1
3.557305165E0,5.558874011E-1,-1.249219418E0,-3.561344445E-1
3.559319545E0,5.626068711E-1,-1.208902359E0,-3.524692357E-1
3.561333772E0,5.656611919E-1,-1.185078621E0,-3.555235863E-1
3.563317768E0,5.711590052E-1,-1.134376764E0,-3.500257730E-1
3.565330919E0,5.742133260E-1,-1.076344609E0,-3.445279896E-1
3.567316223E0,5.760459304E-1,-1.047023058E0,-3.408628106E-1
3.569330296E0,5.778785348E-1,-9.828822017E-1,-3.310889602E-1
3.571312522E0,5.809328556E-1,-9.169087410E-1,-3.207042515E-1
3.573327519E0,5.809328556E-1,-8.802568316E-1,-3.158173263E-1
3.575310362E0,5.827654600E-1,-8.100073338E-1,-3.011565804E-1
3.577325127E0,5.845980644E-1,-7.385360599E-1,-2.864958048E-1
3.579309123E0,5.852088928E-1,-7.024950385E-1,-2.803871334E-1
3.581322658E0,5.803219676E-1,-6.316346526E-1,-2.669481039E-1
3.583306577E0,5.784893632E-1,-5.619960427E-1,-2.535090744E-1
3.585320496E0,5.748242140E-1,-5.308418870E-1,-2.474004179E-1
3.587305339E0,5.717698932E-1,-4.697553813E-1,-2.382374406E-1
3.589318566E0,5.644394755E-1,-4.098905921E-1,-2.315179259E-1
3.591332178E0,5.626068711E-1,-3.842342496E-1,-2.235766798E-1
3.593315866E0,5.522221923E-1,-3.341432810E-1,-2.125810981E-1
3.595330554E0,5.473352671E-1,-3.090978265E-1,-2.076941878E-1
3.597314013E0,5.375614166E-1,-2.663372457E-1,-2.021963894E-1
3.599328394E0,5.259549618E-1,-2.266310006E-1,-1.936442852E-1
3.601311466E0,5.210680366E-1,-2.083050460E-1,-1.893682331E-1
3.603325693E0,5.076290369E-1,-1.771509200E-1,-1.814269722E-1
3.605308767E0,4.911356568E-1,-1.466076523E-1,-1.698205322E-1
3.607325609E0,4.844161272E-1,-1.319468915E-1,-1.649336219E-1
3.609306836E0,4.673119187E-1,-1.056796908E-1,-1.521054506E-1
3.611322524E0,4.526511431E-1,-7.513642311E-2,-1.404990107E-1
3.613304983E0,4.416555762E-1,-5.864306539E-2,-1.331686229E-1
3.615319210E0,4.263839424E-1,-2.626720630E-2,-1.178969890E-1
3.617333052E0,4.111123085E-1,1.282817032E-2,-1.026253626E-1
3.619316740E0,4.043927789E-1,3.237585723E-2,-9.285151958E-2
3.621331198E0,3.927863538E-1,7.574728876E-2,-7.574728876E-2
3.623314810E0,3.885102868E-1,9.896016866E-2,-6.780604273E-2
3.625329345E0,3.805690408E-1,1.423316002E-1,-4.581489414E-2
3.627313648E0,3.720169365E-1,1.881465018E-1,-2.321287990E-2
3.629326799E0,3.701843321E-1,2.107485086E-1,-1.343903504E-2
3.631310564E0,3.634648323E-1,2.541199327E-1,1.160643995E-2
3.633324407E0,3.591887653E-1,2.938261926E-1,3.970624134E-2
3.635307479E0,3.561344445E-1,3.145956099E-1,5.375614017E-2
3.637322169E0,3.518583775E-1,3.457497358E-1,8.307767659E-2
3.639305626E0,3.494149148E-1,3.744603992E-1,1.136209369E-1
3.641320315E0,3.475823104E-1,3.854559660E-1,1.270599663E-1
3.643303464E0,3.469714522E-1,4.068362415E-1,1.557706445E-1
3.645317615E0,3.402519524E-1,4.251621962E-1,1.857030392E-1
3.647333842E0,3.384193480E-1,4.318817258E-1,2.009746730E-1
3.649316377E0,3.298672438E-1,4.477642179E-1,2.296853364E-1
3.651329603E0,3.176499307E-1,4.569272101E-1,2.571742535E-1
3.653314216E0,3.097086847E-1,4.618141353E-1,2.693915665E-1
3.655327981E0,2.926044464E-1,4.673119187E-1,2.919935882E-1
3.657311362E0,2.846632004E-1,4.715879560E-1,3.011565804E-1
3.659325511E0,2.663372457E-1,4.746423066E-1,3.231477141E-1
3.661308893E0,2.443460971E-1,4.758640230E-1,3.420845270E-1
3.663322812E0,2.315179259E-1,4.801400900E-1,3.536909819E-1
3.665307039E0,2.070833147E-1,4.862487316E-1,3.714060783E-1
3.667321189E0,1.814269722E-1,4.923573732E-1,3.885102868E-1
3.669304570E0,1.692096740E-1,4.960225821E-1,3.976732790E-1
3.671318720E0,1.398881376E-1,5.064072609E-1,4.141666293E-1
3.673332562E0,1.136209369E-1,5.155702829E-1,4.276056588E-1
3.675316635E0,9.590584040E-2,5.204572082E-1,4.349360466E-1
3.677331016E0,6.169738993E-2,5.308418870E-1,4.465425014E-1
3.679314398E0,2.199114859E-2,5.375614166E-1,4.569272101E-1
3.681329163E0,2.443460980E-3,5.430592299E-1,4.642575979E-1
3.683312543E0,-4.214970022E-2,5.564982295E-1,4.758640230E-1
3.685326078E0,-8.368854225E-2,5.693264008E-1,4.886921942E-1
3.687311306E0,-1.038470939E-1,5.742133260E-1,4.935791194E-1
3.689323302E0,-1.453859210E-1,5.888741016E-1,5.033529401E-1
3.691308221E0,-1.618792862E-1,5.986479521E-1,5.106833577E-1
3.693321832E0,-1.985312104E-1,6.145304441E-1,5.229006410E-1
3.695306137E0,-2.357939780E-1,6.310238242E-1,5.357288122E-1
3.697319902E0,-2.541199327E-1,6.414085031E-1,5.412266254E-1
3.699302975E0,-2.907718420E-1,6.572909951E-1,5.516113043E-1
3.701317433E0,-3.231477141E-1,6.701191664E-1,5.650503635E-1
3.703331660E0,-3.396410644E-1,6.756169796E-1,5.693264008E-1
3.705315887E0,-3.695734739E-1,6.841690540E-1,5.845980644E-1
3.707331268E0,-4.007275999E-1,6.914994717E-1,5.949827433E-1
3.709314034E0,-4.172209501E-1,6.933320761E-1,5.980370641E-1
3.711327953E0,-4.416555762E-1,6.945537925E-1,6.096435189E-1
3.713311334E0,-4.660901725E-1,6.976081133E-1,6.194173694E-1
3.715324484E0,-4.764748812E-1,6.982190013E-1,6.249151230E-1
3.717308788E0,-5.002986193E-1,6.982190013E-1,6.298020482E-1
3.719322938E0,-5.216789246E-1,6.988298297E-1,6.420193911E-1
3.721306703E0,-5.351179838E-1,7.000515461E-1,6.462954283E-1
3.723320776E0,-5.577199459E-1,7.024950385E-1,6.530149579E-1
3.725304158E0,-5.687155724E-1,7.031059265E-1,6.579018831E-1
3.727319615E0,-5.925393105E-1,7.055493593E-1,6.670648456E-1
3.729333688E0,-6.126978397E-1,7.061602473E-1,6.731734872E-1
3.731315838E0,-6.218608022E-1,7.049384713E-1,6.780604124E-1
3.733330911E0,-6.401867867E-1,7.018841505E-1,6.860016584E-1
3.735313985E0,-6.548475623E-1,7.012733221E-1,6.914994717E-1
3.737327904E0,-6.621779203E-1,6.988298297E-1,6.957755089E-1
3.739312746E0,-6.750060916E-1,6.927211881E-1,7.024950385E-1
3.741326050E0,-6.884451509E-1,6.878342628E-1,7.073819637E-1
3.743310355E0,-6.951646209E-1,6.823364496E-1,7.122688890E-1
3.745324197E0,-7.012733221E-1,6.743952036E-1,7.171558142E-1
3.747308808E0,-7.073819637E-1,6.627888083E-1,7.214318514E-1
3.749321650E0,-7.092145681E-1,6.579018831E-1,7.202101350E-1
3.751305109E0,-7.122688890E-1,6.462954283E-1,7.226535678E-1
3.753319566E0,-7.110471725E-1,6.395758986E-1,7.220427394E-1
3.755333409E0,-7.079927921E-1,6.273586154E-1,7.220427394E-1
3.757317097E0,-7.061602473E-1,6.145304441E-1,7.171558142E-1
3.759331479E0,-7.043276429E-1,6.078109145E-1,7.177666426E-1
3.761314321E0,-6.982190013E-1,5.992587805E-1,7.116580009E-1
3.763329932E0,-6.902777553E-1,5.900958180E-1,7.061602473E-1
3.765312697E0,-6.853908300E-1,5.852088928E-1,7.037167549E-1
3.767328387E0,-6.750060916E-1,5.784893632E-1,6.951646209E-1
3.769309690E0,-6.621779203E-1,5.760459304E-1,6.866125464E-1
3.771324686E0,-6.554583907E-1,5.723807216E-1,6.811147332E-1
3.773308144E0,-6.407976151E-1,5.693264008E-1,6.688974500E-1
3.775321987E0,-6.267477274E-1,5.693264008E-1,6.572909951E-1
3.777305675E0,-6.188064814E-1,5.668829679E-1,6.511823535E-1
3.779319825E0,-5.998696685E-1,5.699372888E-1,6.352998614E-1
3.781304360E0,-5.827654600E-1,5.711590052E-1,6.188064814E-1
3.783317357E0,-5.748242140E-1,5.748242140E-1,6.102544069E-1
3.785332968E0,-5.516113043E-1,5.791002512E-1,5.931501389E-1
3.787317656E0,-5.406157374E-1,5.833762884E-1,5.827654600E-1
3.789330191E0,-5.119050741E-1,5.919284225E-1,5.632177591E-1
3.791313265E0,-4.868595898E-1,6.035348773E-1,5.424483418E-1
3.793327722E0,-4.758640230E-1,6.072000265E-1,5.308418870E-1
3.795311411E0,-4.483750761E-1,6.188064814E-1,5.064072609E-1
3.797325330E0,-4.208861589E-1,6.310238242E-1,4.831944108E-1
3.799309250E0,-4.080579877E-1,6.389650702E-1,4.721988440E-1
3.801323707E0,-3.824016452E-1,6.487388611E-1,4.459316432E-1
3.803306549E0,-3.604104817E-1,6.609562039E-1,4.208861589E-1
3.805321238E0,-3.494149148E-1,6.658431292E-1,4.074471295E-1
3.807306542E0,-3.335324228E-1,6.792821288E-1,3.836233616E-1
3.809320000E0,-3.249803185E-1,6.884451509E-1,3.591887653E-1
3.811301919E0,-3.182607889E-1,6.908885837E-1,3.451388776E-1
3.813316915E0,-3.152064681E-1,6.963863969E-1,3.219259977E-1
3.815330835E0,-3.115412891E-1,6.988298297E-1,2.987131178E-1
3.817314139E0,-3.090978265E-1,7.018841505E-1,2.895501256E-1
3.819328366E0,-3.011565804E-1,7.043276429E-1,2.730567753E-1
3.821313208E0,-2.987131178E-1,7.073819637E-1,2.657263875E-1
3.823327051E0,-2.907718420E-1,7.043276429E-1,2.553416789E-1
3.825311662E0,-2.846632004E-1,7.055493593E-1,2.431243658E-1
3.827325581E0,-2.816088796E-1,7.031059265E-1,2.382374406E-1
3.829308347E0,-2.730567753E-1,7.024950385E-1,2.284636050E-1
3.831322190E0,-2.620611787E-1,6.951646209E-1,2.229658216E-1
3.833305801E0,-2.583959997E-1,6.921103001E-1,2.174680233E-1
3.835320259E0,-2.474004179E-1,6.756169796E-1,2.138028294E-1
3.837303639E0,-2.364048511E-1,6.560692787E-1,2.058615834E-1
3.839317559E0,-2.296853364E-1,6.414085031E-1,2.046398520E-1
3.841331709E0,-2.156354338E-1,6.108652353E-1,2.003637999E-1
3.843315628E0,-2.003637999E-1,5.717698932E-1,1.918116808E-1
3.845328932E0,-1.930334121E-1,5.516113043E-1,1.875356287E-1
3.847315006E0,-1.753183305E-1,4.978551865E-1,1.765400618E-1
3.849327002E0,-1.588249654E-1,4.422664344E-1,1.692096740E-1
3.851311690E0,-1.502728462E-1,4.117231667E-1,1.606575549E-1
3.853325456E0,-1.301143020E-1,3.475823104E-1,1.466076523E-1
3.855308914E0,-1.233947799E-1,3.121521473E-1,1.392772794E-1
3.857323602E0,-1.069014147E-1,2.406809032E-1,1.215621829E-1
3.859306983E0,-9.040805697E-2,1.667662114E-1,1.014036313E-1
3.861320902E0,-8.368854225E-2,1.288925707E-1,9.101892263E-2
3.863305207E0,-6.780604273E-2,5.558873713E-2,6.841690838E-2
3.865319587E0,-5.436700583E-2,-1.893682219E-2,4.031710699E-2
3.867333814E0,-4.825835302E-2,-5.619960278E-2,2.932153270E-2
3.869316887E0,-3.420845419E-2,-1.313360333E-1,-1.832595794E-3
3.871331576E0,-2.076941915E-2,-1.997529417E-1,-3.420845419E-2
3.873313803E0,-1.527163107E-2,-2.333505303E-1,-5.070181563E-2
3.875328261E0,-4.276056774E-3,-2.987131178E-1,-8.552113175E-2
3.877312257E0,6.108652335E-3,-3.585779071E-1,-1.191187203E-1
3.879326331E0,9.773843922E-3,-3.891211748E-1,-1.374446750E-1
3.881310327E0,1.954768784E-2,-4.459316432E-1,-1.740965992E-1
3.883324169E0,2.687807009E-2,-4.935791194E-1,-2.089159191E-1
3.885307242E0,2.932153270E-2,-5.161811113E-1,-2.254092693E-1
3.887324239E0,3.970624134E-2,-5.626068711E-1,-2.620611787E-1
3.889305773E0,4.459316283E-2,-5.852088928E-1,-2.785545588E-1
3.891318923E0,5.009094998E-2,-6.267477274E-1,-3.158173263E-1
3.893333996E0,5.742133409E-2,-6.676757336E-1,-3.512475193E-1
3.895316839E0,6.047565863E-2,-6.890559793E-1,-3.652974069E-1
3.897332143E0,6.536258012E-2,-7.250970602E-1,-4.007275999E-1
3.899315524E0,6.780604273E-2,-7.648032904E-1,-4.343251884E-1
3.901329443E0,6.841690838E-2,-7.825183868E-1,-4.471533597E-1
3.903313132E0,7.330382615E-2,-8.173376918E-1,-4.776966274E-1
3.905327589E0,8.002334833E-2,-8.515461683E-1,-5.033529401E-1
3.907311816E0,8.002334833E-2,-8.655960560E-1,-5.155702829E-1
3.909325351E0,8.491026610E-2,-8.906415105E-1,-5.406157374E-1
3.911308732E0,9.162978828E-2,-9.144652486E-1,-5.644394755E-1
3.913322959E0,9.468411654E-2,-9.248499870E-1,-5.754350424E-1
3.915306647E0,9.834930301E-2,-9.462302923E-1,-5.962044597E-1
3.917320182E0,1.001819000E-1,-9.560040832E-1,-6.053674817E-1
3.919303794E0,1.069014147E-1,-9.737191796E-1,-6.218608022E-1
3.921318252E0,1.093448773E-1,-9.889908433E-1,-6.426302195E-1
3.923332786E0,1.087340117E-1,-9.987646937E-1,-6.487388611E-1
3.925315244E0,1.081231460E-1,-1.012203693E0,-6.652322412E-1
3.927331549E0,1.117883399E-1,-1.027475357E0,-6.805039048E-1
3.929313391E0,1.105666086E-1,-1.030529618E0,-6.872233748E-1
3.931328694E0,1.123992056E-1,-1.042136073E0,-6.994407177E-1
3.933311844E0,1.166752651E-1,-1.047023058E0,-7.098253965E-1
3.935325995E0,1.178969890E-1,-1.050077319E0,-7.134906054E-1
3.937309991E0,1.209513173E-1,-1.054353356E0,-7.220427394E-1
3.939323833E0,1.240056455E-1,-1.054964304E0,-7.336491346E-1
3.941306829E0,1.270599663E-1,-1.054964304E0,-7.348709106E-1
3.943321672E0,1.282816976E-1,-1.051299095E0,-7.452555895E-1
3.945305976E0,1.331686229E-1,-1.048855662E0,-7.501425147E-1
3.947320741E0,1.337794960E-1,-1.045801282E0,-7.531968355E-1
3.949303122E0,1.392772794E-1,-1.039081812E0,-7.605272532E-1
3.951317350E0,1.435533315E-1,-1.035416603E0,-7.641924024E-1
3.953331730E0,1.484402567E-1,-1.027475357E0,-7.727445364E-1
3.955314803E0,1.508837193E-1,-1.015258074E0,-7.800748944E-1
3.957328645E0,1.539380401E-1,-1.006705880E0,-7.843509912E-1
3.959312719E0,1.606575549E-1,-9.877691269E-1,-7.892379165E-1
3.961327177E0,1.618792862E-1,-9.676105380E-1,-8.020660877E-1
3.963310788E0,1.637118906E-1,-9.535606503E-1,-8.045095205E-1
3.965324015E0,1.643227488E-1,-9.266825914E-1,-8.118399382E-1
3.967309627E0,1.667662114E-1,-8.924741149E-1,-8.210029006E-1
3.969323085E0,1.661553532E-1,-8.735373020E-1,-8.222246170E-1
3.971305927E0,1.698205322E-1,-8.350527883E-1,-8.283332586E-1
3.973320616E0,1.698205322E-1,-7.947356701E-1,-8.313875794E-1
3.975304074E0,1.698205322E-1,-7.715228200E-1,-8.313875794E-1
3.977318147E0,1.728748679E-1,-7.220427394E-1,-8.307767510E-1
3.979331758E0,1.728748679E-1,-6.750060916E-1,-8.301658630E-1
3.981316370E0,1.747074574E-1,-6.499606371E-1,-8.277224302E-1
3.983330213E0,1.759291887E-1,-5.968153477E-1,-8.216137290E-1
3.985313824E0,1.759291887E-1,-5.705481172E-1,-8.191702962E-1
3.987328590E0,1.802052408E-1,-5.216789246E-1,-8.093964458E-1
