"Time (s)","Gyroscope x (rad/s)","Gyroscope y (rad/s)","Gyroscope z (rad/s)"
7.010999000E-3,-7.330383174E-3,1.954768784E-2,-2.626720630E-2
9.116613000E-3,-7.330383174E-3,1.954768784E-2,-2.626720630E-2
1.110022800E-2,-7.330383174E-3,1.954768784E-2,-2.626720630E-2
1.311438100E-2,-7.330383174E-3,1.954768784E-2,-2.626720630E-2
1.509807300E-2,-7.330383174E-3,1.954768784E-2,-2.626720630E-2
1.711199500E-2,-7.330383174E-3,1.954768784E-2,-2.626720630E-2
1.909599500E-2,-7.330383174E-3,1.954768784E-2,-2.626720630E-2
2.111045500E-2,-7.330383174E-3,1.954768784E-2,-2.626720630E-2
2.309437700E-2,-7.330383174E-3,1.954768784E-2,-2.626720630E-2
2.510768500E-2,-7.330383174E-3,1.954768784E-2,-2.626720630E-2
2.709076100E-2,-7.330383174E-3,1.954768784E-2,-2.626720630E-2
2.910522100E-2,-7.330383174E-3,1.954768784E-2,-2.626720630E-2
3.108945100E-2,-7.330383174E-3,1.954768784E-2,-2.626720630E-2
3.310306700E-2,-7.330383174E-3,1.954768784E-2,-2.626720630E-2
3.511775800E-2,-7.330383174E-3,1.954768784E-2,-2.626720630E-2
3.710237200E-2,-7.330383174E-3,1.954768784E-2,-2.626720630E-2
3.911560300E-2,-7.330383174E-3,1.954768784E-2,-2.626720630E-2
4.110021700E-2,-7.330383174E-3,1.954768784E-2,-2.626720630E-2
4.311321600E-2,-7.330383174E-3,1.954768784E-2,-2.626720630E-2
4.509775400E-2,-7.330383174E-3,1.954768784E-2,-2.626720630E-2
4.711098500E-2,-7.330383174E-3,1.954768784E-2,-2.626720630E-2
4.909436800E-2,-7.330383174E-3,1.954768784E-2,-2.626720630E-2
5.110944400E-2,-7.330383174E-3,1.954768784E-2,-2.626720630E-2
5.309290600E-2,-7.330383174E-3,1.954768784E-2,-2.626720630E-2
5.510675100E-2,-7.330383174E-3,1.954768784E-2,-2.626720630E-2
5.708982700E-2,-7.330383174E-3,1.954768784E-2,-2.626720630E-2
5.910574900E-2,-7.330383174E-3,1.954768784E-2,-2.626720630E-2
6.109005700E-2,-7.330383174E-3,1.954768784E-2,-2.626720630E-2
6.310182500E-2,-7.330383174E-3,1.954768784E-2,-2.626720630E-2
6.511651600E-2,-7.330383174E-3,1.954768784E-2,-2.626720630E-2
6.710051600E-2,-7.330383174E-3,1.954768784E-2,-2.626720630E-2
6.911405400E-2,-7.330383174E-3,1.954768784E-2,-2.626720630E-2
7.109720700E-2,-1.282817032E-2,1.771509275E-2,1.343903504E-2
7.311159000E-2,-1.160643995E-2,1.343903504E-2,1.466076635E-2
7.509559000E-2,-1.160643995E-2,6.719517522E-3,1.160643995E-2
7.711012800E-2,-9.162978269E-3,3.054326167E-3,1.527163107E-2
7.909351100E-2,-8.552113548E-3,1.221730490E-3,1.832595654E-2
8.110889600E-2,-7.941247895E-3,-4.886921961E-3,1.771509275E-2
8.309166400E-2,-4.276056774E-3,-9.162978269E-3,1.588249579E-2
8.510543200E-2,-4.276056774E-3,-1.160643995E-2,1.527163107E-2
8.708881600E-2,-4.886921961E-3,-1.771509275E-2,1.466076635E-2
8.910335400E-2,-4.276056774E-3,-2.015855350E-2,1.527163107E-2
9.111658400E-2,-3.054326167E-3,-2.321287990E-2,1.649336144E-2
9.310112200E-2,-3.054326167E-3,-2.748893574E-2,1.527163107E-2
9.511535200E-2,-3.054326167E-3,-3.115412779E-2,1.343903504E-2
9.709835100E-2,-3.665191587E-3,-2.993239649E-2,1.343903504E-2
9.911319700E-2,-3.665191587E-3,-3.115412779E-2,1.099557430E-2
1.010974260E-1,-2.443460980E-3,-3.298672289E-2,1.099557430E-2
1.031106570E-1,-6.108652451E-4,-3.420845419E-2,1.038470957E-2
1.050944250E-1,1.221730490E-3,-3.054326214E-2,9.773843922E-3
1.071085010E-1,1.221730490E-3,-2.993239649E-2,9.162978269E-3
1.090922710E-1,0.000000000E0,-2.748893574E-2,8.552113548E-3
1.111063460E-1,-6.108652451E-4,-2.260201424E-2,7.941247895E-3
1.130894990E-1,1.221730490E-3,-2.015855350E-2,7.941247895E-3
1.151039610E-1,-6.108652451E-4,-1.588249579E-2,9.162978269E-3
1.170882680E-1,1.221730490E-3,-9.773843922E-3,1.588249579E-2
1.191023430E-1,6.108652451E-4,-6.108652335E-3,1.466076635E-2
1.211171120E-1,2.443460980E-3,-6.108652451E-4,1.832595654E-2
1.230996500E-1,2.443460980E-3,6.108652335E-3,2.321287990E-2
1.251137260E-1,2.443460980E-3,7.941247895E-3,2.382374369E-2
1.270974940E-1,3.054326167E-3,1.343903504E-2,2.809980139E-2
1.291113410E-1,3.665191587E-3,1.710422710E-2,2.932153270E-2
1.310953400E-1,3.054326167E-3,1.832595654E-2,3.176499158E-2
1.331088770E-1,4.886921961E-3,2.382374369E-2,3.359758854E-2
1.350937220E-1,5.497787148E-3,2.199114859E-2,3.176499158E-2
1.371070300E-1,2.443460980E-3,2.748893574E-2,3.604105115E-2
1.390909520E-1,3.054326167E-3,2.809980139E-2,3.481931984E-2
1.411036430E-1,2.443460980E-3,2.871066704E-2,3.604105115E-2
1.430854890E-1,4.276056774E-3,2.687807009E-2,3.481931984E-2
1.451036420E-1,3.054326167E-3,2.748893574E-2,3.420845419E-2
1.471167950E-1,1.221730490E-3,2.809980139E-2,3.420845419E-2
1.491007940E-1,3.665191587E-3,2.687807009E-2,3.176499158E-2
1.511153330E-1,3.054326167E-3,2.260201424E-2,2.626720630E-2
1.530987160E-1,4.276056774E-3,2.199114859E-2,2.871066704E-2
1.551131000E-1,6.108652451E-4,2.076941915E-2,2.382374369E-2
1.570971770E-1,3.054326167E-3,1.771509275E-2,2.382374369E-2
1.591104070E-1,2.443460980E-3,1.588249579E-2,1.893682219E-2
1.610949440E-1,1.832595794E-3,1.466076635E-2,1.893682219E-2
1.631087890E-1,2.443460980E-3,1.099557430E-2,1.710422710E-2
1.650919430E-1,1.221730490E-3,9.162978269E-3,1.649336144E-2
1.671060190E-1,1.832595794E-3,6.719517522E-3,1.527163107E-2
1.690894790E-1,1.832595794E-3,4.276056774E-3,1.466076635E-2
1.711036330E-1,-1.832595794E-3,2.443460980E-3,1.466076635E-2
1.730879400E-1,1.221730490E-3,-6.108652451E-4,1.527163107E-2
1.751011700E-1,6.108652451E-4,-1.832595794E-3,1.343903504E-2
1.771150150E-1,0.000000000E0,-3.054326167E-3,1.282817032E-2
1.790993230E-1,1.221730490E-3,-4.276056774E-3,1.343903504E-2
1.811140910E-1,2.443460980E-3,-5.497787148E-3,1.221730467E-2
1.830973980E-1,6.108652451E-4,-7.941247895E-3,1.099557430E-2
1.851115510E-1,1.832595794E-3,-1.099557430E-2,9.773843922E-3
1.870955500E-1,2.443460980E-3,-9.773843922E-3,7.330383174E-3
1.891094720E-1,3.665191587E-3,-1.221730467E-2,7.330383174E-3
1.910928560E-1,3.054326167E-3,-1.221730467E-2,4.886921961E-3
1.931075480E-1,3.665191587E-3,-1.221730467E-2,2.443460980E-3
1.950900090E-1,2.443460980E-3,-1.710422710E-2,1.221730490E-3
1.971057000E-1,6.108652451E-4,-1.466076635E-2,-6.108652451E-4
1.990881620E-1,2.443460980E-3,-1.527163107E-2,-3.054326167E-3
2.011032380E-1,3.665191587E-3,-1.527163107E-2,-3.665191587E-3
2.031170830E-1,1.832595794E-3,-1.221730467E-2,-4.276056774E-3
2.051002360E-1,4.886921961E-3,-1.466076635E-2,-7.941247895E-3
2.071150050E-1,1.221730490E-3,-1.404990070E-2,-8.552113548E-3
2.090983120E-1,2.443460980E-3,-1.282817032E-2,-8.552113548E-3
2.111127720E-1,3.054326167E-3,-1.160643995E-2,-8.552113548E-3
2.130964650E-1,2.443460980E-3,-1.221730467E-2,-8.552113548E-3
2.151103870E-1,1.221730490E-3,-1.099557430E-2,-6.108652335E-3
2.170930780E-1,-6.108652451E-4,-9.773843922E-3,-9.773843922E-3
2.191084620E-1,2.443460980E-3,-1.038470957E-2,-9.773843922E-3
2.210937690E-1,0.000000000E0,-6.719517522E-3,-7.941247895E-3
2.231050760E-1,3.054326167E-3,-7.941247895E-3,-6.108652335E-3
2.250893830E-1,2.443460980E-3,-6.719517522E-3,-7.330383174E-3
2.271036130E-1,0.000000000E0,-1.221730490E-3,-7.330383174E-3
2.291177660E-1,2.443460980E-3,0.000000000E0,-7.941247895E-3
2.311013810E-1,1.832595794E-3,1.221730490E-3,-7.330383174E-3
2.331164580E-1,4.276056774E-3,4.886921961E-3,-7.330383174E-3
2.350993030E-1,5.497787148E-3,9.162978269E-3,-6.108652335E-3
2.371140710E-1,4.886921961E-3,1.099557430E-2,-6.108652335E-3
2.390974550E-1,4.276056774E-3,1.221730467E-2,-7.941247895E-3
2.411116080E-1,4.886921961E-3,9.773843922E-3,-7.330383174E-3
2.430946070E-1,3.665191587E-3,1.282817032E-2,-8.552113548E-3
2.451087600E-1,3.665191587E-3,1.343903504E-2,-9.773843922E-3
2.470924530E-1,6.719517522E-3,1.038470957E-2,-9.162978269E-3
2.491063750E-1,6.108652335E-3,1.038470957E-2,-9.162978269E-3
2.510902970E-1,6.719517522E-3,8.552113548E-3,-1.099557430E-2
2.531044500E-1,4.886921961E-3,8.552113548E-3,-1.343903504E-2
2.550881420E-1,3.054326167E-3,6.108652335E-3,-1.466076635E-2
2.571022950E-1,4.886921961E-3,3.665191587E-3,-1.710422710E-2
2.591165250E-1,6.108652335E-3,2.443460980E-3,-1.832595654E-2
2.611013710E-1,6.719517522E-3,1.221730490E-3,-1.832595654E-2
2.631143700E-1,6.719517522E-3,1.832595794E-3,-2.076941915E-2
2.650976760E-1,8.552113548E-3,1.832595794E-3,-2.076941915E-2
2.671124450E-1,8.552113548E-3,0.000000000E0,-2.199114859E-2
2.690949060E-1,9.773843922E-3,-1.832595794E-3,-2.382374369E-2
2.711100590E-1,9.773843922E-3,-3.054326167E-3,-2.260201424E-2
2.730939810E-1,9.773843922E-3,-3.054326167E-3,-2.504547499E-2
2.751072120E-1,1.160643995E-2,-3.665191587E-3,-2.382374369E-2
2.770921340E-1,1.404990070E-2,-5.497787148E-3,-2.260201424E-2
2.791056710E-1,1.649336144E-2,-9.773843922E-3,-2.504547499E-2
2.810906700E-1,1.771509275E-2,-9.773843922E-3,-2.687807009E-2
2.831041320E-1,1.588249579E-2,-1.160643995E-2,-2.626720630E-2
2.850862850E-1,1.954768784E-2,-1.282817032E-2,-2.565634064E-2
2.871011300E-1,2.199114859E-2,-1.466076635E-2,-2.626720630E-2
2.891155150E-1,2.076941915E-2,-1.588249579E-2,-2.809980139E-2
2.910989750E-1,2.138028294E-2,-1.832595654E-2,-2.871066704E-2
2.931125130E-1,2.687807009E-2,-1.832595654E-2,-2.565634064E-2
2.950967420E-1,2.687807009E-2,-2.199114859E-2,-2.748893574E-2
2.971100500E-1,2.504547499E-2,-2.260201424E-2,-2.871066704E-2
2.990949720E-1,2.748893574E-2,-2.565634064E-2,-3.115412779E-2
3.011115870E-1,2.993239649E-2,-2.687807009E-2,-2.932153270E-2
3.030918940E-1,3.298672289E-2,-2.687807009E-2,-2.932153270E-2
3.051072780E-1,3.481931984E-2,-2.932153270E-2,-3.054326214E-2
3.070897380E-1,3.848451003E-2,-3.359758854E-2,-2.748893574E-2
3.091038140E-1,4.031710699E-2,-3.604105115E-2,-2.687807009E-2
3.110878910E-1,3.909537569E-2,-3.787364438E-2,-2.748893574E-2
3.131020440E-1,4.214970022E-2,-3.848451003E-2,-2.443460934E-2
3.151167350E-1,4.703662544E-2,-4.337143153E-2,-2.382374369E-2
3.171005050E-1,4.825835302E-2,-4.337143153E-2,-2.260201424E-2
3.191139650E-1,5.131268129E-2,-4.703662544E-2,-2.199114859E-2
3.210979640E-1,5.497787148E-2,-5.131268129E-2,-1.954768784E-2
3.231130400E-1,5.558873713E-2,-5.131268129E-2,-2.015855350E-2
3.250952710E-1,5.925392732E-2,-5.497787148E-2,-1.710422710E-2
3.271100390E-1,6.352998316E-2,-6.108652428E-2,-1.771509275E-2
3.290930380E-1,6.169738993E-2,-6.230825558E-2,-1.893682219E-2
3.311071920E-1,6.597344577E-2,-6.597344577E-2,-1.588249579E-2
3.330903450E-1,6.902777404E-2,-6.719517708E-2,-1.649336144E-2
3.351054210E-1,7.024950534E-2,-7.147123665E-2,-1.527163107E-2
3.370884980E-1,7.574728876E-2,-7.574728876E-2,-1.588249579E-2
3.391032660E-1,7.574728876E-2,-7.880161703E-2,-1.160643995E-2
3.411182650E-1,8.002334833E-2,-8.368854225E-2,-1.221730467E-2
3.431011100E-1,8.246681094E-2,-8.857546002E-2,-1.160643995E-2
3.451146490E-1,8.491026610E-2,-9.101892263E-2,-1.099557430E-2
3.470985710E-1,8.918632567E-2,-9.834930301E-2,-9.773843922E-3
3.491127240E-1,9.162978828E-2,-1.026253626E-1,-7.941247895E-3
3.510961080E-1,9.468411654E-2,-1.081231460E-1,-8.552113548E-3
3.531108760E-1,9.773843735E-2,-1.142318025E-1,-6.108652335E-3
3.550937220E-1,9.712757170E-2,-1.203404516E-1,-6.719517522E-3
3.571100280E-1,1.026253626E-1,-1.233947799E-1,-5.497787148E-3
3.590924130E-1,1.032362282E-1,-1.313360333E-1,-4.886921961E-3
3.611066430E-1,1.056796908E-1,-1.392772794E-1,-6.108652335E-3
3.630900260E-1,1.032362282E-1,-1.417207420E-1,-6.719517522E-3
3.651035650E-1,1.081231460E-1,-1.490511149E-1,-7.941247895E-3
3.671180250E-1,1.081231460E-1,-1.545489132E-1,-6.108652335E-3
3.691020240E-1,1.093448773E-1,-1.606575549E-1,-6.108652335E-3
3.711161770E-1,1.093448773E-1,-1.685988009E-1,-6.719517522E-3
3.730995620E-1,1.099557430E-1,-1.685988009E-1,-7.941247895E-3
3.751134070E-1,1.105666086E-1,-1.740965992E-1,-7.330383174E-3
3.770976370E-1,1.093448773E-1,-1.789835095E-1,-9.162978269E-3
3.791109440E-1,1.105666086E-1,-1.857030392E-1,-9.162978269E-3
3.810937130E-1,1.105666086E-1,-1.857030392E-1,-9.162978269E-3
3.831090190E-1,1.099557430E-1,-1.814269722E-1,-9.162978269E-3
3.850934030E-1,1.105666086E-1,-1.832595766E-1,-7.330383174E-3
3.871075570E-1,1.050688252E-1,-1.844813079E-1,-7.941247895E-3
3.890908640E-1,1.056796908E-1,-1.802052408E-1,-4.886921961E-3
3.911050160E-1,1.050688252E-1,-1.777617931E-1,-4.276056774E-3
3.930887090E-1,1.001819000E-1,-1.734857261E-1,-2.443460980E-3
3.951031690E-1,9.834930301E-2,-1.722639948E-1,-2.443460980E-3
3.971179370E-1,9.834930301E-2,-1.637118906E-1,-6.108652451E-4
3.991001670E-1,9.590584040E-2,-1.557706445E-1,-1.221730490E-3
4.011154750E-1,9.040805697E-2,-1.514945775E-1,6.108652451E-4
4.030980120E-1,8.857546002E-2,-1.429424733E-1,2.443460980E-3
4.051127810E-1,8.552113175E-2,-1.343903542E-1,1.221730490E-3
4.070961650E-1,8.429940045E-2,-1.264491081E-1,2.443460980E-3
4.091096260E-1,8.124507964E-2,-1.172861308E-1,3.665191587E-3
4.110945480E-1,7.819075137E-2,-1.069014147E-1,1.221730490E-3
4.131078550E-1,7.635815442E-2,-1.014036313E-1,0.000000000E0
4.150917780E-1,7.574728876E-2,-9.285151958E-2,6.108652451E-4
4.171053150E-1,7.391469181E-2,-8.185594529E-2,6.108652451E-4
4.190896990E-1,6.902777404E-2,-7.574728876E-2,-6.108652451E-4
4.211053140E-1,6.597344577E-2,-6.475171447E-2,-6.108652451E-4
4.230880820E-1,6.291911751E-2,-5.497787148E-2,-3.054326167E-3
4.251013890E-1,6.169738993E-2,-5.192354694E-2,-3.665191587E-3
4.271155420E-1,5.803219974E-2,-4.092797264E-2,-3.665191587E-3
4.290991570E-1,5.619960278E-2,-3.665191308E-2,-4.886921961E-3
4.311136950E-1,5.497787148E-2,-2.993239649E-2,-5.497787148E-3
4.330967710E-1,5.192354694E-2,-2.382374369E-2,-6.108652335E-3
4.351109250E-1,5.070181563E-2,-2.382374369E-2,-7.941247895E-3
4.370954620E-1,4.642575979E-2,-1.954768784E-2,-7.941247895E-3
4.391090760E-1,4.459316283E-2,-1.466076635E-2,-9.773843922E-3
4.410939980E-1,4.337143153E-2,-1.221730467E-2,-6.108652335E-3
4.431075370E-1,4.031710699E-2,-9.773843922E-3,-7.941247895E-3
4.450909210E-1,3.543018550E-2,-6.108652335E-3,-1.160643995E-2
4.471047660E-1,3.298672289E-2,-6.719517522E-3,-1.221730467E-2
4.490880730E-1,3.054326214E-2,-6.108652335E-3,-1.160643995E-2
4.511023030E-1,2.748893574E-2,-4.886921961E-3,-1.404990070E-2
4.531169950E-1,2.504547499E-2,-6.108652335E-3,-1.404990070E-2
4.551000710E-1,1.893682219E-2,-9.162978269E-3,-1.404990070E-2
4.571139940E-1,1.649336144E-2,-1.466076635E-2,-1.649336144E-2
4.590988390E-1,1.527163107E-2,-1.404990070E-2,-1.527163107E-2
4.611142220E-1,1.099557430E-2,-1.954768784E-2,-1.527163107E-2
4.630952220E-1,6.719517522E-3,-1.954768784E-2,-1.527163107E-2
4.651102210E-1,4.276056774E-3,-2.504547499E-2,-1.527163107E-2
4.670936050E-1,-6.108652451E-4,-2.748893574E-2,-1.466076635E-2
4.691081430E-1,-1.832595794E-3,-3.115412779E-2,-1.527163107E-2
4.710912190E-1,-9.162978269E-3,-3.604105115E-2,-1.466076635E-2
4.731056800E-1,-1.221730467E-2,-3.909537569E-2,-1.404990070E-2
4.750902170E-1,-1.160643995E-2,-4.337143153E-2,-1.588249579E-2
4.771043710E-1,-1.832595654E-2,-4.948008433E-2,-1.588249579E-2
4.790871390E-1,-2.076941915E-2,-5.558873713E-2,-1.527163107E-2
4.811016770E-1,-2.321287990E-2,-5.497787148E-2,-1.832595654E-2
4.831154460E-1,-2.382374369E-2,-6.108652428E-2,-1.710422710E-2
4.850994450E-1,-3.176499158E-2,-6.475171447E-2,-1.710422710E-2
4.871132900E-1,-3.054326214E-2,-6.536258012E-2,-1.649336144E-2
4.890964430E-1,-3.359758854E-2,-6.841690838E-2,-1.893682219E-2
4.911111350E-1,-3.481931984E-2,-7.147123665E-2,-1.954768784E-2
4.930942880E-1,-3.604105115E-2,-7.086037099E-2,-1.649336144E-2
4.951089800E-1,-3.665191308E-2,-7.208210230E-2,-1.649336144E-2
4.970918260E-1,-3.848451003E-2,-7.269296050E-2,-1.649336144E-2
4.991068250E-1,-4.031710699E-2,-7.024950534E-2,-1.649336144E-2
5.010915160E-1,-4.214970022E-2,-6.658431143E-2,-1.466076635E-2
5.031047460E-1,-4.092797264E-2,-6.658431143E-2,-1.466076635E-2
5.050884380E-1,-4.398229718E-2,-6.169738993E-2,-1.527163107E-2
5.071022060E-1,-4.459316283E-2,-5.681046844E-2,-1.649336144E-2
5.091167440E-1,-4.459316283E-2,-5.375614017E-2,-1.221730467E-2
5.110994360E-1,-4.520402849E-2,-5.375614017E-2,-1.649336144E-2
5.131142810E-1,-4.459316283E-2,-4.764748737E-2,-1.649336144E-2
5.150975880E-1,-4.581489414E-2,-4.398229718E-2,-1.649336144E-2
5.171132790E-1,-4.703662544E-2,-4.153883830E-2,-1.466076635E-2
5.190952020E-1,-4.581489414E-2,-3.481931984E-2,-1.527163107E-2
5.211115090E-1,-4.642575979E-2,-3.176499158E-2,-1.771509275E-2
5.230938930E-1,-4.581489414E-2,-2.932153270E-2,-1.893682219E-2
5.251077390E-1,-4.520402849E-2,-2.382374369E-2,-1.588249579E-2
5.270918150E-1,-4.825835302E-2,-2.076941915E-2,-1.954768784E-2
5.291056600E-1,-4.825835302E-2,-1.588249579E-2,-1.893682219E-2
5.310890440E-1,-4.825835302E-2,-1.343903504E-2,-1.893682219E-2
5.331037360E-1,-4.703662544E-2,-8.552113548E-3,-1.893682219E-2
5.350868120E-1,-4.764748737E-2,-2.443460980E-3,-2.199114859E-2
5.371007340E-1,-4.703662544E-2,-1.832595794E-3,-2.199114859E-2
5.391161190E-1,-4.764748737E-2,1.832595794E-3,-2.321287990E-2
5.411006560E-1,-4.948008433E-2,2.443460980E-3,-2.626720630E-2
5.431127320E-1,-4.948008433E-2,5.497787148E-3,-2.626720630E-2
5.450964230E-1,-4.948008433E-2,5.497787148E-3,-2.626720630E-2
5.471105770E-1,-4.825835302E-2,6.719517522E-3,-2.871066704E-2
5.490944990E-1,-4.886921868E-2,5.497787148E-3,-2.809980139E-2
5.511087290E-1,-4.948008433E-2,3.054326167E-3,-2.871066704E-2
5.530923440E-1,-4.703662544E-2,1.832595794E-3,-2.809980139E-2
5.551062660E-1,-4.764748737E-2,6.108652451E-4,-2.809980139E-2
5.570905730E-1,-4.764748737E-2,-6.108652451E-4,-2.626720630E-2
5.591044180E-1,-4.948008433E-2,-2.443460980E-3,-2.565634064E-2
5.610886490E-1,-4.703662544E-2,-4.886921961E-3,-2.748893574E-2
5.631022630E-1,-4.825835302E-2,-8.552113548E-3,-2.565634064E-2
5.651164160E-1,-4.764748737E-2,-1.038470957E-2,-2.504547499E-2
5.670997240E-1,-4.581489414E-2,-1.343903504E-2,-2.321287990E-2
5.691145690E-1,-4.703662544E-2,-1.343903504E-2,-2.260201424E-2
5.710981840E-1,-4.581489414E-2,-1.649336144E-2,-2.076941915E-2
5.731117220E-1,-4.581489414E-2,-2.076941915E-2,-2.015855350E-2
5.750957210E-1,-4.459316283E-2,-2.382374369E-2,-1.832595654E-2
5.771087200E-1,-4.398229718E-2,-2.443460934E-2,-1.649336144E-2
5.790941810E-1,-4.398229718E-2,-2.871066704E-2,-1.466076635E-2
5.811092580E-1,-4.459316283E-2,-3.054326214E-2,-1.038470957E-2
5.830911030E-1,-4.276056588E-2,-3.115412779E-2,-9.773843922E-3
5.851050250E-1,-4.276056588E-2,-3.359758854E-2,-7.330383174E-3
5.870890250E-1,-3.848451003E-2,-3.665191308E-2,-6.719517522E-3
5.891028700E-1,-4.153883830E-2,-3.909537569E-2,-6.108652335E-3
5.911170230E-1,-4.092797264E-2,-4.153883830E-2,-3.665191587E-3
5.931004060E-1,-4.276056588E-2,-4.276056588E-2,-1.832595794E-3
5.951150990E-1,-3.970624134E-2,-4.276056588E-2,-6.108652451E-4
5.970987900E-1,-4.092797264E-2,-4.581489414E-2,6.108652451E-4
5.991127120E-1,-4.214970022E-2,-4.581489414E-2,1.221730490E-3
6.010969430E-1,-4.031710699E-2,-4.520402849E-2,1.221730490E-3
6.031104800E-1,-4.276056588E-2,-4.520402849E-2,2.443460980E-3
6.050936330E-1,-3.909537569E-2,-4.703662544E-2,4.276056774E-3
6.071080170E-1,-3.970624134E-2,-4.459316283E-2,2.443460980E-3
6.090923240E-1,-3.848451003E-2,-4.581489414E-2,4.886921961E-3
6.111056310E-1,-3.848451003E-2,-4.459316283E-2,4.886921961E-3
6.130896300E-1,-3.726277873E-2,-4.153883830E-2,3.054326167E-3
6.151040920E-1,-3.543018550E-2,-4.031710699E-2,3.054326167E-3
6.170867830E-1,-3.543018550E-2,-3.848451003E-2,2.443460980E-3
6.191016280E-1,-3.359758854E-2,-3.787364438E-2,4.886921961E-3
6.211142430E-1,-3.054326214E-2,-3.604105115E-2,3.054326167E-3
6.230963200E-1,-3.054326214E-2,-3.604105115E-2,3.054326167E-3
6.251136260E-1,-3.115412779E-2,-3.481931984E-2,4.886921961E-3
6.270975480E-1,-2.871066704E-2,-3.604105115E-2,3.054326167E-3
6.291117790E-1,-2.871066704E-2,-3.420845419E-2,4.276056774E-3
6.310948550E-1,-2.871066704E-2,-3.298672289E-2,4.886921961E-3
6.331089310E-1,-2.748893574E-2,-3.481931984E-2,2.443460980E-3
6.350935450E-1,-2.199114859E-2,-3.420845419E-2,1.221730490E-3
6.371073910E-1,-2.382374369E-2,-3.481931984E-2,0.000000000E0
6.390910830E-1,-2.015855350E-2,-3.604105115E-2,-1.832595794E-3
6.411053130E-1,-2.260201424E-2,-3.909537569E-2,-4.886921961E-3
6.430886200E-1,-1.893682219E-2,-4.276056588E-2,-6.108652335E-3
6.451022350E-1,-1.710422710E-2,-4.398229718E-2,-7.941247895E-3
6.471166180E-1,-1.832595654E-2,-5.009094998E-2,-1.099557430E-2
6.491003100E-1,-1.527163107E-2,-5.742133409E-2,-1.588249579E-2
6.511141560E-1,-1.282817032E-2,-6.108652428E-2,-1.343903504E-2
6.530982320E-1,-1.404990070E-2,-6.536258012E-2,-1.649336144E-2
6.551117690E-1,-1.099557430E-2,-7.330382615E-2,-1.649336144E-2
6.570960770E-1,-1.160643995E-2,-7.635815442E-2,-1.771509275E-2
6.591104600E-1,-1.038470957E-2,-8.307767659E-2,-1.832595654E-2
6.610950750E-1,-1.038470957E-2,-8.613199741E-2,-1.954768784E-2
6.631077660E-1,-1.038470957E-2,-9.224065393E-2,-2.076941915E-2
6.650913820E-1,-6.108652335E-3,-9.407325089E-2,-1.771509275E-2
6.671056110E-1,-6.108652335E-3,-9.773843735E-2,-1.893682219E-2
6.690893030E-1,-5.497787148E-3,-1.032362282E-1,-1.893682219E-2
6.711036870E-1,-1.832595794E-3,-1.062905490E-1,-1.771509275E-2
6.730876860E-1,-3.054326167E-3,-1.062905490E-1,-1.466076635E-2
6.751019160E-1,0.000000000E0,-1.093448773E-1,-1.404990070E-2
6.771163000E-1,6.108652451E-4,-1.081231460E-1,-1.099557430E-2
6.790996840E-1,1.832595794E-3,-1.087340117E-1,-7.941247895E-3
6.811141450E-1,1.221730490E-3,-1.087340117E-1,-6.719517522E-3
6.830972210E-1,1.832595794E-3,-1.032362282E-1,-4.276056774E-3
6.851110670E-1,4.886921961E-3,-1.020144969E-1,0.000000000E0
6.870948350E-1,5.497787148E-3,-9.957103431E-2,1.832595794E-3
6.891092960E-1,3.054326167E-3,-9.834930301E-2,4.276056774E-3
6.910929880E-1,1.832595794E-3,-9.651670605E-2,6.719517522E-3
6.931065250E-1,5.497787148E-3,-9.407325089E-2,7.330383174E-3
6.950904480E-1,4.886921961E-3,-9.224065393E-2,5.497787148E-3
6.971039850E-1,4.886921961E-3,-8.979719132E-2,9.162978269E-3
6.990886770E-1,4.886921961E-3,-8.857546002E-2,1.038470957E-2
7.011042920E-1,4.886921961E-3,-8.552113175E-2,1.038470957E-2
7.030859060E-1,4.276056774E-3,-8.429940045E-2,1.221730467E-2
7.051005980E-1,2.443460980E-3,-8.124507964E-2,1.282817032E-2
7.071147510E-1,1.832595794E-3,-8.002334833E-2,1.282817032E-2
7.090978270E-1,-6.108652451E-4,-7.696902007E-2,1.282817032E-2
7.111120570E-1,-6.108652451E-4,-7.452555746E-2,1.038470957E-2
7.130959800E-1,-1.221730490E-3,-7.513642311E-2,1.527163107E-2
7.151099020E-1,-4.276056774E-3,-7.147123665E-2,1.282817032E-2
7.170950550E-1,-7.941247895E-3,-7.024950534E-2,1.466076635E-2
7.191083630E-1,-8.552113548E-3,-6.963863969E-2,1.527163107E-2
7.210932850E-1,-9.162978269E-3,-6.536258012E-2,1.282817032E-2
7.231061300E-1,-8.552113548E-3,-6.414084882E-2,1.404990070E-2
7.250892060E-1,-1.099557430E-2,-5.864306539E-2,1.282817032E-2
7.271037440E-1,-1.466076635E-2,-5.375614017E-2,1.404990070E-2
7.290871280E-1,-1.527163107E-2,-4.948008433E-2,1.221730467E-2
7.311005880E-1,-2.076941915E-2,-4.092797264E-2,1.099557430E-2
7.331157420E-1,-2.504547499E-2,-3.420845419E-2,5.497787148E-3
7.350993570E-1,-2.504547499E-2,-2.932153270E-2,6.108652335E-3
7.371129710E-1,-2.993239649E-2,-1.771509275E-2,3.054326167E-3
7.390972010E-1,-3.359758854E-2,-9.162978269E-3,0.000000000E0
7.411122780E-1,-3.359758854E-2,-3.054326167E-3,-3.665191587E-3
7.430948150E-1,-3.787364438E-2,9.162978269E-3,-5.497787148E-3
7.451089680E-1,-3.970624134E-2,1.954768784E-2,-6.719517522E-3
7.470917370E-1,-4.398229718E-2,2.443460934E-2,-9.773843922E-3
7.491064290E-1,-4.764748737E-2,3.237585723E-2,-1.527163107E-2
7.510898120E-1,-5.070181563E-2,4.276056588E-2,-1.404990070E-2
7.531039650E-1,-5.192354694E-2,4.642575979E-2,-1.588249579E-2
7.550883500E-1,-5.803219974E-2,5.253441259E-2,-1.588249579E-2
7.571021180E-1,-5.925392732E-2,5.497787148E-2,-2.138028294E-2
7.591165790E-1,-6.536258012E-2,6.047565863E-2,-2.076941915E-2
7.611011940E-1,-7.024950534E-2,6.230825558E-2,-2.443460934E-2
7.631141160E-1,-7.269296050E-2,6.047565863E-2,-2.382374369E-2
7.650981150E-1,-7.635815442E-2,6.047565863E-2,-2.260201424E-2
7.671117290E-1,-7.941248268E-2,5.925392732E-2,-2.382374369E-2
7.690953450E-1,-7.880161703E-2,5.925392732E-2,-2.260201424E-2
7.711095750E-1,-8.368854225E-2,5.497787148E-2,-2.748893574E-2
7.730938810E-1,-8.613199741E-2,5.009094998E-2,-2.687807009E-2
7.751071120E-1,-8.979719132E-2,4.825835302E-2,-2.748893574E-2
7.770913420E-1,-9.285151958E-2,4.092797264E-2,-2.993239649E-2
7.791058020E-1,-9.773843735E-2,3.481931984E-2,-3.298672289E-2
7.810908010E-1,-9.896016866E-2,2.993239649E-2,-2.871066704E-2
7.831033400E-1,-1.032362282E-1,2.076941915E-2,-2.932153270E-2
7.851171850E-1,-1.038470939E-1,9.162978269E-3,-3.176499158E-2
7.871012610E-1,-1.075122803E-1,4.276056774E-3,-3.298672289E-2
7.891151070E-1,-1.081231460E-1,-6.719517522E-3,-2.993239649E-2
7.910984910E-1,-1.087340117E-1,-1.282817032E-2,-2.993239649E-2
7.931131820E-1,-1.117883399E-1,-1.954768784E-2,-2.993239649E-2
7.950972580E-1,-1.117883399E-1,-3.298672289E-2,-2.626720630E-2
7.971113350E-1,-1.123992056E-1,-3.604105115E-2,-2.626720630E-2
7.990951030E-1,-1.148426682E-1,-4.642575979E-2,-2.138028294E-2
8.011089480E-1,-1.136209369E-1,-5.375614017E-2,-1.893682219E-2
8.030925640E-1,-1.123992056E-1,-5.803219974E-2,-1.710422710E-2
8.051064090E-1,-1.148426682E-1,-6.658431143E-2,-1.282817032E-2
8.070894850E-1,-1.117883399E-1,-7.391469181E-2,-9.162978269E-3
8.091040230E-1,-1.136209369E-1,-7.513642311E-2,-9.773843922E-3
8.110874070E-1,-1.130100712E-1,-8.246681094E-2,-6.108652335E-3
8.131015600E-1,-1.130100712E-1,-8.674286306E-2,-4.276056774E-3
8.151157130E-1,-1.130100712E-1,-9.040805697E-2,-3.665191587E-3
8.170994050E-1,-1.130100712E-1,-9.468411654E-2,-3.054326167E-3
8.191141730E-1,-1.117883399E-1,-9.529497474E-2,-3.054326167E-3
8.210981720E-1,-1.130100712E-1,-9.407325089E-2,-3.054326167E-3
8.231117110E-1,-1.111774743E-1,-9.712757170E-2,-3.665191587E-3
8.250950940E-1,-1.087340117E-1,-9.712757170E-2,-3.665191587E-3
8.271089390E-1,-1.099557430E-1,-9.590584040E-2,-3.054326167E-3
8.290934770E-1,-1.081231460E-1,-9.346238524E-2,-3.054326167E-3
8.311076310E-1,-1.087340117E-1,-9.162978828E-2,-3.665191587E-3
8.330907830E-1,-1.075122803E-1,-8.979719132E-2,-2.443460980E-3
8.351048590E-1,-1.081231460E-1,-8.307767659E-2,0.000000000E0
8.370891670E-1,-1.093448773E-1,-7.757988572E-2,6.108652451E-4
8.391023970E-1,-1.093448773E-1,-7.330382615E-2,4.276056774E-3
8.411177810E-1,-1.099557430E-1,-6.658431143E-2,6.719517522E-3
8.431011640E-1,-1.123992056E-1,-6.230825558E-2,8.552113548E-3
8.451147030E-1,-1.117883399E-1,-5.742133409E-2,1.282817032E-2
8.470987020E-1,-1.148426682E-1,-4.703662544E-2,1.282817032E-2
8.491125470E-1,-1.160643995E-1,-4.337143153E-2,1.466076635E-2
8.510960080E-1,-1.185078546E-1,-3.848451003E-2,1.771509275E-2
8.531101610E-1,-1.166752651E-1,-3.359758854E-2,2.015855350E-2
8.550940830E-1,-1.197295859E-1,-2.748893574E-2,2.076941915E-2
8.571076210E-1,-1.203404516E-1,-2.076941915E-2,2.260201424E-2
8.590910820E-1,-1.233947799E-1,1.221730490E-3,2.748893574E-2
8.611045430E-1,-1.233947799E-1,1.221730490E-3,2.748893574E-2
8.630904650E-1,-1.258382350E-1,4.276056774E-3,2.687807009E-2
8.651040030E-1,-1.295034289E-1,1.038470957E-2,2.565634064E-2
8.670873100E-1,-1.295034289E-1,1.649336144E-2,3.115412779E-2
8.691017710E-1,-1.313360333E-1,2.626720630E-2,3.054326214E-2
8.711163080E-1,-1.325577646E-1,2.871066704E-2,3.176499158E-2
8.730993850E-1,-1.325577646E-1,3.176499158E-2,3.420845419E-2
8.751141530E-1,-1.343903542E-1,3.543018550E-2,3.481931984E-2
8.770981520E-1,-1.350012124E-1,3.543018550E-2,3.665191308E-2
8.791116140E-1,-1.368338168E-1,3.970624134E-2,3.604105115E-2
8.810962280E-1,-1.350012124E-1,3.848451003E-2,3.848451003E-2
8.831098430E-1,-1.386664063E-1,3.970624134E-2,4.031710699E-2
8.850934570E-1,-1.392772794E-1,4.153883830E-2,3.970624134E-2
8.871070720E-1,-1.392772794E-1,4.031710699E-2,4.214970022E-2
8.890903790E-1,-1.398881376E-1,3.787364438E-2,4.092797264E-2
8.911051470E-1,-1.404990107E-1,3.420845419E-2,4.214970022E-2
8.930882240E-1,-1.423316002E-1,3.359758854E-2,4.398229718E-2
8.951021460E-1,-1.417207420E-1,2.932153270E-2,4.276056588E-2
8.971162990E-1,-1.417207420E-1,2.504547499E-2,4.398229718E-2
8.991002980E-1,-1.417207420E-1,2.260201424E-2,4.398229718E-2
9.011152980E-1,-1.441642046E-1,1.588249579E-2,4.398229718E-2
9.030984510E-1,-1.423316002E-1,1.038470957E-2,4.337143153E-2
9.051128350E-1,-1.411098689E-1,9.773843922E-3,4.153883830E-2
9.070956040E-1,-1.429424733E-1,3.665191587E-3,4.031710699E-2
9.091100640E-1,-1.417207420E-1,6.108652451E-4,4.092797264E-2
9.110935250E-1,-1.411098689E-1,-3.054326167E-3,4.153883830E-2
9.131073700E-1,-1.423316002E-1,-2.443460980E-3,4.459316283E-2
9.150910620E-1,-1.392772794E-1,-6.108652335E-3,4.703662544E-2
9.171072920E-1,-1.386664063E-1,-6.108652335E-3,4.642575979E-2
9.190894450E-1,-1.343903542E-1,-4.886921961E-3,4.703662544E-2
9.211045220E-1,-1.362229437E-1,-5.497787148E-3,4.886921868E-2
9.230872900E-1,-1.331686229E-1,-5.497787148E-3,5.131268129E-2
9.251014430E-1,-1.313360333E-1,0.000000000E0,5.131268129E-2
9.271155970E-1,-1.301143020E-1,-6.108652451E-4,5.375614017E-2
9.290987500E-1,-1.264491081E-1,3.054326167E-3,5.803219974E-2
9.311135180E-1,-1.215621829E-1,7.941247895E-3,6.047565863E-2
9.330968250E-1,-1.233947799E-1,9.162978269E-3,6.536258012E-2
9.351113630E-1,-1.197295859E-1,1.588249579E-2,6.719517708E-2
9.370940540E-1,-1.166752651E-1,2.076941915E-2,7.391469181E-2
9.391095150E-1,-1.142318025E-1,2.321287990E-2,7.513642311E-2
9.410935150E-1,-1.130100712E-1,2.932153270E-2,8.124507964E-2
9.431060520E-1,-1.105666086E-1,3.359758854E-2,8.796459436E-2
9.450904360E-1,-1.087340117E-1,3.665191308E-2,9.040805697E-2
9.471045120E-1,-1.069014147E-1,4.337143153E-2,9.468411654E-2
9.490873580E-1,-1.062905490E-1,4.764748737E-2,9.712757170E-2
9.511023570E-1,-1.032362282E-1,5.009094998E-2,1.014036313E-1
9.531162020E-1,-1.001819000E-1,5.558873713E-2,1.014036313E-1
9.551008180E-1,-9.773843735E-2,5.619960278E-2,1.050688252E-1
9.571152780E-1,-9.651670605E-2,6.108652428E-2,1.069014147E-1
9.590975080E-1,-9.162978828E-2,6.291911751E-2,1.044579595E-1
9.611134300E-1,-9.040805697E-2,6.291911751E-2,1.038470939E-1
9.630959690E-1,-8.979719132E-2,6.597344577E-2,1.056796908E-1
9.651098140E-1,-8.735372871E-2,6.597344577E-2,1.044579595E-1
9.670937360E-1,-8.429940045E-2,6.475171447E-2,1.026253626E-1
9.691076590E-1,-8.124507964E-2,6.230825558E-2,1.020144969E-1
9.710910430E-1,-8.185594529E-2,6.291911751E-2,9.896016866E-2
9.731057340E-1,-8.185594529E-2,6.047565863E-2,9.957103431E-2
9.750885790E-1,-7.696902007E-2,5.681046844E-2,9.957103431E-2
9.771032710E-1,-7.696902007E-2,5.314527452E-2,1.001819000E-1
9.791177320E-1,-7.513642311E-2,4.703662544E-2,9.896016866E-2
9.811018080E-1,-7.147123665E-2,4.092797264E-2,1.020144969E-1
9.831156540E-1,-7.024950534E-2,3.298672289E-2,1.038470939E-1
9.850987300E-1,-6.902777404E-2,2.932153270E-2,1.038470939E-1
9.871131130E-1,-6.597344577E-2,2.260201424E-2,1.062905490E-1
9.890961890E-1,-6.352998316E-2,1.649336144E-2,1.069014147E-1
9.911109590E-1,-5.986479297E-2,1.038470957E-2,1.099557430E-1
9.930947270E-1,-5.742133409E-2,1.832595794E-3,1.130100712E-1
9.951084950E-1,-5.619960278E-2,-1.832595794E-3,1.130100712E-1
9.970931870E-1,-5.253441259E-2,-1.099557430E-2,1.172861308E-1
9.991069560E-1,-5.009094998E-2,-1.649336144E-2,1.154535338E-1
1.001091032E0,-4.948008433E-2,-2.199114859E-2,1.191187203E-1
1.003104184E0,-4.520402849E-2,-2.871066704E-2,1.178969890E-1
1.005088261E0,-4.214970022E-2,-3.726277873E-2,1.215621829E-1
1.007102107E0,-3.970624134E-2,-4.092797264E-2,1.227839142E-1
1.009116490E0,-3.543018550E-2,-4.520402849E-2,1.227839142E-1
1.011100182E0,-3.298672289E-2,-5.314527452E-2,1.215621829E-1
1.013114028E0,-3.237585723E-2,-5.558873713E-2,1.215621829E-1
1.015097719E0,-2.809980139E-2,-6.230825558E-2,1.233947799E-1
1.017111256E0,-2.687807009E-2,-6.475171447E-2,1.227839142E-1
1.019096179E0,-2.443460934E-2,-6.841690838E-2,1.233947799E-1
1.021111948E0,-1.954768784E-2,-7.086037099E-2,1.233947799E-1
1.023093408E0,-2.015855350E-2,-7.391469181E-2,1.227839142E-1
1.025107331E0,-1.649336144E-2,-7.513642311E-2,1.233947799E-1
1.027090715E0,-1.343903504E-2,-7.574728876E-2,1.246165112E-1
1.029105714E0,-1.038470957E-2,-7.635815442E-2,1.240056455E-1
1.031088791E0,-9.162978269E-3,-7.880161703E-2,1.240056455E-1
1.033103021E0,-7.941247895E-3,-7.880161703E-2,1.252273768E-1
1.035117404E0,-6.108652335E-3,-8.002334833E-2,1.258382350E-1
1.037101096E0,-4.886921961E-3,-7.696902007E-2,1.276708394E-1
1.039115865E0,-2.443460980E-3,-8.002334833E-2,1.276708394E-1
1.041099941E0,-4.276056774E-3,-7.819075137E-2,1.288925707E-1
1.043113171E0,6.108652451E-4,-8.185594529E-2,1.307251602E-1
1.045096247E0,-6.108652451E-4,-8.368854225E-2,1.307251602E-1
1.047110631E0,-6.108652451E-4,-8.613199741E-2,1.356120855E-1
1.049094092E0,-1.221730490E-3,-8.979719132E-2,1.350012124E-1
1.051108168E0,6.108652451E-4,-9.285151958E-2,1.362229437E-1
1.053092168E0,1.832595794E-3,-9.468411654E-2,1.368338168E-1
1.055106936E0,6.108652451E-4,-9.957103431E-2,1.392772794E-1
1.057089473E0,5.497787148E-3,-1.038470939E-1,1.398881376E-1
1.059104242E0,6.719517522E-3,-1.075122803E-1,1.398881376E-1
1.061088549E0,6.719517522E-3,-1.154535338E-1,1.398881376E-1
1.063102317E0,6.108652335E-3,-1.191187203E-1,1.411098689E-1
1.065116470E0,7.941247895E-3,-1.246165112E-1,1.398881376E-1
1.067100163E0,6.719517522E-3,-1.325577646E-1,1.356120855E-1
1.069113777E0,4.276056774E-3,-1.368338168E-1,1.362229437E-1
1.071097699E0,8.552113548E-3,-1.466076523E-1,1.313360333E-1
1.073111314E0,9.162978269E-3,-1.551597714E-1,1.288925707E-1
1.075095313E0,1.038470957E-2,-1.588249654E-1,1.264491081E-1
1.077109159E0,1.099557430E-2,-1.667662114E-1,1.215621829E-1
1.079093158E0,1.099557430E-2,-1.747074574E-1,1.191187203E-1
1.081108235E0,1.099557430E-2,-1.802052408E-1,1.178969890E-1
1.083091003E0,1.527163107E-2,-1.869247705E-1,1.130100712E-1
1.085104848E0,1.527163107E-2,-1.887573600E-1,1.130100712E-1
1.087088771E0,1.282817032E-2,-1.948660165E-1,1.093448773E-1
1.089102308E0,1.282817032E-2,-2.003637999E-1,1.056796908E-1
1.091117154E0,1.343903504E-2,-2.034181207E-1,1.069014147E-1
1.093100537E0,1.221730467E-2,-2.052507252E-1,1.020144969E-1
1.095114999E0,1.588249579E-2,-2.076941878E-1,1.007927656E-1
1.097098382E0,1.527163107E-2,-2.119702399E-1,9.896016866E-2
1.099112151E0,1.527163107E-2,-2.144137025E-1,9.162978828E-2
1.101095305E0,1.527163107E-2,-2.150245607E-1,9.040805697E-2
1.103111304E0,1.527163107E-2,-2.150245607E-1,9.040805697E-2
1.105094610E0,1.893682219E-2,-2.168571651E-1,8.674286306E-2
1.107108455E0,1.832595654E-2,-2.138028294E-1,8.185594529E-2
1.109091840E0,1.893682219E-2,-2.138028294E-1,8.063421398E-2
1.111106377E0,2.015855350E-2,-2.101376504E-1,7.635815442E-2
1.113089146E0,1.893682219E-2,-2.125810981E-1,7.208210230E-2
1.115103838E0,1.954768784E-2,-2.070833147E-1,6.780604273E-2
1.117087299E0,1.954768784E-2,-2.034181207E-1,6.414084882E-2
1.119101682E0,1.832595654E-2,-1.985312104E-1,5.925392732E-2
1.121116758E0,1.649336144E-2,-1.960877478E-1,5.742133409E-2
1.123099604E0,1.710422710E-2,-1.912008226E-1,5.253441259E-2
1.125114065E0,1.527163107E-2,-1.863138974E-1,5.131268129E-2
1.127097372E0,1.404990070E-2,-1.838704348E-1,4.703662544E-2
1.129112141E0,1.404990070E-2,-1.789835095E-1,4.153883830E-2
1.131094678E0,1.343903504E-2,-1.771509200E-1,4.031710699E-2
1.133109062E0,9.773843922E-3,-1.734857261E-1,3.420845419E-2
1.135092753E0,7.330383174E-3,-1.722639948E-1,3.054326214E-2
1.137106369E0,5.497787148E-3,-1.692096740E-1,2.504547499E-2
1.139090983E0,0.000000000E0,-1.692096740E-1,1.954768784E-2
1.141105367E0,-9.162978269E-3,-1.740965992E-1,1.710422710E-2
1.143089367E0,-1.038470957E-2,-1.765400618E-1,1.404990070E-2
1.145102366E0,-1.832595654E-2,-1.838704348E-1,1.099557430E-2
1.147116518E0,-2.443460934E-2,-1.893682331E-1,9.162978269E-3
1.149100826E0,-2.687807009E-2,-1.973094791E-1,6.719517522E-3
1.151114979E0,-3.176499158E-2,-2.083050460E-1,4.886921961E-3
1.153098055E0,-3.298672289E-2,-2.138028294E-1,3.054326167E-3
1.155112746E0,-3.726277873E-2,-2.272418737E-1,4.886921961E-3
1.157097054E0,-3.848451003E-2,-2.364048511E-1,1.832595794E-3
1.159109976E0,-3.787364438E-2,-2.449569702E-1,0.000000000E0
1.161094360E0,-4.092797264E-2,-2.583959997E-1,6.108652451E-4
1.163108513E0,-4.153883830E-2,-2.706133127E-1,-4.886921961E-3
1.165091589E0,-4.214970022E-2,-2.761110961E-1,-6.108652335E-3
1.167105665E0,-4.337143153E-2,-2.889392674E-1,-1.099557430E-2
1.169089664E0,-4.520402849E-2,-3.036000133E-1,-1.404990070E-2
1.171103280E0,-4.703662544E-2,-3.097086847E-1,-1.954768784E-2
1.173086971E0,-4.581489414E-2,-3.237585723E-1,-2.993239649E-2
1.175101739E0,-4.764748737E-2,-3.347541690E-1,-3.604105115E-2
1.177114970E0,-4.825835302E-2,-3.451388776E-1,-3.909537569E-2
1.179099507E0,-5.070181563E-2,-3.518583775E-1,-4.825835302E-2
1.181115276E0,-5.009094998E-2,-3.567453027E-1,-5.253441259E-2
1.183095890E0,-5.253441259E-2,-3.646865487E-1,-6.230825558E-2
1.185110890E0,-5.558873713E-2,-3.677408695E-1,-6.780604273E-2
1.187095581E0,-5.619960278E-2,-3.689626157E-1,-7.269296050E-2
1.189108811E0,-5.681046844E-2,-3.671300113E-1,-7.635815442E-2
1.191092504E0,-5.864306539E-2,-3.634648323E-1,-8.185594529E-2
1.193106349E0,-6.047565863E-2,-3.591887653E-1,-8.429940045E-2
1.195090040E0,-5.681046844E-2,-3.530801237E-1,-8.857546002E-2
1.197104808E0,-5.681046844E-2,-3.439171314E-1,-9.346238524E-2
1.199087885E0,-5.681046844E-2,-3.378084898E-1,-9.468411654E-2
1.201102961E0,-5.681046844E-2,-3.268128932E-1,-9.590584040E-2
1.203116114E0,-5.558873713E-2,-3.164281845E-1,-1.007927656E-1
1.205100806E0,-5.436700583E-2,-3.109304011E-1,-1.026253626E-1
1.207114267E0,-5.314527452E-2,-2.993239760E-1,-1.075122803E-1
1.209097958E0,-5.497787148E-2,-2.834414840E-1,-1.105666086E-1
1.211112496E0,-5.619960278E-2,-2.785545588E-1,-1.123992056E-1
1.213095803E0,-5.558873713E-2,-2.651155293E-1,-1.178969890E-1
1.215109956E0,-5.558873713E-2,-2.590068579E-1,-1.215621829E-1
1.217093032E0,-5.497787148E-2,-2.480112910E-1,-1.258382350E-1
1.219108417E0,-5.742133409E-2,-2.364048511E-1,-1.270599663E-1
1.221091877E0,-5.497787148E-2,-2.284636050E-1,-1.343903542E-1
1.223105645E0,-5.192354694E-2,-2.174680233E-1,-1.343903542E-1
1.225089644E0,-5.314527452E-2,-2.052507252E-1,-1.368338168E-1
1.227103491E0,-5.131268129E-2,-1.979203373E-1,-1.386664063E-1
1.229087490E0,-5.192354694E-2,-1.850921661E-1,-1.374446750E-1
1.231101335E0,-4.886921868E-2,-1.747074574E-1,-1.404990107E-1
1.233115258E0,-4.948008433E-2,-1.698205322E-1,-1.404990107E-1
1.235098565E0,-5.192354694E-2,-1.594358236E-1,-1.374446750E-1
1.237113717E0,-5.314527452E-2,-1.521054506E-1,-1.356120855E-1
1.239097024E0,-5.253441259E-2,-1.490511149E-1,-1.356120855E-1
1.241110870E0,-5.375614017E-2,-1.417207420E-1,-1.319468915E-1
1.243094638E0,-5.864306539E-2,-1.350012124E-1,-1.276708394E-1
1.245108791E0,-6.047565863E-2,-1.313360333E-1,-1.282816976E-1
1.247092099E0,-6.169738993E-2,-1.276708394E-1,-1.209513173E-1
1.249106560E0,-6.169738993E-2,-1.282816976E-1,-1.185078546E-1
1.251089712E0,-6.597344577E-2,-1.246165112E-1,-1.166752651E-1
1.253104711E0,-7.086037099E-2,-1.209513173E-1,-1.123992056E-1
1.255087250E0,-7.208210230E-2,-1.185078546E-1,-1.111774743E-1
1.257102018E0,-7.269296050E-2,-1.154535338E-1,-1.069014147E-1
1.259116786E0,-7.330382615E-2,-1.130100712E-1,-1.014036313E-1
1.261101325E0,-7.208210230E-2,-1.123992056E-1,-1.014036313E-1
1.263113401E0,-7.208210230E-2,-1.099557430E-1,-9.896016866E-2
1.265098554E0,-7.208210230E-2,-1.075122803E-1,-9.651670605E-2
1.267112092E0,-7.147123665E-2,-1.105666086E-1,-9.529497474E-2
1.269095168E0,-7.147123665E-2,-1.093448773E-1,-9.162978828E-2
1.271109013E0,-6.963863969E-2,-1.111774743E-1,-9.040805697E-2
1.273093012E0,-7.086037099E-2,-1.136209369E-1,-8.918632567E-2
1.275107781E0,-7.024950534E-2,-1.160643995E-1,-8.796459436E-2
1.277091242E0,-6.902777404E-2,-1.185078546E-1,-8.918632567E-2
1.279105318E0,-7.269296050E-2,-1.221730486E-1,-8.918632567E-2
1.281089933E0,-7.330382615E-2,-1.301143020E-1,-9.101892263E-2
1.283102855E0,-7.330382615E-2,-1.307251602E-1,-8.796459436E-2
1.285117085E0,-7.147123665E-2,-1.356120855E-1,-8.918632567E-2
1.287100469E0,-7.208210230E-2,-1.386664063E-1,-8.979719132E-2
1.289115161E0,-7.086037099E-2,-1.429424733E-1,-9.101892263E-2
1.291098545E0,-7.147123665E-2,-1.441642046E-1,-9.224065393E-2
1.293112774E0,-7.086037099E-2,-1.459967941E-1,-9.346238524E-2
1.295096390E0,-7.147123665E-2,-1.484402567E-1,-9.101892263E-2
1.297110312E0,-7.269296050E-2,-1.466076523E-1,-9.040805697E-2
1.299094311E0,-7.513642311E-2,-1.514945775E-1,-9.040805697E-2
1.301109079E0,-7.635815442E-2,-1.496619880E-1,-9.162978828E-2
1.303092387E0,-7.452555746E-2,-1.533271819E-1,-9.346238524E-2
1.305105924E0,-8.185594529E-2,-1.576032341E-1,-9.224065393E-2
1.307089616E0,-8.429940045E-2,-1.569923609E-1,-9.407325089E-2
1.309103539E0,-9.712757170E-2,-1.631010175E-1,-9.224065393E-2
1.311088076E0,-1.032362282E-1,-1.661553532E-1,-9.224065393E-2
1.313101921E0,-1.136209369E-1,-1.808161139E-1,-8.979719132E-2
1.315116151E0,-1.160643995E-1,-2.034181207E-1,-9.468411654E-2
1.317100382E0,-1.154535338E-1,-2.150245607E-1,-9.651670605E-2
1.319113073E0,-1.117883399E-1,-2.419026345E-1,-1.020144969E-1
1.321098303E0,-1.044579595E-1,-2.626720667E-1,-1.111774743E-1
1.323111226E0,-1.026253626E-1,-2.706133127E-1,-1.172861308E-1
1.325094917E0,-9.712757170E-2,-2.791654170E-1,-1.264491081E-1
1.327109378E0,-9.162978828E-2,-2.773328125E-1,-1.337794960E-1
1.329092762E0,-8.918632567E-2,-2.761110961E-1,-1.337794960E-1
1.331107531E0,-8.368854225E-2,-2.632829249E-1,-1.374446750E-1
1.333090607E0,-7.574728876E-2,-2.504547536E-1,-1.343903542E-1
1.335105298E0,-7.269296050E-2,-2.443460971E-1,-1.325577646E-1
1.337088452E0,-6.414084882E-2,-2.345722616E-1,-1.276708394E-1
1.339102297E0,-5.192354694E-2,-2.241875380E-1,-1.148426682E-1
1.341115450E0,-4.581489414E-2,-2.217440903E-1,-1.130100712E-1
1.343097987E0,-4.581489414E-2,-2.217440903E-1,-1.130100712E-1
1.345115141E0,-4.153883830E-2,-2.174680233E-1,-1.075122803E-1
1.347098525E0,-3.054326214E-2,-2.125810981E-1,-1.001819000E-1
1.349112447E0,-2.382374369E-2,-1.979203373E-1,-9.529497474E-2
1.351095755E0,-2.015855350E-2,-1.905899495E-1,-9.529497474E-2
1.353110831E0,-1.282817032E-2,-1.692096740E-1,-8.613199741E-2
1.355094522E0,-7.941247895E-3,-1.429424733E-1,-7.819075137E-2
1.357108675E0,-6.108652335E-3,-1.307251602E-1,-7.452555746E-2
1.359091521E0,3.054326167E-3,-9.651670605E-2,-6.536258012E-2
1.361106597E0,9.773843922E-3,-6.291911751E-2,-5.742133409E-2
1.363089980E0,1.343903504E-2,-4.092797264E-2,-5.497787148E-2
1.365104442E0,1.893682219E-2,-5.497787148E-3,-4.703662544E-2
1.367087441E0,2.504547499E-2,3.298672289E-2,-4.214970022E-2
1.369101671E0,2.321287990E-2,5.742133409E-2,-4.092797264E-2
1.371116054E0,2.809980139E-2,9.712757170E-2,-3.481931984E-2
1.373099747E0,3.176499158E-2,1.386664063E-1,-3.420845419E-2
1.375112976E0,3.115412779E-2,1.606575549E-1,-3.115412779E-2
1.377096437E0,3.054326214E-2,1.991420686E-1,-2.687807009E-2
1.379111129E0,2.748893574E-2,2.211332172E-1,-2.565634064E-2
1.381095821E0,2.015855350E-2,2.583959997E-1,-2.260201424E-2
1.383109589E0,1.038470957E-2,2.932153046E-1,-1.588249579E-2
1.385093358E0,6.108652335E-3,3.084869385E-1,-1.221730467E-2
1.387106588E0,-6.108652451E-4,3.323107064E-1,-9.773843922E-3
1.389090587E0,-5.497787148E-3,3.475823104E-1,-3.054326167E-3
1.391104124E0,-6.719517522E-3,3.500257730E-1,-3.054326167E-3
1.393088124E0,-6.108652335E-3,3.494149148E-1,1.832595794E-3
1.395102508E0,-7.941247895E-3,3.408628106E-1,7.330383174E-3
1.397117276E0,-7.330383174E-3,3.292563558E-1,9.773843922E-3
1.399100661E0,-2.443460980E-3,3.090978265E-1,1.466076635E-2
1.401114891E0,2.443460980E-3,2.797762752E-1,1.954768784E-2
1.403099120E0,1.832595794E-3,2.632829249E-1,2.382374369E-2
1.405111812E0,4.276056774E-3,2.302961946E-1,2.565634064E-2
1.407094889E0,6.719517522E-3,1.930334121E-1,2.993239649E-2
1.409109580E0,7.941247895E-3,1.679879427E-1,2.932153270E-2
1.411094194E0,6.108652335E-3,1.270599663E-1,2.993239649E-2
1.413107733E0,7.330383174E-3,1.075122803E-1,2.626720630E-2
1.415091424E0,6.719517522E-3,6.597344577E-2,2.260201424E-2
1.417105038E0,9.162978269E-3,2.199114859E-2,1.527163107E-2
1.419089884E0,5.497787148E-3,6.108652451E-4,1.282817032E-2
1.421104422E0,6.108652335E-3,-3.970624134E-2,4.276056774E-3
1.423086498E0,7.330383174E-3,-8.185594529E-2,-7.941247895E-3
1.425100728E0,6.108652335E-3,-1.014036313E-1,-1.404990070E-2
1.427115497E0,7.330383174E-3,-1.350012124E-1,-2.260201424E-2
1.429099188E0,1.038470957E-2,-1.655444801E-1,-3.543018550E-2
1.431113033E0,7.941247895E-3,-1.777617931E-1,-4.092797264E-2
1.433096725E0,7.941247895E-3,-1.979203373E-1,-5.070181563E-2
1.435111109E0,7.330383174E-3,-2.150245607E-1,-5.864306539E-2
1.437095493E0,6.719517522E-3,-2.168571651E-1,-6.414084882E-2
1.439108954E0,2.443460980E-3,-2.235766798E-1,-6.414084882E-2
1.441093569E0,-1.221730490E-3,-2.217440903E-1,-6.352998316E-2
1.443106568E0,-3.054326167E-3,-2.205223590E-1,-6.536258012E-2
1.445091182E0,-6.719517522E-3,-2.156354338E-1,-6.169738993E-2
1.447104335E0,-7.941247895E-3,-2.064724565E-1,-5.742133409E-2
1.449088335E0,-1.282817032E-2,-1.942551434E-1,-5.070181563E-2
1.451101565E0,-1.954768784E-2,-1.759291887E-1,-4.092797264E-2
1.453116102E0,-2.015855350E-2,-1.649336219E-1,-3.604105115E-2
1.455100102E0,-2.504547499E-2,-1.417207420E-1,-2.565634064E-2
1.457113332E0,-3.054326214E-2,-1.215621829E-1,-1.221730467E-2
1.459098793E0,-2.871066704E-2,-1.093448773E-1,-5.497787148E-3
1.461113023E0,-3.237585723E-2,-8.368854225E-2,3.054326167E-3
1.463095792E0,-3.604105115E-2,-5.803219974E-2,1.404990070E-2
1.465109637E0,-3.787364438E-2,-4.581489414E-2,1.832595654E-2
1.467093251E0,-4.459316283E-2,-1.710422710E-2,2.199114859E-2
1.469107790E0,-6.108652428E-2,9.162978269E-3,2.871066704E-2
1.471091404E0,-6.780604273E-2,2.076941915E-2,2.871066704E-2
1.473105326E0,-8.491026610E-2,3.970624134E-2,2.443460934E-2
1.475089248E0,-9.346238524E-2,4.703662544E-2,1.588249579E-2
1.477104018E0,-9.590584040E-2,4.581489414E-2,7.330383174E-3
1.479087093E0,-9.407325089E-2,3.726277873E-2,-1.160643995E-2
1.481101554E0,-9.101892263E-2,3.115412779E-2,-2.138028294E-2
1.483114862E0,-9.224065393E-2,2.199114859E-2,-4.459316283E-2
1.485098784E0,-9.896016866E-2,1.160643995E-2,-6.780604273E-2
1.487112629E0,-9.957103431E-2,9.773843922E-3,-7.880161703E-2
1.489096091E0,-1.093448773E-1,1.221730467E-2,-1.014036313E-1
1.491110551E0,-1.191187203E-1,1.527163107E-2,-1.209513173E-1
1.493094781E0,-1.252273768E-1,2.015855350E-2,-1.288925707E-1
1.495108934E0,-1.331686229E-1,2.076941915E-2,-1.423316002E-1
1.497091780E0,-1.417207420E-1,1.588249579E-2,-1.557706445E-1
1.499107163E0,-1.466076523E-1,1.221730467E-2,-1.606575549E-1
1.501092009E0,-1.514945775E-1,-1.832595794E-3,-1.710422635E-1
1.503103778E0,-1.539380401E-1,-1.527163107E-2,-1.771509200E-1
1.505088623E0,-1.551597714E-1,-2.321287990E-2,-1.783726513E-1
1.507101622E0,-1.582140923E-1,-3.298672289E-2,-1.857030392E-1
1.509115698E0,-1.606575549E-1,-3.420845419E-2,-1.899790913E-1
1.511099159E0,-1.637118906E-1,-3.665191308E-2,-1.942551434E-1
1.513113928E0,-1.661553532E-1,-3.176499158E-2,-1.979203373E-1
1.515097850E0,-1.692096740E-1,-2.626720630E-2,-2.021963894E-1
1.517112927E0,-1.740965992E-1,-1.099557430E-2,-2.052507252E-1
1.519095157E0,-1.728748679E-1,1.221730490E-3,-2.107485086E-1
1.521109925E0,-1.771509200E-1,1.771509275E-2,-2.144137025E-1
1.523093847E0,-1.783726513E-1,3.481931984E-2,-2.199114859E-1
1.525107693E0,-1.777617931E-1,6.047565863E-2,-2.223549485E-1
1.527090769E0,-1.783726513E-1,7.330382615E-2,-2.247984111E-1
1.529105229E0,-1.814269722E-1,9.590584040E-2,-2.272418737E-1
1.531088691E0,-1.814269722E-1,1.227839142E-1,-2.290744632E-1
1.533102767E0,-1.808161139E-1,1.362229437E-1,-2.321287990E-1
1.535116997E0,-1.838704348E-1,1.624901593E-1,-2.376265824E-1
1.537100303E0,-1.850921661E-1,1.863138974E-1,-2.437352389E-1
1.539115150E0,-1.863138974E-1,2.015855312E-1,-2.467895597E-1
1.541099687E0,-1.887573600E-1,2.205223590E-1,-2.522873580E-1
1.543112994E0,-1.899790913E-1,2.321287990E-1,-2.596177161E-1
1.545095994E0,-1.930334121E-1,2.522873580E-1,-2.657263875E-1
1.547110531E0,-1.948660165E-1,2.706133127E-1,-2.755002379E-1
1.549094146E0,-1.954768747E-1,2.791654170E-1,-2.816088796E-1
1.551108991E0,-2.003637999E-1,2.956587672E-1,-2.968805134E-1
1.553092068E0,-2.046398520E-1,3.103195429E-1,-3.097086847E-1
1.555106451E0,-2.070833147E-1,3.139847219E-1,-3.188716471E-1
1.557089835E0,-2.083050460E-1,3.262020350E-1,-3.341432810E-1
1.559104912E0,-2.131919712E-1,3.359758854E-1,-3.512475193E-1
1.561088065E0,-2.131919712E-1,3.402519524E-1,-3.616322279E-1
1.563101833E0,-2.193006277E-1,3.506366611E-1,-3.793473244E-1
1.565115678E0,-2.260201424E-1,3.640756905E-1,-3.982841372E-1
1.567099140E0,-2.272418737E-1,3.707951903E-1,-4.037819207E-1
1.569113831E0,-2.327396572E-1,3.848451078E-1,-4.239404798E-1
1.571097291E0,-2.400700450E-1,4.025602043E-1,-4.392121136E-1
1.573111368E0,-2.419026345E-1,4.092797041E-1,-4.471533597E-1
1.575094521E0,-2.412917763E-1,4.245513380E-1,-4.593706727E-1
1.577108674E0,-2.437352389E-1,4.331034720E-1,-4.673119187E-1
1.579092596E0,-2.364048511E-1,4.734205604E-1,-5.021312237E-1
1.581105519E0,-2.364048511E-1,4.734205604E-1,-5.021312237E-1
1.583088288E0,-2.364048511E-1,4.734205604E-1,-5.021312237E-1
1.585105287E0,-2.284636050E-1,4.960225821E-1,-5.155702829E-1
1.587088594E0,-2.229658216E-1,5.186246037E-1,-5.351179838E-1
1.589102209E0,-2.193006277E-1,5.314527750E-1,-5.455026627E-1
1.591116669E0,-2.101376504E-1,5.595525503E-1,-5.638286471E-1
1.593100053E0,-2.009746730E-1,5.919284225E-1,-5.821545720E-1
1.595114207E0,-1.930334121E-1,6.120869517E-1,-5.876523852E-1
1.597098821E0,-1.808161139E-1,6.536257863E-1,-6.059783101E-1
1.599112051E0,-1.618792862E-1,7.024950385E-1,-6.163630486E-1
1.601096589E0,-1.545489132E-1,7.269296646E-1,-6.273586154E-1
1.603110819E0,-1.380555481E-1,7.794640660E-1,-6.352998614E-1
1.605094510E0,-1.276708394E-1,8.057312369E-1,-6.383541822E-1
1.607107664E0,-1.117883399E-1,8.533787727E-1,-6.426302195E-1
1.609091663E0,-9.529497474E-2,9.028588533E-1,-6.426302195E-1
1.611105508E0,-8.552113175E-2,9.236282706E-1,-6.414085031E-1
1.613089200E0,-7.208210230E-2,9.633345008E-1,-6.340781450E-1
1.615103123E0,-5.619960278E-2,9.938777685E-1,-6.236934066E-1
1.617087353E0,-5.070181563E-2,1.007316828E0,-6.151412725E-1
1.619101275E0,-3.909537569E-2,1.043357849E0,-6.047565937E-1
1.621115736E0,-4.886921868E-2,1.096503139E0,-5.803219676E-1
1.623098812E0,-5.375614017E-2,1.132544160E0,-5.668829679E-1
1.625113811E0,-6.108652428E-2,1.209513187E0,-5.338962078E-1
1.627097887E0,-4.459316283E-2,1.270599723E0,-5.021312237E-1
1.629111118E0,-3.909537569E-2,1.300532103E0,-4.838052690E-1
1.631094732E0,-3.359758854E-2,1.335962296E0,-4.514294267E-1
1.633108885E0,-2.687807009E-2,1.348179579E0,-4.221078753E-1
1.635092962E0,-1.404990070E-2,1.348790407E0,-4.111123085E-1
1.637107730E0,1.343903504E-2,1.341460109E0,-3.933972120E-1
1.639090806E0,3.176499158E-2,1.332907915E0,-3.836233616E-1
1.641105267E0,5.864306539E-2,1.307862520E0,-3.744603992E-1
1.643088959E0,7.757988572E-2,1.282206178E0,-3.689626157E-1
1.645102420E0,8.735372871E-2,1.264491081E0,-3.665191531E-1
1.647116572E0,9.712757170E-2,1.224784851E0,-3.677408695E-1
1.649100342E0,1.056796908E-1,1.178359032E0,-3.677408695E-1
1.651114494E0,1.117883399E-1,1.149037480E0,-3.714060783E-1
1.653098417E0,1.221730486E-1,1.085507512E0,-3.769038618E-1
1.655112569E0,1.368338168E-1,1.009149432E0,-3.811798990E-1
1.657096262E0,1.411098689E-1,9.712757468E-1,-3.854559660E-1
1.659110491E0,1.557706445E-1,8.851437569E-1,-3.940080702E-1
1.661095106E0,1.698205322E-1,7.947356701E-1,-3.988949955E-1
1.663107106E0,1.789835095E-1,7.483099103E-1,-4.025602043E-1
1.665091413E0,1.924225539E-1,6.554583907E-1,-4.098905921E-1
1.667105796E0,1.991420686E-1,5.607742667E-1,-4.178318381E-1
1.669089564E0,2.040289938E-1,5.149593949E-1,-4.233296216E-1
1.671103411E0,2.107485086E-1,4.257730842E-1,-4.318817258E-1
1.673086717E0,2.101376504E-1,3.824016452E-1,-4.355469346E-1
1.675101255E0,2.070833147E-1,2.999348342E-1,-4.465425014E-1
1.677116255E0,1.991420686E-1,2.193006277E-1,-4.550946057E-1
1.679098485E0,1.973094791E-1,1.789835095E-1,-4.618141353E-1
1.681113868E0,1.887573600E-1,9.834930301E-2,-4.709770977E-1
1.683096636E0,1.734857261E-1,2.199114859E-2,-4.789183438E-1
1.685111021E0,1.618792862E-1,-1.038470957E-2,-4.831944108E-1
1.687094712E0,1.386664063E-1,-7.941248268E-2,-4.923573732E-1
1.689108634E0,1.160643995E-1,-1.380555481E-1,-4.948008358E-1
1.691092557E0,1.014036313E-1,-1.661553532E-1,-4.960225821E-1
1.693106480E0,7.635815442E-2,-2.138028294E-1,-4.978551865E-1
1.695090094E0,5.681046844E-2,-2.590068579E-1,-5.045747161E-1
1.697103708E0,4.581489414E-2,-2.785545588E-1,-5.070181489E-1
1.699088016E0,2.565634064E-2,-3.109304011E-1,-5.137376785E-1
1.701103092E0,5.497787148E-3,-3.323107064E-1,-5.210680366E-1
1.703116629E0,-3.665191587E-3,-3.359758854E-1,-5.222898126E-1
1.705100245E0,-2.382374369E-2,-3.378084898E-1,-5.345070958E-1
1.707113552E0,-3.359758854E-2,-3.323107064E-1,-5.351179838E-1
1.709096858E0,-5.192354694E-2,-3.158173263E-1,-5.418374538E-1
1.711112319E0,-7.024950534E-2,-2.871066630E-1,-5.448917747E-1
1.713095703E0,-7.941248268E-2,-2.700024247E-1,-5.485569835E-1
1.715109856E0,-9.651670605E-2,-2.364048511E-1,-5.491678715E-1
1.717093548E0,-1.099557430E-1,-2.015855312E-1,-5.497786999E-1
1.719108855E0,-1.178969890E-1,-1.820378453E-1,-5.461135507E-1
1.721091623E0,-1.350012124E-1,-1.429424733E-1,-5.400048494E-1
1.723104622E0,-1.508837193E-1,-1.026253626E-1,-5.314527750E-1
1.725088853E0,-1.624901593E-1,-8.063421398E-2,-5.253441334E-1
1.727102775E0,-1.802052408E-1,-3.543018550E-2,-5.161811113E-1
1.729117236E0,-1.985312104E-1,1.221730467E-2,-5.027421117E-1
1.731100619E0,-2.040289938E-1,3.604105115E-2,-4.960225821E-1
1.733115004E0,-2.150245607E-1,8.002334833E-2,-4.856378734E-1
1.735099388E0,-2.223549485E-1,1.258382350E-1,-4.789183438E-1
1.737112233E0,-2.260201424E-1,1.490511149E-1,-4.709770977E-1
1.739097541E0,-2.315179259E-1,2.015855312E-1,-4.599815309E-1
1.741112232E0,-2.406809032E-1,2.608394623E-1,-4.495968223E-1
1.743094154E0,-2.449569702E-1,2.901609838E-1,-4.428772926E-1
1.745108307E0,-2.486221492E-1,3.469714522E-1,-4.318817258E-1
1.747091691E0,-2.486221492E-1,3.738495409E-1,-4.239404798E-1
1.749106075E0,-2.474004179E-1,4.251621962E-1,-4.098905921E-1
1.751089843E0,-2.455678284E-1,4.709770977E-1,-3.946189582E-1
1.753104228E0,-2.449569702E-1,4.886921942E-1,-3.860668242E-1
1.755088227E0,-2.376265824E-1,5.241223574E-1,-3.701843321E-1
1.757102072E0,-2.376265824E-1,5.552765131E-1,-3.543018401E-1
1.759116610E0,-2.370157093E-1,5.674937963E-1,-3.457497358E-1
1.761100533E0,-2.406809032E-1,5.907067060E-1,-3.298672438E-1
1.763114147E0,-2.461786866E-1,6.053674817E-1,-3.164281845E-1
1.765097761E0,-2.449569702E-1,6.120869517E-1,-3.097086847E-1
1.767111684E0,-2.443460971E-1,6.188064814E-1,-2.981022298E-1
1.769095376E0,-2.425135076E-1,6.212499738E-1,-2.919935882E-1
1.771109529E0,-2.357939780E-1,6.206390858E-1,-2.846632004E-1
1.773093143E0,-2.278527319E-1,6.200281978E-1,-2.742784917E-1
1.775107605E0,-2.266310006E-1,6.200281978E-1,-2.693915665E-1
1.777090450E0,-2.138028294E-1,6.212499738E-1,-2.596177161E-1
1.779105756E0,-2.009746730E-1,6.169738770E-1,-2.480112910E-1
1.781089756E0,-1.948660165E-1,6.145304441E-1,-2.382374406E-1
1.783102986E0,-1.783726513E-1,6.053674817E-1,-2.223549485E-1
1.785086062E0,-1.600466967E-1,5.931501389E-1,-2.064724565E-1
1.787101446E0,-1.508837193E-1,5.864306092E-1,-1.936442852E-1
1.789114984E0,-1.295034289E-1,5.613851547E-1,-1.814269722E-1
1.791098368E0,-1.081231460E-1,5.253441334E-1,-1.692096740E-1
1.793112213E0,-9.346238524E-2,5.033529401E-1,-1.661553532E-1
1.795096521E0,-6.780604273E-2,4.550946057E-1,-1.569923609E-1
1.797110750E0,-4.520402849E-2,3.958406746E-1,-1.557706445E-1
1.799093519E0,-3.115412779E-2,3.640756905E-1,-1.551597714E-1
1.801109825E0,-3.665191587E-3,3.017674387E-1,-1.557706445E-1
1.803091979E0,7.941247895E-3,2.675589919E-1,-1.557706445E-1
1.805105748E0,2.932153270E-2,1.966986060E-1,-1.527163088E-1
1.807089439E0,5.070181563E-2,1.252273768E-1,-1.490511149E-1
1.809104285E0,5.986479297E-2,8.674286306E-2,-1.472185254E-1
1.811087669E0,7.452555746E-2,9.773843922E-3,-1.411098689E-1
1.813101437E0,9.224065393E-2,-7.147123665E-2,-1.356120855E-1
1.815115897E0,1.020144969E-1,-1.148426682E-1,-1.301143020E-1
1.817099282E0,1.142318025E-1,-1.960877478E-1,-1.221730486E-1
1.819112512E0,1.404990107E-1,-3.616322279E-1,-1.026253626E-1
1.821095665E0,1.404990107E-1,-3.616322279E-1,-1.026253626E-1
1.823111972E0,1.417207420E-1,-4.013384581E-1,-9.957103431E-2
1.825095048E0,1.466076523E-1,-4.721988440E-1,-9.101892263E-2
1.827109432E0,1.466076523E-1,-5.070181489E-1,-8.674286306E-2
1.829092509E0,1.398881376E-1,-5.687155724E-1,-8.307767659E-2
1.831106662E0,1.350012124E-1,-6.230825782E-1,-7.635815442E-2
1.833091045E0,1.282816976E-1,-6.450737119E-1,-7.391469181E-2
1.835104583E0,1.191187203E-1,-6.908885837E-1,-7.024950534E-2
1.837089506E0,1.142318025E-1,-7.073819637E-1,-6.902777404E-2
1.839102120E0,1.038470939E-1,-7.373143435E-1,-6.780604273E-2
1.841118350E0,9.468411654E-2,-7.641924024E-1,-6.536258012E-2
1.843100273E0,9.224065393E-2,-7.757988572E-1,-6.291911751E-2
1.845114734E0,8.063421398E-2,-7.880161405E-1,-6.414084882E-2
1.847098117E0,7.513642311E-2,-7.916813493E-1,-6.291911751E-2
1.849112193E0,7.208210230E-2,-7.922922373E-1,-6.108652428E-2
1.851095655E0,6.352998316E-2,-7.794640660E-1,-5.375614017E-2
1.853109500E0,5.681046844E-2,-7.580837607E-1,-4.703662544E-2
1.855093807E0,5.131268129E-2,-7.428121567E-1,-4.459316283E-2
1.857107345E0,4.520402849E-2,-7.061602473E-1,-3.237585723E-2
1.859091267E0,3.298672289E-2,-6.664539576E-1,-1.893682219E-2
1.861106420E0,3.115412779E-2,-6.450737119E-1,-1.404990070E-2
1.863090034E0,2.260201424E-2,-6.004805565E-1,2.443460980E-3
1.865103342E0,1.527163107E-2,-5.583308339E-1,1.710422710E-2
1.867086956E0,1.649336144E-2,-5.375614166E-1,2.565634064E-2
1.869101109E0,3.054326167E-3,-4.935791194E-1,3.970624134E-2
1.871115032E0,-1.832595794E-3,-4.728097022E-1,4.764748737E-2
1.873099262E0,-1.466076635E-2,-4.312708676E-1,6.169738993E-2
1.875112800E0,-2.871066704E-2,-3.909537494E-1,7.086037099E-2
1.877097799E0,-3.604105115E-2,-3.726277947E-1,7.330382615E-2
1.879111029E0,-5.192354694E-2,-3.439171314E-1,7.269296050E-2
1.881095336E0,-7.269296050E-2,-3.207042515E-1,6.597344577E-2
1.883108797E0,-8.124507964E-2,-3.109304011E-1,6.108652428E-2
1.885092258E0,-9.896016866E-2,-3.029891551E-1,4.398229718E-2
1.887107026E0,-1.166752651E-1,-2.956587672E-1,2.443460934E-2
1.889090410E0,-1.252273768E-1,-2.950479090E-1,1.527163107E-2
1.891104255E0,-1.447750628E-1,-2.944370508E-1,-4.886921961E-3
1.893087640E0,-1.655444801E-1,-2.938261926E-1,-2.626720630E-2
1.895102408E0,-1.759291887E-1,-2.944370508E-1,-3.604105115E-2
1.897116484E0,-1.979203373E-1,-2.944370508E-1,-5.803219974E-2
1.899100869E0,-2.217440903E-1,-2.938261926E-1,-7.452555746E-2
1.901116175E0,-2.333505303E-1,-2.944370508E-1,-8.124507964E-2
1.903097482E0,-2.577851415E-1,-3.017674387E-1,-9.896016866E-2
1.905112481E0,-2.724458873E-1,-3.005456924E-1,-1.056796908E-1
1.907095635E0,-2.968805134E-1,-2.987131178E-1,-1.172861308E-1
1.909109480E0,-3.213151097E-1,-2.932153046E-1,-1.307251602E-1
1.911093171E0,-3.316998184E-1,-2.895501256E-1,-1.374446750E-1
1.913107633E0,-3.549126983E-1,-2.706133127E-1,-1.514945775E-1
1.915091632E0,-3.726277947E-1,-2.474004179E-1,-1.685988009E-1
1.917105708E0,-3.817907870E-1,-2.364048511E-1,-1.765400618E-1
1.919089399E0,-3.958406746E-1,-1.985312104E-1,-1.936442852E-1
1.921104476E0,-4.105014503E-1,-1.563815027E-1,-2.119702399E-1
1.923087013E0,-4.190535545E-1,-1.295034289E-1,-2.217440903E-1
1.925101474E0,-4.306600094E-1,-7.269296050E-2,-2.364048511E-1
1.927115012E0,-4.471533597E-1,-6.108652335E-3,-2.480112910E-1
1.929098396E0,-4.563163519E-1,3.115412779E-2,-2.486221492E-1
1.931113087E0,-4.715879560E-1,1.050688252E-1,-2.504547536E-1
1.933096163E0,-4.807509482E-1,1.453859210E-1,-2.486221492E-1
1.935110625E0,-4.948008358E-1,2.180788964E-1,-2.370157093E-1
1.937093701E0,-5.039638281E-1,2.840523422E-1,-2.193006277E-1
1.939108777E0,-5.070181489E-1,3.170390725E-1,-2.107485086E-1
1.941093700E0,-5.015203953E-1,3.683517575E-1,-1.893682331E-1
1.943106622E0,-4.893030524E-1,4.221078753E-1,-1.661553532E-1
1.945089467E0,-4.831944108E-1,4.514294267E-1,-1.563815027E-1
1.947104159E0,-4.844161272E-1,5.381723046E-1,-1.240056455E-1
1.949088158E0,-4.721988440E-1,6.450737119E-1,-9.040805697E-2
1.951102388E0,-4.526511431E-1,6.945537925E-1,-7.330382615E-2
1.953116464E0,-4.092797041E-1,7.782423496E-1,-3.970624134E-2
1.955100464E0,-3.665191531E-1,8.436049223E-1,-1.038470957E-2
1.957114386E0,-3.433062732E-1,8.649851680E-1,5.497787148E-3
1.959098308E0,-2.919935882E-1,8.979719281E-1,2.932153270E-2
1.961112462E0,-2.339613885E-1,9.095783234E-1,4.764748737E-2
1.963095615E0,-2.046398520E-1,9.114109278E-1,5.619960278E-2
1.965109383E0,-1.496619880E-1,8.955284357E-1,6.597344577E-2
1.967093459E0,-1.264491081E-1,8.790351152E-1,6.597344577E-2
1.969106613E0,-8.002334833E-2,8.240572214E-1,6.963863969E-2
1.971090997E0,-3.237585723E-2,7.458664775E-1,6.536258012E-2
1.973105073E0,-1.099557430E-2,6.939429045E-1,6.291911751E-2
1.975089380E0,3.115412779E-2,5.809328556E-1,5.925392732E-2
1.977102918E0,7.330382615E-2,4.471533597E-1,5.558873713E-2
1.979117763E0,9.162978828E-2,3.762930036E-1,5.742133409E-2
1.981103531E0,1.270599663E-1,2.241875380E-1,5.009094998E-2
1.983084146E0,1.582140923E-1,6.475171447E-2,4.764748737E-2
1.985098684E0,1.740965992E-1,-1.527163107E-2,4.581489414E-2
1.987112529E0,2.003637999E-1,-1.753183305E-1,4.092797264E-2
1.989096452E0,2.260201424E-1,-3.329215646E-1,3.604105115E-2
1.991110067E0,2.388483137E-1,-4.037819207E-1,3.481931984E-2
1.993094066E0,2.620611787E-1,-5.491678715E-1,3.359758854E-2
1.995108218E0,2.797762752E-1,-6.792821288E-1,2.871066704E-2
1.997092757E0,2.871066630E-1,-7.360926270E-1,2.504547499E-2
1.999106679E0,2.962696552E-1,-8.429940343E-1,2.382374369E-2
2.001090909E0,3.017674387E-1,-8.900306821E-1,2.138028294E-2
2.003103909E0,3.011565804E-1,-9.682214260E-1,1.527163107E-2
2.005087523E0,2.956587672E-1,-1.034194827E0,7.941247895E-3
2.007101984E0,2.944370508E-1,-1.057407737E0,4.276056774E-3
2.009115906E0,2.828305960E-1,-1.098946571E0,-6.108652335E-3
2.011100444E0,2.687807083E-1,-1.127046347E0,-1.343903504E-2
2.013114059E0,2.583959997E-1,-1.136209369E0,-1.893682219E-2
2.015096750E0,2.406809032E-1,-1.141707182E0,-2.809980139E-2
2.017110904E0,2.193006277E-1,-1.134987593E0,-3.176499158E-2
2.019095287E0,2.095267773E-1,-1.128268123E0,-3.665191308E-2
2.021110056E0,1.863138974E-1,-1.105055213E0,-3.543018550E-2
2.023093747E0,1.661553532E-1,-1.067181587E0,-3.237585723E-2
2.025106670E0,1.539380401E-1,-1.045190454E0,-3.237585723E-2
2.027090669E0,1.331686229E-1,-9.902125597E-1,-2.443460934E-2
2.029104130E0,1.105666086E-1,-9.193521738E-1,-1.404990070E-2
2.031088207E0,1.007927656E-1,-8.814785480E-1,-8.552113548E-3
2.033102359E0,8.674286306E-2,-7.910705209E-1,3.054326167E-3
2.035116820E0,8.124507964E-2,-7.476990819E-1,8.552113548E-3
2.037101127E0,7.819075137E-2,-6.481280327E-1,1.282817032E-2
2.039114973E0,6.963863969E-2,-5.442809463E-1,1.588249579E-2
2.041099587E0,6.597344577E-2,-4.911356568E-1,1.588249579E-2
2.043112509E0,6.719517708E-2,-3.848451078E-1,1.221730467E-2
2.045095278E0,7.147123665E-2,-2.822197378E-1,8.552113548E-3
2.047110585E0,7.086037099E-2,-2.321287990E-1,4.276056774E-3
2.049093969E0,6.963863969E-2,-1.368338168E-1,-2.443460980E-3
2.051108122E0,7.024950534E-2,-4.398229718E-2,-7.330383174E-3
2.053091891E0,6.963863969E-2,-6.108652335E-3,-9.162978269E-3
2.055105736E0,7.147123665E-2,6.719517708E-2,-1.160643995E-2
2.057089043E0,7.574728876E-2,1.264491081E-1,-8.552113548E-3
2.059102966E0,8.918632567E-2,1.899790913E-1,2.443460980E-3
2.061116119E0,9.651670605E-2,2.064724565E-1,6.719517522E-3
2.063101041E0,1.026253626E-1,2.205223590E-1,1.160643995E-2
2.065115810E0,1.081231460E-1,2.370157093E-1,1.893682219E-2
2.067099501E0,1.240056455E-1,2.565633953E-1,3.298672289E-2
2.069113654E0,1.319468915E-1,2.675589919E-1,3.970624134E-2
2.071097422E0,1.417207420E-1,2.877175212E-1,5.986479297E-2
2.073110576E0,1.527163088E-1,3.042109013E-1,7.574728876E-2
2.075094883E0,1.588249654E-1,3.103195429E-1,8.246681094E-2
2.077109343E0,1.734857261E-1,3.207042515E-1,9.773843735E-2
2.079092420E0,1.863138974E-1,3.249803185E-1,1.117883399E-1
2.081106958E0,1.936442852E-1,3.225368559E-1,1.203404516E-1
2.083090265E0,2.089159191E-1,3.152064681E-1,1.356120855E-1
2.085105110E0,2.223549485E-1,3.029891551E-1,1.533271819E-1
2.087088110E0,2.260201424E-1,2.932153046E-1,1.612684280E-1
2.089102878E0,2.364048511E-1,2.724458873E-1,1.759291887E-1
2.091116492E0,2.425135076E-1,2.455678284E-1,1.918116808E-1
2.093100185E0,2.437352389E-1,2.327396572E-1,1.997529417E-1
2.095114030E0,2.467895597E-1,1.997529417E-1,2.095267773E-1
2.097097721E0,2.516764700E-1,1.808161139E-1,2.193006277E-1
2.099112489E0,2.528982162E-1,1.435533315E-1,2.272418737E-1
2.101096182E0,2.516764700E-1,1.038470939E-1,2.327396572E-1
2.103109719E0,2.547308207E-1,8.185594529E-2,2.321287990E-1
2.105094026E0,2.541199327E-1,4.153883830E-2,2.351831198E-1
2.107107564E0,2.510656118E-1,0.000000000E0,2.339613885E-1
2.109091179E0,2.522873580E-1,-2.260201424E-2,2.345722616E-1
2.111105639E0,2.486221492E-1,-5.864306539E-2,2.327396572E-1
2.113089331E0,2.498438805E-1,-9.468411654E-2,2.315179259E-1
2.115103792E0,2.504547536E-1,-1.105666086E-1,2.309070677E-1
2.117087253E0,2.492330223E-1,-1.386664063E-1,2.290744632E-1
2.119101021E0,2.535090744E-1,-1.600466967E-1,2.339613885E-1
2.121116405E0,2.553416789E-1,-1.679879427E-1,2.364048511E-1
2.123098866E0,2.638937831E-1,-1.814269722E-1,2.474004179E-1
2.125113096E0,2.755002379E-1,-1.814269722E-1,2.614503205E-1
2.127097018E0,2.785545588E-1,-1.771509200E-1,2.687807083E-1
2.129111479E0,2.883284092E-1,-1.624901593E-1,2.938261926E-1
2.131094863E0,2.932153046E-1,-1.514945775E-1,3.090978265E-1
2.133108708E0,2.981022298E-1,-1.270599663E-1,3.396410644E-1
2.135092785E0,2.950479090E-1,-9.773843735E-2,3.695734739E-1
2.137105938E0,2.968805134E-1,-8.674286306E-2,3.842342496E-1
2.139091168E0,2.962696552E-1,-6.597344577E-2,4.092797041E-1
2.141105013E0,2.932153046E-1,-5.558873713E-2,4.288274050E-1
2.143087474E0,2.913827300E-1,-5.131268129E-2,4.361577928E-1
2.145102858E0,2.871066630E-1,-4.886921868E-2,4.410447180E-1
2.147115780E0,2.803871334E-1,-4.764748737E-2,4.398229718E-1
2.149099857E0,2.742784917E-1,-4.642575979E-2,4.404338300E-1
2.151114548E0,2.645046413E-1,-3.909537569E-2,4.312708676E-1
2.153097624E0,2.449569702E-1,-1.832595654E-2,4.245513380E-1
2.155111162E0,2.345722616E-1,-2.443460980E-3,4.202753007E-1
2.157096393E0,2.205223590E-1,2.748893574E-2,4.129449129E-1
2.159109930E0,2.021963894E-1,5.131268129E-2,4.080579877E-1
2.161094314E0,1.936442852E-1,5.681046844E-2,4.025602043E-1
2.163107852E0,1.789835095E-1,6.169738993E-2,3.970624208E-1
2.165091543E0,1.765400618E-1,5.558873713E-2,3.921754956E-1
2.167104696E0,1.771509200E-1,3.176499158E-2,3.824016452E-1
2.169089312E0,1.789835095E-1,-7.330383174E-3,3.689626157E-1
2.171103465E0,1.747074574E-1,-2.321287990E-2,3.604104817E-1
2.173087156E0,1.631010175E-1,-6.780604273E-2,3.396410644E-1
2.175101386E0,1.496619880E-1,-1.111774743E-1,3.158173263E-1
2.177114309E0,1.435533315E-1,-1.362229437E-1,3.048217595E-1
2.179099154E0,1.252273768E-1,-1.869247705E-1,2.773328125E-1
2.181113922E0,1.123992056E-1,-2.351831198E-1,2.516764700E-1
2.183096691E0,1.044579595E-1,-2.596177161E-1,2.388483137E-1
2.185110921E0,9.407325089E-2,-3.084869385E-1,2.150245607E-1
2.187094843E0,8.552113175E-2,-3.530801237E-1,1.924225539E-1
2.189108996E0,8.307767659E-2,-3.750712574E-1,1.875356287E-1
2.191091765E0,7.819075137E-2,-4.196644127E-1,1.692096740E-1
2.193105995E0,7.330382615E-2,-4.593706727E-1,1.563815027E-1
2.195090225E0,7.269296050E-2,-4.789183438E-1,1.514945775E-1
2.197104456E0,6.963863969E-2,-5.112941861E-1,1.374446750E-1
2.199087532E0,6.902777404E-2,-5.277875662E-1,1.319468915E-1
2.201102300E0,6.780604273E-2,-5.546656251E-1,1.240056455E-1
2.203115837E0,6.902777404E-2,-5.760459304E-1,1.087340117E-1
2.205099222E0,6.597344577E-2,-5.864306092E-1,1.044579595E-1
2.207113682E0,6.597344577E-2,-6.010913849E-1,9.468411654E-2
2.209097681E0,7.024950534E-2,-6.102544069E-1,8.307767659E-2
2.211111528E0,7.147123665E-2,-6.145304441E-1,7.757988572E-2
2.213095219E0,7.269296050E-2,-6.181956530E-1,6.719517708E-2
2.215109372E0,7.024950534E-2,-6.133087277E-1,5.986479297E-2
2.217092755E0,6.841690838E-2,-6.078109145E-1,5.497787148E-2
2.219108371E0,6.597344577E-2,-5.919284225E-1,4.764748737E-2
2.221093370E0,6.291911751E-2,-5.693264008E-1,3.848451003E-2
2.223104446E0,6.047565863E-2,-5.558874011E-1,3.726277873E-2
2.225088984E0,5.742133409E-2,-5.235115290E-1,2.871066704E-2
2.227103137E0,4.703662544E-2,-4.831944108E-1,2.015855350E-2
2.229086828E0,4.092797264E-2,-4.618141353E-1,1.832595654E-2
2.231100366E0,2.809980139E-2,-4.159992337E-1,9.773843922E-3
2.233114827E0,2.015855350E-2,-3.921754956E-1,7.330383174E-3
2.235098519E0,7.330383174E-3,-3.451388776E-1,0.000000000E0
2.237113364E0,-7.941247895E-3,-2.974913716E-1,-7.330383174E-3
2.239096748E0,-1.404990070E-2,-2.730567753E-1,-1.282817032E-2
2.241111440E0,-2.687807009E-2,-2.278527319E-1,-2.015855350E-2
2.243094285E0,-4.092797264E-2,-1.808161139E-1,-2.932153270E-2
2.245107745E0,-4.886921868E-2,-1.551597714E-1,-3.298672289E-2
2.247091515E0,-6.414084882E-2,-1.099557430E-1,-4.092797264E-2
2.249106206E0,-8.124507964E-2,-6.047565863E-2,-4.642575979E-2
2.251089590E0,-9.040805697E-2,-3.726277873E-2,-5.009094998E-2
2.253103205E0,-1.099557430E-1,9.162978269E-3,-5.436700583E-2
2.255087435E0,-1.264491081E-1,5.436700583E-2,-5.864306539E-2
2.257101049E0,-1.337794960E-1,7.696902007E-2,-6.475171447E-2
2.259116433E0,-1.404990107E-1,1.148426682E-1,-6.536258012E-2
2.261100356E0,-1.453859210E-1,1.331686229E-1,-6.780604273E-2
2.263113893E0,-1.527163088E-1,1.661553532E-1,-7.391469181E-2
2.265097585E0,-1.582140923E-1,1.930334121E-1,-7.941248268E-2
2.267111508E0,-1.637118906E-1,2.076941878E-1,-8.552113175E-2
2.269095199E0,-1.710422635E-1,2.284636050E-1,-9.468411654E-2
2.271108967E0,-1.802052408E-1,2.541199327E-1,-1.038470939E-1
2.273092735E0,-1.869247705E-1,2.638937831E-1,-1.056796908E-1
2.275107428E0,-2.021963894E-1,2.834414840E-1,-1.062905490E-1
2.277091427E0,-2.131919712E-1,2.999348342E-1,-1.050688252E-1
2.279105041E0,-2.180788964E-1,3.078760803E-1,-1.044579595E-1
2.281089657E0,-2.247984111E-1,3.133738637E-1,-9.529497474E-2
2.283102271E0,-2.309070677E-1,3.139847219E-1,-8.552113175E-2
2.285117270E0,-2.315179259E-1,3.084869385E-1,-8.124507964E-2
2.287100347E0,-2.309070677E-1,2.950479090E-1,-7.147123665E-2
2.289114269E0,-2.315179259E-1,2.773328125E-1,-6.658431143E-2
2.291098191E0,-2.327396572E-1,2.669481039E-1,-6.352998316E-2
2.293113036E0,-2.357939780E-1,2.486221492E-1,-6.414084882E-2
2.295096036E0,-2.357939780E-1,2.400700450E-1,-6.352998316E-2
2.297109343E0,-2.412917763E-1,2.254092693E-1,-6.780604273E-2
2.299093342E0,-2.406809032E-1,1.924225539E-1,-8.429940045E-2
2.301106573E0,-2.419026345E-1,1.844813079E-1,-8.735372871E-2
2.303092726E0,-2.419026345E-1,1.844813079E-1,-8.735372871E-2
2.305105648E0,-2.364048511E-1,1.655444801E-1,-9.773843735E-2
2.307089339E0,-2.333505303E-1,1.557706445E-1,-1.056796908E-1
2.309104108E0,-2.272418737E-1,1.313360333E-1,-1.166752651E-1
2.311087723E0,-2.217440903E-1,1.087340117E-1,-1.258382350E-1
2.313101260E0,-2.180788964E-1,9.773843735E-2,-1.288925707E-1
2.315116029E0,-2.138028294E-1,7.696902007E-2,-1.337794960E-1
2.317099490E0,-2.119702399E-1,6.475171447E-2,-1.313360333E-1
2.319113873E0,-2.107485086E-1,5.803219974E-2,-1.276708394E-1
2.321097949E0,-2.089159191E-1,5.253441259E-2,-1.191187203E-1
2.323111103E0,-2.101376504E-1,4.764748737E-2,-1.062905490E-1
2.325094795E0,-2.095267773E-1,5.070181563E-2,-1.014036313E-1
2.327109024E0,-2.046398520E-1,5.314527452E-2,-8.491026610E-2
2.329092947E0,-2.028072625E-1,5.742133409E-2,-7.696902007E-2
2.331107100E0,-1.936442852E-1,7.513642311E-2,-6.352998316E-2
2.333090253E0,-1.875356287E-1,1.020144969E-1,-5.131268129E-2
2.335104329E0,-1.838704348E-1,1.185078546E-1,-4.398229718E-2
2.337087791E0,-1.899790913E-1,1.655444801E-1,-3.604105115E-2
2.339102174E0,-1.991420686E-1,2.266310006E-1,-2.871066704E-2
2.341117558E0,-2.015855312E-1,2.577851415E-1,-2.504547499E-2
2.343100635E0,-1.899790913E-1,3.115412891E-1,-1.893682219E-2
2.345114249E0,-1.747074574E-1,3.512475193E-1,-1.649336144E-2
2.347097940E0,-1.667662114E-1,3.652974069E-1,-1.588249579E-2
2.349112093E0,-1.484402567E-1,3.860668242E-1,-1.160643995E-2
2.351095401E0,-1.398881376E-1,4.062253833E-1,-9.162978269E-3
2.353109938E0,-1.362229437E-1,4.153883755E-1,-9.162978269E-3
2.355094168E0,-1.227839142E-1,4.269948006E-1,-1.160643995E-2
2.357108322E0,-1.123992056E-1,4.276056588E-1,-2.687807009E-2
2.359090860E0,-1.056796908E-1,4.208861589E-1,-3.237585723E-2
2.361107089E0,-9.224065393E-2,3.982841372E-1,-5.681046844E-2
2.363089242E0,-8.613199741E-2,3.860668242E-1,-6.841690838E-2
2.365103781E0,-7.819075137E-2,3.567453027E-1,-9.224065393E-2
2.367086857E0,-7.269296050E-2,3.292563558E-1,-1.136209369E-1
2.369101625E0,-6.841690838E-2,3.164281845E-1,-1.227839142E-1
2.371115702E0,-6.963863969E-2,2.956587672E-1,-1.392772794E-1
2.373099085E0,-7.880161703E-2,2.730567753E-1,-1.484402567E-1
2.375113238E0,-8.185594529E-2,2.602286041E-1,-1.527163088E-1
2.377096314E0,-8.979719132E-2,2.327396572E-1,-1.582140923E-1
2.379111160E0,-9.224065393E-2,1.918116808E-1,-1.576032341E-1
2.381096313E0,-9.162978828E-2,1.692096740E-1,-1.551597714E-1
2.383108389E0,-9.040805697E-2,1.154535338E-1,-1.533271819E-1
2.385092620E0,-8.491026610E-2,5.375614017E-2,-1.472185254E-1
2.387106234E0,-8.307767659E-2,2.504547499E-2,-1.441642046E-1
2.389090541E0,-7.941248268E-2,-3.543018550E-2,-1.356120855E-1
2.391104386E0,-7.757988572E-2,-8.979719132E-2,-1.331686229E-1
2.393088001E0,-7.757988572E-2,-1.130100712E-1,-1.240056455E-1
2.395102462E0,-7.452555746E-2,-1.521054506E-1,-1.160643995E-1
2.397115692E0,-7.269296050E-2,-1.655444801E-1,-1.130100712E-1
2.399100615E0,-7.024950534E-2,-1.863138974E-1,-1.062905490E-1
2.401115152E0,-6.902777404E-2,-1.997529417E-1,-1.062905490E-1
2.403097844E0,-6.902777404E-2,-2.034181207E-1,-1.044579595E-1
2.405111690E0,-6.352998316E-2,-2.046398520E-1,-1.044579595E-1
2.407095381E0,-6.291911751E-2,-2.028072625E-1,-1.062905490E-1
2.409109919E0,-6.108652428E-2,-2.021963894E-1,-1.099557430E-1
2.411093841E0,-5.558873713E-2,-1.966986060E-1,-1.209513173E-1
2.413107764E0,-4.703662544E-2,-1.893682331E-1,-1.350012124E-1
2.415091455E0,-4.398229718E-2,-1.844813079E-1,-1.411098689E-1
2.417104685E0,-3.359758854E-2,-1.783726513E-1,-1.649336219E-1
2.419089300E0,-3.054326214E-2,-1.667662114E-1,-1.893682331E-1
2.421104299E0,-2.687807009E-2,-1.618792862E-1,-2.028072625E-1
2.423087144E0,-2.565634064E-2,-1.466076523E-1,-2.296853364E-1
2.425100990E0,-2.809980139E-2,-1.343903542E-1,-2.461786866E-1
2.427114528E0,-3.237585723E-2,-1.087340117E-1,-2.779437006E-1
2.429098527E0,-3.726277873E-2,-8.735372871E-2,-3.097086847E-1
2.431112911E0,-4.153883830E-2,-7.391469181E-2,-3.255911767E-1
2.433096911E0,-4.703662544E-2,-5.497787148E-2,-3.506366611E-1
2.435111371E0,-5.009094998E-2,-4.214970022E-2,-3.671300113E-1
2.437094832E0,-4.948008433E-2,-3.787364438E-2,-3.726277947E-1
2.439108677E0,-5.131268129E-2,-3.237585723E-2,-3.756821156E-1
2.441092908E0,-4.886921868E-2,-2.748893574E-2,-3.744603992E-1
2.443106830E0,-4.642575979E-2,-2.687807009E-2,-3.707951903E-1
2.445089598E0,-4.886921868E-2,-2.443460934E-2,-3.628539443E-1
2.447103752E0,-5.131268129E-2,-1.771509275E-2,-3.512475193E-1
2.449087674E0,-5.925392732E-2,-1.282817032E-2,-3.451388776E-1
2.451101827E0,-7.330382615E-2,-1.832595794E-3,-3.341432810E-1
2.453116057E0,-8.429940045E-2,2.504547499E-2,-3.225368559E-1
2.455099441E0,-9.285151958E-2,4.276056588E-2,-3.145956099E-1
2.457113594E0,-1.081231460E-1,9.468411654E-2,-3.005456924E-1
2.459098131E0,-1.123992056E-1,1.240056455E-1,-2.938261926E-1
2.461112901E0,-1.160643995E-1,1.887573600E-1,-2.809980214E-1
2.463095438E0,-1.075122803E-1,2.522873580E-1,-2.724458873E-1
2.465109283E0,-9.834930301E-2,2.809980214E-1,-2.651155293E-1
2.467092359E0,-7.452555746E-2,3.359758854E-1,-2.528982162E-1
2.469107052E0,-4.948008433E-2,3.830125034E-1,-2.345722616E-1
2.471090435E0,-3.604105115E-2,4.056145251E-1,-2.254092693E-1
2.473105511E0,-1.282817032E-2,4.453207552E-1,-2.131919712E-1
2.475088973E0,0.000000000E0,4.746423066E-1,-2.064724565E-1
2.477103049E0,6.108652335E-3,4.831944108E-1,-2.076941878E-1
2.479086740E0,2.015855350E-2,4.862487316E-1,-2.125810981E-1
2.481101277E0,3.665191308E-2,4.703662395E-1,-2.199114859E-1
2.483113893E0,4.520402849E-2,4.593706727E-1,-2.229658216E-1
2.485098738E0,6.963863969E-2,4.208861589E-1,-2.284636050E-1
2.487112583E0,9.224065393E-2,3.756821156E-1,-2.333505303E-1
2.489095737E0,1.014036313E-1,3.494149148E-1,-2.315179259E-1
2.491110736E0,1.178969890E-1,2.907718420E-1,-2.290744632E-1
2.493093812E0,1.252273768E-1,2.571742535E-1,-2.254092693E-1
2.495108272E0,1.447750628E-1,1.820378453E-1,-2.168571651E-1
2.497091119E0,1.594358236E-1,9.834930301E-2,-2.070833147E-1
2.499106502E0,1.655444801E-1,5.314527452E-2,-2.046398520E-1
2.501090193E0,1.814269722E-1,-4.459316283E-2,-1.973094791E-1
2.503103963E0,1.954768747E-1,-1.398881376E-1,-1.936442852E-1
2.505087346E0,2.015855312E-1,-1.875356287E-1,-1.912008226E-1
2.507101576E0,2.119702399E-1,-2.785545588E-1,-1.887573600E-1
2.509115729E0,2.211332172E-1,-3.555235863E-1,-1.863138974E-1
2.511099114E0,2.229658216E-1,-3.903428912E-1,-1.838704348E-1
2.513113189E0,2.315179259E-1,-4.502076805E-1,-1.820378453E-1
2.515097189E0,2.321287990E-1,-4.948008358E-1,-1.747074574E-1
2.517112342E0,2.357939780E-1,-5.149593949E-1,-1.679879427E-1
2.519095649E0,2.357939780E-1,-5.448917747E-1,-1.624901593E-1
2.521109187E0,2.364048511E-1,-5.674937963E-1,-1.600466967E-1
2.523092956E0,2.333505303E-1,-5.717698932E-1,-1.582140923E-1
2.525106801E0,2.290744632E-1,-5.772676468E-1,-1.582140923E-1
2.527090723E0,2.266310006E-1,-5.760459304E-1,-1.563815027E-1
2.529104645E0,2.186897546E-1,-5.632177591E-1,-1.557706445E-1
2.531088876E0,2.119702399E-1,-5.412266254E-1,-1.569923609E-1
2.533102106E0,2.076941878E-1,-5.247332454E-1,-1.576032341E-1
2.535116874E0,1.930334121E-1,-4.850270152E-1,-1.557706445E-1
2.537099951E0,1.783726513E-1,-4.367686510E-1,-1.576032341E-1
2.539113796E0,1.447750628E-1,-3.408628106E-1,-1.521054506E-1
2.541096333E0,1.325577646E-1,-3.408628106E-1,-1.521054506E-1
2.543111640E0,1.197295859E-1,-3.164281845E-1,-1.521054506E-1
2.545096255E0,1.044579595E-1,-2.950479090E-1,-1.533271819E-1
2.547111101E0,8.063421398E-2,-2.547308207E-1,-1.606575549E-1
2.549093484E0,6.597344577E-2,-2.211332172E-1,-1.734857261E-1
2.551108330E0,5.864306539E-2,-2.040289938E-1,-1.863138974E-1
2.553091329E0,4.764748737E-2,-1.814269722E-1,-2.150245607E-1
2.555105559E0,4.031710699E-2,-1.600466967E-1,-2.449569702E-1
2.557089558E0,3.848451003E-2,-1.490511149E-1,-2.620611787E-1
2.559103943E0,2.199114859E-2,-1.178969890E-1,-2.846632004E-1
2.561087942E0,1.466076635E-2,-1.001819000E-1,-2.938261926E-1
2.563102095E0,4.276056774E-3,-6.230825558E-2,-3.054326177E-1
2.565115325E0,-4.276056774E-3,-2.015855350E-2,-3.078760803E-1
2.567099017E0,-6.108652335E-3,-5.497787148E-3,-3.078760803E-1
2.569113170E0,-8.552113548E-3,1.893682219E-2,-2.962696552E-1
2.571097553E0,-6.719517522E-3,3.054326214E-2,-2.803871334E-1
2.573110476E0,-4.886921961E-3,3.237585723E-2,-2.700024247E-1
2.575094398E0,-1.832595794E-3,3.665191308E-2,-2.461786866E-1
2.577108244E0,2.443460980E-3,3.909537569E-2,-2.186897546E-1
2.579093167E0,3.054326167E-3,4.337143153E-2,-2.046398520E-1
2.581108320E0,6.108652335E-3,5.131268129E-2,-1.722639948E-1
2.583090780E0,9.162978269E-3,6.414084882E-2,-1.417207420E-1
2.585104241E0,1.038470957E-2,7.147123665E-2,-1.301143020E-1
2.587087702E0,9.162978269E-3,8.491026610E-2,-1.050688252E-1
2.589102086E0,6.719517522E-3,9.224065393E-2,-9.651670605E-2
2.591116316E0,-4.276056774E-3,1.050688252E-1,-8.063421398E-2
2.593100239E0,-2.321287990E-2,1.148426682E-1,-7.452555746E-2
2.595114161E0,-3.237585723E-2,1.148426682E-1,-7.696902007E-2
2.597099314E0,-5.742133409E-2,1.111774743E-1,-8.368854225E-2
2.599112313E0,-7.513642311E-2,9.346238524E-2,-1.050688252E-1
2.601096543E0,-8.307767659E-2,8.063421398E-2,-1.203404516E-1
2.603110465E0,-9.590584040E-2,5.314527452E-2,-1.514945775E-1
2.605094387E0,-1.117883399E-1,2.443460934E-2,-1.863138974E-1
2.607107080E0,-1.191187203E-1,1.404990070E-2,-2.064724565E-1
2.609091079E0,-1.350012124E-1,-3.665191587E-3,-2.400700450E-1
2.611105232E0,-1.514945775E-1,-1.099557430E-2,-2.681698501E-1
2.613088846E0,-1.588249654E-1,-8.552113548E-3,-2.779437006E-1
2.615103615E0,-1.740965992E-1,-6.108652451E-4,-2.956587672E-1
2.617086384E0,-1.918116808E-1,1.771509275E-2,-3.054326177E-1
2.619101229E0,-1.997529417E-1,3.176499158E-2,-3.084869385E-1
2.621117152E0,-2.156354338E-1,5.742133409E-2,-3.036000133E-1
2.623098151E0,-2.241875380E-1,7.513642311E-2,-3.011565804E-1
2.625112842E0,-2.364048511E-1,1.069014147E-1,-2.901609838E-1
2.627095996E0,-2.474004179E-1,1.429424733E-1,-2.773328125E-1
2.629110764E0,-2.504547536E-1,1.557706445E-1,-2.687807083E-1
2.631094071E0,-2.571742535E-1,1.899790913E-1,-2.522873580E-1
2.633108916E0,-2.565633953E-1,2.254092693E-1,-2.321287990E-1
2.635091916E0,-2.528982162E-1,2.394591719E-1,-2.235766798E-1
2.637106684E0,-2.443460971E-1,2.712241709E-1,-2.089159191E-1
2.639089760E0,-2.345722616E-1,3.054326177E-1,-1.960877478E-1
2.641104837E0,-2.266310006E-1,3.170390725E-1,-1.905899495E-1
2.643087605E0,-2.119702399E-1,3.408628106E-1,-1.850921661E-1
2.645102066E0,-1.991420686E-1,3.585779071E-1,-1.808161139E-1
2.647116296E0,-1.893682331E-1,3.616322279E-1,-1.795943826E-1
2.649099988E0,-1.771509200E-1,3.585779071E-1,-1.795943826E-1
2.651114064E0,-1.631010175E-1,3.469714522E-1,-1.777617931E-1
2.653098063E0,-1.557706445E-1,3.378084898E-1,-1.753183305E-1
2.655111678E0,-1.356120855E-1,3.194825351E-1,-1.692096740E-1
2.657094754E0,-1.288925707E-1,3.115412891E-1,-1.643227488E-1
2.659110138E0,-1.197295859E-1,3.054326177E-1,-1.459967941E-1
2.661095060E0,-1.105666086E-1,3.005456924E-1,-1.233947799E-1
2.663107368E0,-1.038470939E-1,2.938261926E-1,-1.087340117E-1
2.665091059E0,-9.040805697E-2,2.681698501E-1,-8.307767659E-2
2.667104827E0,-6.230825558E-2,2.223549485E-1,-5.375614017E-2
2.669087673E0,-4.459316283E-2,1.924225539E-1,-4.031710699E-2
2.671103057E0,-2.443460980E-3,1.191187203E-1,-1.527163107E-2
2.673086364E0,3.176499158E-2,3.909537569E-2,6.719517522E-3
2.675101132E0,4.703662544E-2,6.108652451E-4,9.162978269E-3
2.677115593E0,6.780604273E-2,-8.124507964E-2,1.527163107E-2
2.679098439E0,7.880161703E-2,-1.606575549E-1,7.941247895E-3
2.681113207E0,8.246681094E-2,-2.009746730E-1,3.665191587E-3
2.683096591E0,9.224065393E-2,-2.773328125E-1,-3.054326167E-3
2.685110744E0,1.050688252E-1,-3.585779071E-1,-1.343903504E-2
2.687094359E0,1.148426682E-1,-3.995058835E-1,-1.466076635E-2
2.689108281E0,1.319468915E-1,-4.838052690E-1,-2.015855350E-2
2.691091896E0,1.453859210E-1,-5.259549618E-1,-2.138028294E-2
2.693106357E0,1.655444801E-1,-6.102544069E-1,-1.588249579E-2
2.695089740E0,1.850921661E-1,-6.957755089E-1,-1.099557430E-2
2.697102740E0,1.936442852E-1,-7.348709106E-1,-7.330383174E-3
2.699118432E0,2.089159191E-1,-8.081747293E-1,6.108652451E-4
2.701103661E0,2.205223590E-1,-8.680394888E-1,4.886921961E-3
2.703085199E0,2.260201424E-1,-8.924741149E-1,8.552113548E-3
2.705099968E0,2.339613885E-1,-9.364564419E-1,9.162978269E-3
2.707114121E0,2.357939780E-1,-9.669997096E-1,1.099557430E-2
2.709096889E0,2.394591719E-1,-9.761626720E-1,8.552113548E-3
2.711111274E0,2.357939780E-1,-9.834930301E-1,8.552113548E-3
2.713095042E0,2.315179259E-1,-9.743300676E-1,4.886921961E-3
2.715108887E0,2.309070677E-1,-9.621127844E-1,6.719517522E-3
2.717093732E0,2.309070677E-1,-9.279043078E-1,1.099557430E-2
2.719107655E0,2.315179259E-1,-8.772025108E-1,1.221730467E-2
2.721091885E0,2.315179259E-1,-8.454375267E-1,1.832595654E-2
2.723105423E0,2.278527319E-1,-7.721336484E-1,2.687807009E-2
2.725087961E0,2.254092693E-1,-7.305948138E-1,3.115412779E-2
2.727102345E0,2.247984111E-1,-6.450737119E-1,4.276056588E-2
2.729116882E0,2.186897546E-1,-5.497786999E-1,5.558873713E-2
2.731100804E0,2.131919712E-1,-5.070181489E-1,5.742133409E-2
2.733114420E0,2.028072625E-1,-4.190535545E-1,6.597344577E-2
2.735098034E0,1.997529417E-1,-3.402519524E-1,6.841690838E-2
2.737111572E0,1.966986060E-1,-3.017674387E-1,7.208210230E-2
2.739096187E0,1.948660165E-1,-2.370157093E-1,7.574728876E-2
2.741111571E0,1.905899495E-1,-1.740965992E-1,7.635815442E-2
2.743094108E0,1.881465018E-1,-1.484402567E-1,7.574728876E-2
2.745108493E0,1.783726513E-1,-9.529497474E-2,7.880161703E-2
2.747091569E0,1.759291887E-1,-5.375614017E-2,8.063421398E-2
2.749106029E0,1.704314053E-1,-3.604105115E-2,8.124507964E-2
2.751089182E0,1.679879427E-1,-9.162978269E-3,8.735372871E-2
2.753103644E0,1.673770845E-1,-1.832595794E-3,8.796459436E-2
2.755087027E0,1.679879427E-1,6.108652335E-3,9.651670605E-2
2.757102411E0,1.667662114E-1,2.443460980E-3,9.896016866E-2
2.759115565E0,1.624901593E-1,-1.832595794E-3,1.026253626E-1
2.761099948E0,1.576032341E-1,-1.649336144E-2,1.087340117E-1
2.763114024E0,1.539380401E-1,-3.787364438E-2,1.123992056E-1
2.765097177E0,1.484402567E-1,-5.314527452E-2,1.154535338E-1
2.767111254E0,1.453859210E-1,-8.368854225E-2,1.197295859E-1
2.769094638E0,1.404990107E-1,-1.154535338E-1,1.209513173E-1
2.771108867E0,1.368338168E-1,-1.331686229E-1,1.233947799E-1
2.773092790E0,1.337794960E-1,-1.704314053E-1,1.258382350E-1
2.775106713E0,1.313360333E-1,-2.070833147E-1,1.282816976E-1
2.777089712E0,1.307251602E-1,-2.266310006E-1,1.276708394E-1
2.779104787E0,1.246165112E-1,-2.968805134E-1,1.240056455E-1
2.781086941E0,1.246165112E-1,-2.968805134E-1,1.240056455E-1
2.783102017E0,1.221730486E-1,-3.127630055E-1,1.227839142E-1
2.785116862E0,1.227839142E-1,-3.488040566E-1,1.191187203E-1
2.787100170E0,1.191187203E-1,-3.634648323E-1,1.178969890E-1
2.789114092E0,1.160643995E-1,-4.007275999E-1,1.172861308E-1
2.791097476E0,1.117883399E-1,-4.294382632E-1,1.178969890E-1
2.793112167E0,1.123992056E-1,-4.440990388E-1,1.172861308E-1
2.795096244E0,1.093448773E-1,-4.715879560E-1,1.197295859E-1
2.797110320E0,1.093448773E-1,-4.935791194E-1,1.240056455E-1
2.799094088E0,1.093448773E-1,-5.051855445E-1,1.252273768E-1
2.801108473E0,1.148426682E-1,-5.125159621E-1,1.319468915E-1
2.803091549E0,1.178969890E-1,-5.112941861E-1,1.429424733E-1
2.805106086E0,1.221730486E-1,-5.051855445E-1,1.514945775E-1
2.807089470E0,1.331686229E-1,-4.862487316E-1,1.679879427E-1
2.809103854E0,1.447750628E-1,-4.557054639E-1,1.918116808E-1
2.811086700E0,1.527163088E-1,-4.337143302E-1,2.046398520E-1
2.813101391E0,1.673770845E-1,-3.872885704E-1,2.370157093E-1
2.815115314E0,1.820378453E-1,-3.298672438E-1,2.718350291E-1
2.817098621E0,1.869247705E-1,-3.005456924E-1,2.889392674E-1
2.819112850E0,1.997529417E-1,-2.382374406E-1,3.237585723E-1
2.821097157E0,2.064724565E-1,-2.064724565E-1,3.426954150E-1
2.823111542E0,2.168571651E-1,-1.521054506E-1,3.738495409E-1
2.825094079E0,2.266310006E-1,-1.038470939E-1,3.988949955E-1
2.827108540E0,2.302961946E-1,-8.063421398E-2,4.086688459E-1
2.829091847E0,2.412917763E-1,-4.276056588E-2,4.239404798E-1
2.831106616E0,2.486221492E-1,-1.160643995E-2,4.294382632E-1
2.833090076E0,2.504547536E-1,3.054326167E-3,4.276056588E-1
2.835104152E0,2.583959997E-1,2.565634064E-2,4.214970171E-1
2.837089383E0,2.632829249E-1,4.337143153E-2,4.092797041E-1
2.839102305E0,2.669481039E-1,5.009094998E-2,4.013384581E-1
2.841116766E0,2.675589919E-1,6.108652428E-2,3.811798990E-1
2.843100766E0,2.626720667E-1,6.597344577E-2,3.634648323E-1
2.845114303E0,2.602286041E-1,6.475171447E-2,3.561344445E-1
2.847097764E0,2.455678284E-1,6.291911751E-2,3.353650272E-1
2.849111224E0,2.284636050E-1,5.375614017E-2,3.194825351E-1
2.851095532E0,2.199114859E-1,4.214970022E-2,3.121521473E-1
2.853110377E0,2.034181207E-1,2.993239649E-2,2.981022298E-1
2.855093376E0,1.905899495E-1,2.260201424E-2,2.919935882E-1
2.857106914E0,1.661553532E-1,2.443460934E-2,2.858849466E-1
2.859091913E0,1.472185254E-1,2.504547499E-2,2.822197378E-1
2.861106682E0,1.417207420E-1,2.382374369E-2,2.797762752E-1
2.863087836E0,1.178969890E-1,1.710422710E-2,2.730567753E-1
2.865102988E0,9.468411654E-2,6.719517522E-3,2.681698501E-1
2.867087295E0,9.407325089E-2,-3.054326167E-3,2.669481039E-1
2.869101063E0,9.896016866E-2,-2.871066704E-2,2.577851415E-1
2.871115602E0,1.123992056E-1,-6.230825558E-2,2.474004179E-1
2.873098601E0,1.148426682E-1,-7.574728876E-2,2.394591719E-1
2.875113061E0,1.075122803E-1,-1.026253626E-1,2.241875380E-1
2.877097369E0,9.407325089E-2,-1.209513173E-1,2.040289938E-1
2.879110676E0,8.796459436E-2,-1.343903542E-1,1.948660165E-1
2.881095521E0,7.269296050E-2,-1.582140923E-1,1.716531366E-1
2.883108520E0,6.658431143E-2,-1.722639948E-1,1.594358236E-1
2.885091597E0,5.864306539E-2,-2.076941878E-1,1.350012124E-1
2.887106057E0,5.131268129E-2,-2.461786866E-1,1.130100712E-1
2.889089672E0,5.314527452E-2,-2.651155293E-1,1.007927656E-1
2.891104133E0,5.070181563E-2,-3.066543639E-1,7.635815442E-2
2.893087517E0,4.948008433E-2,-3.451388776E-1,5.497787148E-2
2.895101670E0,5.070181563E-2,-3.646865487E-1,4.459316283E-2
2.897115515E0,5.131268129E-2,-3.995058835E-1,2.565634064E-2
2.899100130E0,5.253441259E-2,-4.288274050E-1,7.330383174E-3
2.901114899E0,5.314527452E-2,-4.428772926E-1,-1.221730490E-3
2.903098282E0,5.314527452E-2,-4.636467099E-1,-1.649336144E-2
2.905111513E0,5.742133409E-2,-4.801400900E-1,-3.237585723E-2
2.907095281E0,5.681046844E-2,-4.856378734E-1,-3.787364438E-2
2.909109049E0,5.925392732E-2,-4.972442985E-1,-4.825835302E-2
2.911093741E0,6.597344577E-2,-5.082398653E-1,-5.742133409E-2
2.913106895E0,6.658431143E-2,-5.119050741E-1,-5.986479297E-2
2.915091278E0,6.780604273E-2,-5.155702829E-1,-6.902777404E-2
2.917105970E0,6.963863969E-2,-5.143485069E-1,-6.841690838E-2
2.919087893E0,6.597344577E-2,-5.070181489E-1,-7.208210230E-2
2.921103507E0,6.169738993E-2,-4.941899776E-1,-7.635815442E-2
2.923086352E0,5.864306539E-2,-4.825835526E-1,-7.635815442E-2
2.925101120E0,5.009094998E-2,-4.563163519E-1,-7.635815442E-2
2.927114274E0,4.276056588E-2,-4.178318381E-1,-7.391469181E-2
2.929098042E0,4.092797264E-2,-3.970624208E-1,-7.208210230E-2
2.931113041E0,3.359758854E-2,-3.469714522E-1,-6.169738993E-2
2.933096503E0,3.543018550E-2,-2.944370508E-1,-5.314527452E-2
2.935110041E0,3.481931984E-2,-2.638937831E-1,-4.642575979E-2
2.937093963E0,3.543018550E-2,-1.997529417E-1,-3.481931984E-2
2.939109346E0,3.543018550E-2,-1.331686229E-1,-1.893682219E-2
2.941092731E0,3.726277873E-2,-9.896016866E-2,-1.038470957E-2
2.943105038E0,3.481931984E-2,-2.260201424E-2,4.276056774E-3
2.945089652E0,2.504547499E-2,4.825835302E-2,1.832595654E-2
2.947103575E0,1.588249579E-2,8.307767659E-2,2.687807009E-2
2.949088112E0,3.054326167E-3,1.496619880E-1,3.604105115E-2
2.951101419E0,-1.832595794E-3,1.759291887E-1,4.092797264E-2
2.953116110E0,-7.941247895E-3,2.266310006E-1,4.886921868E-2
2.955098957E0,-5.497787148E-3,2.608394623E-1,4.703662544E-2
2.957114263E0,-5.497787148E-3,2.736676335E-1,4.642575979E-2
2.959097339E0,-3.054326167E-3,2.944370508E-1,3.909537569E-2
2.961112493E0,-2.443460980E-3,3.109304011E-1,2.932153270E-2
2.963095261E0,-4.886921961E-3,3.176499307E-1,2.626720630E-2
2.965109030E0,-1.221730467E-2,3.335324228E-1,1.404990070E-2
2.967092490E0,-1.588249579E-2,3.390302062E-1,0.000000000E0
2.969106875E0,-1.771509275E-2,3.402519524E-1,-6.719517522E-3
2.971091181E0,-2.321287990E-2,3.335324228E-1,-1.893682219E-2
2.973104180E0,-2.443460934E-2,3.194825351E-1,-2.748893574E-2
2.975088488E0,-2.321287990E-2,3.060434759E-1,-3.176499158E-2
2.977102026E0,-2.260201424E-2,2.755002379E-1,-3.665191308E-2
2.979115794E0,-2.321287990E-2,2.382374406E-1,-4.153883830E-2
2.981101025E0,-2.199114859E-2,2.186897546E-1,-4.337143153E-2
2.983114562E0,-2.138028294E-2,1.759291887E-1,-4.214970022E-2
2.985098561E0,-2.260201424E-2,1.539380401E-1,-4.031710699E-2
2.987112406E0,-2.260201424E-2,1.087340117E-1,-4.031710699E-2
2.989096099E0,-2.321287990E-2,6.658431143E-2,-3.726277873E-2
2.991109713E0,-2.443460934E-2,4.581489414E-2,-3.481931984E-2
2.993094558E0,-2.504547499E-2,1.221730490E-3,-3.420845419E-2
2.995107481E0,-2.565634064E-2,-3.665191308E-2,-3.420845419E-2
2.997092403E0,-2.565634064E-2,-5.619960278E-2,-3.237585723E-2
2.999106018E0,-2.748893574E-2,-9.407325089E-2,-3.054326214E-2
3.001089632E0,-2.932153270E-2,-1.270599663E-1,-3.115412779E-2
3.003103247E0,-2.687807009E-2,-1.404990107E-1,-3.481931984E-2
3.005087170E0,-2.382374369E-2,-1.685988009E-1,-3.420845419E-2
3.007101092E0,-2.199114859E-2,-1.918116808E-1,-3.604105115E-2
3.009115476E0,-1.893682219E-2,-2.003637999E-1,-3.787364438E-2
3.011098937E0,-1.649336144E-2,-2.174680233E-1,-3.726277873E-2
3.013113320E0,-1.527163107E-2,-2.302961946E-1,-3.848451003E-2
3.015097704E0,-1.466076635E-2,-2.327396572E-1,-3.909537569E-2
3.017110627E0,-1.221730467E-2,-2.370157093E-1,-3.909537569E-2
3.019094241E0,-1.221730467E-2,-2.388483137E-1,-3.420845419E-2
3.021107856E0,-1.221730467E-2,-2.388483137E-1,-3.420845419E-2
3.023093394E0,-9.773843922E-3,-2.376265824E-1,-3.237585723E-2
3.025107163E0,-1.160643995E-2,-2.290744632E-1,-3.237585723E-2
3.027090238E0,-1.343903504E-2,-2.150245607E-1,-2.626720630E-2
3.029103853E0,-1.221730467E-2,-2.028072625E-1,-1.954768784E-2
3.031088776E0,-1.466076635E-2,-1.948660165E-1,-1.588249579E-2
3.033102237E0,-1.527163107E-2,-1.771509200E-1,-4.886921961E-3
3.035116389E0,-1.588249579E-2,-1.569923609E-1,3.054326167E-3
3.037100774E0,-1.649336144E-2,-1.453859210E-1,8.552113548E-3
3.039114927E0,-1.771509275E-2,-1.240056455E-1,2.199114859E-2
3.041098541E0,-1.404990070E-2,-1.044579595E-1,3.604105115E-2
3.043111848E0,-1.343903504E-2,-9.346238524E-2,3.970624134E-2
3.045096079E0,-1.527163107E-2,-7.574728876E-2,5.314527452E-2
3.047110232E0,-1.404990070E-2,-5.803219974E-2,5.803219974E-2
3.049093307E0,-1.099557430E-2,-5.253441259E-2,6.902777404E-2
3.051107231E0,-1.099557430E-2,-4.153883830E-2,7.880161703E-2
3.053091153E0,-9.773843922E-3,-3.787364438E-2,8.185594529E-2
3.055105613E0,-8.552113548E-3,-3.115412779E-2,9.224065393E-2
3.057088458E0,-9.162978269E-3,-2.993239649E-2,9.468411654E-2
3.059103843E0,-7.941247895E-3,-3.115412779E-2,9.834930301E-2
3.061088688E0,-7.330383174E-3,-3.298672289E-2,9.590584040E-2
3.063101379E0,-1.099557430E-2,-3.665191308E-2,9.712757170E-2
3.065115841E0,-1.038470957E-2,-4.092797264E-2,9.590584040E-2
3.067098917E0,-1.160643995E-2,-5.131268129E-2,9.468411654E-2
3.069112993E0,-7.941247895E-3,-7.086037099E-2,8.918632567E-2
3.071097300E0,-7.330383174E-3,-8.124507964E-2,8.613199741E-2
3.073111223E0,-7.941247895E-3,-1.038470939E-1,7.941248268E-2
3.075094222E0,-4.276056774E-3,-1.282816976E-1,7.208210230E-2
3.077109913E0,-4.886921961E-3,-1.404990107E-1,7.208210230E-2
3.079092067E0,-4.886921961E-3,-1.637118906E-1,6.597344577E-2
3.081106912E0,-2.443460980E-3,-1.753183305E-1,6.169738993E-2
3.083090834E0,0.000000000E0,-1.966986060E-1,5.436700583E-2
3.085104679E0,-6.108652451E-4,-2.119702399E-1,4.764748737E-2
3.087088371E0,0.000000000E0,-2.186897546E-1,4.398229718E-2
3.089101909E0,4.886921961E-3,-2.309070677E-1,3.665191308E-2
3.091116677E0,5.497787148E-3,-2.376265824E-1,3.237585723E-2
3.093099754E0,5.497787148E-3,-2.412917763E-1,2.932153270E-2
3.095114215E0,1.038470957E-2,-2.419026345E-1,2.321287990E-2
3.097097368E0,9.773843922E-3,-2.376265824E-1,1.710422710E-2
3.099113060E0,1.160643995E-2,-2.345722616E-1,1.771509275E-2
3.101097290E0,1.038470957E-2,-2.266310006E-1,1.038470957E-2
3.103108981E0,8.552113548E-3,-2.138028294E-1,1.038470957E-2
3.105093365E0,7.941247895E-3,-2.070833147E-1,9.773843922E-3
3.107107211E0,9.162978269E-3,-1.930334121E-1,6.719517522E-3
3.109091210E0,9.773843922E-3,-1.771509200E-1,9.162978269E-3
3.111105055E0,1.099557430E-2,-1.692096740E-1,7.330383174E-3
3.113088747E0,1.099557430E-2,-1.490511149E-1,6.719517522E-3
3.115103438E0,1.343903504E-2,-1.374446750E-1,8.552113548E-3
3.117087130E0,1.466076635E-2,-1.142318025E-1,1.038470957E-2
3.119100975E0,1.404990070E-2,-8.674286306E-2,1.221730467E-2
3.121116052E0,1.771509275E-2,-6.963863969E-2,1.710422710E-2
3.123097666E0,1.832595654E-2,-3.787364438E-2,1.954768784E-2
3.125113281E0,2.138028294E-2,-5.497787148E-3,2.565634064E-2
3.127096665E0,2.260201424E-2,9.773843922E-3,2.871066704E-2
3.129111203E0,2.748893574E-2,4.153883830E-2,3.481931984E-2
3.131094817E0,3.420845419E-2,7.330382615E-2,4.581489414E-2
3.133108047E0,3.665191308E-2,8.735372871E-2,5.131268129E-2
3.135092355E0,4.581489414E-2,1.142318025E-1,6.597344577E-2
3.137105892E0,5.253441259E-2,1.411098689E-1,8.552113175E-2
3.139088737E0,5.681046844E-2,1.557706445E-1,9.590584040E-2
3.141104660E0,6.475171447E-2,1.747074574E-1,1.154535338E-1
3.143088121E0,7.269296050E-2,1.936442852E-1,1.240056455E-1
3.145102812E0,7.696902007E-2,2.040289938E-1,1.447750628E-1
3.147085273E0,8.552113175E-2,2.131919712E-1,1.631010175E-1
3.149099119E0,9.162978828E-2,2.174680233E-1,1.722639948E-1
3.151113964E0,1.014036313E-1,2.235766798E-1,1.893682331E-1
3.153097886E0,1.081231460E-1,2.235766798E-1,2.009746730E-1
3.155112040E0,1.117883399E-1,2.223549485E-1,2.046398520E-1
3.157096039E0,1.191187203E-1,2.162462920E-1,2.113593817E-1
3.159109038E0,1.227839142E-1,2.040289938E-1,2.107485086E-1
3.161093345E0,1.221730486E-1,2.015855312E-1,2.089159191E-1
3.163107114E0,1.264491081E-1,1.850921661E-1,2.083050460E-1
3.165090805E0,1.307251602E-1,1.710422635E-1,1.997529417E-1
3.167104727E0,1.331686229E-1,1.600466967E-1,1.985312104E-1
3.169088343E0,1.380555481E-1,1.459967941E-1,1.899790913E-1
3.171103111E0,1.411098689E-1,1.319468915E-1,1.826487035E-1
3.173086187E0,1.435533315E-1,1.288925707E-1,1.789835095E-1
3.175100417E0,1.484402567E-1,1.172861308E-1,1.716531366E-1
3.177113955E0,1.490511149E-1,1.056796908E-1,1.624901593E-1
3.179099416E0,1.496619880E-1,1.001819000E-1,1.600466967E-1
3.181114568E0,1.484402567E-1,9.285151958E-2,1.545489132E-1
3.183095722E0,1.447750628E-1,9.040805697E-2,1.496619880E-1
3.185110567E0,1.404990107E-1,8.368854225E-2,1.459967941E-1
3.187094259E0,1.368338168E-1,7.696902007E-2,1.398881376E-1
3.189108335E0,1.356120855E-1,6.963863969E-2,1.429424733E-1
3.191092027E0,1.295034289E-1,6.169738993E-2,1.392772794E-1
3.193105949E0,1.270599663E-1,5.436700583E-2,1.423316002E-1
3.195089640E0,1.246165112E-1,5.314527452E-2,1.411098689E-1
3.197105025E0,1.203404516E-1,4.948008433E-2,1.411098689E-1
3.199088024E0,1.160643995E-1,4.886921868E-2,1.423316002E-1
3.201102562E0,1.154535338E-1,5.009094998E-2,1.447750628E-1
3.203116407E0,1.136209369E-1,4.948008433E-2,1.423316002E-1
3.205099407E0,1.099557430E-1,5.375614017E-2,1.447750628E-1
3.207113560E0,1.093448773E-1,5.558873713E-2,1.417207420E-1
3.209096712E0,1.075122803E-1,6.047565863E-2,1.404990107E-1
3.211111712E0,1.062905490E-1,6.047565863E-2,1.417207420E-1
3.213095173E0,1.026253626E-1,7.024950534E-2,1.368338168E-1
3.215109557E0,1.014036313E-1,7.635815442E-2,1.343903542E-1
3.217092633E0,1.001819000E-1,8.063421398E-2,1.343903542E-1
3.219106786E0,9.896016866E-2,8.735372871E-2,1.319468915E-1
3.221092016E0,1.014036313E-1,9.285151958E-2,1.276708394E-1
3.223104707E0,1.014036313E-1,9.651670605E-2,1.288925707E-1
3.225087784E0,1.026253626E-1,1.044579595E-1,1.282816976E-1
3.227102783E0,1.044579595E-1,1.123992056E-1,1.301143020E-1
3.229086244E0,1.050688252E-1,1.172861308E-1,1.301143020E-1
3.231099782E0,1.111774743E-1,1.264491081E-1,1.337794960E-1
3.233114781E0,1.130100712E-1,1.374446750E-1,1.386664063E-1
3.235098165E0,1.136209369E-1,1.453859210E-1,1.417207420E-1
3.237112933E0,1.178969890E-1,1.569923609E-1,1.472185254E-1
3.239096010E0,1.233947799E-1,1.710422635E-1,1.557706445E-1
3.241111163E0,1.246165112E-1,1.765400618E-1,1.618792862E-1
3.243093547E0,1.264491081E-1,1.899790913E-1,1.704314053E-1
3.245108085E0,1.295034289E-1,1.936442852E-1,1.789835095E-1
3.247091392E0,1.337794960E-1,2.034181207E-1,1.887573600E-1
3.249105852E0,1.356120855E-1,2.119702399E-1,2.021963894E-1
3.251089313E0,1.374446750E-1,2.162462920E-1,2.028072625E-1
3.253103159E0,1.331686229E-1,2.223549485E-1,2.101376504E-1
3.255087158E0,1.307251602E-1,2.266310006E-1,2.144137025E-1
3.257100926E0,1.282816976E-1,2.278527319E-1,2.107485086E-1
3.259115696E0,1.069014147E-1,2.199114859E-1,2.058615834E-1
3.261098464E0,1.069014147E-1,2.199114859E-1,2.058615834E-1
3.263113232E0,1.001819000E-1,2.180788964E-1,1.997529417E-1
3.265097539E0,8.491026610E-2,2.125810981E-1,1.899790913E-1
3.267110539E0,7.574728876E-2,2.083050460E-1,1.753183305E-1
3.269094768E0,6.841690838E-2,2.076941878E-1,1.698205322E-1
3.271108691E0,5.864306539E-2,1.979203373E-1,1.539380401E-1
3.273092383E0,4.337143153E-2,1.912008226E-1,1.368338168E-1
3.275106228E0,3.665191308E-2,1.912008226E-1,1.270599663E-1
3.277091150E0,1.404990070E-2,1.875356287E-1,1.117883399E-1
3.279104688E0,8.552113548E-3,1.838704348E-1,1.038470939E-1
3.281088918E0,-6.108652335E-3,1.728748679E-1,8.857546002E-2
3.283101917E0,-1.649336144E-2,1.576032341E-1,7.635815442E-2
3.285116609E0,-1.893682219E-2,1.478293836E-1,7.024950534E-2
3.287100070E0,-2.687807009E-2,1.307251602E-1,5.742133409E-2
3.289114223E0,-3.176499158E-2,1.081231460E-1,4.581489414E-2
3.291097837E0,-3.054326214E-2,9.529497474E-2,3.604105115E-2
3.293111375E0,-2.993239649E-2,6.902777404E-2,2.138028294E-2
3.295095375E0,-3.726277873E-2,4.642575979E-2,7.941247895E-3
3.297109835E0,-3.848451003E-2,3.970624134E-2,-6.108652451E-4
3.299093527E0,-4.581489414E-2,2.809980139E-2,-1.466076635E-2
3.301108988E0,-5.009094998E-2,2.321287990E-2,-2.748893574E-2
3.303090833E0,-5.253441259E-2,2.199114859E-2,-3.237585723E-2
3.305105832E0,-5.253441259E-2,2.382374369E-2,-4.398229718E-2
3.307089524E0,-5.619960278E-2,2.565634064E-2,-5.070181563E-2
3.309103139E0,-5.436700583E-2,3.115412779E-2,-6.047565863E-2
3.311086754E0,-5.558873713E-2,4.031710699E-2,-6.841690838E-2
3.313100060E0,-5.681046844E-2,4.459316283E-2,-7.452555746E-2
3.315115676E0,-5.497787148E-2,5.986479297E-2,-8.674286306E-2
3.317099136E0,-5.253441259E-2,7.269296050E-2,-9.896016866E-2
3.319113289E0,-5.253441259E-2,8.002334833E-2,-1.050688252E-1
3.321097828E0,-5.436700583E-2,9.651670605E-2,-1.197295859E-1
3.323111134E0,-4.886921868E-2,1.130100712E-1,-1.331686229E-1
3.325094210E0,-4.703662544E-2,1.209513173E-1,-1.398881376E-1
3.327108901E0,-4.276056588E-2,1.362229437E-1,-1.582140923E-1
3.329091978E0,-3.970624134E-2,1.508837193E-1,-1.698205322E-1
3.331106747E0,-3.787364438E-2,1.569923609E-1,-1.747074574E-1
3.333090130E0,-3.543018550E-2,1.722639948E-1,-1.838704348E-1
3.335104053E0,-3.665191308E-2,1.869247705E-1,-1.960877478E-1
3.337087360E0,-3.665191308E-2,1.936442852E-1,-1.991420686E-1
3.339102436E0,-3.848451003E-2,2.070833147E-1,-2.058615834E-1
3.341117512E0,-4.031710699E-2,2.150245607E-1,-2.113593817E-1
3.343098820E0,-4.276056588E-2,2.205223590E-1,-2.186897546E-1
3.345114126E0,-4.642575979E-2,2.272418737E-1,-2.266310006E-1
3.347097818E0,-5.009094998E-2,2.296853364E-1,-2.290744632E-1
3.349111433E0,-5.253441259E-2,2.351831198E-1,-2.376265824E-1
3.351095663E0,-5.925392732E-2,2.412917763E-1,-2.461786866E-1
3.353109816E0,-6.230825558E-2,2.443460971E-1,-2.498438805E-1
3.355092968E0,-6.719517708E-2,2.553416789E-1,-2.553416789E-1
3.357108276E0,-7.635815442E-2,2.730567753E-1,-2.620611787E-1
3.359090737E0,-8.063421398E-2,2.822197378E-1,-2.645046413E-1
3.361105890E0,-8.857546002E-2,3.054326177E-1,-2.681698501E-1
3.363089197E0,-9.712757170E-2,3.213151097E-1,-2.730567753E-1
3.365103119E0,-1.001819000E-1,3.316998184E-1,-2.755002379E-1
3.367086734E0,-1.081231460E-1,3.475823104E-1,-2.809980214E-1
3.369101271E0,-1.172861308E-1,3.597996235E-1,-2.858849466E-1
3.371114194E0,-1.246165112E-1,3.671300113E-1,-2.901609838E-1
3.373099039E0,-1.404990107E-1,3.744603992E-1,-2.944370508E-1
3.375112654E0,-1.496619880E-1,3.732386529E-1,-2.981022298E-1
3.377095961E0,-1.521054506E-1,3.720169365E-1,-3.023782969E-1
3.379110499E0,-1.576032341E-1,3.610213697E-1,-3.066543639E-1
3.381095959E0,-1.637118906E-1,3.549126983E-1,-3.097086847E-1
3.383108958E0,-1.777617931E-1,3.426954150E-1,-3.152064681E-1
3.385092574E0,-1.869247705E-1,3.237585723E-1,-3.158173263E-1
3.387106188E0,-1.893682331E-1,3.139847219E-1,-3.207042515E-1
3.389089264E0,-1.899790913E-1,2.871066630E-1,-3.249803185E-1
3.391104341E0,-1.960877478E-1,2.528982162E-1,-3.347541690E-1
3.393087340E0,-1.966986060E-1,2.327396572E-1,-3.408628106E-1
3.395102108E0,-1.979203373E-1,1.966986060E-1,-3.506366611E-1
3.397116877E0,-1.985312104E-1,1.508837193E-1,-3.604104817E-1
3.399099338E0,-1.997529417E-1,1.325577646E-1,-3.659082949E-1
3.401114414E0,-1.979203373E-1,9.224065393E-2,-3.726277947E-1
3.403097259E0,-1.948660165E-1,5.253441259E-2,-3.775147200E-1
3.405111028E0,-1.905899495E-1,3.054326214E-2,-3.811798990E-1
3.407094797E0,-1.875356287E-1,-4.886921961E-3,-3.811798990E-1
3.409109565E0,-1.869247705E-1,-2.321287990E-2,-3.775147200E-1
3.411093256E0,-1.826487035E-1,-5.742133409E-2,-3.726277947E-1
3.413106718E0,-1.795943826E-1,-8.918632567E-2,-3.652974069E-1
3.415091640E0,-1.765400618E-1,-1.062905490E-1,-3.628539443E-1
3.417104639E0,-1.802052408E-1,-1.423316002E-1,-3.567453027E-1
3.419089254E0,-1.850921661E-1,-1.789835095E-1,-3.506366611E-1
3.421104638E0,-1.899790913E-1,-1.973094791E-1,-3.518583775E-1
3.423086175E0,-2.009746730E-1,-2.376265824E-1,-3.567453027E-1
3.425100867E0,-2.150245607E-1,-2.779437006E-1,-3.659082949E-1
3.427115021E0,-2.235766798E-1,-2.987131178E-1,-3.732386529E-1
3.429098481E0,-2.406809032E-1,-3.365867436E-1,-3.866777122E-1
3.431112942E0,-2.620611787E-1,-3.726277947E-1,-4.074471295E-1
3.433096326E0,-2.730567753E-1,-3.878994286E-1,-4.184426963E-1
3.435110094E0,-2.944370508E-1,-4.129449129E-1,-4.379903674E-1
3.437094478E0,-3.170390725E-1,-4.312708676E-1,-4.605923891E-1
3.439108017E0,-3.298672438E-1,-4.386012554E-1,-4.679227769E-1
3.441092246E0,-3.475823104E-1,-4.471533597E-1,-4.838052690E-1
3.443105861E0,-3.585779071E-1,-4.453207552E-1,-4.929682612E-1
3.445088937E0,-3.781255782E-1,-4.367686510E-1,-5.088507533E-1
3.447104629E0,-3.970624208E-1,-4.172209501E-1,-5.192354321E-1
3.449087320E0,-4.062253833E-1,-4.037819207E-1,-5.198463202E-1
3.451101473E0,-4.288274050E-1,-3.652974069E-1,-5.222898126E-1
3.453115319E0,-4.557054639E-1,-3.200933933E-1,-5.204572082E-1
3.455099395E0,-4.667010605E-1,-2.938261926E-1,-5.161811113E-1
3.457112856E0,-4.874704778E-1,-2.388483137E-1,-5.070181489E-1
3.459097470E0,-4.960225821E-1,-1.881465018E-1,-4.923573732E-1
3.461113239E0,-4.996877611E-1,-1.606575549E-1,-4.856378734E-1
3.463094700E0,-4.996877611E-1,-1.062905490E-1,-4.697553813E-1
3.465109160E0,-4.923573732E-1,-5.009094998E-2,-4.508185387E-1
3.467093237E0,-4.893030524E-1,-2.138028294E-2,-4.422664344E-1
3.469106775E0,-4.819726646E-1,3.543018550E-2,-4.245513380E-1
3.471091082E0,-4.746423066E-1,9.529497474E-2,-4.141666293E-1
3.473104619E0,-4.618141353E-1,1.276708394E-1,-3.964515328E-1
3.475088234E0,-4.495968223E-1,1.899790913E-1,-3.793473244E-1
3.477103387E0,-4.398229718E-1,2.199114859E-1,-3.689626157E-1
3.479086155E0,-4.251621962E-1,2.834414840E-1,-3.518583775E-1
3.481100925E0,-4.098905921E-1,3.408628106E-1,-3.280346394E-1
3.483113847E0,-4.013384581E-1,3.671300113E-1,-3.158173263E-1
3.485098154E0,-3.872885704E-1,4.166100919E-1,-2.926044464E-1
3.487112306E0,-3.720169365E-1,4.612032473E-1,-2.645046413E-1
3.489095922E0,-3.659082949E-1,4.838052690E-1,-2.474004179E-1
3.491109844E0,-3.732386529E-1,5.381723046E-1,-2.125810981E-1
3.493093766E0,-3.677408695E-1,6.090326309E-1,-1.692096740E-1
3.495107997E0,-3.555235863E-1,6.426302195E-1,-1.447750628E-1
3.497090996E0,-3.158173263E-1,6.823364496E-1,-9.834930301E-2
3.499104918E0,-2.553416789E-1,6.951646209E-1,-2.260201424E-2
3.501087609E0,-2.553416789E-1,6.951646209E-1,-2.260201424E-2
3.503102455E0,-2.449569702E-1,6.896668673E-1,-6.108652335E-3
3.505087300E0,-2.290744632E-1,6.786713004E-1,6.108652335E-3
3.507101453E0,-1.985312104E-1,6.536257863E-1,2.993239649E-2
3.509115684E0,-1.588249654E-1,6.029239893E-1,4.092797264E-2
3.511098683E0,-1.404990107E-1,5.760459304E-1,4.276056588E-2
3.513113144E0,-1.081231460E-1,5.033529401E-1,3.726277873E-2
3.515096835E0,-7.452555746E-2,4.129449129E-1,2.565634064E-2
3.517111373E0,-5.925392732E-2,3.671300113E-1,1.466076635E-2
3.519094680E0,-2.809980139E-2,2.736676335E-1,-2.443460980E-3
3.521109141E0,4.886921961E-3,1.753183305E-1,-1.832595654E-2
3.523092218E0,1.893682219E-2,1.288925707E-1,-2.443460934E-2
3.525106678E0,5.131268129E-2,3.665191308E-2,-3.909537569E-2
3.527089523E0,8.002334833E-2,-5.558873713E-2,-4.948008433E-2
3.529103984E0,9.285151958E-2,-1.026253626E-1,-5.497787148E-2
3.531088215E0,1.209513173E-1,-1.979203373E-1,-6.414084882E-2
3.533102367E0,1.502728462E-1,-2.962696552E-1,-7.391469181E-2
3.535115905E0,1.606575549E-1,-3.426954150E-1,-8.002334833E-2
3.537099366E0,1.838704348E-1,-4.349360466E-1,-9.224065393E-2
3.539113827E0,2.034181207E-1,-5.198463202E-1,-1.032362282E-1
3.541099287E0,2.101376504E-1,-5.595525503E-1,-1.093448773E-1
3.543112517E0,2.223549485E-1,-6.285803318E-1,-1.203404516E-1
3.545095286E0,2.266310006E-1,-6.566801667E-1,-1.264491081E-1
3.547109747E0,2.321287990E-1,-7.043276429E-1,-1.356120855E-1
3.549093438E0,2.370157093E-1,-7.409795523E-1,-1.441642046E-1
3.551107900E0,2.357939780E-1,-7.519751191E-1,-1.466076523E-1
3.553090976E0,2.382374406E-1,-7.751879692E-1,-1.502728462E-1
3.555105436E0,2.388483137E-1,-7.825183868E-1,-1.496619880E-1
3.557090129E0,2.388483137E-1,-7.819074988E-1,-1.484402567E-1
3.559103282E0,2.364048511E-1,-7.684684992E-1,-1.459967941E-1
3.561087973E0,2.345722616E-1,-7.397578359E-1,-1.350012124E-1
3.563100510E0,2.321287990E-1,-7.189884186E-1,-1.295034289E-1
3.565114741E0,2.266310006E-1,-6.719517708E-1,-1.130100712E-1
3.567098740E0,2.193006277E-1,-6.090326309E-1,-9.590584040E-2
3.569112585E0,2.138028294E-1,-5.723807216E-1,-8.735372871E-2
3.571096816E0,2.083050460E-1,-4.978551865E-1,-6.475171447E-2
3.573111277E0,2.058615834E-1,-4.557054639E-1,-5.925392732E-2
3.575094352E0,1.997529417E-1,-3.689626157E-1,-3.665191308E-2
3.577107967E0,2.119702399E-1,-2.761110961E-1,-9.773843922E-3
3.579093121E0,2.125810981E-1,-2.266310006E-1,3.665191587E-3
3.581107274E0,2.205223590E-1,-1.233947799E-1,3.420845419E-2
3.583089119E0,2.193006277E-1,-1.832595654E-2,6.841690838E-2
3.585103888E0,2.174680233E-1,3.481931984E-2,8.246681094E-2
3.587087887E0,2.211332172E-1,1.356120855E-1,1.142318025E-1
3.589102117E0,2.345722616E-1,2.309070677E-1,1.447750628E-1
3.591115962E0,2.449569702E-1,2.718350291E-1,1.588249654E-1
3.593099885E0,2.669481039E-1,3.439171314E-1,1.899790913E-1
3.595113115E0,2.864958048E-1,4.092797041E-1,2.205223590E-1
3.597098345E0,2.944370508E-1,4.386012554E-1,2.345722616E-1
3.599111575E0,3.109304011E-1,4.929682612E-1,2.718350291E-1
3.601096882E0,3.219259977E-1,5.387831330E-1,3.103195429E-1
3.603109727E0,3.243694305E-1,5.589417219E-1,3.304781020E-1
3.605092803E0,3.335324228E-1,5.900958180E-1,3.689626157E-1
3.607107649E0,3.353650272E-1,5.992587805E-1,3.872885704E-1
3.609090725E0,3.426954150E-1,6.072000265E-1,4.202753007E-1
3.611104801E0,3.481931984E-1,5.913175344E-1,4.477642179E-1
3.613087955E0,3.530801237E-1,5.778785348E-1,4.581489265E-1
3.615103262E0,3.585779071E-1,5.338962078E-1,4.703662395E-1
3.617086107E0,3.567453027E-1,4.801400900E-1,4.795292318E-1
3.619099952E0,3.543018401E-1,4.440990388E-1,4.783074856E-1
3.621115644E0,3.469714522E-1,3.707951903E-1,4.746423066E-1
3.623098951E0,3.371976018E-1,2.913827300E-1,4.667010605E-1
3.625112796E0,3.304781020E-1,2.486221492E-1,4.587597847E-1
3.627096181E0,3.243694305E-1,1.545489132E-1,4.398229718E-1
3.629110718E0,3.194825351E-1,5.375614017E-2,4.190535545E-1
3.631093717E0,3.170390725E-1,1.221730490E-3,4.056145251E-1
3.633108255E0,3.054326177E-1,-1.056796908E-1,3.805690408E-1
3.635091332E0,2.907718420E-1,-2.052507252E-1,3.524692357E-1
3.637106638E0,2.889392674E-1,-2.516764700E-1,3.390302062E-1
3.639089483E0,2.840523422E-1,-3.396410644E-1,3.133738637E-1
3.641104560E0,2.809980214E-1,-3.805690408E-1,3.036000133E-1
3.643088483E0,2.626720667E-1,-4.532620013E-1,2.834414840E-1
3.645101482E0,2.412917763E-1,-5.131267905E-1,2.706133127E-1
3.647115865E0,2.278527319E-1,-5.369505286E-1,2.645046413E-1
3.649099557E0,2.089159191E-1,-5.876523852E-1,2.547308207E-1
3.651113787E0,1.979203373E-1,-6.291912198E-1,2.364048511E-1
3.653097171E0,1.905899495E-1,-6.517932415E-1,2.290744632E-1
3.655111940E0,1.802052408E-1,-6.933320761E-1,2.089159191E-1
3.657094708E0,1.661553532E-1,-7.220427394E-1,1.863138974E-1
3.659109400E0,1.582140923E-1,-7.354817390E-1,1.734857261E-1
3.661094323E0,1.447750628E-1,-7.483099103E-1,1.521054506E-1
3.663106091E0,1.319468915E-1,-7.446447611E-1,1.295034289E-1
3.665090398E0,1.288925707E-1,-7.409795523E-1,1.209513173E-1
3.667104858E0,1.160643995E-1,-7.244861722E-1,1.044579595E-1
3.669088243E0,1.111774743E-1,-7.159340382E-1,9.651670605E-2
3.671102396E0,1.001819000E-1,-6.963863969E-1,8.735372871E-2
3.673086087E0,8.552113175E-2,-6.701191664E-1,8.002334833E-2
3.675100472E0,7.757988572E-2,-6.597344875E-1,7.696902007E-2
3.677115009E0,6.108652428E-2,-6.316346526E-1,7.147123665E-2
3.679098316E0,4.153883830E-2,-6.035348773E-1,7.086037099E-2
3.681113469E0,3.054326214E-2,-5.876523852E-1,7.024950534E-2
3.683096469E0,7.941247895E-3,-5.595525503E-1,6.475171447E-2
3.685110391E0,-1.282817032E-2,-5.302310586E-1,6.658431143E-2
3.687094005E0,-2.260201424E-2,-5.119050741E-1,6.414084882E-2
3.689108851E0,-3.909537569E-2,-4.758640230E-1,5.986479297E-2
3.691091850E0,-5.375614017E-2,-4.324925840E-1,5.742133409E-2
3.693105772E0,-6.291911751E-2,-4.086688459E-1,5.558873713E-2
3.695089771E0,-7.880161703E-2,-3.549126983E-1,5.070181563E-2
3.697102694E0,-9.346238524E-2,-2.962696552E-1,4.642575979E-2
3.699087847E0,-1.026253626E-1,-2.632829249E-1,4.459316283E-2
3.701102077E0,-1.148426682E-1,-1.991420686E-1,3.848451003E-2
3.703115539E0,-1.209513173E-1,-1.643227488E-1,3.848451003E-2
3.705099538E0,-1.307251602E-1,-9.712757170E-2,3.604105115E-2
3.707114075E0,-1.337794960E-1,-2.687807009E-2,3.237585723E-2
3.709096536E0,-1.350012124E-1,6.719517522E-3,3.481931984E-2
3.711110920E0,-1.331686229E-1,7.147123665E-2,3.359758854E-2
3.713094688E0,-1.374446750E-1,1.380555481E-1,3.787364438E-2
3.715109072E0,-1.362229437E-1,1.728748679E-1,4.276056588E-2
3.717092534E0,-1.313360333E-1,2.406809032E-1,5.192354694E-2
3.719106917E0,-1.276708394E-1,3.011565804E-1,6.536258012E-2
3.721091532E0,-1.270599663E-1,3.329215646E-1,7.208210230E-2
3.723105684E0,-1.252273768E-1,3.933972120E-1,9.040805697E-2
3.725087608E0,-1.142318025E-1,4.447098970E-1,9.896016866E-2
3.727102299E0,-1.056796908E-1,4.636467099E-1,1.062905490E-1
3.729115913E0,-8.307767659E-2,4.935791194E-1,1.154535338E-1
3.731100144E0,-6.352998316E-2,5.143485069E-1,1.209513173E-1
3.733114297E0,-5.619960278E-2,5.247332454E-1,1.240056455E-1
3.735097757E0,-4.092797264E-2,5.442809463E-1,1.307251602E-1
3.737111833E0,-3.604105115E-2,5.516113043E-1,1.343903542E-1
3.739095526E0,-9.162978269E-3,5.656611919E-1,1.472185254E-1
3.741108448E0,-9.162978269E-3,5.656611919E-1,1.472185254E-1
3.743093062E0,-1.832595794E-3,5.619960427E-1,1.502728462E-1
3.745107908E0,1.221730467E-2,5.467243791E-1,1.606575549E-1
3.747091292E0,2.809980139E-2,5.180137157E-1,1.698205322E-1
3.749105752E0,3.543018550E-2,4.996877611E-1,1.734857261E-1
3.751089367E0,4.764748737E-2,4.532620013E-1,1.789835095E-1
3.753103521E0,5.986479297E-2,4.001167417E-1,1.857030392E-1
3.755087520E0,6.414084882E-2,3.707951903E-1,1.893682331E-1
3.757101134E0,7.147123665E-2,3.072652221E-1,1.893682331E-1
3.759115288E0,7.880161703E-2,2.431243658E-1,1.918116808E-1
3.761099518E0,8.002334833E-2,2.107485086E-1,1.930334121E-1
3.763113055E0,8.491026610E-2,1.484402567E-1,1.912008226E-1
3.765097131E0,8.735372871E-2,8.552113175E-2,1.893682331E-1
3.767110593E0,8.613199741E-2,5.619960278E-2,1.875356287E-1
3.769094284E0,8.979719132E-2,2.443460980E-3,1.850921661E-1
3.771108821E0,9.162978828E-2,-2.199114859E-2,1.820378453E-1
3.773092514E0,9.101892263E-2,-6.902777404E-2,1.789835095E-1
3.775105974E0,8.735372871E-2,-1.123992056E-1,1.747074574E-1
3.777089358E0,8.613199741E-2,-1.301143020E-1,1.740965992E-1
3.779104435E0,8.368854225E-2,-1.643227488E-1,1.710422635E-1
3.781089049E0,8.307767659E-2,-1.930334121E-1,1.704314053E-1
3.783102048E0,8.185594529E-2,-2.040289938E-1,1.710422635E-1
3.785116124E0,7.635815442E-2,-2.235766798E-1,1.716531366E-1
3.787100432E0,7.208210230E-2,-2.357939780E-1,1.753183305E-1
3.789113739E0,7.208210230E-2,-2.425135076E-1,1.802052408E-1
3.791097122E0,6.963863969E-2,-2.492330223E-1,1.857030392E-1
3.793112122E0,7.269296050E-2,-2.522873580E-1,1.905899495E-1
3.795095275E0,7.269296050E-2,-2.528982162E-1,1.930334121E-1
3.797110274E0,7.147123665E-2,-2.516764700E-1,2.015855312E-1
3.799093427E0,7.513642311E-2,-2.541199327E-1,2.089159191E-1
3.801107888E0,7.819075137E-2,-2.522873580E-1,2.174680233E-1
3.803090887E0,8.002334833E-2,-2.467895597E-1,2.272418737E-1
3.805105656E0,8.185594529E-2,-2.412917763E-1,2.315179259E-1
3.807088733E0,8.552113175E-2,-2.321287990E-1,2.400700450E-1
3.809103193E0,8.735372871E-2,-2.217440903E-1,2.480112910E-1
3.811086884E0,8.796459436E-2,-2.144137025E-1,2.516764700E-1
3.813101037E0,8.735372871E-2,-2.003637999E-1,2.590068579E-1
3.815115191E0,8.979719132E-2,-1.820378453E-1,2.663372457E-1
3.817098036E0,8.979719132E-2,-1.740965992E-1,2.700024247E-1
3.819113420E0,9.101892263E-2,-1.563815027E-1,2.773328125E-1
3.821098574E0,9.529497474E-2,-1.417207420E-1,2.840523422E-1
3.823110265E0,9.468411654E-2,-1.295034289E-1,2.864958048E-1
3.825094264E0,1.026253626E-1,-1.148426682E-1,2.974913716E-1
3.827108494E0,1.062905490E-1,-1.020144969E-1,3.048217595E-1
3.829092494E0,1.111774743E-1,-9.529497474E-2,3.115412891E-1
3.831106262E0,1.154535338E-1,-8.307767659E-2,3.213151097E-1
3.833089723E0,1.166752651E-1,-7.574728876E-2,3.280346394E-1
3.835103876E0,1.227839142E-1,-6.475171447E-2,3.371976018E-1
3.837088106E0,1.252273768E-1,-5.925392732E-2,3.445279896E-1
3.839102567E0,1.276708394E-1,-5.375614017E-2,3.481931984E-1
3.841085950E0,1.252273768E-1,-5.375614017E-2,3.524692357E-1
3.843099797E0,1.252273768E-1,-5.314527452E-2,3.549126983E-1
3.845113642E0,1.264491081E-1,-5.070181563E-2,3.567453027E-1
3.847097410E0,1.258382350E-1,-5.436700583E-2,3.579670191E-1
3.849111487E0,1.240056455E-1,-6.047565863E-2,3.543018401E-1
3.851094947E0,1.233947799E-1,-6.291911751E-2,3.524692357E-1
3.853109946E0,1.185078546E-1,-6.841690838E-2,3.481931984E-1
3.855093638E0,1.136209369E-1,-7.757988572E-2,3.402519524E-1
3.857106330E0,1.130100712E-1,-8.307767659E-2,3.371976018E-1
3.859090944E0,1.087340117E-1,-9.407325089E-2,3.304781020E-1
3.861106251E0,1.044579595E-1,-1.038470939E-1,3.237585723E-1
3.863089097E0,1.044579595E-1,-1.081231460E-1,3.176499307E-1
3.865102327E0,1.020144969E-1,-1.233947799E-1,3.090978265E-1
3.867086634E0,9.957103431E-2,-1.301143020E-1,3.066543639E-1
3.869100479E0,9.773843735E-2,-1.411098689E-1,2.956587672E-1
3.871114864E0,9.224065393E-2,-1.502728462E-1,2.883284092E-1
3.873098555E0,9.040805697E-2,-1.582140923E-1,2.846632004E-1
3.875112092E0,8.613199741E-2,-1.612684280E-1,2.748893499E-1
3.877096477E0,8.124507964E-2,-1.685988009E-1,2.669481039E-1
3.879110630E0,7.880161703E-2,-1.685988009E-1,2.651155293E-1
3.881094860E0,7.269296050E-2,-1.667662114E-1,2.583959997E-1
3.883108089E0,6.597344577E-2,-1.624901593E-1,2.516764700E-1
3.885092089E0,6.414084882E-2,-1.563815027E-1,2.492330223E-1
3.887106011E0,6.169738993E-2,-1.478293836E-1,2.406809032E-1
3.889089087E0,6.108652428E-2,-1.356120855E-1,2.419026345E-1
3.891104395E0,5.864306539E-2,-1.282816976E-1,2.394591719E-1
3.893087548E0,6.047565863E-2,-1.123992056E-1,2.351831198E-1
3.895101008E0,6.047565863E-2,-9.285151958E-2,2.321287990E-1
3.897114855E0,6.047565863E-2,-8.185594529E-2,2.290744632E-1
3.899100161E0,5.925392732E-2,-5.436700583E-2,2.290744632E-1
3.901114853E0,5.742133409E-2,-4.031710699E-2,2.278527319E-1
3.903096698E0,6.352998316E-2,-1.954768784E-2,2.266310006E-1
3.905110621E0,6.291911751E-2,0.000000000E0,2.247984111E-1
3.907094851E0,6.169738993E-2,7.330383174E-3,2.217440903E-1
3.909109080E0,5.925392732E-2,1.893682219E-2,2.229658216E-1
3.911092696E0,6.169738993E-2,3.115412779E-2,2.174680233E-1
3.913107156E0,6.902777404E-2,3.298672289E-2,2.180788964E-1
3.915090848E0,7.391469181E-2,3.420845419E-2,2.144137025E-1
3.917105001E0,8.246681094E-2,3.176499158E-2,2.107485086E-1
3.919088154E0,8.491026610E-2,2.748893574E-2,2.064724565E-1
3.921102615E0,9.162978828E-2,2.015855350E-2,1.973094791E-1
3.923086229E0,9.590584040E-2,1.343903504E-2,1.875356287E-1
3.925100691E0,9.712757170E-2,1.099557430E-2,1.789835095E-1
3.927114228E0,1.001819000E-1,1.832595794E-3,1.655444801E-1
3.929098304E0,9.468411654E-2,-1.221730490E-3,1.472185254E-1
3.931112380E0,9.285151958E-2,-3.665191587E-3,1.386664063E-1
3.933096149E0,8.735372871E-2,-8.552113548E-3,1.221730486E-1
3.935109995E0,8.552113175E-2,-1.404990070E-2,1.123992056E-1
3.937092763E0,8.246681094E-2,-2.321287990E-2,9.101892263E-2
3.939107840E0,8.307767659E-2,-3.481931984E-2,6.902777404E-2
3.941092685E0,8.429940045E-2,-4.092797264E-2,5.742133409E-2
3.943105376E0,9.224065393E-2,-5.803219974E-2,3.726277873E-2
