"Time (s)","Acceleration x (m/s^2)","Acceleration y (m/s^2)","Acceleration z (m/s^2)"
4.724618000E-3,3.124433279E0,-8.300697327E0,3.761290789E0
6.773312000E-3,3.131615877E0,-8.279149055E0,3.742137194E0
8.847776000E-3,3.131615877E0,-8.281543732E0,3.744531393E0
1.086185500E-2,3.131615877E0,-8.271966934E0,3.746925592E0
1.287639600E-2,3.107673883E0,-8.283937454E0,3.749319792E0
1.486009000E-2,3.095702887E0,-8.274360657E0,3.754108191E0
1.687424700E-2,3.076549292E0,-8.276755333E0,3.758896589E0
1.885848000E-2,3.026270866E0,-8.281543732E0,3.778050184E0
2.087148200E-2,3.007117271E0,-8.279149055E0,3.785232782E0
2.285540700E-2,2.980781078E0,-8.279149055E0,3.797203779E0
2.487417900E-2,2.944868088E0,-8.279149055E0,3.818751812E0
2.685295000E-2,2.932897091E0,-8.281543732E0,3.818751812E0
2.886810600E-2,2.916137695E0,-8.283937454E0,3.821146011E0
3.085087700E-2,2.908955097E0,-8.257601738E0,3.835511208E0
3.286557300E-2,2.918531895E0,-8.264783859E0,3.847482204E0
3.484903600E-2,2.906560898E0,-8.250418663E0,3.845088005E0
3.686342300E-2,2.911349297E0,-8.259995461E0,3.842693806E0
3.884834800E-2,2.920926094E0,-8.252813339E0,3.864241600E0
4.086188900E-2,2.904166698E0,-8.245630264E0,3.864241600E0
4.287519900E-2,2.887407303E0,-8.250418663E0,3.861847401E0
4.485943200E-2,2.904166698E0,-8.245630264E0,3.859453201E0
4.687266500E-2,2.920926094E0,-8.248024940E0,3.861847401E0
4.885612800E-2,2.930502892E0,-8.252813339E0,3.866635799E0
5.087059300E-2,2.932897091E0,-8.262390137E0,3.881000996E0
5.285421000E-2,2.949656487E0,-8.248024940E0,3.878606796E0
5.486905800E-2,2.959233284E0,-8.236053467E0,3.881000996E0
5.685267600E-2,2.971204281E0,-8.224082947E0,3.876212597E0
5.886744800E-2,2.975992680E0,-8.219294548E0,3.873818398E0
6.085091200E-2,2.983175278E0,-8.219294548E0,3.866635799E0
6.286383700E-2,2.997540474E0,-8.238448143E0,3.847482204E0
6.484745400E-2,3.007117271E0,-8.250418663E0,3.847482204E0
6.686261100E-2,3.014299870E0,-8.236053467E0,3.845088005E0
6.884592100E-2,3.038241863E0,-8.250418663E0,3.837905407E0
7.085892300E-2,3.045424461E0,-8.250418663E0,3.837905407E0
7.287454000E-2,3.064578056E0,-8.238448143E0,3.825934410E0
7.485885100E-2,3.102885485E0,-8.252813339E0,3.840299606E0
7.687154500E-2,3.102885485E0,-8.255207062E0,3.847482204E0
7.885639300E-2,3.126827478E0,-8.259995461E0,3.854664803E0
8.087031800E-2,3.153163671E0,-8.269572258E0,3.869029999E0
8.285309000E-2,3.165134668E0,-8.269572258E0,3.871424198E0
8.486786200E-2,3.181894064E0,-8.262390137E0,3.873818398E0
8.685086400E-2,3.177105665E0,-8.271966934E0,3.876212597E0
8.886532700E-2,3.191470861E0,-8.274360657E0,3.892971992E0
9.084879200E-2,3.205836058E0,-8.286332130E0,3.907337189E0
9.286356300E-2,3.196259260E0,-8.271966934E0,3.926490784E0
9.484695000E-2,3.186682463E0,-8.262390137E0,3.936067581E0
9.686049000E-2,3.189076662E0,-8.264783859E0,3.948038578E0
9.887618500E-2,3.181894064E0,-8.281543732E0,3.955221176E0
1.008585720E-1,3.148375273E0,-8.286332130E0,3.962403774E0
1.028731120E-1,3.100491285E0,-8.262390137E0,3.981557369E0
1.048551910E-1,3.083731890E0,-8.262390137E0,3.974374771E0
1.068697330E-1,3.038241863E0,-8.264783859E0,3.960009575E0
1.088548890E-1,3.009511471E0,-8.271966934E0,3.979163170E0
1.108678910E-1,2.980781078E0,-8.293514252E0,3.986345768E0
1.128524310E-1,2.942473888E0,-8.300697327E0,3.998316765E0
1.148662800E-1,2.932897091E0,-8.310274124E0,4.000710964E0
1.168499750E-1,2.925714493E0,-8.310274124E0,3.995922565E0
1.188647460E-1,2.896984100E0,-8.312667847E0,3.995922565E0
1.208478250E-1,2.882618904E0,-8.303091049E0,3.998316765E0
1.228622880E-1,2.877830505E0,-8.307879448E0,3.998316765E0
1.248771380E-1,2.856282711E0,-8.324639320E0,3.993528366E0
1.268598320E-1,2.868253708E0,-8.336610794E0,3.981557369E0
1.288746030E-1,2.858676910E0,-8.334216118E0,3.969586372E0
1.308571440E-1,2.841917515E0,-8.329427719E0,3.943250179E0
1.328715310E-1,2.832340717E0,-8.322244644E0,3.931279182E0
1.348555330E-1,2.803610086E0,-8.310274124E0,3.921702385E0
1.368697660E-1,2.806004286E0,-8.327033043E0,3.907337189E0
1.388540760E-1,2.813186884E0,-8.331821442E0,3.897760391E0
1.408673090E-1,2.801215887E0,-8.331821442E0,3.854664803E0
1.428512340E-1,2.767697096E0,-8.341399193E0,3.840299606E0
1.448645440E-1,2.748543501E0,-8.346187592E0,3.842693806E0
1.468497770E-1,2.726995707E0,-8.362946510E0,3.830722809E0
1.488635490E-1,2.734178305E0,-8.389283180E0,3.830722809E0
1.508460900E-1,2.738966703E0,-8.398859978E0,3.823540211E0
1.528611690E-1,2.777273893E0,-8.425195694E0,3.816357613E0
1.548747090E-1,2.794033289E0,-8.427590370E0,3.823540211E0
1.568590200E-1,2.791639090E0,-8.427590370E0,3.823540211E0
1.588743290E-1,2.825158119E0,-8.432378769E0,3.799597979E0
1.608565620E-1,2.849100113E0,-8.449137688E0,3.809175014E0
1.628703330E-1,2.841917515E0,-8.451532364E0,3.811569214E0
1.648547210E-1,2.863465309E0,-8.439560890E0,3.833117008E0
1.668681850E-1,2.861071110E0,-8.432378769E0,3.837905407E0
1.688516480E-1,2.856282711E0,-8.444349289E0,3.859453201E0
1.708654960E-1,2.870647907E0,-8.429984093E0,3.878606796E0
1.728497300E-1,2.877830505E0,-8.429984093E0,3.897760391E0
1.748630400E-1,2.889801502E0,-8.434772491E0,3.943250179E0
1.768473490E-1,2.901772499E0,-8.420407295E0,3.971980572E0
1.788624280E-1,2.896984100E0,-8.415618896E0,3.979163170E0
1.808756620E-1,2.894589901E0,-8.406042099E0,3.995922565E0
1.828593570E-1,2.894589901E0,-8.406042099E0,4.022258759E0
1.848700510E-1,2.899378300E0,-8.398859978E0,4.041412354E0
1.868562840E-1,2.885013103E0,-8.403648376E0,4.053383350E0
1.888715930E-1,2.870647907E0,-8.418013573E0,4.070142746E0
1.908556730E-1,2.868253708E0,-8.415618896E0,4.070142746E0
1.928692140E-1,2.851494312E0,-8.418013573E0,4.050989151E0
1.948529080E-1,2.853888512E0,-8.403648376E0,4.041412354E0
1.968666790E-1,2.856282711E0,-8.396465302E0,4.041412354E0
1.988522210E-1,2.837129116E0,-8.406042099E0,4.050989151E0
2.008655300E-1,2.829946518E0,-8.415618896E0,4.055777550E0
2.028485320E-1,2.837129116E0,-8.434772491E0,4.053383350E0
2.048633810E-1,2.832340717E0,-8.425195694E0,4.053383350E0
2.068466910E-1,2.834734917E0,-8.434772491E0,4.050989151E0
2.088603090E-1,2.853888512E0,-8.449137688E0,4.031835556E0
2.108747720E-1,2.870647907E0,-8.463502884E0,4.029441357E0
2.128584670E-1,2.868253708E0,-8.451532364E0,4.034229755E0
2.148713930E-1,2.885013103E0,-8.461109161E0,4.036623955E0
2.168560100E-1,2.885013103E0,-8.451532364E0,4.019864559E0
2.188710120E-1,2.889801502E0,-8.451532364E0,4.022258759E0
2.208537830E-1,2.908955097E0,-8.446743965E0,4.010287762E0
2.228682480E-1,2.918531895E0,-8.432378769E0,3.988739967E0
2.248510960E-1,2.920926094E0,-8.432378769E0,3.986345768E0
2.268664830E-1,2.901772499E0,-8.425195694E0,3.991134167E0
2.288501770E-1,2.901772499E0,-8.432378769E0,3.995922565E0
2.308634110E-1,2.877830505E0,-8.437167168E0,4.005499363E0
2.328479510E-1,2.868253708E0,-8.422801971E0,3.995922565E0
2.348614920E-1,2.865859509E0,-8.420407295E0,3.986345768E0
2.368757240E-1,2.861071110E0,-8.410830498E0,3.995922565E0
2.388605730E-1,2.851494312E0,-8.394071579E0,3.988739967E0
2.408732680E-1,2.844311714E0,-8.386888504E0,3.986345768E0
2.428568850E-1,2.849100113E0,-8.391676903E0,3.995922565E0
2.448722720E-1,2.832340717E0,-8.379706383E0,4.003105164E0
2.468551200E-1,2.827552319E0,-8.391676903E0,3.998316765E0
2.488689690E-1,2.827552319E0,-8.401253700E0,3.998316765E0
2.508529710E-1,2.827552319E0,-8.439560890E0,4.015076160E0
2.528676650E-1,2.820369720E0,-8.463502884E0,4.010287762E0
2.548505140E-1,2.837129116E0,-8.506598473E0,4.041412354E0
2.568649780E-1,2.839523315E0,-8.552088737E0,4.089296341E0
2.588499030E-1,2.870647907E0,-8.578424454E0,4.096478939E0
2.608624440E-1,2.899378300E0,-8.631096840E0,4.077325344E0
2.628772150E-1,2.904166698E0,-8.671798706E0,4.060565948E0
2.648594490E-1,2.930502892E0,-8.678980827E0,4.048594952E0
2.668738350E-1,2.947262287E0,-8.678980827E0,4.027047157E0
2.688582220E-1,2.956839085E0,-8.676587105E0,4.015076160E0
2.708720700E-1,2.964021683E0,-8.669404030E0,3.974374771E0
2.728559960E-1,2.949656487E0,-8.657433510E0,3.950432777E0
2.748702290E-1,2.947262287E0,-8.650250435E0,3.943250179E0
2.768530000E-1,2.928108692E0,-8.623914719E0,3.952826977E0
2.788692330E-1,2.925714493E0,-8.592789650E0,3.952826977E0
2.808516980E-1,2.923320293E0,-8.576030731E0,3.955221176E0
2.828653150E-1,2.935291290E0,-8.554482460E0,3.931279182E0
2.848502400E-1,2.932897091E0,-8.528146744E0,3.909731388E0
2.868637800E-1,2.942473888E0,-8.516175270E0,3.895366192E0
2.888471680E-1,2.949656487E0,-8.497021675E0,3.888183594E0
2.908618620E-1,2.968810081E0,-8.482656479E0,3.881000996E0
2.928754030E-1,2.968810081E0,-8.482656479E0,3.876212597E0
2.948587890E-1,2.940079689E0,-8.444349289E0,3.861847401E0
2.968727160E-1,2.942473888E0,-8.453926086E0,3.849876404E0
2.988576410E-1,2.932897091E0,-8.446743965E0,3.816357613E0
3.008708730E-1,2.913743496E0,-8.434772491E0,3.806780815E0
3.028545680E-1,2.908955097E0,-8.425195694E0,3.797203779E0
3.048681090E-1,2.877830505E0,-8.410830498E0,3.794809580E0
3.068532650E-1,2.868253708E0,-8.386888504E0,3.809175014E0
3.088681130E-1,2.863465309E0,-8.384494781E0,3.811569214E0
3.108496540E-1,2.863465309E0,-8.384494781E0,3.821146011E0
3.128641170E-1,2.880224705E0,-8.350975990E0,3.818751812E0
3.148483510E-1,2.887407303E0,-8.355764389E0,3.823540211E0
3.168625840E-1,2.920926094E0,-8.343792915E0,3.830722809E0
3.188778930E-1,2.968810081E0,-8.341399193E0,3.830722809E0
3.208601260E-1,2.987963676E0,-8.324639320E0,3.847482204E0
3.228738980E-1,3.016694069E0,-8.315062523E0,3.878606796E0
3.248592080E-1,3.021482468E0,-8.291120529E0,3.921702385E0
3.268721330E-1,3.038241863E0,-8.281543732E0,3.936067581E0
3.288558280E-1,3.074155092E0,-8.274360657E0,3.964797974E0
3.308696770E-1,3.083731890E0,-8.259995461E0,3.983951569E0
3.328536020E-1,3.083731890E0,-8.195352554E0,4.005499363E0
3.348678350E-1,3.095702887E0,-8.161833763E0,4.015076160E0
3.368514520E-1,3.100491285E0,-8.137891769E0,4.012681961E0
3.388665320E-1,3.088520288E0,-8.099584579E0,4.000710964E0
3.408493800E-1,3.057395458E0,-8.063671112E0,3.971980572E0
3.428629210E-1,3.043030262E0,-8.039729118E0,3.969586372E0
3.448465380E-1,3.028665066E0,-8.037335396E0,3.971980572E0
3.468604640E-1,3.002328873E0,-8.039729118E0,4.012681961E0
3.488755430E-1,2.985569477E0,-8.032546997E0,4.036623955E0
3.508588530E-1,2.947262287E0,-8.051700592E0,4.106055737E0
3.528733930E-1,2.916137695E0,-8.130708694E0,4.216189384E0
3.548567040E-1,2.913743496E0,-8.154650688E0,4.280832767E0
3.568706290E-1,2.918531895E0,-8.224082947E0,4.362235546E0
3.588557850E-1,2.920926094E0,-8.319850922E0,4.292803764E0
3.608684020E-1,2.940079689E0,-8.355764389E0,4.220977783E0
3.628521740E-1,3.002328873E0,-8.398859978E0,4.091690540E0
3.648672530E-1,3.019088268E0,-8.410830498E0,4.034229755E0
3.668499480E-1,3.066972494E0,-8.422801971E0,3.895366192E0
3.688647190E-1,3.090914488E0,-8.444349289E0,3.818751812E0
3.708474910E-1,3.095702887E0,-8.441955566E0,3.804386616E0
3.728617240E-1,3.095702887E0,-8.413225174E0,3.799597979E0
3.748764180E-1,3.052607059E0,-8.379706383E0,3.799597979E0
3.768601890E-1,3.031059265E0,-8.370129585E0,3.806780815E0
3.788743460E-1,3.019088268E0,-8.374917984E0,3.799597979E0
3.808577330E-1,2.980781078E0,-8.367734909E0,3.785232782E0
3.828721190E-1,2.961627483E0,-8.370129585E0,3.768473387E0
3.848555060E-1,2.932897091E0,-8.382100105E0,3.730166197E0
3.868705850E-1,2.944868088E0,-8.403648376E0,3.694253206E0
3.888533570E-1,2.978386879E0,-8.427590370E0,3.687070608E0
3.908665900E-1,3.055001259E0,-8.446743965E0,3.672705412E0
3.928524380E-1,3.083731890E0,-8.465897560E0,3.682282209E0
3.948651320E-1,3.157952070E0,-8.475474358E0,3.667917013E0
3.968497510E-1,3.248931646E0,-8.497021675E0,3.675099611E0
3.988642140E-1,3.292027235E0,-8.492233276E0,3.679888010E0
4.008472160E-1,3.363853455E0,-8.492233276E0,3.694253206E0
4.028608340E-1,3.414131641E0,-8.487444878E0,3.706224203E0
4.048761440E-1,3.428496838E0,-8.485051155E0,3.694253206E0
4.068586080E-1,3.435679436E0,-8.480262756E0,3.667917013E0
4.088727640E-1,3.414131641E0,-8.458714485E0,3.670311213E0
4.108561510E-1,3.399766445E0,-8.453926086E0,3.677493811E0
4.128709230E-1,3.378218651E0,-8.437167168E0,3.682282209E0
4.148546170E-1,3.339911461E0,-8.422801971E0,3.696647406E0
4.168684650E-1,3.318363667E0,-8.420407295E0,3.711012602E0
4.188531600E-1,3.292027235E0,-8.418013573E0,3.761290789E0
4.208663930E-1,3.294421434E0,-8.437167168E0,3.830722809E0
4.228509340E-1,3.289633036E0,-8.437167168E0,3.873818398E0
4.248604740E-1,3.277662039E0,-8.434772491E0,3.916913986E0
4.268777840E-1,3.287238836E0,-8.451532364E0,3.907337189E0
4.288626330E-1,3.303998232E0,-8.441955566E0,3.909731388E0
4.308761740E-1,3.318363667E0,-8.420407295E0,3.885789394E0
4.328598680E-1,3.325546265E0,-8.418013573E0,3.866635799E0
4.348737160E-1,3.313575268E0,-8.425195694E0,3.859453201E0
4.368574880E-1,3.323152065E0,-8.406042099E0,3.823540211E0
4.388727980E-1,3.313575268E0,-8.389283180E0,3.809175014E0
4.408558770E-1,3.284844637E0,-8.355764389E0,3.799597979E0
4.428700330E-1,3.268085241E0,-8.317456245E0,3.775655985E0
4.448537270E-1,3.263296843E0,-8.303091049E0,3.766079187E0
4.468672690E-1,3.244143248E0,-8.271966934E0,3.727771997E0
4.488512710E-1,3.167528868E0,-8.233659744E0,3.703830004E0
4.508648110E-1,3.122039080E0,-8.207323074E0,3.691859007E0
4.528485820E-1,2.995146275E0,-8.154650688E0,3.691859007E0
4.548635850E-1,2.980781078E0,-8.123526573E0,3.708618402E0
4.568472800E-1,2.992752075E0,-8.101978302E0,3.708618402E0
4.588608200E-1,2.971204281E0,-8.099584579E0,3.670311213E0
4.608750530E-1,2.937685490E0,-8.111555099E0,3.651157618E0
4.628589790E-1,2.870647907E0,-8.121131897E0,3.622427225E0
4.648722890E-1,2.846705914E0,-8.125920296E0,3.596091032E0
4.668565980E-1,2.829946518E0,-8.133103371E0,3.586514235E0
4.688710620E-1,2.803610086E0,-8.147468567E0,3.541024208E0
4.708534490E-1,2.808398485E0,-8.159439087E0,3.517082214E0
4.728688360E-1,2.834734917E0,-8.169015884E0,3.500322819E0
4.748519920E-1,2.875436306E0,-8.219294548E0,3.495534420E0
4.768660710E-1,2.928108692E0,-8.257601738E0,3.495534420E0
4.788510740E-1,2.964021683E0,-8.279149055E0,3.493140221E0
4.808639990E-1,3.031059265E0,-8.315062523E0,3.500322819E0
4.828476160E-1,3.141192675E0,-8.353369713E0,3.564966440E0
4.848626950E-1,3.203441858E0,-8.372523308E0,3.588908434E0
4.868750830E-1,3.294421434E0,-8.410830498E0,3.615244627E0
4.888596230E-1,3.383007050E0,-8.418013573E0,3.579331636E0
4.908735480E-1,3.409343243E0,-8.415618896E0,3.552995205E0
4.928568580E-1,3.478775024E0,-8.437167168E0,3.548206806E0
4.948710150E-1,3.538630009E0,-8.434772491E0,3.562572241E0
4.968547860E-1,3.629609823E0,-8.437167168E0,3.564966440E0
4.988704040E-1,3.541024208E0,-8.427590370E0,3.502717018E0
5.008535590E-1,3.495534420E0,-8.413225174E0,3.459621429E0
5.028677160E-1,3.643975019E0,-8.410830498E0,3.426102638E0
5.048498720E-1,3.782838583E0,-8.427590370E0,3.351882458E0
5.068643360E-1,3.821146011E0,-8.437167168E0,3.318363667E0
5.088482610E-1,3.895366192E0,-8.453926086E0,3.277662039E0
5.108630320E-1,3.979163170E0,-8.468291283E0,3.174711466E0
5.128772660E-1,4.022258759E0,-8.461109161E0,3.129221678E0
5.148609600E-1,4.072536945E0,-8.441955566E0,3.066972494E0
5.168748080E-1,4.120420933E0,-8.432378769E0,2.995146275E0
5.188599640E-1,4.137180328E0,-8.420407295E0,2.961627483E0
5.208723520E-1,4.163516521E0,-8.425195694E0,2.920926094E0
5.228560460E-1,4.173093796E0,-8.384494781E0,2.911349297E0
5.248705100E-1,4.182670593E0,-8.370129585E0,2.904166698E0
5.268545120E-1,4.211400986E0,-8.377311707E0,2.906560898E0
5.288688990E-1,4.225766182E0,-8.382100105E0,2.899378300E0
5.308522860E-1,4.223371983E0,-8.365341187E0,2.873042107E0
5.328661340E-1,4.230554581E0,-8.372523308E0,2.837129116E0
5.348492130E-1,4.220977783E0,-8.370129585E0,2.822763920E0
5.368643700E-1,4.192247391E0,-8.355764389E0,2.832340717E0
5.388477560E-1,4.144362926E0,-8.370129585E0,2.827552319E0
5.408621430E-1,4.115632534E0,-8.374917984E0,2.829946518E0
5.428754530E-1,4.050989151E0,-8.386888504E0,2.839523315E0
5.448593790E-1,3.974374771E0,-8.408436775E0,2.829946518E0
5.468739190E-1,3.919308186E0,-8.418013573E0,2.832340717E0
5.488576140E-1,3.821146011E0,-8.444349289E0,2.839523315E0
5.508711540E-1,3.734954596E0,-8.470685959E0,2.846705914E0
5.528547720E-1,3.699041605E0,-8.487444878E0,2.863465309E0
5.548693130E-1,3.646369219E0,-8.518569946E0,2.894589901E0
5.568526990E-1,3.627215624E0,-8.535328865E0,2.906560898E0
5.588683940E-1,3.600879431E0,-8.554482460E0,2.918531895E0
5.608510890E-1,3.550601006E0,-8.576030731E0,2.916137695E0
5.628649370E-1,3.550601006E0,-8.580819130E0,2.906560898E0
5.648490160E-1,3.548206806E0,-8.609549522E0,2.908955097E0
5.668628640E-1,3.545812607E0,-8.621520042E0,2.918531895E0
5.688764060E-1,3.545812607E0,-8.621520042E0,2.932897091E0
5.708604080E-1,3.588908434E0,-8.633491516E0,2.952050686E0
5.728744870E-1,3.620033026E0,-8.667010307E0,2.971204281E0
5.748576430E-1,3.632004023E0,-8.664615631E0,2.980781078E0
5.768723380E-1,3.672705412E0,-8.671798706E0,3.019088268E0
5.788561090E-1,3.696647406E0,-8.676587105E0,3.038241863E0
5.808708030E-1,3.718195200E0,-8.671798706E0,3.040636063E0
5.828535750E-1,3.778050184E0,-8.669404030E0,3.043030262E0
5.848656540E-1,3.816357613E0,-8.667010307E0,3.021482468E0
5.868508100E-1,3.837905407E0,-8.667010307E0,3.011905670E0
5.888659660E-1,3.892971992E0,-8.635885239E0,3.014299870E0
5.908495840E-1,3.912125587E0,-8.628703117E0,3.011905670E0
5.928638160E-1,3.945644379E0,-8.611943245E0,2.997540474E0
5.948474350E-1,4.003105164E0,-8.583212852E0,2.990357876E0
5.968607450E-1,4.034229755E0,-8.573636055E0,2.980781078E0
5.988761310E-1,4.094084740E0,-8.549694061E0,2.956839085E0
6.008597490E-1,4.134786129E0,-8.528146744E0,2.956839085E0
6.028729820E-1,4.151545525E0,-8.516175270E0,2.959233284E0
6.048572920E-1,4.163516521E0,-8.494627953E0,2.961627483E0
6.068714480E-1,4.192247391E0,-8.477868080E0,2.973598480E0
6.088548350E-1,4.209006786E0,-8.475474358E0,2.978386879E0
6.108696840E-1,4.220977783E0,-8.429984093E0,2.992752075E0
6.128520700E-1,4.218583584E0,-8.394071579E0,2.968810081E0
6.148671490E-1,4.206612587E0,-8.372523308E0,2.959233284E0
6.168505360E-1,4.163516521E0,-8.343792915E0,2.949656487E0
6.188660000E-1,4.146757126E0,-8.300697327E0,2.928108692E0
6.208481560E-1,4.129997730E0,-8.291120529E0,2.918531895E0
6.228623120E-1,4.096478939E0,-8.274360657E0,2.908955097E0
6.248761600E-1,4.067748547E0,-8.267178535E0,2.899378300E0
6.268607790E-1,3.986345768E0,-8.248024940E0,2.889801502E0
6.288745500E-1,3.878606796E0,-8.214506149E0,2.858676910E0
6.308577060E-1,3.830722809E0,-8.188169479E0,2.856282711E0
6.328724770E-1,3.873818398E0,-8.154650688E0,2.856282711E0
6.348561720E-1,3.885789394E0,-8.183381081E0,2.839523315E0
6.368705590E-1,3.878606796E0,-8.190564156E0,2.832340717E0
6.388545610E-1,3.885789394E0,-8.207323074E0,2.834734917E0
6.408684090E-1,3.878606796E0,-8.224082947E0,2.820369720E0
6.428518730E-1,3.876212597E0,-8.238448143E0,2.798821688E0
6.448657220E-1,3.857059002E0,-8.291120529E0,2.741360903E0
6.468494160E-1,3.823540211E0,-8.343792915E0,2.674323320E0
6.488635720E-1,3.799597979E0,-8.367734909E0,2.638410330E0
6.508471890E-1,3.782838583E0,-8.408436775E0,2.576161146E0
6.528613460E-1,3.746925592E0,-8.465897560E0,2.540247917E0
6.548755020E-1,3.730166197E0,-8.494627953E0,2.540247917E0
6.568589660E-1,3.696647406E0,-8.552088737E0,2.557007313E0
6.588736600E-1,3.689464808E0,-8.571242332E0,2.554613113E0
6.608573550E-1,3.677493811E0,-8.616731644E0,2.533065319E0
6.628712800E-1,3.675099611E0,-8.659827232E0,2.513911724E0
6.648536670E-1,3.675099611E0,-8.678980827E0,2.509123325E0
6.668682070E-1,3.689464808E0,-8.705317497E0,2.499546528E0
6.688525180E-1,3.699041605E0,-8.702922821E0,2.489969730E0
6.708660590E-1,3.706224203E0,-8.690952301E0,2.499546528E0
6.728506760E-1,3.720589399E0,-8.674192429E0,2.528276920E0
6.748641390E-1,3.737348795E0,-8.657433510E0,2.566584110E0
6.768479120E-1,3.744531393E0,-8.657433510E0,2.580949545E0
6.788632980E-1,3.780444384E0,-8.619126320E0,2.590526342E0
6.808463000E-1,3.801992416E0,-8.585607529E0,2.609679937E0
6.828604560E-1,3.816357613E0,-8.566453934E0,2.626439333E0
6.848752280E-1,3.830722809E0,-8.542511940E0,2.667140722E0
6.868586920E-1,3.847482204E0,-8.513781548E0,2.700659513E0
6.888718480E-1,3.854664803E0,-8.508993149E0,2.705447912E0
6.908559270E-1,3.881000996E0,-8.482656479E0,2.712630510E0
6.928697760E-1,3.902548790E0,-8.475474358E0,2.719813108E0
6.948525470E-1,3.936067581E0,-8.458714485E0,2.738966703E0
6.968673180E-1,3.974374771E0,-8.427590370E0,2.743755102E0
6.988521670E-1,3.979163170E0,-8.420407295E0,2.748543501E0
7.008651700E-1,4.000710964E0,-8.396465302E0,2.772485495E0
7.028491720E-1,4.017470360E0,-8.367734909E0,2.813186884E0
7.048626350E-1,4.027047157E0,-8.348581314E0,2.834734917E0
7.068777140E-1,4.036623955E0,-8.343792915E0,2.856282711E0
7.088608700E-1,4.058171749E0,-8.339004517E0,2.851494312E0
7.108747190E-1,4.072536945E0,-8.346187592E0,2.856282711E0
7.128587210E-1,4.094084740E0,-8.336610794E0,2.875436306E0
7.148731080E-1,4.108449936E0,-8.334216118E0,2.896984100E0
7.168561870E-1,4.120420933E0,-8.341399193E0,2.892195702E0
7.188718820E-1,4.144362926E0,-8.396465302E0,2.853888512E0
7.208544220E-1,4.144362926E0,-8.403648376E0,2.822763920E0
7.228688860E-1,4.170699596E0,-8.413225174E0,2.770091295E0
7.248528880E-1,4.185064793E0,-8.437167168E0,2.722207308E0
7.268664290E-1,4.199429989E0,-8.458714485E0,2.695871115E0
7.288500470E-1,4.225766182E0,-8.499416351E0,2.662352324E0
7.308638950E-1,4.247313976E0,-8.537723541E0,2.619256735E0
7.328475890E-1,4.264073372E0,-8.556877136E0,2.602497339E0
7.348627460E-1,4.295197964E0,-8.585607529E0,2.561795712E0
7.368759790E-1,4.319139957E0,-8.614337921E0,2.523488522E0
7.388605960E-1,4.328716755E0,-8.626308441E0,2.506729126E0
7.408744440E-1,4.345476151E0,-8.655038834E0,2.499546528E0
7.428572170E-1,4.369418144E0,-8.688557625E0,2.477998734E0
7.448685260E-1,4.374206543E0,-8.690952301E0,2.463633537E0
7.468544510E-1,4.407725334E0,-8.722076416E0,2.454056740E0
7.488695300E-1,4.434061527E0,-8.753201485E0,2.415749550E0
7.508528410E-1,4.448426723E0,-8.769960403E0,2.396595955E0
7.528673810E-1,4.474762917E0,-8.774748802E0,2.372653961E0
7.548510760E-1,4.469974518E0,-8.784325600E0,2.375048161E0
7.568652320E-1,4.295197964E0,-8.817844391E0,2.375048161E0
7.588504650E-1,4.271255970E0,-8.853757858E0,2.458845139E0
7.608633140E-1,4.345476151E0,-8.880094528E0,2.485181332E0
7.628766230E-1,4.369418144E0,-8.906430244E0,2.501940727E0
7.648614710E-1,4.364629745E0,-8.923190117E0,2.552218914E0
7.668753210E-1,4.369418144E0,-8.944737434E0,2.557007313E0
7.688584000E-1,4.378994942E0,-8.961497307E0,2.559401512E0
7.708729400E-1,4.347870350E0,-8.956708908E0,2.600103140E0
7.728566340E-1,4.331110954E0,-8.959102631E0,2.621650934E0
7.748704060E-1,4.314351559E0,-8.959102631E0,2.643198729E0
7.768537930E-1,4.302380562E0,-8.961497307E0,2.667140722E0
7.788701030E-1,4.278438568E0,-8.961497307E0,2.674323320E0
7.808523360E-1,4.244919777E0,-8.971074104E0,2.710236311E0
7.828657990E-1,4.247313976E0,-8.963891029E0,2.750937700E0
7.848495710E-1,4.242525578E0,-8.973467827E0,2.760514498E0
7.868649580E-1,4.216189384E0,-8.985439301E0,2.770091295E0
7.888482680E-1,4.194641590E0,-9.004592896E0,2.777273893E0
7.908609620E-1,4.163516521E0,-9.045293808E0,2.777273893E0
7.928769650E-1,4.134786129E0,-9.071630478E0,2.791639090E0
7.948594290E-1,4.118026733E0,-9.085995674E0,2.791639090E0
7.968738920E-1,4.070142746E0,-9.119514465E0,2.815581083E0
7.988585100E-1,4.010287762E0,-9.141061783E0,2.839523315E0
8.008722820E-1,3.981557369E0,-9.141061783E0,2.863465309E0
8.028551300E-1,3.936067581E0,-9.157821655E0,2.923320293E0
8.048699010E-1,3.878606796E0,-9.176975250E0,2.942473888E0
8.068532880E-1,3.854664803E0,-9.188945770E0,2.954444885E0
8.088670600E-1,3.799597979E0,-9.193734169E0,2.959233284E0
8.108511390E-1,3.737348795E0,-9.224859238E0,2.947262287E0
8.128642950E-1,3.713406801E0,-9.246406555E0,2.942473888E0
8.148489120E-1,3.711012602E0,-9.260771751E0,2.928108692E0
8.168625310E-1,3.694253206E0,-9.284713745E0,2.908955097E0
8.188775330E-1,3.687070608E0,-9.306262016E0,2.911349297E0
8.208606880E-1,3.667917013E0,-9.320627213E0,2.911349297E0
8.228750750E-1,3.658340216E0,-9.327810287E0,2.901772499E0
8.248578470E-1,3.658340216E0,-9.349357605E0,2.889801502E0
8.268716950E-1,3.665522814E0,-9.356540680E0,2.858676910E0
8.288563900E-1,3.667917013E0,-9.361329079E0,2.846705914E0
8.308702380E-1,3.667917013E0,-9.339780807E0,2.849100113E0
8.328542410E-1,3.660734415E0,-9.342175484E0,2.863465309E0
8.348683970E-1,3.675099611E0,-9.339780807E0,2.877830505E0
8.368514760E-1,3.694253206E0,-9.289502144E0,2.887407303E0
8.388674010E-1,3.708618402E0,-9.258378029E0,2.894589901E0
8.408504800E-1,3.722983599E0,-9.251194954E0,2.892195702E0
8.428637900E-1,3.739742994E0,-9.184157372E0,2.904166698E0
8.448474850E-1,3.746925592E0,-9.145850182E0,2.916137695E0
8.468619480E-1,3.744531393E0,-9.124302864E0,2.925714493E0
8.488761040E-1,3.756502390E0,-9.081207275E0,2.918531895E0
8.508591070E-1,3.778050184E0,-9.016563416E0,2.930502892E0
8.528736480E-1,3.806780815E0,-8.987833023E0,2.937685490E0
8.548567260E-1,3.816357613E0,-8.939949036E0,2.937685490E0
8.568717280E-1,3.825934410E0,-8.916007042E0,2.940079689E0
8.588558080E-1,3.861847401E0,-8.844181061E0,2.942473888E0
8.608690410E-1,3.859453201E0,-8.796297073E0,2.928108692E0
8.628524280E-1,3.871424198E0,-8.779537201E0,2.923320293E0
8.648671990E-1,3.883395195E0,-8.743624687E0,2.908955097E0
8.668514330E-1,3.881000996E0,-8.700529099E0,2.911349297E0
8.688652810E-1,3.900154591E0,-8.676587105E0,2.911349297E0
8.708480520E-1,3.919308186E0,-8.640673637E0,2.916137695E0
8.728629000E-1,3.926490784E0,-8.602366447E0,2.916137695E0
8.748763650E-1,3.931279182E0,-8.585607529E0,2.911349297E0
8.768612900E-1,3.926490784E0,-8.552088737E0,2.901772499E0
8.788754460E-1,3.921702385E0,-8.516175270E0,2.906560898E0
8.808592170E-1,3.914519787E0,-8.494627953E0,2.896984100E0
8.828729890E-1,3.897760391E0,-8.470685959E0,2.899378300E0
8.848567610E-1,3.890577793E0,-8.458714485E0,2.908955097E0
8.868702240E-1,3.861847401E0,-8.453926086E0,2.906560898E0
8.888539180E-1,3.840299606E0,-8.446743965E0,2.911349297E0
8.908675370E-1,3.828328609E0,-8.441955566E0,2.908955097E0
8.928518470E-1,3.792415380E0,-8.425195694E0,2.899378300E0
8.948656950E-1,3.787626982E0,-8.425195694E0,2.899378300E0
8.968496970E-1,3.778050184E0,-8.413225174E0,2.906560898E0
8.988650070E-1,3.773261786E0,-8.434772491E0,2.894589901E0
9.008472400E-1,3.744531393E0,-8.451532364E0,2.870647907E0
9.028610880E-1,3.725377798E0,-8.441955566E0,2.856282711E0
9.048749360E-1,3.675099611E0,-8.449137688E0,2.856282711E0
9.068598620E-1,3.655946016E0,-8.437167168E0,2.846705914E0
9.088742490E-1,3.634398222E0,-8.444349289E0,2.834734917E0
9.108567900E-1,3.608062029E0,-8.449137688E0,2.827552319E0
9.128715610E-1,3.572149038E0,-8.449137688E0,2.832340717E0
9.148551780E-1,3.564966440E0,-8.444349289E0,2.829946518E0
9.168694120E-1,3.533841610E0,-8.449137688E0,2.815581083E0
9.188537220E-1,3.529053211E0,-8.446743965E0,2.803610086E0
9.208666470E-1,3.524264812E0,-8.444349289E0,2.782062292E0
9.228506490E-1,3.497928619E0,-8.439560890E0,2.772485495E0
9.248653440E-1,3.493140221E0,-8.449137688E0,2.779668093E0
9.268484230E-1,3.490746021E0,-8.444349289E0,2.786850691E0
9.288617330E-1,3.466804028E0,-8.432378769E0,2.786850691E0
9.308765040E-1,3.464409828E0,-8.434772491E0,2.786850691E0
9.328604300E-1,3.438073635E0,-8.434772491E0,2.803610086E0
9.348739710E-1,3.406949043E0,-8.429984093E0,2.813186884E0
9.368583570E-1,3.397372246E0,-8.434772491E0,2.820369720E0
9.388725130E-1,3.363853455E0,-8.434772491E0,2.825158119E0
9.408565160E-1,3.337517262E0,-8.446743965E0,2.841917515E0
9.428699800E-1,3.330334663E0,-8.439560890E0,2.856282711E0
9.448533660E-1,3.292027235E0,-8.456320763E0,2.870647907E0
9.468688300E-1,3.272873640E0,-8.480262756E0,2.894589901E0
9.488527560E-1,3.253720045E0,-8.480262756E0,2.901772499E0
9.508645270E-1,3.236960649E0,-8.497021675E0,2.937685490E0
9.528496830E-1,3.229778051E0,-8.497021675E0,2.949656487E0
9.548636080E-1,3.210624456E0,-8.511386871E0,2.956839085E0
9.568469190E-1,3.181894064E0,-8.556877136E0,2.971204281E0
9.588623050E-1,3.169923067E0,-8.583212852E0,2.983175278E0
9.608752300E-1,3.167528868E0,-8.571242332E0,3.052607059E0
9.628589250E-1,3.169923067E0,-8.571242332E0,3.098097086E0
9.648734660E-1,3.177105665E0,-8.559270859E0,3.100491285E0
9.668565450E-1,3.198653460E0,-8.566453934E0,3.095702887E0
9.688709320E-1,3.208230257E0,-8.585607529E0,3.086126089E0
9.708547030E-1,3.213018656E0,-8.592789650E0,3.090914488E0
9.728687820E-1,3.222595453E0,-8.597578049E0,3.098097086E0
9.748530930E-1,3.232172251E0,-8.607154846E0,3.102885485E0
9.768654790E-1,3.256114244E0,-8.616731644E0,3.105279684E0
9.788512500E-1,3.275267839E0,-8.631096840E0,3.098097086E0
9.808638680E-1,3.292027235E0,-8.640673637E0,3.064578056E0
9.828478710E-1,3.299209833E0,-8.647856712E0,3.043030262E0
9.848617190E-1,3.308786631E0,-8.635885239E0,2.985569477E0
9.868764900E-1,3.318363667E0,-8.628703117E0,2.947262287E0
9.888598770E-1,3.339911461E0,-8.611943245E0,2.906560898E0
9.908743410E-1,3.356670856E0,-8.626308441E0,2.849100113E0
9.928574970E-1,3.356670856E0,-8.623914719E0,2.837129116E0
9.948724990E-1,3.368641853E0,-8.611943245E0,2.815581083E0
9.968556550E-1,3.373430252E0,-8.626308441E0,2.803610086E0
9.988715810E-1,3.373430252E0,-8.626308441E0,2.784456491E0
1.000854045E0,3.375824451E0,-8.631096840E0,2.784456491E0
1.002867662E0,3.380612850E0,-8.652645111E0,2.774879694E0
1.004851895E0,3.399766445E0,-8.667010307E0,2.755726099E0
1.006865744E0,3.445256233E0,-8.667010307E0,2.731784105E0
1.008849131E0,3.416525841E0,-8.678980827E0,2.710236311E0
1.010863594E0,3.416525841E0,-8.681375504E0,2.700659513E0
1.012846981E0,3.433285236E0,-8.669404030E0,2.693476915E0
1.014860907E0,3.426102638E0,-8.674192429E0,2.715024710E0
1.016875293E0,3.433285236E0,-8.676587105E0,2.734178305E0
1.018859911E0,3.438073635E0,-8.664615631E0,2.748543501E0
1.020873144E0,3.433285236E0,-8.678980827E0,2.765302896E0
1.022856531E0,3.438073635E0,-8.688557625E0,2.779668093E0
1.024870379E0,3.423708439E0,-8.693346024E0,2.801215887E0
1.026855689E0,3.414131641E0,-8.702922821E0,2.817975283E0
1.028869230E0,3.390189648E0,-8.722076416E0,2.844311714E0
1.030851925E0,3.349488258E0,-8.738836288E0,2.861071110E0
1.032866773E0,3.337517262E0,-8.741230011E0,2.873042107E0
1.034849852E0,3.303998232E0,-8.760383606E0,2.889801502E0
1.036864008E0,3.289633036E0,-8.786720276E0,2.911349297E0
1.038849471E0,3.289633036E0,-8.796297073E0,2.925714493E0
1.040862474E0,3.256114244E0,-8.832210541E0,2.971204281E0
1.042876553E0,3.227383852E0,-8.882488251E0,2.985569477E0
1.044859094E0,3.213018656E0,-8.887276649E0,2.995146275E0
1.046874096E0,3.191470861E0,-8.908824921E0,3.023876667E0
1.048857253E0,3.177105665E0,-8.930372238E0,3.045424461E0
1.050871101E0,3.141192675E0,-8.925583839E0,3.050212860E0
1.052855718E0,3.102885485E0,-8.923190117E0,3.055001259E0
1.054870720E0,3.090914488E0,-8.920795441E0,3.062183857E0
1.056853492E0,3.095702887E0,-8.932766914E0,3.035847664E0
1.058868879E0,3.102885485E0,-8.949525833E0,3.016694069E0
1.060851727E0,3.098097086E0,-8.954314232E0,3.019088268E0
1.062865191E0,3.105279684E0,-8.956708908E0,3.031059265E0
1.064848040E0,3.131615877E0,-8.980650902E0,3.026270866E0
1.066862427E0,3.136404276E0,-8.987833023E0,3.023876667E0
1.068877505E0,3.157952070E0,-8.990227699E0,2.999934673E0
1.070860277E0,3.167528868E0,-8.975862503E0,2.995146275E0
1.072875357E0,3.174711466E0,-8.980650902E0,2.995146275E0
1.074859128E0,3.220201254E0,-8.999804497E0,2.992752075E0
1.076873284E0,3.232172251E0,-8.999804497E0,2.949656487E0
1.078858132E0,3.236960649E0,-9.009381294E0,2.935291290E0
1.080871366E0,3.246537447E0,-9.014169693E0,2.904166698E0
1.082854214E0,3.244143248E0,-9.014169693E0,2.889801502E0
1.084869216E0,3.256114244E0,-9.035717010E0,2.841917515E0
1.086851679E0,3.258508444E0,-9.042900085E0,2.815581083E0
1.088866144E0,3.270479441E0,-9.045293808E0,2.803610086E0
1.090849915E0,3.272873640E0,-9.038111687E0,2.794033289E0
1.092863994E0,3.284844637E0,-9.033323288E0,2.765302896E0
1.094848304E0,3.289633036E0,-9.026140213E0,2.765302896E0
1.096862230E0,3.284844637E0,-9.009381294E0,2.774879694E0
1.098877232E0,3.282450438E0,-8.987833023E0,2.767697096E0
1.100859465E0,3.277662039E0,-8.978256226E0,2.762908697E0
1.102874544E0,3.270479441E0,-8.987833023E0,2.753331900E0
1.104857315E0,3.258508444E0,-8.999804497E0,2.746149302E0
1.106872318E0,3.256114244E0,-8.995016098E0,2.731784105E0
1.108856089E0,3.239354849E0,-8.980650902E0,2.726995707E0
1.110868399E0,3.222595453E0,-8.975862503E0,2.726995707E0
1.112853247E0,3.222595453E0,-8.966285706E0,2.731784105E0
1.114867173E0,3.191470861E0,-8.944737434E0,2.750937700E0
1.116851483E0,3.181894064E0,-8.935160637E0,2.770091295E0
1.118865562E0,3.165134668E0,-8.937555313E0,2.765302896E0
1.120848410E0,3.155557871E0,-8.913613319E0,2.798821688E0
1.122863182E0,3.145981073E0,-8.901641846E0,2.803610086E0
1.124878876E0,3.141192675E0,-8.894459724E0,2.810792685E0
1.126860417E0,3.119644880E0,-8.882488251E0,2.820369720E0
1.128875726E0,3.119644880E0,-8.880094528E0,2.832340717E0
1.130858268E0,3.145981073E0,-8.875306129E0,2.846705914E0
1.132872962E0,3.157952070E0,-8.868123055E0,2.858676910E0
1.134857041E0,3.162740469E0,-8.863334656E0,2.863465309E0
1.136870505E0,3.184288263E0,-8.851364136E0,2.873042107E0
1.138855431E0,3.203441858E0,-8.832210541E0,2.877830505E0
1.140867817E0,3.215412855E0,-8.825027466E0,2.870647907E0
1.142851742E0,3.234566450E0,-8.815450668E0,2.885013103E0
1.144864668E0,3.256114244E0,-8.817844391E0,2.887407303E0
1.146849901E0,3.251325846E0,-8.832210541E0,2.889801502E0
1.148863826E0,3.258508444E0,-8.815450668E0,2.889801502E0
1.150848059E0,3.272873640E0,-8.805873871E0,2.901772499E0
1.152861061E0,3.301604033E0,-8.810662270E0,2.899378300E0
1.154875833E0,3.313575268E0,-8.789113998E0,2.894589901E0
1.156859451E0,3.330334663E0,-8.789113998E0,2.892195702E0
1.158874607E0,3.363853455E0,-8.791508675E0,2.896984100E0
1.160857686E0,3.383007050E0,-8.784325600E0,2.887407303E0
1.162871458E0,3.390189648E0,-8.786720276E0,2.885013103E0
1.164856383E0,3.411737442E0,-8.801085472E0,2.920926094E0
1.166869077E0,3.411737442E0,-8.793902397E0,2.920926094E0
1.168853002E0,3.421314240E0,-8.796297073E0,2.916137695E0
1.170866927E0,3.423708439E0,-8.767566681E0,2.913743496E0
1.172851161E0,3.426102638E0,-8.781931877E0,2.918531895E0
1.174864394E0,3.430891037E0,-8.789113998E0,2.920926094E0
1.176848704E0,3.428496838E0,-8.805873871E0,2.930502892E0
1.178863475E0,3.404554844E0,-8.817844391E0,2.923320293E0
1.180877016E0,3.380612850E0,-8.825027466E0,2.916137695E0
1.182860788E0,3.366247654E0,-8.832210541E0,2.901772499E0
1.184874328E0,3.354276657E0,-8.829815865E0,2.906560898E0
1.186859176E0,3.330334663E0,-8.808267593E0,2.899378300E0
1.188872718E0,3.289633036E0,-8.779537201E0,2.877830505E0
1.190855874E0,3.272873640E0,-8.772355080E0,2.880224705E0
1.192871183E0,3.253720045E0,-8.753201485E0,2.892195702E0
1.194853954E0,3.215412855E0,-8.726864815E0,2.894589901E0
1.196868419E0,3.184288263E0,-8.726864815E0,2.885013103E0
1.198853036E0,3.157952070E0,-8.722076416E0,2.875436306E0
1.200865731E0,3.122039080E0,-8.712499619E0,2.877830505E0
1.202849963E0,3.100491285E0,-8.707711220E0,2.880224705E0
1.204864505E0,3.069366693E0,-8.693346024E0,2.868253708E0
1.206847276E0,3.062183857E0,-8.678980827E0,2.844311714E0
1.208861663E0,3.052607059E0,-8.681375504E0,2.839523315E0
1.210875896E0,3.043030262E0,-8.693346024E0,2.822763920E0
1.212858976E0,3.055001259E0,-8.690952301E0,2.817975283E0
1.214873362E0,3.074155092E0,-8.678980827E0,2.820369720E0
1.216857056E0,3.095702887E0,-8.674192429E0,2.817975283E0
1.218872751E0,3.098097086E0,-8.676587105E0,2.813186884E0
1.220855215E0,3.126827478E0,-8.690952301E0,2.808398485E0
1.222869448E0,3.179499865E0,-8.700529099E0,2.801215887E0
1.224852219E0,3.201047659E0,-8.702922821E0,2.779668093E0
1.226866606E0,3.253720045E0,-8.710105896E0,2.770091295E0
1.228850377E0,3.287238836E0,-8.710105896E0,2.758120298E0
1.230865149E0,3.303998232E0,-8.712499619E0,2.753331900E0
1.232848767E0,3.344699860E0,-8.729259491E0,2.743755102E0
1.234862615E0,3.380612850E0,-8.755595207E0,2.741360903E0
1.236877155E0,3.392583847E0,-8.750806808E0,2.726995707E0
1.238860543E0,3.442862034E0,-8.757989883E0,2.712630510E0
1.240874699E0,3.478775024E0,-8.769960403E0,2.712630510E0
1.242858393E0,3.497928619E0,-8.774748802E0,2.710236311E0
1.244873395E0,3.533841610E0,-8.765172005E0,2.695871115E0
1.246856167E0,3.555389643E0,-8.762778282E0,2.681505919E0
1.248870323E0,3.576937437E0,-8.777143478E0,2.662352324E0
1.250853479E0,3.572149038E0,-8.769960403E0,2.662352324E0
1.252867943E0,3.579331636E0,-8.779537201E0,2.647987127E0
1.254851638E0,3.579331636E0,-8.798690796E0,2.616862535E0
1.256865486E0,3.596091032E0,-8.798690796E0,2.600103140E0
1.258850642E0,3.605667830E0,-8.791508675E0,2.583343744E0
1.260863952E0,3.608062029E0,-8.779537201E0,2.547430515E0
1.262847570E0,3.598485231E0,-8.784325600E0,2.528276920E0
1.264861111E0,3.591302633E0,-8.779537201E0,2.525882721E0
1.266876189E0,3.572149038E0,-8.769960403E0,2.525882721E0
1.268859961E0,3.584120035E0,-8.765172005E0,2.509123325E0
1.270872579E0,3.593696833E0,-8.769960403E0,2.511517525E0
1.272857427E0,3.579331636E0,-8.772355080E0,2.499546528E0
1.274871275E0,3.550601006E0,-8.755595207E0,2.494758129E0
1.276855277E0,3.543418407E0,-8.734047890E0,2.497152328E0
1.278869511E0,3.531447411E0,-8.712499619E0,2.487575531E0
1.280852898E0,3.517082214E0,-8.719682693E0,2.492363930E0
1.282867054E0,3.497928619E0,-8.724471092E0,2.487575531E0
1.284850748E0,3.490746021E0,-8.734047890E0,2.501940727E0
1.286864828E0,3.497928619E0,-8.738836288E0,2.499546528E0
1.288849138E0,3.500322819E0,-8.734047890E0,2.482787132E0
1.290862447E0,3.495534420E0,-8.741230011E0,2.477998734E0
1.292876295E0,3.488351822E0,-8.736441612E0,2.473210335E0
1.294860222E0,3.493140221E0,-8.710105896E0,2.454056740E0
1.296874685E0,3.505111217E0,-8.722076416E0,2.463633537E0
1.298858995E0,3.505111217E0,-8.729259491E0,2.466027737E0
1.300872920E0,3.509899616E0,-8.707711220E0,2.449268341E0
1.302856306E0,3.497928619E0,-8.676587105E0,2.451662540E0
1.304866771E0,3.500322819E0,-8.676587105E0,2.458845139E0
1.306853235E0,3.519476414E0,-8.669404030E0,2.458845139E0
1.308868544E0,3.521870613E0,-8.688557625E0,2.470816135E0
1.310851623E0,3.521870613E0,-8.695740700E0,2.485181332E0
1.312865165E0,3.521870613E0,-8.669404030E0,2.497152328E0
1.314849474E0,3.521870613E0,-8.671798706E0,2.504334927E0
1.316863630E0,3.517082214E0,-8.686163902E0,2.521094322E0
1.318878786E0,3.526659012E0,-8.714894295E0,2.530671120E0
1.320861174E0,3.524264812E0,-8.724471092E0,2.533065319E0
1.322875099E0,3.526659012E0,-8.731653214E0,2.537853718E0
1.324859639E0,3.526659012E0,-8.710105896E0,2.559401512E0
1.326873564E0,3.524264812E0,-8.695740700E0,2.571372509E0
1.328856875E0,3.531447411E0,-8.686163902E0,2.576161146E0
1.330871108E0,3.517082214E0,-8.667010307E0,2.583343744E0
1.332854187E0,3.500322819E0,-8.657433510E0,2.583343744E0
1.334869189E0,3.478775024E0,-8.650250435E0,2.592920542E0
1.336851961E0,3.450044632E0,-8.626308441E0,2.588132143E0
1.338867117E0,3.447650433E0,-8.623914719E0,2.583343744E0
1.340849811E0,3.435679436E0,-8.621520042E0,2.580949545E0
1.342864352E0,3.418920040E0,-8.607154846E0,2.588132143E0
1.344847124E0,3.404554844E0,-8.604761124E0,2.585737944E0
1.346862434E0,3.373430252E0,-8.604761124E0,2.580949545E0
1.348876589E0,3.361459255E0,-8.599972725E0,2.573766708E0
1.350859438E0,3.361459255E0,-8.597578049E0,2.585737944E0
1.352874441E0,3.320757866E0,-8.621520042E0,2.578555346E0
1.354858135E0,3.311181068E0,-8.628703117E0,2.580949545E0
1.356872291E0,3.282450438E0,-8.652645111E0,2.578555346E0
1.358856677E0,3.282450438E0,-8.667010307E0,2.571372509E0
1.360869526E0,3.280056238E0,-8.686163902E0,2.573766708E0
1.362852375E0,3.248931646E0,-8.686163902E0,2.564189911E0
1.364868069E0,3.248931646E0,-8.698134422E0,2.554613113E0
1.366851148E0,3.253720045E0,-8.707711220E0,2.552218914E0
1.368864304E0,3.268085241E0,-8.717288017E0,2.549824715E0
1.370848999E0,3.277662039E0,-8.724471092E0,2.547430515E0
1.372863463E0,3.284844637E0,-8.719682693E0,2.542642117E0
1.374877234E0,3.303998232E0,-8.705317497E0,2.547430515E0
1.376860620E0,3.325546265E0,-8.702922821E0,2.559401512E0
1.378876393E0,3.380612850E0,-8.705317497E0,2.559401512E0
1.380859087E0,3.450044632E0,-8.724471092E0,2.549824715E0
1.382872320E0,3.469198227E0,-8.724471092E0,2.545036316E0
1.384855783E0,3.500322819E0,-8.717288017E0,2.528276920E0
1.386870863E0,3.550601006E0,-8.722076416E0,2.509123325E0
1.388854558E0,3.569754839E0,-8.724471092E0,2.501940727E0
1.390868713E0,3.610456228E0,-8.707711220E0,2.489969730E0
1.392852408E0,3.624821424E0,-8.695740700E0,2.487575531E0
1.394866565E0,3.641580820E0,-8.693346024E0,2.480392933E0
1.396850490E0,3.658340216E0,-8.678980827E0,2.489969730E0
1.398865030E0,3.684676409E0,-8.667010307E0,2.492363930E0
1.400848417E0,3.706224203E0,-8.662221909E0,2.482787132E0
1.402861958E0,3.715801001E0,-8.664615631E0,2.473210335E0
1.404876422E0,3.751713991E0,-8.635885239E0,2.492363930E0
1.406860039E0,3.758896589E0,-8.645462036E0,2.489969730E0
1.408874580E0,3.787626982E0,-8.631096840E0,2.492363930E0
1.410857660E0,3.797203779E0,-8.619126320E0,2.501940727E0
1.412871508E0,3.801992416E0,-8.611943245E0,2.509123325E0
1.414855510E0,3.813963413E0,-8.604761124E0,2.540247917E0
1.416869050E0,3.823540211E0,-8.597578049E0,2.561795712E0
1.418853669E0,3.813963413E0,-8.583212852E0,2.602497339E0
1.420868440E0,3.830722809E0,-8.588001251E0,2.643198729E0
1.422851749E0,3.830722809E0,-8.602366447E0,2.664746523E0
1.424864982E0,3.828328609E0,-8.611943245E0,2.707842112E0
1.426849369E0,3.823540211E0,-8.626308441E0,2.750937700E0
1.428863449E0,3.823540211E0,-8.638279915E0,2.760514498E0
1.430876682E0,3.801992416E0,-8.667010307E0,2.794033289E0
1.432860684E0,3.780444384E0,-8.683769226E0,2.825158119E0
1.434875224E0,3.770867586E0,-8.688557625E0,2.844311714E0
1.436858842E0,3.742137194E0,-8.700529099E0,2.861071110E0
1.438873306E0,3.703830004E0,-8.710105896E0,2.870647907E0
1.440856385E0,3.689464808E0,-8.712499619E0,2.877830505E0
1.442870925E0,3.632004023E0,-8.734047890E0,2.896984100E0
1.444854851E0,3.622427225E0,-8.746018410E0,2.904166698E0
1.446868469E0,3.596091032E0,-8.734047890E0,2.906560898E0
1.448852394E0,3.548206806E0,-8.729259491E0,2.916137695E0
1.450866627E0,3.529053211E0,-8.729259491E0,2.932897091E0
1.452849937E0,3.485957623E0,-8.741230011E0,2.952050686E0
1.454865016E0,3.459621429E0,-8.746018410E0,2.964021683E0
1.456847788E0,3.447650433E0,-8.746018410E0,2.968810081E0
1.458862636E0,3.399766445E0,-8.750806808E0,2.990357876E0
1.460876100E0,3.359065056E0,-8.757989883E0,2.980781078E0
1.462859487E0,3.354276657E0,-8.753201485E0,2.978386879E0
1.464870873E0,3.337517262E0,-8.746018410E0,2.952050686E0
1.466856491E0,3.296815634E0,-8.767566681E0,2.920926094E0
1.468871802E0,3.270479441E0,-8.765172005E0,2.923320293E0
1.470854957E0,3.248931646E0,-8.769960403E0,2.932897091E0
1.472869421E0,3.248931646E0,-8.772355080E0,2.932897091E0
1.474852731E0,3.239354849E0,-8.779537201E0,2.925714493E0
1.476867195E0,3.248931646E0,-8.798690796E0,2.899378300E0
1.478851890E0,3.244143248E0,-8.796297073E0,2.887407303E0
1.480866045E0,3.268085241E0,-8.774748802E0,2.851494312E0
1.482848124E0,3.284844637E0,-8.748413086E0,2.813186884E0
1.484863820E0,3.296815634E0,-8.748413086E0,2.796427488E0
1.486877129E0,3.311181068E0,-8.753201485E0,2.784456491E0
1.488861054E0,3.325546265E0,-8.741230011E0,2.770091295E0
1.490874672E0,3.339911461E0,-8.741230011E0,2.767697096E0
1.492858982E0,3.344699860E0,-8.731653214E0,2.736572504E0
1.494872446E0,3.339911461E0,-8.707711220E0,2.726995707E0
1.496856448E0,3.347094059E0,-8.710105896E0,2.726995707E0
1.498871527E0,3.325546265E0,-8.705317497E0,2.726995707E0
1.500853760E0,3.313575268E0,-8.714894295E0,2.731784105E0
1.502868224E0,3.308786631E0,-8.710105896E0,2.741360903E0
1.504851303E0,3.311181068E0,-8.690952301E0,2.746149302E0
1.506866690E0,3.313575268E0,-8.707711220E0,2.758120298E0
1.508850076E0,3.306392431E0,-8.705317497E0,2.767697096E0
1.510863003E0,3.325546265E0,-8.700529099E0,2.803610086E0
1.512878620E0,3.332728863E0,-8.686163902E0,2.815581083E0
1.514862314E0,3.311181068E0,-8.683769226E0,2.825158119E0
1.516875624E0,3.303998232E0,-8.690952301E0,2.851494312E0
1.518860858E0,3.299209833E0,-8.695740700E0,2.861071110E0
1.520873398E0,3.303998232E0,-8.700529099E0,2.889801502E0
1.522857092E0,3.299209833E0,-8.702922821E0,2.896984100E0
1.524871941E0,3.303998232E0,-8.700529099E0,2.908955097E0
1.526855021E0,3.311181068E0,-8.695740700E0,2.925714493E0
1.528869407E0,3.299209833E0,-8.702922821E0,2.935291290E0
1.530853486E0,3.303998232E0,-8.710105896E0,2.956839085E0
1.532866950E0,3.301604033E0,-8.719682693E0,2.968810081E0
1.534850337E0,3.296815634E0,-8.724471092E0,2.971204281E0
1.536864878E0,3.299209833E0,-8.722076416E0,2.968810081E0
1.538849187E0,3.306392431E0,-8.710105896E0,2.968810081E0
1.540863266E0,3.294421434E0,-8.722076416E0,2.973598480E0
1.542876885E0,3.284844637E0,-8.717288017E0,2.975992680E0
1.544859579E0,3.275267839E0,-8.719682693E0,2.990357876E0
1.546873735E0,3.260902643E0,-8.719682693E0,2.990357876E0
1.548858352E0,3.263296843E0,-8.753201485E0,3.011905670E0
1.550872894E0,3.232172251E0,-8.767566681E0,3.014299870E0
1.552856511E0,3.217807055E0,-8.769960403E0,3.016694069E0
1.554870436E0,3.205836058E0,-8.793902397E0,3.021482468E0
1.556854131E0,3.172317266E0,-8.808267593E0,3.023876667E0
1.558869749E0,3.150769472E0,-8.817844391E0,3.028665066E0
1.560851905E0,3.126827478E0,-8.827422142E0,3.045424461E0
1.562866061E0,3.090914488E0,-8.829815865E0,3.069366693E0
1.564849524E0,3.078943491E0,-8.841787338E0,3.081337690E0
1.566863680E0,3.035847664E0,-8.860940933E0,3.090914488E0
1.568878068E0,3.016694069E0,-8.880094528E0,3.105279684E0
1.570861839E0,3.002328873E0,-8.889671326E0,3.107673883E0
1.572875379E0,2.983175278E0,-8.901641846E0,3.119644880E0
1.574858766E0,2.966415882E0,-8.916007042E0,3.117250681E0
1.576873538E0,2.935291290E0,-8.899248123E0,3.098097086E0
1.578857771E0,2.911349297E0,-8.889671326E0,3.078943491E0
1.580871081E0,2.892195702E0,-8.884882927E0,3.081337690E0
1.582855083E0,2.877830505E0,-8.863334656E0,3.081337690E0
1.584868624E0,2.868253708E0,-8.877699852E0,3.105279684E0
1.586853165E0,2.853888512E0,-8.884882927E0,3.117250681E0
1.588867090E0,2.822763920E0,-8.863334656E0,3.126827478E0
1.590850169E0,2.774879694E0,-8.851364136E0,3.155557871E0
1.592866172E0,2.772485495E0,-8.848969460E0,3.172317266E0
1.594848251E0,2.760514498E0,-8.851364136E0,3.203441858E0
1.596863099E0,2.760514498E0,-8.832210541E0,3.236960649E0
1.598877485E0,2.748543501E0,-8.827422142E0,3.258508444E0
1.600860642E0,2.731784105E0,-8.851364136E0,3.292027235E0
1.602874183E0,2.712630510E0,-8.853757858E0,3.339911461E0
1.604857877E0,2.707842112E0,-8.841787338E0,3.354276657E0
1.606872879E0,2.676717520E0,-8.810662270E0,3.414131641E0
1.608856344E0,2.664746523E0,-8.803479195E0,3.442862034E0
1.610870499E0,2.662352324E0,-8.774748802E0,3.521870613E0
1.612853809E0,2.683900118E0,-8.779537201E0,3.603273630E0
1.614867965E0,2.688688517E0,-8.769960403E0,3.636792421E0
1.616851045E0,2.681505919E0,-8.760383606E0,3.684676409E0
1.618866816E0,2.686294317E0,-8.736441612E0,3.734954596E0
1.620849818E0,2.698265314E0,-8.729259491E0,3.768473387E0
1.622863743E0,2.715024710E0,-8.731653214E0,3.823540211E0
1.624876669E0,2.748543501E0,-8.736441612E0,3.890577793E0
1.626861902E0,2.770091295E0,-8.741230011E0,3.924096584E0
1.628875442E0,2.808398485E0,-8.736441612E0,3.979163170E0
1.630858829E0,2.810792685E0,-8.734047890E0,4.034229755E0
1.632872370E0,2.825158119E0,-8.731653214E0,4.055777550E0
1.634857219E0,2.853888512E0,-8.746018410E0,4.094084740E0
1.636870836E0,2.863465309E0,-8.767566681E0,4.151545525E0
1.638856607E0,2.873042107E0,-8.786720276E0,4.177882195E0
1.640869302E0,2.870647907E0,-8.841787338E0,4.242525578E0
1.642852382E0,2.868253708E0,-8.851364136E0,4.278438568E0
1.644866768E0,2.858676910E0,-8.906430244E0,4.345476151E0
1.646850463E0,2.870647907E0,-8.947132111E0,4.386177540E0
1.648864388E0,2.858676910E0,-8.968679428E0,4.412513733E0
1.650848391E0,2.834734917E0,-9.014169693E0,4.477157116E0
1.652862239E0,2.789244890E0,-9.081207275E0,4.544194698E0
1.654876010E0,2.777273893E0,-9.119514465E0,4.565742493E0
1.656860320E0,2.731784105E0,-9.172186852E0,4.601655483E0
1.658874861E0,2.688688517E0,-9.227252960E0,4.656722069E0
1.660858479E0,2.662352324E0,-9.251194954E0,4.680664539E0
1.662871711E0,2.609679937E0,-9.306262016E0,4.735731125E0
1.664855098E0,2.542642117E0,-9.349357605E0,4.790797710E0
1.666870563E0,2.506729126E0,-9.363722801E0,4.821922302E0
1.668853949E0,2.439691544E0,-9.390059471E0,4.888959885E0
1.670867490E0,2.403778553E0,-9.404424667E0,4.932055473E0
1.672851107E0,2.336740971E0,-9.399636269E0,4.958391666E0
1.674865879E0,2.284068346E0,-9.423578262E0,5.015852451E0
1.676849574E0,2.250549555E0,-9.423578262E0,5.046977043E0
1.678864345E0,2.169146776E0,-9.459490776E0,5.109226227E0
1.680877885E0,2.114080191E0,-9.447520256E0,5.152322292E0
1.682861042E0,2.094926596E0,-9.440337181E0,5.176264286E0
1.684876044E0,2.030282974E0,-9.435548782E0,5.209783077E0
1.686858892E0,1.975216389E0,-9.428366661E0,5.221754074E0
1.688873048E0,1.948880196E0,-9.440337181E0,5.231330872E0
1.690856742E0,1.908178806E0,-9.445125580E0,5.269638062E0
1.692871207E0,1.862688899E0,-9.457097054E0,5.339069843E0
1.694855132E0,1.836352706E0,-9.466673851E0,5.370194435E0
1.696868673E0,1.802833915E0,-9.483432770E0,5.456385612E0
1.698853290E0,1.771709204E0,-9.512163162E0,5.497087002E0
1.700867216E0,1.750161409E0,-9.507374763E0,5.523423195E0
1.702850526E0,1.699883223E0,-9.497797966E0,5.559336185E0
1.704860758E0,1.663970232E0,-9.516951561E0,5.573701382E0
1.706877684E0,1.570596337E0,-9.528923035E0,5.612008572E0
1.708862533E0,1.493981838E0,-9.557653427E0,5.667075634E0
1.710876073E0,1.460463047E0,-9.572018623E0,5.688623428E0
1.712860075E0,1.407790542E0,-9.583989143E0,5.748478413E0
1.714874616E0,1.359906554E0,-9.588777542E0,5.791574001E0
1.716858234E0,1.331176162E0,-9.591172218E0,5.817910194E0
1.718872390E0,1.290474772E0,-9.619902611E0,5.870582581E0
1.720856392E0,1.237802267E0,-9.643844604E0,5.920860767E0
1.722869932E0,1.209071875E0,-9.658209801E0,5.947196960E0
1.724853397E0,1.177947283E0,-9.651026726E0,6.004657745E0
1.726867476E0,1.151610970E0,-9.667786598E0,6.057330132E0
1.728851478E0,1.130063176E0,-9.677363396E0,6.083666325E0
1.730865018E0,1.098938584E0,-9.691728592E0,6.133944988E0
1.732848483E0,1.089361787E0,-9.708487511E0,6.198588371E0
1.734863793E0,1.058237195E0,-9.720458984E0,6.229712963E0
1.736877025E0,1.034295082E0,-9.753977776E0,6.318298340E0
1.738862566E0,1.027112484E0,-9.770736694E0,6.347028732E0
1.740875184E0,1.010353088E0,-9.809044838E0,6.406883717E0
1.742858878E0,1.039083481E0,-9.856928825E0,6.469132900E0
1.744872111E0,1.053448796E0,-9.878476143E0,6.502651691E0
1.746856806E0,1.065419793E0,-9.921571732E0,6.576871872E0
1.748871193E0,1.103726983E0,-9.964667320E0,6.658275127E0
1.750853657E0,1.127668977E0,-9.986215591E0,6.706159115E0
1.752868736E0,1.187524080E0,-1.003888798E1,6.825869083E0
1.754851815E0,1.254561663E0,-1.007240677E1,6.921637058E0
1.756866279E0,1.292868972E0,-1.007958889E1,6.947973251E0
1.758851204E0,1.379060149E0,-1.009156036E1,6.986280441E0
1.760863822E0,1.460463047E0,-1.012268448E1,7.026981831E0
1.762878362E0,1.484405041E0,-1.012507915E1,7.053318024E0
1.764862364E0,1.563413739E0,-1.012268448E1,7.096413612E0
1.766875829E0,1.608903527E0,-1.012747288E1,7.144298077E0
1.768859908E0,1.623268723E0,-1.012986755E1,7.175422668E0
1.770874602E0,1.671152830E0,-1.011550236E1,7.225700855E0
1.772857988E0,1.690306425E0,-1.010831928E1,7.247248650E0
1.774871607E0,1.702277422E0,-1.011550236E1,7.304709435E0
1.776855224E0,1.709460020E0,-1.011310768E1,7.357381821E0
1.778870072E0,1.704671621E0,-1.011310768E1,7.381323814E0
1.780853767E0,1.695094824E0,-1.012986755E1,7.450755596E0
1.782867308E0,1.683123827E0,-1.014902115E1,7.520187378E0
1.784850002E0,1.692700624E0,-1.016817474E1,7.558494568E0
1.786864774E0,1.697489023E0,-1.019211674E1,7.642292023E0
1.788848853E0,1.695094824E0,-1.025197124E1,7.711723804E0
1.790862702E0,1.687912226E0,-1.028309631E1,7.747636795E0
1.792877396E0,1.671152830E0,-1.032858658E1,7.819462776E0
1.794860860E0,1.661576033E0,-1.036928749E1,7.881711960E0
1.796874631E0,1.656787634E0,-1.039083576E1,7.903259754E0
1.798859326E0,1.628057122E0,-1.044350815E1,7.948749542E0
1.800872251E0,1.620874524E0,-1.050336266E1,7.979874134E0
1.802856253E0,1.596932530E0,-1.050336266E1,7.996633530E0
1.804871025E0,1.561019540E0,-1.053448772E1,8.046912193E0
1.806854104E0,1.556231141E0,-1.055124664E1,8.063671112E0
1.808868568E0,1.527500629E0,-1.057040024E1,8.070854187E0
1.810852185E0,1.496376038E0,-1.059913063E1,8.109161377E0
1.812866341E0,1.479616642E0,-1.060870743E1,8.121131897E0
1.814849729E0,1.417367458E0,-1.065180302E1,8.128314972E0
1.816863885E0,1.374271750E0,-1.070447540E1,8.154650688E0
1.818878656E0,1.347935557E0,-1.072362900E1,8.176198959E0
1.820861812E0,1.319205165E0,-1.077869606E1,8.188169479E0
1.822875661E0,1.276109457E0,-1.081221485E1,8.204929352E0
1.824858971E0,1.256955862E0,-1.084573364E1,8.214506149E0
1.826874357E0,1.204283476E0,-1.090558910E1,8.214506149E0
1.828857744E0,1.163581967E0,-1.092713642E1,8.231265068E0
1.830871284E0,1.149216771E0,-1.093431950E1,8.240841866E0
1.832854980E0,1.089361787E0,-1.095347309E1,8.248024940E0
1.834869136E0,1.055842996E0,-1.097980881E1,8.243236542E0
1.836853830E0,1.017535686E0,-1.096544361E1,8.250418663E0
1.838867909E0,9.983820915E-1,-1.095107841E1,8.240841866E0
1.840851296E0,9.935936928E-1,-1.095347309E1,8.231265068E0
1.842864529E0,9.768342972E-1,-1.093431950E1,8.214506149E0
1.844879608E0,9.696516991E-1,-1.089122391E1,8.171410561E0
1.846862995E0,9.696516991E-1,-1.086728191E1,8.157045364E0
1.848877459E0,9.888052940E-1,-1.081460953E1,8.133103371E0
1.850860615E0,1.024718285E0,-1.078108978E1,8.116343498E0
1.852875309E0,1.053448796E0,-1.075954247E1,8.118738174E0
1.854858158E0,1.101332784E0,-1.074038887E1,8.121131897E0
1.856872853E0,1.170764685E0,-1.071644688E1,8.140285492E0
1.858856932E0,1.206677675E0,-1.070687008E1,8.147468567E0
1.860870395E0,1.292868972E0,-1.071884060E1,8.159439087E0
1.862854090E0,1.393425345E0,-1.072602367E1,8.133103371E0
1.864866093E0,1.431732655E0,-1.074038887E1,8.104372978E0
1.866852018E0,1.527500629E0,-1.074996567E1,8.049305916E0
1.868866481E0,1.568202138E0,-1.078587818E1,8.034940720E0
1.870849483E0,1.644816518E0,-1.078827286E1,8.015787125E0
1.872864025E0,1.723825216E0,-1.078827286E1,7.987056732E0
1.874877796E0,1.776497602E0,-1.079306126E1,7.972691536E0
1.876861567E0,1.836352706E0,-1.079306126E1,7.924807549E0
1.878876569E0,1.893813491E0,-1.078827286E1,7.881711960E0
1.880859649E0,1.920149803E0,-1.078827286E1,7.862558365E0
1.882873882E0,1.984793186E0,-1.075954247E1,7.831433773E0
1.884858499E0,2.044648170E0,-1.074996567E1,7.807491779E0
1.886871424E0,2.068590164E0,-1.072841740E1,7.797914982E0
1.888855042E0,2.104503393E0,-1.071405220E1,7.766790390E0
1.890869199E0,2.133233786E0,-1.069729328E1,7.752425194E0
1.892852278E0,2.152387381E0,-1.067813969E1,7.742848396E0
1.894867357E0,2.164358377E0,-1.066616821E1,7.728483200E0
1.896850820E0,2.152387381E0,-1.068771648E1,7.706935406E0
1.898865823E0,2.147598982E0,-1.067813969E1,7.694964409E0
1.900848594E0,2.133233786E0,-1.064462090E1,7.666234016E0
1.902863366E0,2.128445387E0,-1.063264942E1,7.654263020E0
1.904876675E0,2.092532396E0,-1.059913063E1,7.630321026E0
1.906860986E0,2.047042370E0,-1.057040024E1,7.587224960E0
1.908875065E0,2.037465572E0,-1.055842972E1,7.560888767E0
1.910857605E0,2.013523579E0,-1.052491093E1,7.522581577E0
1.912873223E0,1.999158382E0,-1.048660374E1,7.493851185E0
1.914856687E0,1.999158382E0,-1.046266174E1,7.481880188E0
1.916870151E0,1.965639591E0,-1.043153667E1,7.477091789E0
1.918855076E0,1.929726601E0,-1.040998936E1,7.465120792E0
1.920868309E0,1.910573006E0,-1.039801788E1,7.457938194E0
1.922851696E0,1.869871497E0,-1.038125896E1,7.489062786E0
1.924866544E0,1.841141105E0,-1.035731697E1,7.529764175E0
1.926849623E0,1.826775908E0,-1.034295177E1,7.546523571E0
1.928863472E0,1.812410712E0,-1.033337498E1,7.599195957E0
1.930877936E0,1.805228114E0,-1.033816338E1,7.625532627E0
1.932861630E0,1.807622313E0,-1.032619190E1,7.627926826E0
1.934875709E0,1.810016513E0,-1.031422138E1,7.615955830E0
1.936858788E0,1.817199111E0,-1.031661510E1,7.618350029E0
1.938873945E0,1.817199111E0,-1.027112484E1,7.620744228E0
1.940856947E0,1.805228114E0,-1.023042393E1,7.623138428E0
1.942871103E0,1.795651317E0,-1.022084713E1,7.611167431E0
1.944853874E0,1.757344007E0,-1.019451046E1,7.587224960E0
1.946869646E0,1.731007814E0,-1.013944435E1,7.546523571E0
1.948852956E0,1.728613615E0,-1.012029076E1,7.534552574E0
1.950866881E0,1.709460020E0,-1.006522369E1,7.513004780E0
1.952850806E0,1.723825216E0,-9.998186111E0,7.486668587E0
1.954864424E0,1.740584612E0,-9.969455719E0,7.469909191E0
1.956878504E0,1.790862918E0,-9.947908401E0,7.443572998E0
1.958862890E0,1.836352706E0,-9.907206535E0,7.426813602E0
1.960877354E0,1.862688899E0,-9.900024414E0,7.410054207E0
1.962859740E0,1.910573006E0,-9.878476143E0,7.393294811E0
1.964874820E0,1.941697598E0,-9.878476143E0,7.371747017E0
1.966859130E0,1.975216389E0,-9.866505623E0,7.345410824E0
1.968872055E0,2.018311977E0,-9.859322548E0,7.299921036E0
1.970855826E0,2.032677174E0,-9.864110947E0,7.287950039E0
1.972869675E0,2.044648170E0,-9.861717224E0,7.271190643E0
1.974852985E0,2.054224968E0,-9.866505623E0,7.235277653E0
1.976868064E0,2.051830769E0,-9.878476143E0,7.206547260E0
1.978852681E0,2.051830769E0,-9.883264542E0,7.173028469E0
1.980865915E0,2.051830769E0,-9.868899345E0,7.184999466E0
1.982849071E0,2.042253971E0,-9.868899345E0,7.199364662E0
1.984863458E0,2.001552582E0,-9.873687744E0,7.237671852E0
1.986877921E0,1.977610588E0,-9.868899345E0,7.266402245E0
1.988862232E0,1.958456993E0,-9.866505623E0,7.287950039E0
1.990874926E0,1.915361404E0,-9.876082420E0,7.328651428E0
1.992859774E0,1.879448295E0,-9.885659218E0,7.386112213E0
1.994873623E0,1.872265697E0,-9.890447617E0,7.405265808E0
1.996856472E0,1.865083098E0,-9.868899345E0,7.407660007E0
1.998871781E0,1.872265697E0,-9.844957352E0,7.350199223E0
2.000854322E0,1.891419291E0,-9.847352028E0,7.314286232E0
2.002868785E0,1.922544003E0,-9.835380554E0,7.264008045E0
2.004853327E0,1.946485996E0,-9.823410034E0,7.240066051E0
2.006866637E0,1.987187386E0,-9.797073364E0,7.211335659E0
2.008850869E0,2.020706177E0,-9.763554573E0,7.184999466E0
2.010864410E0,2.032677174E0,-9.753977776E0,7.177816868E0
2.012878644E0,2.063801765E0,-9.720458984E0,7.134721279E0
2.014862261E0,2.087743998E0,-9.686940193E0,7.120356083E0
2.016875801E0,2.085349798E0,-9.660603523E0,7.105990410E0
2.018860727E0,2.061407566E0,-9.583989143E0,7.072471619E0
2.020875268E0,2.051830769E0,-9.526528358E0,7.038952827E0
2.022857732E0,2.054224968E0,-9.502586365E0,7.015010834E0
2.024868503E0,2.020706177E0,-9.445125580E0,6.991068840E0
2.026855582E0,1.989581585E0,-9.368511200E0,6.952761650E0
2.028870045E0,1.970427990E0,-9.320627213E0,6.933608055E0
2.030853048E0,1.929726601E0,-9.232041359E0,6.928819656E0
2.032867896E0,1.908178806E0,-9.203310966E0,6.926425457E0
2.034850668E0,1.869871497E0,-9.124302864E0,6.933608055E0
2.036865977E0,1.833958507E0,-9.050082207E0,6.950367451E0
2.038850057E0,1.812410712E0,-9.021351814E0,6.945579052E0
2.040862905E0,1.762132406E0,-8.949525833E0,6.945579052E0
2.042877138E0,1.709460020E0,-8.882488251E0,6.945579052E0
2.044861371E0,1.687912226E0,-8.856152534E0,6.950367451E0
2.046875605E0,1.668758631E0,-8.813055992E0,6.988674641E0
2.048858684E0,1.656787634E0,-8.789113998E0,7.072471619E0
2.050873455E0,1.661576033E0,-8.786720276E0,7.120356083E0
2.052856842E0,1.695094824E0,-8.772355080E0,7.192182064E0
2.054870998E0,1.711854219E0,-8.769960403E0,7.230489254E0
2.056854308E0,1.726219416E0,-8.746018410E0,7.223306656E0
2.058869464E0,1.769315004E0,-8.707711220E0,7.211335659E0
2.060852235E0,1.788468719E0,-8.707711220E0,7.216124058E0
2.062866007E0,1.838746905E0,-8.693346024E0,7.235277653E0
2.064849394E0,1.898601890E0,-8.702922821E0,7.309497833E0
2.066865165E0,1.936909199E0,-8.700529099E0,7.350199223E0
2.068848244E0,1.996764183E0,-8.674192429E0,7.386112213E0
2.070861786E0,2.073378563E0,-8.674192429E0,7.405265808E0
2.072876172E0,2.092532396E0,-8.643068314E0,7.405265808E0
2.074860482E0,2.133233786E0,-8.592789650E0,7.431602001E0
2.076875022E0,2.197877169E0,-8.564059258E0,7.467514992E0
2.078858641E0,2.224213362E0,-8.556877136E0,7.484274387E0
2.080871951E0,2.257732153E0,-8.511386871E0,7.496245384E0
2.082855029E0,2.312798738E0,-8.458714485E0,7.493851185E0
2.084870724E0,2.348711967E0,-8.444349289E0,7.479485989E0
2.086853726E0,2.408566952E0,-8.391676903E0,7.472303391E0
2.088867575E0,2.480392933E0,-8.348581314E0,7.493851185E0
2.090851269E0,2.511517525E0,-8.322244644E0,7.498639584E0
2.092865194E0,2.571372509E0,-8.291120529E0,7.515398979E0
2.094848581E0,2.592920542E0,-8.243236542E0,7.522581577E0
2.096863584E0,2.612074137E0,-8.216899872E0,7.529764175E0
2.098878432E0,2.645592928E0,-8.159439087E0,7.529764175E0
2.100861126E0,2.662352324E0,-8.125920296E0,7.517793179E0
2.102875359E0,2.671929121E0,-8.068459511E0,7.508216381E0
2.104857747E0,2.633621931E0,-7.987056732E0,7.510610580E0
2.106872210E0,2.616862535E0,-7.955932140E0,7.517793179E0
2.108857135E0,2.566584110E0,-7.879317760E0,7.513004780E0
2.110871368E0,2.516305923E0,-7.793126583E0,7.508216381E0
2.112854679E0,2.473210335E0,-7.733271599E0,7.522581577E0
2.114869142E0,2.406172752E0,-7.668628216E0,7.529764175E0
2.116852529E0,2.315192938E0,-7.611167431E0,7.539340973E0
2.118866685E0,2.262520552E0,-7.594407558E0,7.546523571E0
2.120850073E0,2.176329374E0,-7.517793179E0,7.565677166E0
2.122863921E0,2.090138197E0,-7.472303391E0,7.582436562E0
2.124879000E0,2.047042370E0,-7.450755596E0,7.575253963E0
2.126861848E0,1.968033791E0,-7.398083210E0,7.546523571E0
2.128876235E0,1.924938202E0,-7.383718014E0,7.515398979E0
2.130859622E0,1.848323703E0,-7.362170219E0,7.520187378E0
2.132873855E0,1.800439715E0,-7.338228226E0,7.522581577E0
2.134857241E0,1.766920805E0,-7.333439827E0,7.508216381E0
2.136871937E0,1.719036818E0,-7.309497833E0,7.465120792E0
2.138855939E0,1.671152830E0,-7.273584843E0,7.386112213E0
2.140869172E0,1.642422318E0,-7.261613846E0,7.347805023E0
2.142852327E0,1.572990537E0,-7.232883453E0,7.302315235E0
2.144867638E0,1.541865945E0,-7.177816868E0,7.287950039E0
2.146851717E0,1.525106430E0,-7.146692276E0,7.287950039E0
2.148865873E0,1.453280449E0,-7.089231014E0,7.297526836E0
2.150847644E0,1.410184860E0,-7.017405033E0,7.309497833E0
2.152863031E0,1.393425345E0,-6.983886242E0,7.323863029E0
2.154877803E0,1.357512355E0,-6.921637058E0,7.357381821E0
2.156860343E0,1.323993564E0,-6.823474884E0,7.362170219E0
2.158875422E0,1.300051570E0,-6.770802498E0,7.362170219E0
2.160858809E0,1.283292055E0,-6.682217121E0,7.354987621E0
2.162872581E0,1.285686255E0,-6.562506676E0,7.436390400E0
2.164856968E0,1.307234168E0,-6.509834290E0,7.513004780E0
2.166870816E0,1.307234168E0,-6.418854713E0,7.491456985E0
2.168854433E0,1.323993564E0,-6.366182327E0,7.493851185E0
2.170868898E0,1.355118155E0,-6.256049156E0,7.522581577E0
2.172852361E0,1.407790542E0,-6.165069580E0,7.589619160E0
2.174866133E0,1.431732655E0,-6.136339188E0,7.627926826E0
2.176849596E0,1.472434044E0,-6.083666325E0,7.692570210E0
2.178864676E0,1.498770237E0,-5.995080948E0,7.742848396E0
2.180878217E0,1.508347034E0,-5.961562157E0,7.785943985E0
2.182861296E0,1.515529633E0,-5.906495571E0,7.838616371E0
2.184876067E0,1.515529633E0,-5.846640587E0,7.879317760E0
2.186859070E0,1.510741234E0,-5.815515995E0,7.884106159E0
2.188874149E0,1.486799240E0,-5.758055210E0,7.881711960E0
2.190857305E0,1.462857246E0,-5.714959621E0,7.874529362E0
2.192871076E0,1.448492050E0,-5.676652431E0,7.864952564E0
2.194855387E0,1.422155857E0,-5.595249176E0,7.838616371E0
2.196869312E0,1.391031146E0,-5.568912983E0,7.829039574E0
2.198853544E0,1.338358760E0,-5.499481201E0,7.812280178E0
2.200867777E0,1.321599364E0,-5.427655220E0,7.819462776E0
2.202850857E0,1.312022567E0,-5.379771233E0,7.836222172E0
2.204865551E0,1.264138460E0,-5.307945251E0,7.879317760E0
2.206848707E0,1.247379065E0,-5.221754074E0,7.867346764E0
2.208862863E0,1.256955862E0,-5.188235283E0,7.843404770E0
2.210877251E0,1.280897856E0,-5.116408825E0,7.778761387E0
2.212860714E0,1.328781962E0,-5.039794445E0,7.745242596E0
2.214874486E0,1.364694953E0,-5.003881454E0,7.735665798E0
2.216858488E0,1.443703651E0,-4.958391666E0,7.733271599E0
2.218873644E0,1.503558636E0,-4.912901878E0,7.745242596E0
2.220856646E0,1.534683347E0,-4.898536682E0,7.773972988E0
2.222870802E0,1.601720929E0,-4.867412090E0,7.829039574E0
2.224853343E0,1.620874524E0,-4.829104900E0,7.845798969E0
2.226868729E0,1.647210717E0,-4.821922302E0,7.845798969E0
2.228852040E0,1.695094824E0,-4.793191910E0,7.860164165E0
2.230865273E0,1.723825216E0,-4.776432514E0,7.864952564E0
2.232850275E0,1.757344007E0,-4.733336926E0,7.874529362E0
2.234863815E0,1.752555609E0,-4.668693542E0,7.879317760E0
2.236877357E0,1.745373011E0,-4.632780075E0,7.886500359E0
2.238862820E0,1.723825216E0,-4.544194698E0,7.891288757E0
2.240875822E0,1.692700624E0,-4.443638325E0,7.891288757E0
2.242858901E0,1.687912226E0,-4.398148537E0,7.891288757E0
2.244873058E0,1.644816518E0,-4.302380562E0,7.874529362E0
2.246857675E0,1.608903527E0,-4.232948780E0,7.841010571E0
2.248871216E0,1.577778935E0,-4.187458992E0,7.833827972E0
2.250854603E0,1.529894829E0,-4.096478939E0,7.824251175E0
2.252869375E0,1.472434044E0,-4.005499363E0,7.833827972E0
2.254852454E0,1.441309452E0,-3.960009575E0,7.838616371E0
2.256866917E0,1.388636947E0,-3.871424198E0,7.833827972E0
2.258851458E0,1.347935557E0,-3.792415380E0,7.860164165E0
2.260864461E0,1.273715258E0,-3.739742994E0,7.860164165E0
2.262879155E0,1.182735682E0,-3.639186621E0,7.869740963E0
2.264861695E0,1.125274777E0,-3.605667830E0,7.872135162E0
2.266876467E0,1.017535686E0,-3.524264812E0,7.872135162E0
2.268861008E0,9.217676520E-1,-3.440467834E0,7.915230751E0
2.270874241E0,8.619126081E-1,-3.414131641E0,7.948749542E0
2.272858012E0,7.469909191E-1,-3.356670856E0,8.003816605E0
2.274872476E0,6.488286853E-1,-3.306392431E0,8.037335396E0
2.276856402E0,6.009446383E-1,-3.280056238E0,8.051700592E0
2.278871481E0,5.003881454E-1,-3.224989653E0,8.068459511E0
2.280854021E0,4.237737060E-1,-3.201047659E0,8.073247910E0
2.282868177E0,3.878606856E-1,-3.196259260E0,8.080430984E0
2.284852410E0,3.136404157E-1,-3.184288263E0,8.090007782E0
2.286865336E0,2.585737705E-1,-3.155557871E0,8.092401505E0
2.288849953E0,2.322375625E-1,-3.150769472E0,8.104372978E0
2.290863494E0,1.843535304E-1,-3.155557871E0,8.118738174E0
2.292877957E0,1.628057212E-1,-3.155557871E0,8.152256966E0
2.294861730E0,1.125274822E-1,-3.148375273E0,8.169015884E0
2.296875578E0,8.140286058E-2,-3.124433279E0,8.224082947E0
2.298860118E0,7.900865376E-2,-3.117250681E0,8.271966934E0
2.300873428E0,1.101332754E-1,-3.114856482E0,8.362946510E0
2.302857354E0,1.364694983E-1,-3.110068083E0,8.346187592E0
2.304870587E0,1.604115069E-1,-3.086126089E0,8.288725853E0
2.306855512E0,2.011129409E-1,-3.033453465E0,8.133103371E0
2.308869437E0,2.609679997E-1,-2.990357876E0,8.015787125E0
2.310851901E0,2.944868207E-1,-2.964021683E0,8.001421928E0
2.312867288E0,3.567360640E-1,-2.911349297E0,8.042123795E0
2.314850059E0,4.213795066E-1,-2.885013103E0,8.104372978E0
2.316865061E0,4.620809257E-1,-2.858676910E0,8.111555099E0
2.318879603E0,5.099649429E-1,-2.813186884E0,8.092401505E0
2.320862374E0,5.339069963E-1,-2.777273893E0,8.066065788E0
2.322877145E0,5.554547906E-1,-2.765302896E0,8.058882713E0
2.324861070E0,5.674257874E-1,-2.731784105E0,8.056488991E0
2.326874073E0,5.578489900E-1,-2.717418909E0,8.054094315E0
2.328857998E0,5.458779931E-1,-2.693476915E0,8.034940720E0
2.330871923E0,5.099649429E-1,-2.664746523E0,8.025363922E0
2.332855618E0,4.908113480E-1,-2.640804529E0,8.015787125E0
2.334870082E0,4.429273009E-1,-2.600103140E0,7.984662533E0
2.336853469E0,3.639186621E-1,-2.561795712E0,7.958326340E0
2.338868548E0,3.423708379E-1,-2.530671120E0,7.951143742E0
2.340851627E0,2.705447972E-1,-2.494758129E0,7.931990147E0
2.342866091E0,2.035071403E-1,-2.456450939E0,7.920019150E0
2.344848247E0,1.843535304E-1,-2.437297344E0,7.924807549E0
2.346862634E0,1.197100878E-1,-2.401384354E0,7.951143742E0
2.348877174E0,5.027823523E-2,-2.372653961E0,7.979874134E0
2.350861792E0,3.112462163E-2,-2.351106167E0,7.999027729E0
2.352875564E0,-2.394201607E-2,-2.322375536E0,8.015787125E0
2.354859027E0,-5.027823523E-2,-2.296039343E0,8.032546997E0
2.356873722E0,-6.224924326E-2,-2.291250944E0,8.044517517E0
2.358857724E0,-9.576806426E-2,-2.269703150E0,8.049305916E0
2.360870034E0,-1.197100878E-1,-2.255337954E0,8.046912193E0
2.362855036E0,-1.628057212E-1,-2.226607561E0,8.051700592E0
2.364869192E0,-2.250549644E-1,-2.188300371E0,8.049305916E0
2.366852502E0,-2.705447972E-1,-2.159569979E0,8.039729118E0
2.368866428E0,-3.519476354E-1,-2.138022184E0,8.032546997E0
2.370850430E0,-4.165911078E-1,-2.111685991E0,8.015787125E0
2.372863663E0,-4.572925270E-1,-2.106897593E0,8.001421928E0
2.374878126E0,-5.434837937E-1,-2.047042370E0,7.963114738E0
2.376862129E0,-6.320692301E-1,-1.996764183E0,7.920019150E0
2.378877516E0,-6.775590777E-1,-1.980004787E0,7.893682957E0
2.380860518E0,-7.709329724E-1,-1.958456993E0,7.836222172E0
2.382874059E0,-8.667010069E-1,-1.944091797E0,7.759607792E0
2.384857523E0,-9.026140571E-1,-1.932120800E0,7.723694801E0
2.386872602E0,-9.768342972E-1,-1.877054095E0,7.690176010E0
2.388855681E0,-1.015141487E0,-1.821987510E0,7.678205013E0
2.390869221E0,-1.106121182E0,-1.800439715E0,7.654263020E0
2.392854071E0,-1.163581967E0,-1.728613615E0,7.553706169E0
2.394867380E0,-1.175553083E0,-1.685518026E0,7.484274387E0
2.396851690E0,-1.197100878E0,-1.618480325E0,7.352593422E0
2.398866077E0,-1.211466074E0,-1.527500629E0,7.259219646E0
2.400848618E0,-1.206677675E0,-1.493981838E0,7.244854450E0
2.402863620E0,-1.192312479E0,-1.410184860E0,7.225700855E0
2.404877237E0,-1.149216771E0,-1.343147159E0,7.161057472E0
2.406861239E0,-1.108515382E0,-1.321599364E0,7.101202011E0
2.408875319E0,-1.051054597E0,-1.247379065E0,6.988674641E0
2.410858706E0,-9.696516991E-1,-1.163581967E0,6.914454460E0
2.412872939E0,-9.289502501E-1,-1.120486379E0,6.888118267E0
2.414856556E0,-8.331822157E-1,-1.055842996E0,6.821080685E0
2.416871020E0,-7.302315235E-1,-9.840168953E-1,6.766014099E0
2.418853869E0,-6.847416759E-1,-9.481038451E-1,6.754043102E0
2.420868871E0,-6.129156351E-1,-8.571242094E-1,6.725312710E0
2.422852642E0,-5.722141862E-1,-7.852981687E-1,6.722918510E0
2.424863644E0,-4.955997467E-1,-7.613561153E-1,6.720524311E0
2.426881186E0,-4.309563041E-1,-6.991068721E-1,6.720524311E0
2.428864572E0,-4.094084799E-1,-6.655880809E-1,6.722918510E0
2.430878420E0,-3.471592367E-1,-6.177040339E-1,6.715735912E0
2.432862115E0,-2.849099934E-1,-5.530605912E-1,6.694188118E0
2.434875964E0,-2.681505978E-1,-5.219359994E-1,6.687005520E0
2.436860350E0,-2.418143749E-1,-4.620809257E-1,6.655880928E0
2.438874814E0,-2.130839527E-1,-3.902548850E-1,6.627150536E0
2.440857585E0,-1.987187415E-1,-3.471592367E-1,6.612784863E0
2.442871665E0,-1.867477298E-1,-2.849099934E-1,6.584054470E0
2.444856359E0,-2.106897533E-1,-2.130839527E-1,6.538564682E0
2.446869900E0,-2.154781520E-1,-1.747767180E-1,6.512228489E0
2.448854133E0,-2.489969730E-1,-9.816227108E-2,6.423643112E0
2.450867443E0,-2.585737705E-1,2.394201700E-3,6.344634533E0
2.452850522E0,-2.825157940E-1,3.591302410E-2,6.306327343E0
2.454864986E0,-3.112462163E-1,1.101332754E-1,6.224924564E0
2.456879449E0,-3.232172430E-1,1.747767180E-1,6.114790916E0
2.458864068E0,-3.734954596E-1,2.106897533E-1,6.062118530E0
2.460876993E0,-4.261679053E-1,2.825157940E-1,5.959167957E0
2.462860610E0,-4.453215301E-1,3.232172430E-1,5.920860767E0
2.464874151E0,-4.860229492E-1,3.998316824E-1,5.844246387E0
2.466859077E0,-5.363011956E-1,4.884171486E-1,5.758055210E0
2.468873310E0,-5.674257874E-1,5.267243981E-1,5.717353821E0
2.470855773E0,-6.177040339E-1,6.081272364E-1,5.650316238E0
2.472870237E0,-6.727706790E-1,7.086837292E-1,5.600037575E0
2.474853855E0,-7.015010715E-1,7.541735172E-1,5.573701382E0
2.476868626E0,-7.781155705E-1,8.403648138E-1,5.494692802E0
2.478853628E0,-8.547300100E-1,9.433154464E-1,5.408501625E0
2.480866246E0,-8.906430602E-1,9.840168953E-1,5.363011837E0
2.482850171E0,-9.504981041E-1,1.077390790E0,5.291185856E0
2.484864635E0,-1.007958889E0,1.163581967E0,5.219359875E0
2.486878483E0,-1.029506683E0,1.211466074E0,5.197812080E0
2.488861639E0,-1.065419793E0,1.323993564E0,5.169081688E0
2.490875795E0,-1.072602391E0,1.422155857E0,5.159504890E0
2.492859414E0,-1.096544385E0,1.458068848E0,5.159504890E0
2.494874185E0,-1.094150186E0,1.522712231E0,5.178658485E0
2.496857264E0,-1.089361787E0,1.558625340E0,5.185841084E0
2.498872650E0,-1.091755986E0,1.649604917E0,5.202600479E0
2.500855192E0,-1.079784989E0,1.687912226E0,5.224148273E0
2.502869348E0,-1.063025594E0,1.699883223E0,5.224148273E0
2.504852350E0,-1.041477680E0,1.731007814E0,5.238513470E0
2.506867121E0,-1.010353088E0,1.747767210E0,5.260061264E0
2.508850893E0,-9.672574997E-1,1.752555609E0,5.286397457E0
2.510864741E0,-9.265560508E-1,1.778891921E0,5.355829239E0
2.512878897E0,-8.762778044E-1,1.800439715E0,5.410895824E0
2.514863207E0,-8.403648138E-1,1.800439715E0,5.430049419E0
2.516876671E0,-7.900865674E-1,1.821987510E0,5.461174011E0
2.518861366E0,-7.422025204E-1,1.841141105E0,5.485116005E0
2.520874829E0,-7.086837292E-1,1.860294700E0,5.494692802E0
2.522858831E0,-6.512228847E-1,1.891419291E0,5.535394192E0
2.524872988E0,-6.416460276E-1,1.886630893E0,5.561730385E0
2.526857067E0,-6.057330370E-1,1.905784607E0,5.595249176E0
2.528870838E0,-5.602431893E-1,1.910573006E0,5.626373768E0
2.530854225E0,-5.674257874E-1,1.922544003E0,5.635950565E0
2.532868766E0,-5.458779931E-1,1.934514999E0,5.667075634E0
2.534852384E0,-5.458779931E-1,1.948880196E0,5.686229229E0
2.536865924E0,-5.458779931E-1,1.953668594E0,5.693411827E0
2.538850849E0,-5.722141862E-1,1.968033791E0,5.710171223E0
2.540863852E0,-6.105214357E-1,1.984793186E0,5.741295815E0
2.542877931E0,-6.224924326E-1,2.001552582E0,5.738901615E0
2.544861010E0,-6.655880809E-1,2.032677174E0,5.729324818E0
2.546876474E0,-7.422025204E-1,2.080561161E0,5.734113216E0
2.548859553E0,-7.709329724E-1,2.087743998E0,5.743690014E0
2.550873402E0,-8.355764151E-1,2.123656988E0,5.779603004E0
2.552857635E0,-8.643068075E-1,2.154781580E0,5.837063789E0
2.554871483E0,-9.074024558E-1,2.169146776E0,5.870582581E0
2.556855869E0,-9.696516991E-1,2.200271368E0,5.932831764E0
2.558870642E0,-1.005564690E0,2.217030764E0,5.956773758E0
2.560853105E0,-1.048660398E0,2.248155355E0,6.026205540E0
2.562866876E0,-1.082179189E0,2.286462545E0,6.100425720E0
2.564851186E0,-1.089361787E0,2.315192938E0,6.138733387E0
2.566865112E0,-1.108515382E0,2.334346771E0,6.227318764E0
2.568879268E0,-1.122880578E0,2.336740971E0,6.332663536E0
2.570863193E0,-1.132457376E0,2.346317768E0,6.385335922E0
2.572876503E0,-1.125274777E0,2.367865562E0,6.519411087E0
2.574861044E0,-1.110909581E0,2.360682964E0,6.658275127E0
2.576874277E0,-1.101332784E0,2.355894566E0,6.730101109E0
2.578859510E0,-1.079784989E0,2.331952572E0,6.888118267E0
2.580872127E0,-1.060631394E0,2.312798738E0,7.058106422E0
2.582855822E0,-1.046266198E0,2.310404539E0,7.141903877E0
2.584867209E0,-1.027112484E0,2.288856745E0,7.304709435E0
2.586853673E0,-1.027112484E0,2.260126352E0,7.359776020E0
2.588868521E0,-1.010353088E0,2.238578558E0,7.448361397E0
2.590851831E0,-9.959878922E-1,2.221819162E0,7.479485989E0
2.592865449E0,-9.983820915E-1,2.214636564E0,7.505822182E0
2.594849682E0,-9.911994934E-1,2.183511972E0,7.568071365E0
2.596863530E0,-1.000776291E0,2.169146776E0,7.613561630E0
2.598878610E0,-1.017535686E0,2.166752577E0,7.635109425E0
2.600861689E0,-1.053448796E0,2.140416384E0,7.656657219E0
2.602875921E0,-1.094150186E0,2.147598982E0,7.675810814E0
2.604860539E0,-1.120486379E0,2.157175779E0,7.680599213E0
2.606873080E0,-1.158793569E0,2.142810583E0,7.697358608E0
2.608856775E0,-1.213860273E0,2.149993181E0,7.692570210E0
2.610871007E0,-1.228225470E0,2.159569979E0,7.685387611E0
2.612855009E0,-1.295263171E0,2.202665567E0,7.690176010E0
2.614870011E0,-1.343147159E0,2.243366957E0,7.706935406E0
2.616852784E0,-1.362300754E0,2.248155355E0,7.706935406E0
2.618867324E0,-1.388636947E0,2.281674147E0,7.723694801E0
2.620850634E0,-1.393425345E0,2.317587137E0,7.742848396E0
2.622864174E0,-1.419761658E0,2.336740971E0,7.762001991E0
2.624878331E0,-1.455674648E0,2.375048161E0,7.766790390E0
2.626863256E0,-1.477222443E0,2.391807556E0,7.781155586E0
2.628876489E0,-1.493981838E0,2.422932148E0,7.809885979E0
2.630859876E0,-1.515529633E0,2.444479942E0,7.850587368E0
2.632875032E0,-1.513135433E0,2.461239338E0,7.886500359E0
2.634858419E0,-1.505952835E0,2.475604534E0,7.960720539E0
2.636871883E0,-1.508347034E0,2.461239338E0,8.027758598E0
2.638857423E0,-1.501164436E0,2.466027737E0,8.061277390E0
2.640870965E0,-1.479616642E0,2.449268341E0,8.133103371E0
2.642854120E0,-1.438915253E0,2.406172752E0,8.228871346E0
2.644867892E0,-1.431732655E0,2.384624958E0,8.264783859E0
2.646851663E0,-1.386242747E0,2.324769735E0,8.341399193E0
2.648864897E0,-1.343147159E0,2.274491549E0,8.403648376E0
2.650880206E0,-1.314416766E0,2.236184359E0,8.432378769E0
2.652862978E0,-1.261744261E0,2.159569979E0,8.513781548E0
2.654877518E0,-1.235408068E0,2.080561161E0,8.547300339E0
2.656861444E0,-1.158793569E0,2.051830769E0,8.576030731E0
2.658875600E0,-1.101332784E0,1.994369984E0,8.628703117E0
2.660859602E0,-1.074996591E0,1.972822189E0,8.652645111E0
2.662873142E0,-1.039083481E0,1.903390408E0,8.705317497E0
2.664855992E0,-9.744400978E-1,1.838746905E0,8.765172005E0
2.666870378E0,-9.457096457E-1,1.814804912E0,8.777143478E0
2.668854996E0,-8.810662031E-1,1.747767210E0,8.793902397E0
2.670867998E0,-8.331822157E-1,1.723825216E0,8.786720276E0
2.672852616E0,-8.044517636E-1,1.699883223E0,8.786720276E0
2.674866464E0,-7.589619160E-1,1.719036818E0,8.789113998E0
2.676850466E0,-7.254431248E-1,1.704671621E0,8.779537201E0
2.678865237E0,-7.062895298E-1,1.697489023E0,8.772355080E0
2.680878702E0,-6.560112834E-1,1.690306425E0,8.760383606E0
2.682861858E0,-6.272808313E-1,1.695094824E0,8.760383606E0
2.684877475E0,-6.177040339E-1,1.707065821E0,8.762778282E0
2.686860631E0,-5.937620401E-1,1.707065821E0,8.741230011E0
2.688874710E0,-5.793967843E-1,1.714248419E0,8.729259491E0
2.690858174E0,-5.841852427E-1,1.719036818E0,8.698134422E0
2.692872023E0,-5.913678408E-1,1.726219416E0,8.669404030E0
2.694855409E0,-5.793967843E-1,1.731007814E0,8.652645111E0
2.696870411E0,-5.817909837E-1,1.738190413E0,8.616731644E0
2.698854107E0,-5.913678408E-1,1.738190413E0,8.580819130E0
2.700867955E0,-5.961562395E-1,1.742978811E0,8.559270859E0
2.702851957E0,-6.057330370E-1,1.752555609E0,8.504204750E0
2.704865190E0,-6.200982332E-1,1.757344007E0,8.451532364E0
2.706879731E0,-6.344634295E-1,1.769315004E0,8.425195694E0
2.708863348E0,-6.464344859E-1,1.781286120E0,8.365341187E0
2.710876889E0,-6.727706790E-1,1.776497602E0,8.336610794E0
2.712860660E0,-6.727706790E-1,1.786074519E0,8.317456245E0
2.714875355E0,-7.038952708E-1,1.795651317E0,8.279149055E0
2.716858127E0,-7.158663273E-1,1.812410712E0,8.267178535E0
2.718874206E0,-7.302315235E-1,1.817199111E0,8.255207062E0
2.720856669E0,-7.637503147E-1,1.824381709E0,8.233659744E0
2.722870826E0,-7.852981687E-1,1.826775908E0,8.212111473E0
2.724855059E0,-8.307880163E-1,1.836352706E0,8.166622162E0
2.726868984E0,-8.571242094E-1,1.853112102E0,8.157045364E0
2.728852294E0,-8.714894056E-1,1.857900500E0,8.149862289E0
2.730865835E0,-8.858546019E-1,1.865083098E0,8.128314972E0
2.732850145E0,-9.145850539E-1,1.850717902E0,8.099584579E0
2.734864301E0,-9.265560508E-1,1.845929503E0,8.082824707E0
2.736878456E0,-9.145850539E-1,1.838746905E0,8.068459511E0
2.738863382E0,-9.217676520E-1,1.831564307E0,8.030152321E0
2.740876000E0,-9.337386489E-1,1.824381709E0,8.008605003E0
2.742859463E0,-9.337386489E-1,1.817199111E0,7.987056732E0
2.744870850E0,-9.241618514E-1,1.819593310E0,7.970297337E0
2.746856698E0,-9.026140571E-1,1.819593310E0,7.960720539E0
2.748872393E0,-8.619126081E-1,1.821987510E0,7.951143742E0
2.750855165E0,-8.331822157E-1,1.838746905E0,7.948749542E0
2.752870474E0,-7.948749661E-1,1.843535304E0,7.931990147E0
2.754852707E0,-7.445967197E-1,1.836352706E0,7.893682957E0
2.756867172E0,-7.206547260E-1,1.845929503E0,7.874529362E0
2.758852020E0,-6.775590777E-1,1.865083098E0,7.852981567E0
2.760865022E0,-6.153098345E-1,1.879448295E0,7.833827972E0
2.762879716E0,-5.889736414E-1,1.879448295E0,7.821856976E0
2.764863488E0,-5.554547906E-1,1.874659896E0,7.807491779E0
2.766877337E0,-5.075707436E-1,1.867477298E0,7.788338184E0
2.768860954E0,-4.788403511E-1,1.867477298E0,7.769184589E0
2.770874879E0,-4.477157295E-1,1.836352706E0,7.706935406E0
2.772858267E0,-3.998316824E-1,1.814804912E0,7.644686222E0
2.774873576E0,-3.854664862E-1,1.810016513E0,7.611167431E0
2.776856425E0,-3.543418646E-1,1.783680320E0,7.546523571E0
2.778871734E0,-3.423708379E-1,1.750161409E0,7.498639584E0
2.780854814E0,-3.399766386E-1,1.742978811E0,7.460332394E0
2.782868355E0,-3.280056417E-1,1.723825216E0,7.381323814E0
2.784851510E0,-3.160346150E-1,1.711854219E0,7.350199223E0
2.786867205E0,-3.016694188E-1,1.680729628E0,7.268796444E0
2.788851131E0,-3.064578176E-1,1.654393315E0,7.199364662E0
2.790863441E0,-3.016694188E-1,1.637633920E0,7.173028469E0
2.792878519E0,-3.160346150E-1,1.592144132E0,7.091625214E0
2.794862291E0,-3.423708379E-1,1.565807939E0,7.019799232E0
2.796876755E0,-3.591302633E-1,1.553836942E0,6.991068840E0
2.798860450E0,-3.758896589E-1,1.493981838E0,6.924031258E0
2.800873990E0,-3.854664862E-1,1.453280449E0,6.859387875E0
2.802857300E0,-3.902548850E-1,1.446097851E0,6.830657482E0
2.804872457E0,-4.189853072E-1,1.403002143E0,6.749254704E0
2.806855843E0,-4.477157295E-1,1.388636947E0,6.651092529E0
2.808869614E0,-4.620809257E-1,1.371877551E0,6.603208065E0
2.810853001E0,-4.836287498E-1,1.316810966E0,6.517016888E0
2.812867772E0,-5.434837937E-1,1.280897856E0,6.457161903E0
2.814850929E0,-5.722141862E-1,1.268926859E0,6.430825710E0
2.816865085E0,-6.272808313E-1,1.237802267E0,6.368576527E0
2.818880087E0,-6.655880809E-1,1.266532660E0,6.351817131E0
2.820863474E0,-7.469909191E-1,1.288080573E0,6.363788128E0
2.822877400E0,-8.116343617E-1,1.333570361E0,6.351817131E0
2.824859786E0,-8.427590132E-1,1.352723956E0,6.347028732E0
2.826874865E0,-8.882488012E-1,1.414973259E0,6.347028732E0
2.828858560E0,-9.217676520E-1,1.501164436E0,6.363788128E0
2.830872793E0,-9.313444495E-1,1.537077546E0,6.361393929E0
2.832856411E0,-9.409212470E-1,1.606509328E0,6.397306919E0
2.834870644E0,-9.026140571E-1,1.663970232E0,6.457161903E0
2.836853646E0,-8.858546019E-1,1.690306425E0,6.478709698E0
2.838869033E0,-8.355764151E-1,1.742978811E0,6.488286495E0
2.840852189E0,-7.589619160E-1,1.788468719E0,6.478709698E0
2.842866576E0,-7.086837292E-1,1.793257117E0,6.476315498E0
2.844850039E0,-5.817909837E-1,1.793257117E0,6.469132900E0
2.846864119E0,-4.405331016E-1,1.776497602E0,6.449979305E0
2.848878275E0,-3.830722570E-1,1.774103403E0,6.449979305E0
2.850861969E0,-2.370259613E-1,1.769315004E0,6.461950302E0
2.852875894E0,-1.699883193E-1,1.771709204E0,6.473921299E0
2.854859590E0,-5.027823523E-2,1.764526606E0,6.481103897E0
2.856873745E0,8.140286058E-2,1.728613615E0,6.481103897E0
2.858858363E0,1.412578970E-1,1.709460020E0,6.478709698E0
2.860872442E0,2.418143749E-1,1.649604917E0,6.502651691E0
2.862855522E0,3.160346150E-1,1.611297727E0,6.514622688E0
2.864869062E0,3.615244627E-1,1.582567334E0,6.524199486E0
2.866853680E0,4.309563041E-1,1.513135433E0,6.552929878E0
2.868867297E0,4.620809257E-1,1.403002143E0,6.579266071E0
2.870850299E0,4.836287498E-1,1.369483352E0,6.591237068E0
2.872865456E0,5.147533417E-1,1.300051570E0,6.617573261E0
2.874879304E0,5.386953950E-1,1.175553083E0,6.653486729E0
2.876862614E0,5.578489900E-1,1.127668977E0,6.672640324E0
2.878877693E0,5.602431893E-1,1.019929886E0,6.703764915E0
2.880860849E0,5.698199868E-1,9.050082564E-1,6.744466305E0
2.882874698E0,5.841852427E-1,8.667010069E-1,6.763619900E0
2.884858623E0,5.722141862E-1,7.565677166E-1,6.782773495E0
2.886873163E0,5.698199868E-1,7.062895298E-1,6.787561893E0
2.888855935E0,5.746083856E-1,6.296750307E-1,6.792350292E0
2.890870091E0,5.602431893E-1,5.434837937E-1,6.766014099E0
2.892853093E0,5.482721925E-1,5.099649429E-1,6.751648903E0
2.894868480E0,5.291185975E-1,4.716577232E-1,6.739677906E0
2.896852252E0,5.075707436E-1,4.357447028E-1,6.744466305E0
2.898866946E0,4.884171486E-1,4.141969085E-1,6.770802498E0
2.900849487E0,4.740519226E-1,4.141969085E-1,6.811503887E0
2.902863027E0,4.668693244E-1,4.237737060E-1,6.866570473E0
2.904874723E0,4.501099288E-1,4.261679053E-1,6.909666061E0
2.906861109E0,4.285621047E-1,4.501099288E-1,6.979097843E0
2.908875650E0,4.309563041E-1,4.812345505E-1,7.060500622E0
2.910859344E0,4.333505034E-1,4.860229492E-1,7.101202011E0
2.912873732E0,4.285621047E-1,4.932055473E-1,7.149086475E0
2.914857195E0,4.333505034E-1,5.147533417E-1,7.170634270E0
2.916871274E0,4.572925270E-1,5.027823448E-1,7.220912457E0
2.918855661E0,4.955997467E-1,4.860229492E-1,7.228095055E0
2.920869510E0,5.099649429E-1,4.884171486E-1,7.232883453E0
2.922852512E0,5.578489900E-1,4.812345505E-1,7.261613846E0
2.924867899E0,5.961562395E-1,4.596867263E-1,7.266402245E0
2.926850670E0,6.200982332E-1,4.548983276E-1,7.259219646E0
2.928865134E0,6.847416759E-1,4.477157295E-1,7.242460251E0
2.930879290E0,7.254431248E-1,4.285621047E-1,7.192182064E0
2.932862677E0,7.422025204E-1,4.237737060E-1,7.175422668E0
2.934876294E0,7.972691655E-1,4.070142806E-1,7.141903877E0
2.936859990E0,8.499416113E-1,3.711012602E-1,7.070077419E0
2.938874761E0,8.738836050E-1,3.519476354E-1,7.031770229E0
2.940858070E0,9.169792533E-1,2.849099934E-1,6.959944248E0
2.942871996E0,9.576807022E-1,2.202665508E-1,6.900089264E0
2.944855074E0,9.696516991E-1,1.795651317E-1,6.876147270E0
2.946870077E0,1.005564690E0,9.097966552E-2,6.833051682E0
2.948854387E0,1.022324085E0,5.027823523E-2,6.818686485E0
2.950867620E0,1.065419793E0,-5.506663769E-2,6.804321289E0
2.952852237E0,1.120486379E0,-1.436520964E-1,6.823474884E0
2.954865856E0,1.151610970E0,-2.035071403E-1,6.840234280E0
2.956849550E0,1.187524080E0,-3.040636182E-1,6.880935669E0
2.958863629E0,1.213860273E0,-4.046200812E-1,6.940790653E0
2.960877785E0,1.228225470E0,-4.477157295E-1,6.986280441E0
2.962861788E0,1.285686255E0,-5.458779931E-1,7.082048416E0
2.964876021E0,1.347935557E0,-6.512228847E-1,7.189787865E0
2.966859715E0,1.381454349E0,-6.967126727E-1,7.240066051E0
2.968873794E0,1.438915253E0,-7.829039693E-1,7.326257229E0
2.970857181E0,1.489193439E0,-8.379706144E-1,7.419631004E0
2.972872030E0,1.513135433E0,-8.619126081E-1,7.455543995E0
2.974854801E0,1.561019540E0,-8.978256583E-1,7.553706169E0
2.976867957E0,1.628057122E0,-9.409212470E-1,7.639897823E0
2.978853190E0,1.680729628E0,-9.481038451E-1,7.685387611E0
2.980867654E0,1.762132406E0,-9.576807022E-1,7.797914982E0
2.982850810E0,1.798045516E0,-9.624691010E-1,7.848193169E0
2.984861889E0,1.841141105E0,-9.528923035E-1,7.941566944E0
2.986877892E0,1.869871497E0,-9.074024558E-1,8.015787125E0
2.988862509E0,1.884236693E0,-8.954314590E-1,8.042123795E0
2.990876588E0,1.915361404E0,-8.595184088E-1,8.123526573E0
2.992860282E0,1.927332401E0,-8.547300100E-1,8.159439087E0
2.994874516E0,1.939303398E0,-8.451532125E-1,8.176198959E0
2.996858134E0,1.956062794E0,-8.379706144E-1,8.192957878E0
2.998873213E0,1.963245392E0,-8.714894056E-1,8.178592682E0
3.000856291E0,1.972822189E0,-8.882488012E-1,8.171410561E0
3.002869525E0,1.977610588E0,-9.385270476E-1,8.159439087E0
3.004854220E0,1.982398987E0,-1.053448796E0,8.159439087E0
3.006868375E0,1.975216389E0,-1.127668977E0,8.149862289E0
3.008851070E0,1.980004787E0,-1.278503656E0,8.140285492E0
3.010865533E0,1.975216389E0,-1.446097851E0,8.157045364E0
3.012879690E0,1.972822189E0,-1.544260144E0,8.157045364E0
3.014863692E0,1.970427990E0,-1.731007814E0,8.166622162E0
3.016878156E0,1.984793186E0,-1.829170108E0,8.190564156E0
3.018861542E0,1.989581585E0,-2.020706177E0,8.221688271E0
3.020874468E0,2.006340981E0,-2.205059767E0,8.267178535E0
3.022858855E0,2.011129379E0,-2.284068346E0,8.276755333E0
3.024872395E0,2.042253971E0,-2.420537949E0,8.293514252E0
3.026857551E0,2.051830769E0,-2.547430515E0,8.336610794E0
3.028871477E0,2.054224968E0,-2.602497339E0,8.350975990E0
3.030853864E0,2.082955360E0,-2.693476915E0,8.353369713E0
3.032869020E0,2.102109194E0,-2.755726099E0,8.365341187E0
3.034852022E0,2.116474390E0,-2.765302896E0,8.377311707E0
3.036866179E0,2.161964178E0,-2.777273893E0,8.413225174E0
3.038851181E0,2.217030764E0,-2.762908697E0,8.465897560E0
3.040865029E0,2.243366957E0,-2.743755102E0,8.492233276E0
3.042878185E0,2.286462545E0,-2.705447912E0,8.547300339E0
3.044863111E0,2.312798738E0,-2.626439333E0,8.621520042E0
3.046876344E0,2.379836559E0,-2.576161146E0,8.657433510E0
3.048859807E0,2.454056740E0,-2.473210335E0,8.707711220E0
3.050874194E0,2.509123325E0,-2.422932148E0,8.736441612E0
3.052858504E0,2.576161146E0,-2.329558372E0,8.781931877E0
3.054872045E0,2.676717520E0,-2.252943754E0,8.817844391E0
3.056855739E0,2.717418909E0,-2.224213362E0,8.834604263E0
3.058869972E0,2.791639090E0,-2.193088770E0,8.853757858E0
3.060853667E0,2.861071110E0,-2.185906172E0,8.870517731E0
3.062867823E0,2.880224705E0,-2.193088770E0,8.872911453E0
3.064850825E0,2.932897091E0,-2.205059767E0,8.882488251E0
3.066865058E0,2.983175278E0,-2.236184359E0,8.904036522E0
3.068878830E0,2.995146275E0,-2.262520552E0,8.913613319E0
3.070862524E0,3.016694069E0,-2.329558372E0,8.949525833E0
3.072877603E0,3.016694069E0,-2.427720547E0,8.983044624E0
3.074860759E0,2.997540474E0,-2.480392933E0,8.995016098E0
3.076875146E0,2.937685490E0,-2.590526342E0,9.014169693E0
3.078860072E0,2.916137695E0,-2.693476915E0,9.021351814E0
3.080872997E0,2.841917515E0,-2.753331900E0,9.040505409E0
3.082856384E0,2.755726099E0,-2.841917515E0,9.074024200E0
3.084872078E0,2.724601507E0,-2.896984100E0,9.105149269E0
3.086854927E0,2.645592928E0,-3.009511471E0,9.167398453E0
3.088868698E0,2.545036316E0,-3.134010077E0,9.260771751E0
3.090852162E0,2.504334927E0,-3.193865061E0,9.311050415E0
3.092866241E0,2.430114746E0,-3.320757866E0,9.392453194E0
3.094849398E0,2.365471363E0,-3.462015629E0,9.445125580E0
3.096864169E0,2.339135170E0,-3.536235809E0,9.476250648E0
3.098878556E0,2.291250944E0,-3.689464808E0,9.531316757E0
3.100862865E0,2.262520552E0,-3.806780815E0,9.586383820E0
3.102876484E0,2.248155355E0,-3.857059002E0,9.619902611E0
3.104859255E0,2.240972757E0,-3.981557369E0,9.646238327E0
3.106874257E0,2.240972757E0,-4.065354347E0,9.648633003E0
3.108857951E0,2.252943754E0,-4.101267338E0,9.646238327E0
3.110870646E0,2.288856745E0,-4.165910721E0,9.660603523E0
3.112855495E0,2.298433542E0,-4.173093796E0,9.672574997E0
3.114869650E0,2.339135170E0,-4.156333923E0,9.691728592E0
3.116853729E0,2.394201756E0,-4.127603531E0,9.715670586E0
3.118869348E0,2.425326347E0,-4.110844135E0,9.725247383E0
3.120851504E0,2.501940727E0,-4.043806553E0,9.758766174E0
3.122864736E0,2.609679937E0,-3.974374771E0,9.785101891E0
3.124879585E0,2.659958124E0,-3.924096584E0,9.789890289E0
3.126863588E0,2.758120298E0,-3.847482204E0,9.804255486E0
3.128877128E0,2.841917515E0,-3.782838583E0,9.813833237E0
3.130860438E0,2.880224705E0,-3.754108191E0,9.797073364E0
3.132874978E0,2.944868088E0,-3.713406801E0,9.758766174E0
3.134858597E0,3.009511471E0,-3.687070608E0,9.701305389E0
3.136872829E0,3.031059265E0,-3.679888010E0,9.667786598E0
3.138857139E0,3.076549292E0,-3.667917013E0,9.593565941E0
3.140870603E0,3.098097086E0,-3.672705412E0,9.493009567E0
3.142854297E0,3.095702887E0,-3.679888010E0,9.442731857E0
3.144864531E0,3.102885485E0,-3.679888010E0,9.346963882E0
3.146881763E0,3.102885485E0,-3.713406801E0,9.289502144E0
3.148865689E0,3.074155092E0,-3.734954596E0,9.150638580E0
3.150880460E0,3.033453465E0,-3.780444384E0,9.028534889E0
3.152863924E0,3.009511471E0,-3.794809580E0,8.963891029E0
3.154877465E0,2.961627483E0,-3.828328609E0,8.844181061E0
3.156861775E0,2.923320293E0,-3.871424198E0,8.772355080E0
3.158877084E0,2.899378300E0,-3.895366192E0,8.755595207E0
3.160859856E0,2.844311714E0,-3.948038578E0,8.753201485E0
3.162873397E0,2.782062292E0,-4.000710964E0,8.757989883E0
3.164858014E0,2.746149302E0,-4.027047157E0,8.762778282E0
3.166871324E0,2.710236311E0,-4.103661537E0,8.822632790E0
3.168855558E0,2.662352324E0,-4.189853191E0,8.916007042E0
3.170869175E0,2.645592928E0,-4.230554581E0,8.975862503E0
3.172853177E0,2.614468336E0,-4.319139957E0,9.105149269E0
3.174867025E0,2.588132143E0,-4.431667328E0,9.205705643E0
3.176850721E0,2.557007313E0,-4.477157116E0,9.248801231E0
3.178866107E0,2.571372509E0,-4.613626480E0,9.363722801E0
3.180849109E0,2.580949545E0,-4.661510944E0,9.421183586E0
3.182862957E0,2.619256735E0,-4.723760128E0,9.560047150E0
3.184876268E0,2.669534922E0,-4.781220913E0,9.718064308E0
3.186861809E0,2.705447912E0,-4.793191910E0,9.787496567E0
3.188875272E0,2.796427488E0,-4.838681698E0,9.933543205E0
3.190857736E0,2.892195702E0,-4.848258495E0,1.005564690E1
3.192873739E0,2.954444885E0,-4.860229492E0,1.009395409E1
3.194856510E0,3.090914488E0,-4.888959885E0,1.013944435E1
3.196870743E0,3.208230257E0,-4.905719280E0,1.016338634E1
3.198854668E0,3.260902643E0,-4.905719280E0,1.015141487E1
3.200868825E0,3.373430252E0,-4.908113480E0,1.009156036E1
3.202852519E0,3.507505417E0,-4.879383087E0,1.004846478E1
3.204866444E0,3.555389643E0,-4.876988888E0,1.002931118E1
3.206849831E0,3.629609823E0,-4.857835293E0,9.981427193E0
3.208864217E0,3.667917013E0,-4.845864296E0,9.907206535E0
3.210877759E0,3.722983599E0,-4.836287498E0,9.844957352E0
3.212861145E0,3.734954596E0,-4.826710701E0,9.722852707E0
3.214875917E0,3.742137194E0,-4.824316502E0,9.662998199E0
3.216858996E0,3.742137194E0,-4.831499100E0,9.550470352E0
3.218874383E0,3.708618402E0,-4.838681698E0,9.442731857E0
3.220858385E0,3.703830004E0,-4.841075897E0,9.385271072E0
3.222871079E0,3.675099611E0,-4.833893299E0,9.270348549E0
3.224853851E0,3.634398222E0,-4.874594688E0,9.160215378E0
3.226868238E0,3.608062029E0,-4.888959885E0,9.100360870E0
3.228854086E0,3.581725836E0,-4.908113480E0,8.949525833E0
3.230867396E0,3.586514235E0,-4.944026470E0,8.786720276E0
3.232850783E0,3.569754839E0,-4.960785866E0,8.724471092E0
3.234864940E0,3.541024208E0,-5.011064053E0,8.599972725E0
3.236879634E0,3.531447411E0,-5.063736439E0,8.511386871E0
3.238863636E0,3.512293816E0,-5.097255230E0,8.465897560E0
3.240876330E0,3.483563423E0,-5.140350819E0,8.353369713E0
3.242859949E0,3.466804028E0,-5.195417881E0,8.298302650E0
3.244875028E0,3.435679436E0,-5.240907669E0,8.204929352E0
3.246858107E0,3.390189648E0,-5.298368454E0,8.125920296E0
3.248872570E0,3.359065056E0,-5.324704647E0,8.104372978E0
3.250855727E0,3.318363667E0,-5.410895824E0,8.080430984E0
3.252870498E0,3.292027235E0,-5.485116005E0,8.106766701E0
3.254853885E0,3.268085241E0,-5.525817394E0,8.128314972E0
3.256868041E0,3.232172251E0,-5.590460777E0,8.207323074E0
3.258852351E0,3.241749048E0,-5.652710438E0,8.305485725E0
3.260866199E0,3.232172251E0,-5.681440830E0,8.367734909E0
3.262849586E0,3.260902643E0,-5.700594425E0,8.494627953E0
3.264863665E0,3.320757866E0,-5.722142220E0,8.631096840E0
3.266877591E0,3.356670856E0,-5.724536419E0,8.712499619E0
3.268862439E0,3.442862034E0,-5.722142220E0,8.868123055E0
3.270875672E0,3.569754839E0,-5.681440830E0,9.016563416E0
3.272859366E0,3.636792421E0,-5.667075634E0,9.078812599E0
3.274873599E0,3.756502390E0,-5.652710438E0,9.193734169E0
3.276857910E0,3.821146011E0,-5.655104637E0,9.253589630E0
3.278872296E0,3.974374771E0,-5.667075634E0,9.361329079E0
3.280855145E0,4.103661537E0,-5.676652431E0,9.442731857E0
3.282869224E0,4.168305397E0,-5.691017628E0,9.464279175E0
3.284853534E0,4.273650169E0,-5.729324818E0,9.481039047E0
3.286866767E0,4.367023945E0,-5.784391403E0,9.488221169E0
3.288850461E0,4.410119534E0,-5.815515995E0,9.483432770E0
3.290864079E0,4.472368717E0,-5.853823185E0,9.481039047E0
3.292879159E0,4.515464306E0,-5.901707172E0,9.454702377E0
3.294862238E0,4.534617901E0,-5.920860767E0,9.428366661E0
3.296876393E0,4.532223701E0,-5.944802761E0,9.358934402E0
3.298860703E0,4.541800499E0,-5.971138954E0,9.277531624E0
3.300875091E0,4.544194698E0,-5.980715752E0,9.236829758E0
3.302857939E0,4.539406300E0,-6.004657745E0,9.143456459E0
3.304871402E0,4.515464306E0,-6.033388138E0,9.062053680E0
3.306856020E0,4.501099110E0,-6.038176537E0,9.009381294E0
3.308869638E0,4.491522312E0,-6.066906929E0,8.916007042E0
3.310852948E0,4.489128113E0,-6.078877926E0,8.865729332E0
3.312868104E0,4.472368717E0,-6.093243122E0,8.738836288E0
3.314850875E0,4.469974518E0,-6.112396717E0,8.640673637E0
3.316866263E0,4.460397720E0,-6.133944988E0,8.585607529E0
3.318849880E0,4.450820923E0,-6.191405773E0,8.463502884E0
3.320863190E0,4.443638325E0,-6.244078159E0,8.348581314E0
3.322877576E0,4.426878929E0,-6.272808552E0,8.293514252E0
3.324862502E0,4.390965939E0,-6.323086739E0,8.197746277E0
3.326876043E0,4.367023945E0,-6.366182327E0,8.106766701E0
3.328858814E0,4.340687752E0,-6.390124321E0,8.075642586E0
3.330872970E0,4.290409565E0,-6.435614109E0,8.003816605E0
3.332857280E0,4.216189384E0,-6.461950302E0,7.982268333E0
3.334871206E0,4.177882195E0,-6.478709698E0,7.975085735E0
3.336854285E0,4.132391930E0,-6.483498096E0,7.989450932E0
3.338869671E0,4.082113743E0,-6.505045891E0,8.061277390E0
3.340852750E0,4.053383350E0,-6.514622688E0,8.101978302E0
3.342867446E0,3.998316765E0,-6.502651691E0,8.200140953E0
3.344849986E0,3.991134167E0,-6.495469093E0,8.250418663E0
3.346864680E0,3.960009575E0,-6.471527100E0,8.386888504E0
3.348879528E0,3.938461781E0,-6.442796707E0,8.528146744E0
3.350861301E0,3.940855980E0,-6.404489517E0,8.602366447E0
3.352876457E0,3.974374771E0,-6.356605530E0,8.743624687E0
3.354860382E0,4.027047157E0,-6.303933144E0,8.827422142E0
3.356874307E0,4.067748547E0,-6.258443356E0,8.844181061E0
3.358859464E0,4.158728123E0,-6.179434776E0,8.860940933E0
3.360872696E0,4.264073372E0,-6.126761913E0,8.882488251E0
3.362855544E0,4.328716755E0,-6.110002518E0,8.906430244E0
3.364871162E0,4.431667328E0,-6.093243122E0,8.927978516E0
3.366853703E0,4.534617901E0,-6.090848923E0,8.951920509E0
3.368867475E0,4.594472885E0,-6.093243122E0,8.939949036E0
3.370851553E0,4.702212334E0,-6.100425720E0,8.932766914E0
3.372864402E0,4.740519524E0,-6.169857979E0,8.918401718E0
3.374879482E0,4.807557106E0,-6.200982571E0,8.923190117E0
3.376862945E0,4.867412090E0,-6.244078159E0,8.935160637E0
3.378878563E0,4.891354084E0,-6.275202751E0,8.925583839E0
3.380861718E0,4.917690277E0,-6.354211330E0,8.882488251E0
3.382875798E0,4.963180065E0,-6.426037312E0,8.827422142E0
3.384857723E0,4.979939461E0,-6.461950302E0,8.791508675E0
3.386872802E0,4.996698856E0,-6.533776283E0,8.743624687E0
3.388857958E0,4.994304657E0,-6.598419666E0,8.667010307E0
3.390870269E0,4.987122059E0,-6.627150536E0,8.647856712E0
3.392854963E0,4.984727859E0,-6.691793919E0,8.607154846E0
3.394869042E0,4.991910458E0,-6.742072105E0,8.520963669E0
3.396852506E0,4.987122059E0,-6.777985096E0,8.485051155E0
3.398867586E0,4.975151062E0,-6.823474884E0,8.408436775E0
3.400850588E0,4.975151062E0,-6.880935669E0,8.343792915E0
3.402864513E0,4.967968464E0,-6.914454460E0,8.310274124E0
3.404879207E0,4.948814869E0,-6.971915245E0,8.245630264E0
3.406862286E0,4.944026470E0,-7.012616634E0,8.207323074E0
3.408875597E0,4.910507679E0,-7.026981831E0,8.130708694E0
3.410859599E0,4.888959885E0,-7.077260017E0,8.075642586E0
3.412873754E0,4.860229492E0,-7.110779285E0,8.042123795E0
3.414858603E0,4.800374508E0,-7.173028469E0,7.989450932E0
3.416872144E0,4.738125324E0,-7.208941460E0,7.963114738E0
3.418856531E0,4.692635536E0,-7.232883453E0,7.951143742E0
3.420869687E0,4.616020679E0,-7.292738438E0,7.910442352E0
3.422853689E0,4.527435303E0,-7.323863029E0,7.888894558E0
3.424866692E0,4.481945515E0,-7.333439827E0,7.876923561E0
3.426851847E0,4.405331135E0,-7.326257229E0,7.845798969E0
3.428865696E0,4.309563160E0,-7.328651428E0,7.824251175E0
3.430879544E0,4.271255970E0,-7.304709435E0,7.802703381E0
3.432863624E0,4.194641590E0,-7.254431248E0,7.752425194E0
3.434876856E0,4.158728123E0,-7.182605267E0,7.706935406E0
3.436860781E0,4.146757126E0,-7.141903877E0,7.675810814E0
3.438876245E0,4.125209332E0,-7.053318024E0,7.623138428E0
3.440858017E0,4.122815132E0,-7.015010834E0,7.603984833E0
3.442873173E0,4.132391930E0,-6.940790653E0,7.556100368E0
3.444856791E0,4.153939724E0,-6.888118267E0,7.486668587E0
3.446870331E0,4.170699596E0,-6.859387875E0,7.457938194E0
3.448854334E0,4.211400986E0,-6.833051682E0,7.388506413E0
3.450868490E0,4.264073372E0,-6.823474884E0,7.352593422E0
3.452852492E0,4.297592163E0,-6.818686485E0,7.338228226E0
3.454866109E0,4.362235546E0,-6.821080685E0,7.278373241E0
3.456880574E0,4.436455727E0,-6.847416878E0,7.206547260E0
3.458865114E0,4.469974518E0,-6.852205276E0,7.168240070E0
3.460878962E0,4.517858505E0,-6.871358871E0,7.103596210E0
3.462862041E0,4.565742493E0,-6.921637058E0,7.046135426E0
3.464872814E0,4.594472885E0,-6.950367451E0,7.048529625E0
3.466858969E0,4.666299343E0,-6.983886242E0,7.060500622E0
3.468873125E0,4.728548527E0,-6.991068840E0,7.072471619E0
3.470857512E0,4.752490520E0,-7.012616634E0,7.070077419E0
3.472871360E0,4.838681698E0,-7.010222435E0,7.060500622E0
3.474855286E0,4.874594688E0,-7.026981831E0,7.048529625E0
3.476870134E0,4.948814869E0,-7.050923824E0,7.015010834E0
3.478854675E0,5.051765442E0,-7.070077419E0,6.974309444E0
3.480866984E0,5.106832027E0,-7.084442616E0,6.952761650E0
3.482850987E0,5.173870087E0,-7.096413612E0,6.924031258E0
3.484865220E0,5.269638062E0,-7.125144482E0,6.892906666E0
3.486879376E0,5.305551052E0,-7.153874874E0,6.866570473E0
3.488863070E0,5.374982834E0,-7.192182064E0,6.792350292E0
3.490877227E0,5.410895824E0,-7.218518257E0,6.672640324E0
3.492860614E0,5.403713226E0,-7.240066051E0,6.612784863E0
3.494874154E0,5.372588634E0,-7.273584843E0,6.490680695E0
3.496859079E0,5.425261021E0,-7.340622425E0,6.363788128E0
3.498873236E0,5.403713226E0,-7.326257229E0,6.325480938E0
3.500855931E0,5.408501625E0,-7.326257229E0,6.301538944E0
3.502870471E0,5.422866821E0,-7.381323814E0,6.301538944E0
3.504854088E0,5.430049419E0,-7.393294811E0,6.277596951E0
3.506869476E0,5.379771233E0,-7.402871609E0,6.153098583E0
3.508852247E0,5.355829239E0,-7.383718014E0,6.083666325E0
3.510864942E0,5.353435040E0,-7.386112213E0,5.997475147E0
3.512880251E0,5.303156853E0,-7.388506413E0,5.954379559E0
3.514864254E0,5.264849663E0,-7.381323814E0,5.930437565E0
3.516879410E0,5.214571476E0,-7.352593422E0,5.810727596E0
3.518863028E0,5.166687489E0,-7.314286232E0,5.707777023E0
3.520875645E0,5.149928093E0,-7.302315235E0,5.652710438E0
3.522859109E0,5.087678432E0,-7.273584843E0,5.592854977E0
3.524874727E0,5.049371243E0,-7.237671852E0,5.549759388E0
3.526857806E0,5.025429249E0,-7.228095055E0,5.518634796E0
3.528871731E0,4.967968464E0,-7.189787865E0,5.473145008E0
3.530854733E0,4.920084476E0,-7.158663273E0,5.403713226E0
3.532869274E0,4.903325081E0,-7.129932880E0,5.379771233E0
3.534852892E0,4.884171486E0,-7.096413612E0,5.324704647E0
3.536867432E0,4.881777287E0,-7.058106422E0,5.269638062E0
3.538852050E0,4.888959885E0,-7.036558628E0,5.245696068E0
3.540865283E0,4.891354084E0,-6.991068840E0,5.202600479E0
3.542879055E0,4.900930882E0,-6.976703644E0,5.185841084E0
3.544862518E0,4.927267075E0,-6.945579052E0,5.169081688E0
3.546875982E0,4.984727859E0,-6.933608055E0,5.147533417E0
3.548860600E0,5.011064053E0,-6.933608055E0,5.125985622E0
3.550874833E0,5.035006046E0,-6.924031258E0,5.085284233E0
3.552858527E0,5.058948040E0,-6.919242859E0,5.087678432E0
3.554872375E0,5.058948040E0,-6.924031258E0,5.099649429E0
3.556855763E0,5.080495834E0,-6.907271862E0,5.123591423E0
3.558871765E0,5.118803024E0,-6.883329868E0,5.145139217E0
3.560853921E0,5.130774021E0,-6.873753071E0,5.159504890E0
3.562868000E0,5.166687489E0,-6.842628479E0,5.193023682E0
3.564852310E0,5.214571476E0,-6.825869083E0,5.219359875E0
3.566865620E0,5.236119270E0,-6.818686485E0,5.240907669E0
3.568880391E0,5.298368454E0,-6.816292286E0,5.274426460E0
3.570863393E0,5.334281445E0,-6.806715488E0,5.303156853E0
3.572877935E0,5.384559631E0,-6.816292286E0,5.391742229E0
3.574861552E0,5.446808815E0,-6.830657482E0,5.513846397E0
3.576875708E0,5.480327606E0,-6.840234280E0,5.583278179E0
3.578860018E0,5.532999992E0,-6.847416878E0,5.702988625E0
3.580874175E0,5.556941986E0,-6.883329868E0,5.841852188E0
3.582857561E0,5.571307182E0,-6.888118267E0,5.904101372E0
3.584870794E0,5.609614372E0,-6.928819656E0,5.990292549E0
3.586855411E0,5.633556366E0,-6.986280441E0,6.030993938E0
3.588869568E0,5.628767967E0,-7.022193432E0,6.050147533E0
3.590852109E0,5.635950565E0,-7.105990410E0,6.059724331E0
3.592867495E0,5.664681435E0,-7.180211067E0,6.026205540E0
3.594850574E0,5.659893036E0,-7.225700855E0,6.007051945E0
3.596865039E0,5.633556366E0,-7.299921036E0,5.937620163E0
3.598879810E0,5.614402771E0,-7.362170219E0,5.844246387E0
3.600862581E0,5.595249176E0,-7.405265808E0,5.813121796E0
3.602876660E0,5.568912983E0,-7.477091789E0,5.734113216E0
3.604860662E0,5.544970989E0,-7.503427982E0,5.700594425E0
3.606874511E0,5.473145008E0,-7.544129372E0,5.612008572E0
3.608858206E0,5.398924828E0,-7.556100368E0,5.504269600E0
3.610872746E0,5.353435040E0,-7.551311970E0,5.434837818E0
3.612855825E0,5.260061264E0,-7.556100368E0,5.295974255E0
3.614869905E0,5.169081688E0,-7.568071365E0,5.185841084E0
3.616853676E0,5.125985622E0,-7.563282967E0,5.125985622E0
3.618868986E0,5.015852451E0,-7.563282967E0,5.001487255E0
3.620850834E0,4.927267075E0,-7.575253963E0,4.884171486E0
3.622865914E0,4.891354084E0,-7.577648163E0,4.826710701E0
3.624876454E0,4.800374508E0,-7.594407558E0,4.709394932E0
3.626863226E0,4.704606533E0,-7.642292023E0,4.632780075E0
3.628878535E0,4.668693542E0,-7.661445618E0,4.589684486E0
3.630861692E0,4.616020679E0,-7.706935406E0,4.503493309E0
3.632875464E0,4.560954094E0,-7.728483200E0,4.417302132E0
3.634859158E0,4.539406300E0,-7.747636795E0,4.381389141E0
3.636873391E0,4.517858505E0,-7.795520782E0,4.326322556E0
3.638858624E0,4.508281708E0,-7.800309181E0,4.307168961E0
3.640871780E0,4.493916512E0,-7.819462776E0,4.264073372E0
3.642855167E0,4.505887508E0,-7.852981567E0,4.225766182E0
3.644869092E0,4.522646904E0,-7.843404770E0,4.201824188E0
3.646852710E0,4.568136692E0,-7.814674377E0,4.173093796E0
3.648867174E0,4.616020679E0,-7.793126583E0,4.158728123E0
3.650850945E0,4.644751072E0,-7.766790390E0,4.165910721E0
3.652864409E0,4.714183331E0,-7.699752808E0,4.175487995E0
3.654879258E0,4.797980309E0,-7.613561630E0,4.209006786E0
3.656862567E0,4.838681698E0,-7.577648163E0,4.230554581E0
3.658877108E0,4.951209068E0,-7.505822182E0,4.273650169E0
3.660860725E0,5.063736439E0,-7.462726593E0,4.307168961E0
3.662874036E0,5.130774021E0,-7.450755596E0,4.323928356E0
3.664857346E0,5.260061264E0,-7.414842606E0,4.345476151E0
3.666873655E0,5.329493046E0,-7.422025204E0,4.355052948E0
3.668856811E0,5.475539207E0,-7.436390400E0,4.367023945E0
3.670869121E0,5.609614372E0,-7.474697590E0,4.393360138E0
3.672854047E0,5.664681435E0,-7.515398979E0,4.400542736E0
3.674868511E0,5.770026207E0,-7.582436562E0,4.424484730E0
3.676851590E0,5.875370979E0,-7.671022415E0,4.436455727E0
3.678867284E0,5.911283970E0,-7.721300602E0,4.450820923E0
3.680849364E0,5.968744755E0,-7.812280178E0,4.489128113E0
3.682863597E0,6.023811340E0,-7.908048153E0,4.529829502E0
3.684877983E0,6.040570736E0,-7.939172745E0,4.548983097E0
3.686861139E0,6.076483727E0,-8.022970200E0,4.548983097E0
3.688875604E0,6.088454723E0,-8.085219383E0,4.532223701E0
3.690858375E0,6.083666325E0,-8.116343498E0,4.517858505E0
3.692873146E0,6.059724331E0,-8.149862289E0,4.503493309E0
3.694856533E0,6.054935932E0,-8.171410561E0,4.501099110E0
3.696870690E0,6.030993938E0,-8.188169479E0,4.491522312E0
3.698855538E0,6.002263546E0,-8.226476669E0,4.491522312E0
3.700868232E0,5.985504150E0,-8.257601738E0,4.448426723E0
3.702853157E0,5.928043365E0,-8.271966934E0,4.422090530E0
3.704863852E0,5.863399982E0,-8.303091049E0,4.367023945E0
3.706879931E0,5.829881191E0,-8.312667847E0,4.345476151E0
3.708864779E0,5.760449409E0,-8.319850922E0,4.319139957E0
3.710878089E0,5.667075634E0,-8.370129585E0,4.278438568E0
3.712862400E0,5.635950565E0,-8.384494781E0,4.249708176E0
3.714876556E0,5.549759388E0,-8.415618896E0,4.192247391E0
3.716860250E0,5.465962410E0,-8.420407295E0,4.144362926E0
3.718875252E0,5.413290024E0,-8.432378769E0,4.106055737E0
3.720857486E0,5.310339451E0,-8.446743965E0,4.031835556E0
3.722871872E0,5.221754074E0,-8.453926086E0,3.969586372E0
3.724856259E0,5.178658485E0,-8.461109161E0,3.938461781E0
3.726870030E0,5.102043629E0,-8.468291283E0,3.864241600E0
3.728853109E0,5.013458252E0,-8.475474358E0,3.785232782E0
3.730867343E0,4.982333660E0,-8.480262756E0,3.749319792E0
3.732850730E0,4.917690277E0,-8.492233276E0,3.711012602E0
3.734864885E0,4.879383087E0,-8.513781548E0,3.682282209E0
3.736880195E0,4.805162907E0,-8.528146744E0,3.634398222E0
3.738863890E0,4.742913723E0,-8.542511940E0,3.584120035E0
3.740877431E0,4.721365929E0,-8.537723541E0,3.567360640E0
3.742861433E0,4.659116745E0,-8.542511940E0,3.529053211E0
3.744874666E0,4.589684486E0,-8.544905663E0,3.512293816E0
3.746860284E0,4.556165695E0,-8.542511940E0,3.509899616E0
3.748873825E0,4.501099110E0,-8.532935143E0,3.526659012E0
3.750856288E0,4.465186119E0,-8.489839554E0,3.545812607E0
3.752870982E0,4.443638325E0,-8.463502884E0,3.564966440E0
3.754854447E0,4.398148537E0,-8.377311707E0,3.617638826E0
3.756868603E0,4.355052948E0,-8.274360657E0,3.663128614E0
3.758853143E0,4.340687752E0,-8.224082947E0,3.696647406E0
3.760866991E0,4.335899353E0,-8.125920296E0,3.756502390E0
3.762850456E0,4.364629745E0,-8.034940720E0,3.818751812E0
3.764864535E0,4.383783340E0,-7.994239330E0,3.845088005E0
3.766878998E0,4.453215122E0,-7.943961143E0,3.888183594E0
3.768862077E0,4.479551315E0,-7.939172745E0,3.904942989E0
3.770875927E0,4.563348293E0,-7.920019150E0,3.960009575E0
3.772859698E0,4.668693542E0,-7.953537941E0,4.000710964E0
3.774874161E0,4.726154327E0,-7.975085735E0,4.034229755E0
3.776858086E0,4.819528103E0,-8.037335396E0,4.096478939E0
3.778872628E0,4.941632271E0,-8.094796181E0,4.168305397E0
3.780856245E0,5.003881454E0,-8.128314972E0,4.192247391E0
3.782869863E0,5.099649429E0,-8.200140953E0,4.249708176E0
3.784852942E0,5.183446884E0,-8.288725853E0,4.276044369E0
3.786867021E0,5.216965675E0,-8.319850922E0,4.264073372E0
3.788851408E0,5.238513470E0,-8.386888504E0,4.268861771E0
3.790865256E0,5.272032261E0,-8.439560890E0,4.280832767E0
3.792879027E0,5.281609058E0,-8.465897560E0,4.285621166E0
3.794861876E0,5.281609058E0,-8.501810074E0,4.304774761E0
3.796877186E0,5.260061264E0,-8.535328865E0,4.321534157E0
3.798861573E0,5.240907669E0,-8.564059258E0,4.326322556E0
3.800875113E0,5.204994678E0,-8.592789650E0,4.319139957E0
3.802858808E0,5.183446884E0,-8.614337921E0,4.323928356E0
3.804873195E0,5.135562420E0,-8.652645111E0,4.367023945E0
3.806856582E0,5.092466831E0,-8.681375504E0,4.386177540E0
3.808870430E0,5.058948040E0,-8.702922821E0,4.393360138E0
3.810853817E0,4.999093056E0,-8.722076416E0,4.424484730E0
3.812868666E0,4.936843872E0,-8.736441612E0,4.438849926E0
3.814852360E0,4.905719280E0,-8.731653214E0,4.438849926E0
3.816866439E0,4.836287498E0,-8.753201485E0,4.453215122E0
3.818881518E0,4.778826714E0,-8.750806808E0,4.448426723E0
3.820863675E0,4.742913723E0,-8.760383606E0,4.453215122E0
3.822877831E0,4.651933670E0,-8.798690796E0,4.434061527E0
3.824861833E0,4.560954094E0,-8.803479195E0,4.417302132E0
3.826877219E0,4.517858505E0,-8.801085472E0,4.410119534E0
3.828860069E0,4.431667328E0,-8.839392662E0,4.390965939E0
3.830873301E0,4.386177540E0,-8.858546257E0,4.357447147E0
3.832857842E0,4.311957359E0,-8.872911453E0,4.340687752E0
3.834872075E0,4.211400986E0,-8.887276649E0,4.314351559E0
3.836855078E0,4.170699596E0,-8.887276649E0,4.292803764E0
3.838870157E0,4.094084740E0,-8.889671326E0,4.247313976E0
3.840853005E0,3.993528366E0,-8.882488251E0,4.204218388E0
3.842867084E0,3.945644379E0,-8.882488251E0,4.182670593E0
3.844851702E0,3.866635799E0,-8.908824921E0,4.149151325E0
3.846864704E0,3.775655985E0,-8.892065048E0,4.108449936E0
3.848879091E0,3.751713991E0,-8.892065048E0,4.082113743E0
3.850863170E0,3.703830004E0,-8.887276649E0,4.043806553E0
3.852876711E0,3.655946016E0,-8.863334656E0,4.024652958E0
3.854859790E0,3.634398222E0,-8.853757858E0,4.022258759E0
3.856874792E0,3.605667830E0,-8.841787338E0,4.005499363E0
3.858859179E0,3.574543238E0,-8.858546257E0,3.988739967E0
3.860872720E0,3.572149038E0,-8.868123055E0,3.993528366E0
3.862856414E0,3.581725836E0,-8.844181061E0,4.012681961E0
3.864869570E0,3.600879431E0,-8.836998940E0,4.036623955E0
3.866853341E0,3.643975019E0,-8.834604263E0,4.048594952E0
3.868868728E0,3.696647406E0,-8.815450668E0,4.050989151E0
3.870851423E0,3.730166197E0,-8.805873871E0,4.055777550E0
3.872866195E0,3.828328609E0,-8.801085472E0,4.027047157E0
3.874880658E0,3.914519787E0,-8.772355080E0,4.015076160E0
3.876863737E0,3.960009575E0,-8.760383606E0,4.007893562E0
3.878878586E0,4.082113743E0,-8.738836288E0,4.012681961E0
3.880861896E0,4.197035789E0,-8.717288017E0,4.029441357E0
3.882875744E0,4.249708176E0,-8.714894295E0,4.034229755E0
3.884859746E0,4.359841347E0,-8.669404030E0,4.034229755E0
3.886873364E0,4.486733913E0,-8.647856712E0,4.022258759E0
3.888857290E0,4.548983097E0,-8.638279915E0,4.007893562E0
3.890871215E0,4.654327869E0,-8.609549522E0,3.993528366E0
3.892855217E0,4.764461517E0,-8.590395927E0,3.986345768E0
3.894869604E0,4.805162907E0,-8.573636055E0,3.981557369E0
3.896852145E0,4.891354084E0,-8.566453934E0,3.967192173E0
3.898868147E0,4.934449673E0,-8.554482460E0,3.950432777E0
3.900850841E0,5.008669853E0,-8.549694061E0,3.928884983E0
3.902865306E0,5.068524837E0,-8.559270859E0,3.914519787E0
3.904878538E0,5.094861031E0,-8.561665535E0,3.914519787E0
3.906862925E0,5.135562420E0,-8.571242332E0,3.909731388E0
3.908876773E0,5.176264286E0,-8.578424454E0,3.895366192E0
3.910859545E0,5.190629482E0,-8.588001251E0,3.890577793E0
3.912874547E0,5.209783077E0,-8.602366447E0,3.871424198E0
3.914858549E0,5.202600479E0,-8.607154846E0,3.852270603E0
3.916872167E0,5.185841084E0,-8.619126320E0,3.849876404E0
3.918857631E0,5.152322292E0,-8.655038834E0,3.842693806E0
3.920870556E0,5.106832027E0,-8.657433510E0,3.840299606E0
3.922854251E0,5.087678432E0,-8.659827232E0,3.825934410E0
3.924868407E0,5.035006046E0,-8.681375504E0,3.797203779E0
3.926851486E0,4.975151062E0,-8.717288017E0,3.773261786E0
3.928865335E0,4.934449673E0,-8.736441612E0,3.763684988E0
3.930879798E0,4.843470097E0,-8.748413086E0,3.734954596E0
3.932863877E0,4.807557106E0,-8.755595207E0,3.725377798E0
3.934877648E0,4.702212334E0,-8.789113998E0,3.691859007E0
3.936861113E0,4.601655483E0,-8.817844391E0,3.672705412E0
3.938876730E0,4.560954094E0,-8.848969460E0,3.651157618E0
3.940860194E0,4.455609322E0,-8.868123055E0,3.612850428E0
3.942873734E0,4.359841347E0,-8.880094528E0,3.603273630E0
3.944856737E0,4.316745758E0,-8.877699852E0,3.591302633E0
3.946870970E0,4.249708176E0,-8.908824921E0,3.564966440E0
3.948855280E0,4.185064793E0,-8.925583839E0,3.557783842E0
3.950868436E0,4.156333923E0,-8.930372238E0,3.557783842E0
3.952852746E0,4.106055737E0,-8.901641846E0,3.548206806E0
3.954866902E0,4.082113743E0,-8.908824921E0,3.548206806E0
3.956850673E0,4.077325344E0,-8.906430244E0,3.533841610E0
3.958865675E0,4.062960148E0,-8.896853447E0,3.509899616E0
3.960879217E0,4.070142746E0,-8.889671326E0,3.502717018E0
3.962862373E0,4.084507942E0,-8.872911453E0,3.497928619E0
3.964877759E0,4.098873138E0,-8.832210541E0,3.519476414E0
3.966859915E0,4.113238335E0,-8.815450668E0,3.536235809E0
3.968874611E0,4.120420933E0,-8.779537201E0,3.555389643E0
3.970857997E0,4.156333923E0,-8.748413086E0,3.586514235E0
3.972872153E0,4.170699596E0,-8.748413086E0,3.603273630E0
3.974856155E0,4.187458992E0,-8.738836288E0,3.653551817E0
3.976870620E0,4.230554581E0,-8.719682693E0,3.677493811E0
3.978854929E0,4.254496574E0,-8.712499619E0,3.694253206E0
3.980868777E0,4.314351559E0,-8.686163902E0,3.694253206E0
3.982851626E0,4.359841347E0,-8.681375504E0,3.713406801E0
3.984865090E0,4.398148537E0,-8.683769226E0,3.718195200E0
3.986880477E0,4.448426723E0,-8.686163902E0,3.727771997E0
3.988864479E0,4.489128113E0,-8.676587105E0,3.737348795E0
3.990877096E0,4.513070107E0,-8.669404030E0,3.744531393E0
3.992861714E0,4.551377296E0,-8.690952301E0,3.756502390E0
3.994875255E0,4.565742493E0,-8.698134422E0,3.751713991E0
3.996859565E0,4.563348293E0,-8.707711220E0,3.744531393E0
3.998874413E0,4.563348293E0,-8.693346024E0,3.715801001E0
4.000857107E0,4.568136692E0,-8.705317497E0,3.701435804E0
4.002870726E0,4.556165695E0,-8.726864815E0,3.672705412E0
4.004855343E0,4.534617901E0,-8.724471092E0,3.651157618E0
4.006869806E0,4.522646904E0,-8.722076416E0,3.629609823E0
4.008852578E0,4.479551315E0,-8.717288017E0,3.574543238E0
4.010866965E0,4.450820923E0,-8.714894295E0,3.524264812E0
4.012880275E0,4.438849926E0,-8.717288017E0,3.495534420E0
4.014864277E0,4.424484730E0,-8.750806808E0,3.442862034E0
4.016878433E0,4.395754337E0,-8.765172005E0,3.373430252E0
4.018864205E0,4.383783340E0,-8.755595207E0,3.342305660E0
4.020876899E0,4.333505154E0,-8.746018410E0,3.299209833E0
4.022859901E0,4.323928356E0,-8.746018410E0,3.241749048E0
4.024871288E0,4.323928356E0,-8.738836288E0,3.229778051E0
4.026857137E0,4.316745758E0,-8.729259491E0,3.217807055E0
4.028871678E0,4.326322556E0,-8.698134422E0,3.191470861E0
4.030855680E0,4.326322556E0,-8.686163902E0,3.165134668E0
4.032869528E0,4.326322556E0,-8.655038834E0,3.105279684E0
4.034853223E0,4.338293552E0,-8.645462036E0,3.076549292E0
4.036867302E0,4.357447147E0,-8.616731644E0,3.023876667E0
4.038851996E0,4.343081951E0,-8.585607529E0,2.980781078E0
4.040865537E0,4.345476151E0,-8.568847656E0,2.964021683E0
4.042879924E0,4.359841347E0,-8.566453934E0,2.918531895E0
4.044864234E0,4.362235546E0,-8.568847656E0,2.911349297E0
4.046877544E0,4.376600742E0,-8.564059258E0,2.916137695E0
4.048861238E0,4.386177540E0,-8.568847656E0,2.896984100E0
4.050875087E0,4.410119534E0,-8.592789650E0,2.875436306E0
4.052858782E0,4.431667328E0,-8.597578049E0,2.861071110E0
4.054873245E0,4.450820923E0,-8.638279915E0,2.832340717E0
4.056856555E0,4.465186119E0,-8.674192429E0,2.839523315E0
4.058871712E0,4.469974518E0,-8.678980827E0,2.834734917E0
4.060855021E0,4.510675907E0,-8.712499619E0,2.846705914E0
4.062868562E0,4.522646904E0,-8.736441612E0,2.853888512E0
4.064851025E0,4.560954094E0,-8.755595207E0,2.851494312E0
4.066867335E0,4.577713490E0,-8.786720276E0,2.858676910E0
4.068850492E0,4.572925091E0,-8.793902397E0,2.853888512E0
4.070863725E0,4.568136692E0,-8.810662270E0,2.832340717E0
4.072878804E0,4.541800499E0,-8.810662270E0,2.817975283E0
4.074861806E0,4.534617901E0,-8.810662270E0,2.806004286E0
4.076875963E0,4.517858505E0,-8.801085472E0,2.782062292E0
4.078861811E0,4.498704910E0,-8.796297073E0,2.734178305E0
4.080874197E0,4.486733913E0,-8.801085472E0,2.715024710E0
4.082857815E0,4.481945515E0,-8.798690796E0,2.676717520E0
4.084873510E0,4.443638325E0,-8.803479195E0,2.624045134E0
4.086855743E0,4.412513733E0,-8.810662270E0,2.600103140E0
4.088869822E0,4.374206543E0,-8.805873871E0,2.559401512E0
4.090853208E0,4.357447147E0,-8.796297073E0,2.518700123E0
4.092867673E0,4.311957359E0,-8.786720276E0,2.494758129E0
4.094851136E0,4.280832767E0,-8.772355080E0,2.444479942E0
4.096864908E0,4.266467571E0,-8.767566681E0,2.427720547E0
4.098880371E0,4.244919777E0,-8.769960403E0,2.394201756E0
4.100863374E0,4.194641590E0,-8.748413086E0,2.367865562E0
4.102877915E0,4.192247391E0,-8.738836288E0,2.353500366E0
4.104860301E0,4.165910721E0,-8.743624687E0,2.312798738E0
4.106874534E0,4.156333923E0,-8.729259491E0,2.284068346E0
4.108858845E0,4.149151325E0,-8.722076416E0,2.262520552E0
4.110873308E0,4.149151325E0,-8.712499619E0,2.205059767E0
4.112856695E0,4.158728123E0,-8.705317497E0,2.169146776E0
4.114871158E0,4.156333923E0,-8.695740700E0,2.154781580E0
4.116854238E0,4.165910721E0,-8.695740700E0,2.130839586E0
4.118869317E0,4.192247391E0,-8.686163902E0,2.128445387E0
4.120853319E0,4.206612587E0,-8.676587105E0,2.116474390E0
4.122866860E0,4.204218388E0,-8.678980827E0,2.114080191E0
4.124880940E0,4.204218388E0,-8.671798706E0,2.104503393E0
4.126864326E0,4.218583584E0,-8.676587105E0,2.097320795E0
4.128878251E0,4.230554581E0,-8.671798706E0,2.085349798E0
4.130861869E0,4.237737179E0,-8.676587105E0,2.066195965E0
4.132876025E0,4.256890774E0,-8.676587105E0,2.044648170E0
4.134860028E0,4.283226967E0,-8.693346024E0,2.051830769E0
4.136874184E0,4.285621166E0,-8.702922821E0,2.051830769E0
4.138858570E0,4.321534157E0,-8.705317497E0,2.054224968E0
4.140872418E0,4.369418144E0,-8.714894295E0,2.051830769E0
4.142855191E0,4.378994942E0,-8.724471092E0,2.056619167E0
4.144869039E0,4.376600742E0,-8.731653214E0,2.044648170E0
4.146854502E0,4.383783340E0,-8.738836288E0,2.037465572E0
4.148867812E0,4.393360138E0,-8.729259491E0,2.042253971E0
4.150850815E0,4.393360138E0,-8.712499619E0,2.051830769E0
4.152866279E0,4.395754337E0,-8.714894295E0,2.054224968E0
4.154879511E0,4.383783340E0,-8.714894295E0,2.051830769E0
4.156862590E0,4.364629745E0,-8.714894295E0,2.047042370E0
4.158878209E0,4.347870350E0,-8.683769226E0,2.068590164E0
4.160860749E0,4.326322556E0,-8.681375504E0,2.075772762E0
4.162875751E0,4.295197964E0,-8.676587105E0,2.070984364E0
4.164859215E0,4.280832767E0,-8.678980827E0,2.073378563E0
4.166872756E0,4.252102375E0,-8.678980827E0,2.080561161E0
4.168856143E0,4.223371983E0,-8.662221909E0,2.068590164E0
4.170870529E0,4.209006786E0,-8.655038834E0,2.061407566E0
4.172854531E0,4.177882195E0,-8.650250435E0,2.047042370E0
4.174867534E0,4.146757126E0,-8.640673637E0,2.042253971E0
4.176852459E0,4.127603531E0,-8.638279915E0,2.035071373E0
4.178866308E0,4.094084740E0,-8.645462036E0,1.994369984E0
