"Time (s)","Gyroscope x (rad/s)","Gyroscope y (rad/s)","Gyroscope z (rad/s)"
4.724618000E-3,5.497787148E-3,-5.803219974E-2,-5.192354694E-2
6.773312000E-3,5.497787148E-3,-5.803219974E-2,-5.192354694E-2
8.847776000E-3,5.497787148E-3,-5.803219974E-2,-5.192354694E-2
1.086185500E-2,5.497787148E-3,-5.803219974E-2,-5.192354694E-2
1.287639600E-2,5.497787148E-3,-5.803219974E-2,-5.192354694E-2
1.486009000E-2,5.497787148E-3,-5.803219974E-2,-5.192354694E-2
1.687424700E-2,5.497787148E-3,-5.803219974E-2,-5.192354694E-2
1.885848000E-2,5.497787148E-3,-5.803219974E-2,-5.192354694E-2
2.087148200E-2,5.497787148E-3,-5.803219974E-2,-5.192354694E-2
2.285540700E-2,5.497787148E-3,-5.803219974E-2,-5.192354694E-2
2.487417900E-2,5.497787148E-3,-5.803219974E-2,-5.192354694E-2
2.685295000E-2,5.497787148E-3,-5.803219974E-2,-5.192354694E-2
2.886810600E-2,5.497787148E-3,-5.803219974E-2,-5.192354694E-2
3.085087700E-2,5.497787148E-3,-5.803219974E-2,-5.192354694E-2
3.286557300E-2,5.497787148E-3,-5.803219974E-2,-5.192354694E-2
3.484903600E-2,5.497787148E-3,-5.803219974E-2,-5.192354694E-2
3.686342300E-2,5.497787148E-3,-5.803219974E-2,-5.192354694E-2
3.884834800E-2,5.497787148E-3,-5.803219974E-2,-5.192354694E-2
4.086188900E-2,5.497787148E-3,-5.803219974E-2,-5.192354694E-2
4.287519900E-2,5.497787148E-3,-5.803219974E-2,-5.192354694E-2
4.485943200E-2,5.497787148E-3,-5.803219974E-2,-5.192354694E-2
4.687266500E-2,5.497787148E-3,-5.803219974E-2,-5.192354694E-2
4.885612800E-2,5.497787148E-3,-5.803219974E-2,-5.192354694E-2
5.087059300E-2,5.497787148E-3,-5.803219974E-2,-5.192354694E-2
5.285421000E-2,5.497787148E-3,-5.803219974E-2,-5.192354694E-2
5.486905800E-2,5.497787148E-3,-5.803219974E-2,-5.192354694E-2
5.685267600E-2,5.497787148E-3,-5.803219974E-2,-5.192354694E-2
5.886744800E-2,5.497787148E-3,-5.803219974E-2,-5.192354694E-2
6.085091200E-2,5.497787148E-3,-5.803219974E-2,-5.192354694E-2
6.286383700E-2,5.497787148E-3,-5.803219974E-2,-5.192354694E-2
6.484745400E-2,5.497787148E-3,-5.803219974E-2,-5.192354694E-2
6.686261100E-2,5.497787148E-3,-5.803219974E-2,-5.192354694E-2
6.884592100E-2,-5.070181563E-2,-2.382374369E-2,-6.719517522E-3
7.085892300E-2,-4.948008433E-2,-2.138028294E-2,-6.108652335E-3
7.287454000E-2,-5.253441259E-2,-1.588249579E-2,6.108652451E-4
7.485885100E-2,-5.497787148E-2,-6.108652335E-3,4.276056774E-3
7.687154500E-2,-5.253441259E-2,-4.886921961E-3,6.719517522E-3
7.885639300E-2,-5.497787148E-2,4.276056774E-3,1.099557430E-2
8.087031800E-2,-5.742133409E-2,1.343903504E-2,1.404990070E-2
8.285309000E-2,-5.742133409E-2,1.893682219E-2,1.343903504E-2
8.486786200E-2,-5.925392732E-2,2.993239649E-2,1.527163107E-2
8.685086400E-2,-5.864306539E-2,4.031710699E-2,1.771509275E-2
8.886532700E-2,-6.108652428E-2,4.642575979E-2,1.771509275E-2
9.084879200E-2,-5.742133409E-2,5.497787148E-2,2.138028294E-2
9.286356300E-2,-6.108652428E-2,6.414084882E-2,1.954768784E-2
9.484695000E-2,-6.047565863E-2,7.086037099E-2,1.832595654E-2
9.686049000E-2,-6.169738993E-2,7.635815442E-2,1.954768784E-2
9.887618500E-2,-6.108652428E-2,8.491026610E-2,2.015855350E-2
1.008585720E-1,-6.108652428E-2,8.491026610E-2,2.076941915E-2
1.028731120E-1,-6.352998316E-2,9.040805697E-2,2.076941915E-2
1.048551910E-1,-6.108652428E-2,8.857546002E-2,2.321287990E-2
1.068697330E-1,-5.986479297E-2,9.040805697E-2,2.321287990E-2
1.088548890E-1,-6.169738993E-2,8.979719132E-2,2.199114859E-2
1.108678910E-1,-6.047565863E-2,8.918632567E-2,2.504547499E-2
1.128524310E-1,-6.230825558E-2,8.552113175E-2,2.504547499E-2
1.148662800E-1,-6.291911751E-2,7.819075137E-2,2.626720630E-2
1.168499750E-1,-6.169738993E-2,7.696902007E-2,2.871066704E-2
1.188647460E-1,-6.291911751E-2,6.841690838E-2,2.871066704E-2
1.208478250E-1,-6.230825558E-2,6.169738993E-2,2.932153270E-2
1.228622880E-1,-6.230825558E-2,5.436700583E-2,2.871066704E-2
1.248771380E-1,-6.414084882E-2,4.581489414E-2,2.626720630E-2
1.268598320E-1,-6.475171447E-2,3.543018550E-2,2.687807009E-2
1.288746030E-1,-6.475171447E-2,2.932153270E-2,2.626720630E-2
1.308571440E-1,-6.475171447E-2,1.649336144E-2,2.504547499E-2
1.328715310E-1,-6.597344577E-2,9.773843922E-3,2.321287990E-2
1.348555330E-1,-6.780604273E-2,-6.108652451E-4,2.199114859E-2
1.368697660E-1,-6.780604273E-2,-8.552113548E-3,2.504547499E-2
1.388540760E-1,-6.902777404E-2,-1.343903504E-2,2.504547499E-2
1.408673090E-1,-7.147123665E-2,-2.015855350E-2,2.443460934E-2
1.428512340E-1,-6.963863969E-2,-2.626720630E-2,2.687807009E-2
1.448645440E-1,-7.391469181E-2,-2.993239649E-2,2.871066704E-2
1.468497770E-1,-7.208210230E-2,-3.176499158E-2,3.237585723E-2
1.488635490E-1,-7.208210230E-2,-3.726277873E-2,3.237585723E-2
1.508460900E-1,-7.086037099E-2,-3.665191308E-2,3.298672289E-2
1.528611690E-1,-6.902777404E-2,-4.031710699E-2,3.543018550E-2
1.548747090E-1,-7.086037099E-2,-4.031710699E-2,3.787364438E-2
1.568590200E-1,-7.208210230E-2,-3.970624134E-2,3.970624134E-2
1.588743290E-1,-7.147123665E-2,-4.153883830E-2,4.153883830E-2
1.608565620E-1,-7.208210230E-2,-4.092797264E-2,4.337143153E-2
1.628703330E-1,-7.208210230E-2,-4.153883830E-2,4.520402849E-2
1.648547210E-1,-7.024950534E-2,-3.909537569E-2,4.948008433E-2
1.668681850E-1,-6.902777404E-2,-4.031710699E-2,5.497787148E-2
1.688516480E-1,-6.841690838E-2,-4.092797264E-2,5.742133409E-2
1.708654960E-1,-6.841690838E-2,-3.726277873E-2,6.352998316E-2
1.728497300E-1,-6.719517708E-2,-3.848451003E-2,6.230825558E-2
1.748630400E-1,-6.475171447E-2,-3.909537569E-2,6.597344577E-2
1.768473490E-1,-6.291911751E-2,-3.787364438E-2,7.147123665E-2
1.788624280E-1,-6.291911751E-2,-3.787364438E-2,7.024950534E-2
1.808756620E-1,-6.047565863E-2,-3.909537569E-2,7.086037099E-2
1.828593570E-1,-5.681046844E-2,-4.153883830E-2,7.147123665E-2
1.848700510E-1,-5.497787148E-2,-4.214970022E-2,7.452555746E-2
1.868562840E-1,-5.253441259E-2,-4.703662544E-2,7.330382615E-2
1.888715930E-1,-4.764748737E-2,-5.070181563E-2,7.452555746E-2
1.908556730E-1,-4.703662544E-2,-5.497787148E-2,7.574728876E-2
1.928692140E-1,-4.459316283E-2,-6.108652428E-2,7.391469181E-2
1.948529080E-1,-4.031710699E-2,-6.658431143E-2,7.269296050E-2
1.968666790E-1,-4.276056588E-2,-7.086037099E-2,7.391469181E-2
1.988522210E-1,-3.787364438E-2,-7.696902007E-2,7.574728876E-2
2.008655300E-1,-3.726277873E-2,-8.185594529E-2,7.330382615E-2
2.028485320E-1,-3.543018550E-2,-9.224065393E-2,7.330382615E-2
2.048633810E-1,-3.298672289E-2,-9.651670605E-2,7.330382615E-2
2.068466910E-1,-3.054326214E-2,-1.014036313E-1,7.391469181E-2
2.088603090E-1,-2.993239649E-2,-1.093448773E-1,7.147123665E-2
2.108747720E-1,-2.932153270E-2,-1.142318025E-1,7.086037099E-2
2.128584670E-1,-2.626720630E-2,-1.191187203E-1,6.963863969E-2
2.148713930E-1,-2.626720630E-2,-1.252273768E-1,6.841690838E-2
2.168560100E-1,-2.443460934E-2,-1.331686229E-1,6.658431143E-2
2.188710120E-1,-2.443460934E-2,-1.362229437E-1,6.475171447E-2
2.208537830E-1,-2.138028294E-2,-1.386664063E-1,6.597344577E-2
2.228682480E-1,-2.199114859E-2,-1.447750628E-1,6.352998316E-2
2.248510960E-1,-2.138028294E-2,-1.484402567E-1,6.169738993E-2
2.268664830E-1,-1.954768784E-2,-1.521054506E-1,6.047565863E-2
2.288501770E-1,-2.199114859E-2,-1.557706445E-1,6.230825558E-2
2.308634110E-1,-2.199114859E-2,-1.582140923E-1,5.681046844E-2
2.328479510E-1,-2.138028294E-2,-1.649336219E-1,5.681046844E-2
2.348614920E-1,-2.260201424E-2,-1.655444801E-1,5.681046844E-2
2.368757240E-1,-2.504547499E-2,-1.734857261E-1,5.436700583E-2
2.388605730E-1,-2.993239649E-2,-1.808161139E-1,5.497787148E-2
2.408732680E-1,-2.809980139E-2,-1.844813079E-1,5.253441259E-2
2.428568850E-1,-3.176499158E-2,-1.918116808E-1,5.436700583E-2
2.448722720E-1,-3.054326214E-2,-2.015855312E-1,5.314527452E-2
2.468551200E-1,-3.176499158E-2,-2.052507252E-1,5.192354694E-2
2.488689690E-1,-3.054326214E-2,-2.125810981E-1,5.192354694E-2
2.508529710E-1,-3.359758854E-2,-2.168571651E-1,5.375614017E-2
2.528676650E-1,-3.237585723E-2,-2.193006277E-1,5.314527452E-2
2.548505140E-1,-2.809980139E-2,-2.235766798E-1,5.009094998E-2
2.568649780E-1,-2.565634064E-2,-2.278527319E-1,4.825835302E-2
2.588499030E-1,-2.565634064E-2,-2.284636050E-1,4.459316283E-2
2.608624440E-1,-2.382374369E-2,-2.290744632E-1,4.337143153E-2
2.628772150E-1,-2.015855350E-2,-2.302961946E-1,3.970624134E-2
2.648594490E-1,-1.771509275E-2,-2.296853364E-1,3.787364438E-2
2.668738350E-1,-1.343903504E-2,-2.321287990E-1,3.237585723E-2
2.688582220E-1,-1.404990070E-2,-2.315179259E-1,3.054326214E-2
2.708720700E-1,-1.099557430E-2,-2.315179259E-1,2.748893574E-2
2.728559960E-1,-1.099557430E-2,-2.315179259E-1,2.626720630E-2
2.748702290E-1,-9.773843922E-3,-2.327396572E-1,2.626720630E-2
2.768530000E-1,-1.099557430E-2,-2.339613885E-1,2.504547499E-2
2.788692330E-1,-9.773843922E-3,-2.333505303E-1,2.687807009E-2
2.808516980E-1,-7.941247895E-3,-2.296853364E-1,2.748893574E-2
2.828653150E-1,-6.719517522E-3,-2.296853364E-1,2.993239649E-2
2.848502400E-1,-9.162978269E-3,-2.272418737E-1,3.054326214E-2
2.868637800E-1,-9.773843922E-3,-2.235766798E-1,3.298672289E-2
2.888471680E-1,-9.162978269E-3,-2.162462920E-1,3.420845419E-2
2.908618620E-1,-1.160643995E-2,-2.076941878E-1,3.848451003E-2
2.928754030E-1,-1.343903504E-2,-2.015855312E-1,4.031710699E-2
2.948587890E-1,-1.282817032E-2,-1.887573600E-1,4.214970022E-2
2.968727160E-1,-1.466076635E-2,-1.814269722E-1,4.581489414E-2
2.988576410E-1,-1.832595654E-2,-1.679879427E-1,5.253441259E-2
3.008708730E-1,-2.321287990E-2,-1.545489132E-1,6.047565863E-2
3.028545680E-1,-2.626720630E-2,-1.466076523E-1,6.230825558E-2
3.048681090E-1,-3.176499158E-2,-1.325577646E-1,7.147123665E-2
3.068532650E-1,-3.237585723E-2,-1.209513173E-1,8.124507964E-2
3.088681130E-1,-3.726277873E-2,-1.142318025E-1,8.552113175E-2
3.108496540E-1,-3.604105115E-2,-1.069014147E-1,9.346238524E-2
3.128641170E-1,-4.520402849E-2,-9.529497474E-2,9.957103431E-2
3.148483510E-1,-4.398229718E-2,-9.407325089E-2,1.056796908E-1
3.168625840E-1,-4.764748737E-2,-8.674286306E-2,1.136209369E-1
3.188778930E-1,-5.497787148E-2,-8.307767659E-2,1.166752651E-1
3.208601260E-1,-5.619960278E-2,-8.368854225E-2,1.166752651E-1
3.228738980E-1,-5.986479297E-2,-8.613199741E-2,1.209513173E-1
3.248592080E-1,-6.658431143E-2,-8.857546002E-2,1.191187203E-1
3.268721330E-1,-6.841690838E-2,-8.979719132E-2,1.185078546E-1
3.288558280E-1,-7.269296050E-2,-9.773843735E-2,1.178969890E-1
3.308696770E-1,-7.452555746E-2,-1.014036313E-1,1.154535338E-1
3.328536020E-1,-7.819075137E-2,-1.117883399E-1,1.105666086E-1
3.348678350E-1,-8.246681094E-2,-1.246165112E-1,1.044579595E-1
3.368514520E-1,-8.368854225E-2,-1.295034289E-1,1.007927656E-1
3.388665320E-1,-8.857546002E-2,-1.447750628E-1,9.529497474E-2
3.408493800E-1,-9.040805697E-2,-1.612684280E-1,8.796459436E-2
3.428629210E-1,-8.979719132E-2,-1.734857261E-1,8.613199741E-2
3.448465380E-1,-9.468411654E-2,-1.942551434E-1,8.124507964E-2
3.468604640E-1,-9.529497474E-2,-2.144137025E-1,7.819075137E-2
3.488755430E-1,-9.590584040E-2,-2.290744632E-1,7.696902007E-2
3.508588530E-1,-9.285151958E-2,-2.516764700E-1,7.757988572E-2
3.528733930E-1,-8.674286306E-2,-2.736676335E-1,7.086037099E-2
3.548567040E-1,-7.941248268E-2,-2.840523422E-1,7.086037099E-2
3.568706290E-1,-6.597344577E-2,-2.993239760E-1,6.841690838E-2
3.588557850E-1,-5.986479297E-2,-3.121521473E-1,6.719517708E-2
3.608684020E-1,-5.436700583E-2,-3.170390725E-1,6.291911751E-2
3.628521740E-1,-4.948008433E-2,-3.255911767E-1,5.803219974E-2
3.648672530E-1,-4.764748737E-2,-3.262020350E-1,5.436700583E-2
3.668499480E-1,-4.581489414E-2,-3.292563558E-1,4.703662544E-2
3.688647190E-1,-4.520402849E-2,-3.335324228E-1,4.337143153E-2
3.708474910E-1,-4.642575979E-2,-3.353650272E-1,4.276056588E-2
3.728617240E-1,-4.276056588E-2,-3.390302062E-1,4.398229718E-2
3.748764180E-1,-3.909537569E-2,-3.390302062E-1,4.520402849E-2
3.768601890E-1,-3.604105115E-2,-3.420845270E-1,4.948008433E-2
3.788743460E-1,-3.359758854E-2,-3.371976018E-1,6.169738993E-2
3.808577330E-1,-2.748893574E-2,-3.304781020E-1,7.330382615E-2
3.828721190E-1,-2.443460934E-2,-3.255911767E-1,8.307767659E-2
3.848555060E-1,-2.565634064E-2,-3.176499307E-1,9.773843735E-2
3.868705850E-1,-2.565634064E-2,-3.060434759E-1,1.093448773E-1
3.888533570E-1,-2.626720630E-2,-3.023782969E-1,1.136209369E-1
3.908665900E-1,-2.748893574E-2,-2.932153046E-1,1.270599663E-1
3.928524380E-1,-2.809980139E-2,-2.864958048E-1,1.301143020E-1
3.948651320E-1,-2.993239649E-2,-2.779437006E-1,1.331686229E-1
3.968497510E-1,-2.993239649E-2,-2.700024247E-1,1.356120855E-1
3.988642140E-1,-2.932153270E-2,-2.663372457E-1,1.356120855E-1
4.008472160E-1,-2.748893574E-2,-2.565633953E-1,1.301143020E-1
4.028608340E-1,-2.871066704E-2,-2.510656118E-1,1.240056455E-1
4.048761440E-1,-2.687807009E-2,-2.474004179E-1,1.203404516E-1
4.068586080E-1,-2.932153270E-2,-2.364048511E-1,1.105666086E-1
4.088727640E-1,-2.809980139E-2,-2.296853364E-1,1.032362282E-1
4.108561510E-1,-2.687807009E-2,-2.247984111E-1,1.001819000E-1
4.128709230E-1,-2.809980139E-2,-2.199114859E-1,9.407325089E-2
4.148546170E-1,-2.687807009E-2,-2.144137025E-1,9.101892263E-2
4.168684650E-1,-2.626720630E-2,-2.156354338E-1,8.979719132E-2
4.188531600E-1,-2.748893574E-2,-2.168571651E-1,8.735372871E-2
4.208663930E-1,-2.199114859E-2,-2.199114859E-1,8.674286306E-2
4.228509340E-1,-2.076941915E-2,-2.235766798E-1,8.429940045E-2
4.248604740E-1,-1.466076635E-2,-2.302961946E-1,8.185594529E-2
4.268777840E-1,-8.552113548E-3,-2.400700450E-1,7.819075137E-2
4.288626330E-1,-7.941247895E-3,-2.455678284E-1,7.208210230E-2
4.308761740E-1,-7.330383174E-3,-2.602286041E-1,6.475171447E-2
4.328598680E-1,-5.497787148E-3,-2.651155293E-1,6.169738993E-2
4.348737160E-1,-3.054326167E-3,-2.803871334E-1,5.314527452E-2
4.368574880E-1,1.221730490E-3,-2.962696552E-1,4.031710699E-2
4.388727980E-1,2.443460980E-3,-3.023782969E-1,3.543018550E-2
4.408558770E-1,3.665191587E-3,-3.194825351E-1,2.443460934E-2
4.428700330E-1,3.665191587E-3,-3.371976018E-1,7.330383174E-3
4.448537270E-1,4.886921961E-3,-3.488040566E-1,3.054326167E-3
4.468672690E-1,4.886921961E-3,-3.707951903E-1,-1.282817032E-2
4.488512710E-1,3.665191587E-3,-3.927863538E-1,-2.993239649E-2
4.508648110E-1,2.443460980E-3,-4.062253833E-1,-3.787364438E-2
4.528485820E-1,1.221730490E-3,-4.318817258E-1,-4.825835302E-2
4.548635850E-1,-6.108652451E-4,-4.624249935E-1,-5.558873713E-2
4.568472800E-1,6.108652451E-4,-4.789183438E-1,-5.681046844E-2
4.588608200E-1,1.221730490E-3,-5.161811113E-1,-5.864306539E-2
4.608750530E-1,6.108652451E-4,-5.338962078E-1,-5.803219974E-2
4.628589790E-1,-2.443460980E-3,-5.754350424E-1,-5.497787148E-2
4.648722890E-1,-8.552113548E-3,-6.145304441E-1,-4.948008433E-2
4.668565980E-1,-9.773843922E-3,-6.322455406E-1,-4.459316283E-2
4.688710620E-1,-1.221730467E-2,-6.640105247E-1,-3.726277873E-2
4.708534490E-1,-1.649336144E-2,-6.878342628E-1,-2.748893574E-2
4.728688360E-1,-1.893682219E-2,-7.000515461E-1,-2.138028294E-2
4.748519920E-1,-2.260201424E-2,-7.183775306E-1,-1.343903504E-2
4.768660710E-1,-2.687807009E-2,-7.385360599E-1,-5.497787148E-3
4.788510740E-1,-2.626720630E-2,-7.470881939E-1,0.000000000E0
4.808639990E-1,-2.565634064E-2,-7.635815740E-1,5.497787148E-3
4.828476160E-1,-2.443460934E-2,-7.764097452E-1,9.773843922E-3
4.848626950E-1,-2.382374369E-2,-7.837401032E-1,9.162978269E-3
4.868750830E-1,-2.076941915E-2,-7.947356701E-1,1.160643995E-2
4.888596230E-1,-1.893682219E-2,-8.014551997E-1,1.099557430E-2
4.908735480E-1,-1.527163107E-2,-8.038986921E-1,1.099557430E-2
4.928568580E-1,-1.099557430E-2,-8.057312369E-1,6.719517522E-3
4.948710150E-1,-7.941247895E-3,-8.038986921E-1,4.276056774E-3
4.968547860E-1,-1.832595794E-3,-7.984008789E-1,-6.108652335E-3
4.988704040E-1,3.054326167E-3,-7.855727077E-1,-1.893682219E-2
5.008535590E-1,6.719517522E-3,-7.812966704E-1,-2.015855350E-2
5.028677160E-1,1.160643995E-2,-7.654141784E-1,-2.443460934E-2
5.048498720E-1,1.466076635E-2,-7.507534027E-1,-2.932153270E-2
5.068643360E-1,1.588249579E-2,-7.428121567E-1,-2.809980139E-2
5.088482610E-1,2.443460934E-2,-7.336491346E-1,-2.748893574E-2
5.108630320E-1,2.626720630E-2,-7.244861722E-1,-2.565634064E-2
5.128772660E-1,2.809980139E-2,-7.189884186E-1,-2.626720630E-2
5.148609600E-1,2.687807009E-2,-7.037167549E-1,-2.382374369E-2
5.168748080E-1,2.748893574E-2,-6.811147332E-1,-2.443460934E-2
5.188599640E-1,2.748893574E-2,-6.646214128E-1,-2.504547499E-2
5.208723520E-1,2.565634064E-2,-6.310238242E-1,-2.565634064E-2
5.228560460E-1,2.809980139E-2,-5.955936313E-1,-2.687807009E-2
5.248705100E-1,2.626720630E-2,-5.760459304E-1,-2.871066704E-2
5.268545120E-1,2.809980139E-2,-5.424483418E-1,-3.054326214E-2
5.288688990E-1,2.871066704E-2,-5.216789246E-1,-3.115412779E-2
5.308522860E-1,3.115412779E-2,-4.838052690E-1,-3.665191308E-2
5.328661340E-1,2.871066704E-2,-4.502076805E-1,-4.153883830E-2
5.348492130E-1,2.626720630E-2,-4.337143302E-1,-4.459316283E-2
5.368643700E-1,2.138028294E-2,-4.043927789E-1,-4.948008433E-2
5.388477560E-1,1.893682219E-2,-3.781255782E-1,-5.681046844E-2
5.408621430E-1,1.649336144E-2,-3.671300113E-1,-5.742133409E-2
5.428754530E-1,9.162978269E-3,-3.488040566E-1,-6.108652428E-2
5.448593790E-1,2.443460980E-3,-3.347541690E-1,-6.902777404E-2
5.468739190E-1,-2.443460980E-3,-3.304781020E-1,-6.841690838E-2
5.488576140E-1,-6.719517522E-3,-3.219259977E-1,-7.086037099E-2
5.508711540E-1,-1.466076635E-2,-3.176499307E-1,-7.330382615E-2
5.528547720E-1,-1.893682219E-2,-3.152064681E-1,-7.635815442E-2
5.548693130E-1,-2.565634064E-2,-3.170390725E-1,-7.696902007E-2
5.568526990E-1,-3.237585723E-2,-3.182607889E-1,-7.757988572E-2
5.588683940E-1,-3.665191308E-2,-3.176499307E-1,-7.696902007E-2
5.608510890E-1,-4.459316283E-2,-3.255911767E-1,-7.513642311E-2
5.628649370E-1,-4.948008433E-2,-3.280346394E-1,-7.757988572E-2
5.648490160E-1,-5.619960278E-2,-3.371976018E-1,-7.757988572E-2
5.668628640E-1,-6.108652428E-2,-3.469714522E-1,-7.269296050E-2
5.688764060E-1,-6.352998316E-2,-3.536909819E-1,-7.391469181E-2
5.708604080E-1,-6.780604273E-2,-3.671300113E-1,-6.841690838E-2
5.728744870E-1,-7.147123665E-2,-3.811798990E-1,-6.658431143E-2
5.748576430E-1,-7.696902007E-2,-3.872885704E-1,-6.719517708E-2
5.768723380E-1,-7.757988572E-2,-4.037819207E-1,-6.047565863E-2
5.788561090E-1,-8.185594529E-2,-4.190535545E-1,-5.375614017E-2
5.808708030E-1,-8.307767659E-2,-4.263839424E-1,-5.253441259E-2
5.828535750E-1,-8.246681094E-2,-4.379903674E-1,-4.948008433E-2
5.848656540E-1,-8.613199741E-2,-4.459316432E-1,-4.520402849E-2
5.868508100E-1,-8.429940045E-2,-4.502076805E-1,-4.337143153E-2
5.888659660E-1,-8.429940045E-2,-4.514294267E-1,-3.970624134E-2
5.908495840E-1,-8.063421398E-2,-4.526511431E-1,-3.726277873E-2
5.928638160E-1,-8.185594529E-2,-4.471533597E-1,-3.787364438E-2
5.948474350E-1,-7.880161703E-2,-4.422664344E-1,-3.665191308E-2
5.968607450E-1,-7.819075137E-2,-4.361577928E-1,-3.481931984E-2
5.988761310E-1,-7.513642311E-2,-4.251621962E-1,-3.420845419E-2
6.008597490E-1,-7.086037099E-2,-4.147774875E-1,-3.298672289E-2
6.028729820E-1,-6.963863969E-2,-4.031710625E-1,-3.298672289E-2
6.048572920E-1,-6.414084882E-2,-3.891211748E-1,-3.420845419E-2
6.068714480E-1,-5.986479297E-2,-3.732386529E-1,-3.420845419E-2
6.088548350E-1,-6.047565863E-2,-3.646865487E-1,-3.359758854E-2
6.108696840E-1,-5.314527452E-2,-3.445279896E-1,-3.298672289E-2
6.128520700E-1,-5.192354694E-2,-3.255911767E-1,-3.604105115E-2
6.148671490E-1,-4.764748737E-2,-3.182607889E-1,-3.726277873E-2
6.168505360E-1,-4.398229718E-2,-3.011565804E-1,-3.665191308E-2
6.188660000E-1,-4.276056588E-2,-2.858849466E-1,-3.665191308E-2
6.208481560E-1,-4.031710699E-2,-2.779437006E-1,-3.787364438E-2
6.228623120E-1,-3.909537569E-2,-2.645046413E-1,-3.970624134E-2
6.248761600E-1,-3.665191308E-2,-2.608394623E-1,-4.031710699E-2
6.268607790E-1,-3.420845419E-2,-2.474004179E-1,-4.092797264E-2
6.288745500E-1,-3.115412779E-2,-2.370157093E-1,-4.520402849E-2
6.308577060E-1,-3.176499158E-2,-2.345722616E-1,-4.398229718E-2
6.328724770E-1,-3.237585723E-2,-2.290744632E-1,-4.581489414E-2
6.348561720E-1,-2.993239649E-2,-2.284636050E-1,-5.131268129E-2
6.368705590E-1,-2.871066704E-2,-2.302961946E-1,-5.070181563E-2
6.388545610E-1,-2.809980139E-2,-2.412917763E-1,-5.253441259E-2
6.408684090E-1,-2.504547499E-2,-2.528982162E-1,-5.497787148E-2
6.428518730E-1,-2.748893574E-2,-2.608394623E-1,-5.803219974E-2
6.448657220E-1,-2.687807009E-2,-2.730567753E-1,-6.047565863E-2
6.468494160E-1,-2.932153270E-2,-2.828305960E-1,-6.475171447E-2
6.488635720E-1,-3.237585723E-2,-2.871066630E-1,-6.414084882E-2
6.508471890E-1,-3.420845419E-2,-2.944370508E-1,-6.902777404E-2
6.528613460E-1,-3.848451003E-2,-3.011565804E-1,-6.902777404E-2
6.548755020E-1,-3.970624134E-2,-3.036000133E-1,-7.024950534E-2
6.568589660E-1,-4.276056588E-2,-3.115412891E-1,-6.536258012E-2
6.588736600E-1,-4.214970022E-2,-3.145956099E-1,-6.414084882E-2
6.608573550E-1,-4.642575979E-2,-3.194825351E-1,-6.108652428E-2
6.628712800E-1,-4.764748737E-2,-3.231477141E-1,-5.375614017E-2
6.648536670E-1,-4.886921868E-2,-3.249803185E-1,-5.070181563E-2
6.668682070E-1,-5.192354694E-2,-3.304781020E-1,-4.642575979E-2
6.688525180E-1,-5.192354694E-2,-3.365867436E-1,-3.848451003E-2
6.708660590E-1,-5.192354694E-2,-3.396410644E-1,-3.665191308E-2
6.728506760E-1,-5.558873713E-2,-3.469714522E-1,-2.993239649E-2
6.748641390E-1,-5.558873713E-2,-3.549126983E-1,-2.443460934E-2
6.768479120E-1,-5.558873713E-2,-3.604104817E-1,-2.076941915E-2
6.788632980E-1,-5.436700583E-2,-3.707951903E-1,-1.282817032E-2
6.808463000E-1,-5.619960278E-2,-3.799581826E-1,-4.886921961E-3
6.828604560E-1,-5.436700583E-2,-3.860668242E-1,-4.886921961E-3
6.848752280E-1,-5.131268129E-2,-3.940080702E-1,1.832595794E-3
6.868586920E-1,-4.764748737E-2,-4.056145251E-1,8.552113548E-3
6.888718480E-1,-4.764748737E-2,-4.123340547E-1,1.038470957E-2
6.908559270E-1,-4.642575979E-2,-4.239404798E-1,1.404990070E-2
6.928697760E-1,-4.337143153E-2,-4.282165468E-1,1.832595654E-2
6.948525470E-1,-4.092797264E-2,-4.392121136E-1,1.893682219E-2
6.968673180E-1,-3.787364438E-2,-4.514294267E-1,2.138028294E-2
6.988521670E-1,-3.481931984E-2,-4.599815309E-1,2.260201424E-2
7.008651700E-1,-3.115412779E-2,-4.697553813E-1,2.382374369E-2
7.028491720E-1,-2.687807009E-2,-4.825835526E-1,2.199114859E-2
7.048626350E-1,-2.504547499E-2,-4.893030524E-1,2.321287990E-2
7.068777140E-1,-1.954768784E-2,-5.009095073E-1,2.260201424E-2
7.088608700E-1,-1.038470957E-2,-5.119050741E-1,1.954768784E-2
7.108747190E-1,-8.552113548E-3,-5.143485069E-1,2.076941915E-2
7.128587210E-1,-4.886921961E-3,-5.216789246E-1,1.466076635E-2
7.148731080E-1,3.665191587E-3,-5.229006410E-1,1.588249579E-2
7.168561870E-1,8.552113548E-3,-5.216789246E-1,1.221730467E-2
7.188718820E-1,1.466076635E-2,-5.241223574E-1,1.099557430E-2
7.208544220E-1,1.832595654E-2,-5.222898126E-1,1.038470957E-2
7.228688860E-1,2.565634064E-2,-5.186246037E-1,1.038470957E-2
7.248528880E-1,2.809980139E-2,-5.076290369E-1,7.941247895E-3
7.268664290E-1,3.054326214E-2,-5.051855445E-1,8.552113548E-3
7.288500470E-1,3.543018550E-2,-4.929682612E-1,8.552113548E-3
7.308638950E-1,3.787364438E-2,-4.776966274E-1,7.941247895E-3
7.328475890E-1,3.970624134E-2,-4.703662395E-1,9.773843922E-3
7.348627460E-1,4.092797264E-2,-4.502076805E-1,1.038470957E-2
7.368759790E-1,4.276056588E-2,-4.312708676E-1,1.404990070E-2
7.388605960E-1,4.459316283E-2,-4.202753007E-1,1.343903504E-2
7.408744440E-1,4.520402849E-2,-3.933972120E-1,1.710422710E-2
7.428572170E-1,4.459316283E-2,-3.695734739E-1,2.015855350E-2
7.448685260E-1,4.703662544E-2,-3.561344445E-1,2.382374369E-2
7.468544510E-1,4.581489414E-2,-3.286454976E-1,2.993239649E-2
7.488695300E-1,4.398229718E-2,-2.993239760E-1,3.298672289E-2
7.508528410E-1,4.398229718E-2,-2.852740586E-1,3.543018550E-2
7.528673810E-1,3.665191308E-2,-2.522873580E-1,3.909537569E-2
7.548510760E-1,3.359758854E-2,-2.364048511E-1,3.665191308E-2
7.568652320E-1,2.993239649E-2,-1.979203373E-1,3.543018550E-2
7.588504650E-1,2.138028294E-2,-1.673770845E-1,3.787364438E-2
7.608633140E-1,1.954768784E-2,-1.490511149E-1,4.031710699E-2
7.628766230E-1,1.343903504E-2,-1.209513173E-1,4.825835302E-2
7.648614710E-1,1.160643995E-2,-9.590584040E-2,5.742133409E-2
7.668753210E-1,9.162978269E-3,-8.857546002E-2,6.475171447E-2
7.688584000E-1,3.054326167E-3,-7.574728876E-2,8.063421398E-2
7.708729400E-1,-1.221730490E-3,-6.719517708E-2,9.285151958E-2
7.728566340E-1,-3.665191587E-3,-6.108652428E-2,9.957103431E-2
7.748704060E-1,-7.941247895E-3,-4.825835302E-2,1.117883399E-1
7.768537930E-1,-1.343903504E-2,-2.993239649E-2,1.240056455E-1
7.788701030E-1,-1.343903504E-2,-2.138028294E-2,1.295034289E-1
7.808523360E-1,-2.076941915E-2,-3.054326167E-3,1.411098689E-1
7.828657990E-1,-2.260201424E-2,7.941247895E-3,1.508837193E-1
7.848495710E-1,-2.199114859E-2,1.404990070E-2,1.576032341E-1
7.868649580E-1,-2.565634064E-2,2.626720630E-2,1.643227488E-1
7.888482680E-1,-2.321287990E-2,2.871066704E-2,1.679879427E-1
7.908609620E-1,-2.748893574E-2,3.115412779E-2,1.728748679E-1
7.928769650E-1,-2.932153270E-2,3.604105115E-2,1.789835095E-1
7.948594290E-1,-2.809980139E-2,3.359758854E-2,1.795943826E-1
7.968738920E-1,-3.176499158E-2,2.932153270E-2,1.838704348E-1
7.988585100E-1,-3.359758854E-2,1.954768784E-2,1.887573600E-1
8.008722820E-1,-3.543018550E-2,1.282817032E-2,1.881465018E-1
8.028551300E-1,-3.543018550E-2,-6.108652451E-4,1.924225539E-1
8.048699010E-1,-3.481931984E-2,-2.382374369E-2,1.997529417E-1
8.068532880E-1,-3.543018550E-2,-3.298672289E-2,2.009746730E-1
8.088670600E-1,-3.726277873E-2,-5.681046844E-2,2.076941878E-1
8.108511390E-1,-3.726277873E-2,-8.063421398E-2,2.156354338E-1
8.128642950E-1,-3.726277873E-2,-9.224065393E-2,2.186897546E-1
8.148489120E-1,-3.787364438E-2,-1.166752651E-1,2.247984111E-1
8.168625310E-1,-4.031710699E-2,-1.386664063E-1,2.315179259E-1
8.188775330E-1,-4.092797264E-2,-1.490511149E-1,2.351831198E-1
8.208606880E-1,-4.092797264E-2,-1.710422635E-1,2.425135076E-1
8.228750750E-1,-4.092797264E-2,-1.795943826E-1,2.443460971E-1
8.248578470E-1,-4.153883830E-2,-1.979203373E-1,2.547308207E-1
8.268716950E-1,-4.092797264E-2,-2.156354338E-1,2.620611787E-1
8.288563900E-1,-4.092797264E-2,-2.217440903E-1,2.638937831E-1
8.308702380E-1,-3.848451003E-2,-2.370157093E-1,2.718350291E-1
8.328542410E-1,-3.970624134E-2,-2.486221492E-1,2.809980214E-1
8.348683970E-1,-3.909537569E-2,-2.553416789E-1,2.797762752E-1
8.368514760E-1,-3.604105115E-2,-2.657263875E-1,2.852740586E-1
8.388674010E-1,-3.604105115E-2,-2.748893499E-1,2.858849466E-1
8.408504800E-1,-3.543018550E-2,-2.767219543E-1,2.901609838E-1
8.428637900E-1,-3.604105115E-2,-2.834414840E-1,2.926044464E-1
8.448474850E-1,-3.359758854E-2,-2.864958048E-1,2.981022298E-1
8.468619480E-1,-3.481931984E-2,-2.889392674E-1,2.981022298E-1
8.488761040E-1,-3.115412779E-2,-2.871066630E-1,2.987131178E-1
8.508591070E-1,-3.359758854E-2,-2.858849466E-1,2.987131178E-1
8.528736480E-1,-3.237585723E-2,-2.846632004E-1,2.987131178E-1
8.548567260E-1,-3.054326214E-2,-2.785545588E-1,2.974913716E-1
8.568717280E-1,-2.748893574E-2,-2.767219543E-1,2.938261926E-1
8.588558080E-1,-2.871066704E-2,-2.657263875E-1,2.907718420E-1
8.608690410E-1,-2.748893574E-2,-2.565633953E-1,2.846632004E-1
8.628524280E-1,-2.748893574E-2,-2.535090744E-1,2.779437006E-1
8.648671990E-1,-2.993239649E-2,-2.431243658E-1,2.706133127E-1
8.668514330E-1,-3.115412779E-2,-2.333505303E-1,2.571742535E-1
8.688652810E-1,-3.115412779E-2,-2.284636050E-1,2.541199327E-1
8.708480520E-1,-3.298672289E-2,-2.186897546E-1,2.431243658E-1
8.728629000E-1,-3.359758854E-2,-2.089159191E-1,2.296853364E-1
8.748763650E-1,-3.543018550E-2,-2.052507252E-1,2.241875380E-1
8.768612900E-1,-3.787364438E-2,-1.918116808E-1,2.107485086E-1
8.788754460E-1,-3.787364438E-2,-1.783726513E-1,1.948660165E-1
8.808592170E-1,-3.726277873E-2,-1.734857261E-1,1.905899495E-1
8.828729890E-1,-3.909537569E-2,-1.582140923E-1,1.747074574E-1
8.848567610E-1,-3.970624134E-2,-1.521054506E-1,1.698205322E-1
8.868702240E-1,-4.031710699E-2,-1.374446750E-1,1.576032341E-1
8.888539180E-1,-4.092797264E-2,-1.233947799E-1,1.459967941E-1
8.908675370E-1,-4.153883830E-2,-1.154535338E-1,1.392772794E-1
8.928518470E-1,-4.031710699E-2,-1.014036313E-1,1.288925707E-1
8.948656950E-1,-4.031710699E-2,-9.346238524E-2,1.178969890E-1
8.968496970E-1,-4.214970022E-2,-8.429940045E-2,1.142318025E-1
8.988650070E-1,-3.848451003E-2,-7.513642311E-2,1.050688252E-1
9.008472400E-1,-3.909537569E-2,-6.414084882E-2,9.712757170E-2
9.028610880E-1,-4.031710699E-2,-5.619960278E-2,9.224065393E-2
9.048749360E-1,-4.031710699E-2,-4.520402849E-2,8.857546002E-2
9.068598620E-1,-4.092797264E-2,-3.420845419E-2,8.063421398E-2
9.088742490E-1,-3.848451003E-2,-2.748893574E-2,8.063421398E-2
9.108567900E-1,-3.909537569E-2,-1.588249579E-2,7.513642311E-2
9.128715610E-1,-3.665191308E-2,-4.886921961E-3,7.269296050E-2
9.148551780E-1,-3.604105115E-2,0.000000000E0,7.086037099E-2
9.168694120E-1,-3.481931984E-2,9.773843922E-3,7.147123665E-2
9.188537220E-1,-3.543018550E-2,1.588249579E-2,7.024950534E-2
9.208666470E-1,-3.543018550E-2,2.260201424E-2,6.902777404E-2
9.228506490E-1,-3.787364438E-2,3.115412779E-2,6.963863969E-2
9.248653440E-1,-3.726277873E-2,3.543018550E-2,6.719517708E-2
9.268484230E-1,-3.970624134E-2,4.153883830E-2,6.780604273E-2
9.288617330E-1,-4.214970022E-2,4.764748737E-2,6.780604273E-2
9.308765040E-1,-4.337143153E-2,4.825835302E-2,6.963863969E-2
9.328604300E-1,-4.337143153E-2,5.253441259E-2,7.208210230E-2
9.348739710E-1,-4.642575979E-2,5.742133409E-2,7.330382615E-2
9.368583570E-1,-4.642575979E-2,5.497787148E-2,7.452555746E-2
9.388725130E-1,-5.070181563E-2,5.742133409E-2,8.002334833E-2
9.408565160E-1,-5.192354694E-2,5.742133409E-2,8.185594529E-2
9.428699800E-1,-5.436700583E-2,5.742133409E-2,8.613199741E-2
9.448533660E-1,-5.253441259E-2,5.436700583E-2,8.979719132E-2
9.468688300E-1,-5.864306539E-2,5.131268129E-2,9.346238524E-2
9.488527560E-1,-5.803219974E-2,4.764748737E-2,9.773843735E-2
9.508645270E-1,-6.108652428E-2,4.276056588E-2,1.050688252E-1
9.528496830E-1,-5.925392732E-2,3.543018550E-2,1.069014147E-1
9.548636080E-1,-6.108652428E-2,2.809980139E-2,1.142318025E-1
9.568469190E-1,-6.414084882E-2,1.160643995E-2,1.185078546E-1
9.588623050E-1,-6.230825558E-2,3.665191587E-3,1.215621829E-1
9.608752300E-1,-5.864306539E-2,-1.404990070E-2,1.288925707E-1
9.628589250E-1,-5.864306539E-2,-2.748893574E-2,1.325577646E-1
9.648734660E-1,-5.803219974E-2,-3.359758854E-2,1.331686229E-1
9.668565450E-1,-5.497787148E-2,-4.886921868E-2,1.331686229E-1
9.688709320E-1,-5.192354694E-2,-6.291911751E-2,1.350012124E-1
9.708547030E-1,-4.948008433E-2,-6.902777404E-2,1.350012124E-1
9.728687820E-1,-5.009094998E-2,-8.552113175E-2,1.356120855E-1
9.748530930E-1,-4.703662544E-2,-1.001819000E-1,1.301143020E-1
9.768654790E-1,-4.398229718E-2,-1.087340117E-1,1.307251602E-1
9.788512500E-1,-4.153883830E-2,-1.227839142E-1,1.288925707E-1
9.808638680E-1,-4.092797264E-2,-1.350012124E-1,1.270599663E-1
9.828478710E-1,-3.665191308E-2,-1.417207420E-1,1.276708394E-1
9.848617190E-1,-3.726277873E-2,-1.478293836E-1,1.246165112E-1
9.868764900E-1,-3.787364438E-2,-1.496619880E-1,1.215621829E-1
9.888598770E-1,-3.604105115E-2,-1.551597714E-1,1.197295859E-1
9.908743410E-1,-3.298672289E-2,-1.533271819E-1,1.209513173E-1
9.928574970E-1,-3.237585723E-2,-1.545489132E-1,1.185078546E-1
9.948724990E-1,-3.237585723E-2,-1.490511149E-1,1.172861308E-1
9.968556550E-1,-3.237585723E-2,-1.411098689E-1,1.178969890E-1
9.988715810E-1,-2.993239649E-2,-1.386664063E-1,1.203404516E-1
1.000854045E0,-2.687807009E-2,-1.276708394E-1,1.221730486E-1
1.002867662E0,-2.443460934E-2,-1.117883399E-1,1.215621829E-1
1.004851895E0,-2.321287990E-2,-1.038470939E-1,1.258382350E-1
1.006865744E0,-1.832595654E-2,-8.796459436E-2,1.282816976E-1
1.008849131E0,-1.954768784E-2,-6.475171447E-2,1.313360333E-1
1.010863594E0,-1.832595654E-2,-5.619960278E-2,1.356120855E-1
1.012846981E0,-1.771509275E-2,-3.359758854E-2,1.386664063E-1
1.014860907E0,-1.588249579E-2,-1.282817032E-2,1.398881376E-1
1.016875293E0,-1.466076635E-2,-3.665191587E-3,1.441642046E-1
1.018859911E0,-1.160643995E-2,1.649336144E-2,1.453859210E-1
1.020873144E0,-1.221730467E-2,2.504547499E-2,1.502728462E-1
1.022856531E0,-1.160643995E-2,4.520402849E-2,1.521054506E-1
1.024870379E0,-1.099557430E-2,5.986479297E-2,1.563815027E-1
1.026855689E0,-9.162978269E-3,6.658431143E-2,1.582140923E-1
1.028869230E0,-9.162978269E-3,7.696902007E-2,1.606575549E-1
1.030851925E0,-8.552113548E-3,8.368854225E-2,1.631010175E-1
1.032866773E0,-7.941247895E-3,8.918632567E-2,1.649336219E-1
1.034849852E0,-6.108652335E-3,9.040805697E-2,1.612684280E-1
1.036864008E0,-6.719517522E-3,8.613199741E-2,1.612684280E-1
1.038849471E0,-3.054326167E-3,8.368854225E-2,1.637118906E-1
1.040862474E0,-2.443460980E-3,7.574728876E-2,1.618792862E-1
1.042876553E0,-1.832595794E-3,6.475171447E-2,1.600466967E-1
1.044859094E0,-1.221730490E-3,5.681046844E-2,1.588249654E-1
1.046874096E0,2.443460980E-3,4.214970022E-2,1.557706445E-1
1.048857253E0,1.221730490E-3,3.481931984E-2,1.563815027E-1
1.050871101E0,3.665191587E-3,1.527163107E-2,1.527163088E-1
1.052855718E0,8.552113548E-3,-7.330383174E-3,1.490511149E-1
1.054870720E0,7.330383174E-3,-1.527163107E-2,1.459967941E-1
1.056853492E0,1.038470957E-2,-3.665191308E-2,1.435533315E-1
1.058868879E0,1.404990070E-2,-5.619960278E-2,1.386664063E-1
1.060851727E0,1.404990070E-2,-6.780604273E-2,1.374446750E-1
1.062865191E0,1.832595654E-2,-8.918632567E-2,1.325577646E-1
1.064848040E0,2.076941915E-2,-1.069014147E-1,1.282816976E-1
1.066862427E0,2.199114859E-2,-1.148426682E-1,1.233947799E-1
1.068877505E0,2.626720630E-2,-1.301143020E-1,1.142318025E-1
1.070860277E0,2.687807009E-2,-1.435533315E-1,1.081231460E-1
1.072875357E0,2.932153270E-2,-1.484402567E-1,1.050688252E-1
1.074859128E0,3.237585723E-2,-1.594358236E-1,9.957103431E-2
1.076873284E0,3.543018550E-2,-1.673770845E-1,9.040805697E-2
1.078858132E0,3.604105115E-2,-1.710422635E-1,9.040805697E-2
1.080871366E0,3.787364438E-2,-1.759291887E-1,8.246681094E-2
1.082854214E0,4.031710699E-2,-1.789835095E-1,8.124507964E-2
1.084869216E0,3.970624134E-2,-1.789835095E-1,8.002334833E-2
1.086851679E0,3.970624134E-2,-1.747074574E-1,7.147123665E-2
1.088866144E0,4.337143153E-2,-1.759291887E-1,7.086037099E-2
1.090849915E0,4.214970022E-2,-1.679879427E-1,6.780604273E-2
1.092863994E0,4.337143153E-2,-1.618792862E-1,6.475171447E-2
1.094848304E0,4.398229718E-2,-1.582140923E-1,6.780604273E-2
1.096862230E0,4.520402849E-2,-1.533271819E-1,6.597344577E-2
1.098877232E0,4.703662544E-2,-1.466076523E-1,6.352998316E-2
1.100859465E0,4.764748737E-2,-1.441642046E-1,6.352998316E-2
1.102874544E0,4.703662544E-2,-1.362229437E-1,6.230825558E-2
1.104857315E0,4.703662544E-2,-1.319468915E-1,5.925392732E-2
1.106872318E0,4.825835302E-2,-1.319468915E-1,6.108652428E-2
1.108856089E0,4.764748737E-2,-1.258382350E-1,5.986479297E-2
1.110868399E0,4.642575979E-2,-1.227839142E-1,5.864306539E-2
1.112853247E0,4.703662544E-2,-1.215621829E-1,5.864306539E-2
1.114867173E0,4.825835302E-2,-1.203404516E-1,5.375614017E-2
1.116851483E0,5.009094998E-2,-1.227839142E-1,5.497787148E-2
1.118865562E0,4.948008433E-2,-1.252273768E-1,5.436700583E-2
1.120848410E0,4.764748737E-2,-1.276708394E-1,5.314527452E-2
1.122863182E0,4.825835302E-2,-1.295034289E-1,5.192354694E-2
1.124878876E0,4.764748737E-2,-1.331686229E-1,5.192354694E-2
1.126860417E0,4.825835302E-2,-1.398881376E-1,4.764748737E-2
1.128875726E0,4.825835302E-2,-1.411098689E-1,4.581489414E-2
1.130858268E0,4.703662544E-2,-1.490511149E-1,4.398229718E-2
1.132872962E0,4.642575979E-2,-1.527163088E-1,4.153883830E-2
1.134857041E0,4.886921868E-2,-1.569923609E-1,4.092797264E-2
1.136870505E0,4.886921868E-2,-1.631010175E-1,3.604105115E-2
1.138855431E0,5.009094998E-2,-1.673770845E-1,3.359758854E-2
1.140867817E0,5.070181563E-2,-1.704314053E-1,3.115412779E-2
1.142851742E0,5.009094998E-2,-1.747074574E-1,2.809980139E-2
1.144864668E0,5.131268129E-2,-1.747074574E-1,2.504547499E-2
1.146849901E0,5.131268129E-2,-1.783726513E-1,2.748893574E-2
1.148863826E0,5.314527452E-2,-1.802052408E-1,2.443460934E-2
1.150848059E0,5.314527452E-2,-1.765400618E-1,2.321287990E-2
1.152861061E0,5.253441259E-2,-1.734857261E-1,2.504547499E-2
1.154875833E0,5.131268129E-2,-1.673770845E-1,2.504547499E-2
1.156859451E0,5.436700583E-2,-1.655444801E-1,2.565634064E-2
1.158874607E0,5.436700583E-2,-1.576032341E-1,2.321287990E-2
1.160857686E0,5.558873713E-2,-1.484402567E-1,2.809980139E-2
1.162871458E0,5.681046844E-2,-1.441642046E-1,2.871066704E-2
1.164856383E0,5.803219974E-2,-1.356120855E-1,2.871066704E-2
1.166869077E0,6.169738993E-2,-1.264491081E-1,3.420845419E-2
1.168853002E0,6.047565863E-2,-1.209513173E-1,3.298672289E-2
1.170866927E0,6.414084882E-2,-1.117883399E-1,3.726277873E-2
1.172851161E0,6.658431143E-2,-1.026253626E-1,3.848451003E-2
1.174864394E0,6.780604273E-2,-9.773843735E-2,3.848451003E-2
1.176848704E0,6.658431143E-2,-9.040805697E-2,4.092797264E-2
1.178863475E0,6.902777404E-2,-8.674286306E-2,4.153883830E-2
1.180877016E0,6.902777404E-2,-8.246681094E-2,4.153883830E-2
1.182860788E0,7.086037099E-2,-8.368854225E-2,4.459316283E-2
1.184874328E0,7.086037099E-2,-8.185594529E-2,4.398229718E-2
1.186859176E0,7.391469181E-2,-8.246681094E-2,4.764748737E-2
1.188872718E0,7.330382615E-2,-8.124507964E-2,4.642575979E-2
1.190855874E0,7.391469181E-2,-8.124507964E-2,4.520402849E-2
1.192871183E0,7.513642311E-2,-8.429940045E-2,4.459316283E-2
1.194853954E0,7.696902007E-2,-8.674286306E-2,4.886921868E-2
1.196868419E0,7.635815442E-2,-8.918632567E-2,4.764748737E-2
1.198853036E0,7.696902007E-2,-9.590584040E-2,5.131268129E-2
1.200865731E0,7.696902007E-2,-1.001819000E-1,5.131268129E-2
1.202849963E0,7.819075137E-2,-1.062905490E-1,5.253441259E-2
1.204864505E0,7.941248268E-2,-1.117883399E-1,5.253441259E-2
1.206847276E0,8.063421398E-2,-1.221730486E-1,5.558873713E-2
1.208861663E0,7.880161703E-2,-1.264491081E-1,5.925392732E-2
1.210875896E0,7.757988572E-2,-1.337794960E-1,5.986479297E-2
1.212858976E0,7.757988572E-2,-1.398881376E-1,6.352998316E-2
1.214873362E0,7.452555746E-2,-1.490511149E-1,6.108652428E-2
1.216857056E0,7.941248268E-2,-1.569923609E-1,6.230825558E-2
1.218872751E0,7.880161703E-2,-1.624901593E-1,6.291911751E-2
1.220855215E0,7.819075137E-2,-1.716531366E-1,5.925392732E-2
1.222869448E0,8.002334833E-2,-1.771509200E-1,5.742133409E-2
1.224852219E0,7.819075137E-2,-1.802052408E-1,5.681046844E-2
1.226866606E0,8.002334833E-2,-1.887573600E-1,5.375614017E-2
1.228850377E0,7.880161703E-2,-1.930334121E-1,5.131268129E-2
1.230865149E0,8.185594529E-2,-1.973094791E-1,4.886921868E-2
1.232848767E0,8.185594529E-2,-2.009746730E-1,4.520402849E-2
1.234862615E0,8.124507964E-2,-2.015855312E-1,4.337143153E-2
1.236877155E0,8.063421398E-2,-2.015855312E-1,4.092797264E-2
1.238860543E0,8.185594529E-2,-2.040289938E-1,3.787364438E-2
1.240874699E0,8.307767659E-2,-2.009746730E-1,3.787364438E-2
1.242858393E0,8.491026610E-2,-1.966986060E-1,3.543018550E-2
1.244873395E0,8.429940045E-2,-1.930334121E-1,3.359758854E-2
1.246856167E0,8.674286306E-2,-1.905899495E-1,3.359758854E-2
1.248870323E0,8.735372871E-2,-1.832595766E-1,3.176499158E-2
1.250853479E0,8.796459436E-2,-1.740965992E-1,2.993239649E-2
1.252867943E0,8.674286306E-2,-1.698205322E-1,3.054326214E-2
1.254851638E0,8.735372871E-2,-1.643227488E-1,3.054326214E-2
1.256865486E0,8.429940045E-2,-1.490511149E-1,2.993239649E-2
1.258850642E0,8.552113175E-2,-1.447750628E-1,3.176499158E-2
1.260863952E0,8.429940045E-2,-1.319468915E-1,3.176499158E-2
1.262847570E0,8.185594529E-2,-1.246165112E-1,2.993239649E-2
1.264861111E0,8.124507964E-2,-1.178969890E-1,3.176499158E-2
1.266876189E0,7.819075137E-2,-1.075122803E-1,3.420845419E-2
1.268859961E0,7.574728876E-2,-9.834930301E-2,3.237585723E-2
1.270872579E0,7.391469181E-2,-9.529497474E-2,3.237585723E-2
1.272857427E0,7.208210230E-2,-8.613199741E-2,3.054326214E-2
1.274871275E0,6.841690838E-2,-7.757988572E-2,3.176499158E-2
1.276855277E0,6.719517708E-2,-7.452555746E-2,3.176499158E-2
1.278869511E0,6.352998316E-2,-6.658431143E-2,3.115412779E-2
1.280852898E0,6.047565863E-2,-6.719517708E-2,2.993239649E-2
1.282867054E0,5.619960278E-2,-5.925392732E-2,2.871066704E-2
1.284850748E0,5.375614017E-2,-5.436700583E-2,2.932153270E-2
1.286864828E0,5.253441259E-2,-4.886921868E-2,2.687807009E-2
1.288849138E0,4.703662544E-2,-4.764748737E-2,2.687807009E-2
1.290862447E0,4.276056588E-2,-4.398229718E-2,2.321287990E-2
1.292876295E0,3.909537569E-2,-4.092797264E-2,2.321287990E-2
1.294860222E0,3.604105115E-2,-3.665191308E-2,2.015855350E-2
1.296874685E0,3.115412779E-2,-3.237585723E-2,1.771509275E-2
1.298858995E0,2.809980139E-2,-2.871066704E-2,1.527163107E-2
1.300872920E0,2.504547499E-2,-2.443460934E-2,1.466076635E-2
1.302856306E0,2.015855350E-2,-1.893682219E-2,1.343903504E-2
1.304866771E0,1.710422710E-2,-1.588249579E-2,1.099557430E-2
1.306853235E0,1.099557430E-2,-9.773843922E-3,8.552113548E-3
1.308868544E0,7.941247895E-3,-4.276056774E-3,9.162978269E-3
1.310851623E0,7.941247895E-3,-6.108652451E-4,7.330383174E-3
1.312865165E0,6.108652451E-4,5.497787148E-3,8.552113548E-3
1.314849474E0,0.000000000E0,8.552113548E-3,7.941247895E-3
1.316863630E0,-1.221730490E-3,1.466076635E-2,9.162978269E-3
1.318878786E0,-3.054326167E-3,2.138028294E-2,1.038470957E-2
1.320861174E0,-7.941247895E-3,2.321287990E-2,7.941247895E-3
1.322875099E0,-1.160643995E-2,3.237585723E-2,9.162978269E-3
1.324859639E0,-1.221730467E-2,3.726277873E-2,9.162978269E-3
1.326873564E0,-1.527163107E-2,3.848451003E-2,9.773843922E-3
1.328856875E0,-1.710422710E-2,4.459316283E-2,9.162978269E-3
1.330871108E0,-1.771509275E-2,4.764748737E-2,1.038470957E-2
1.332854187E0,-1.771509275E-2,4.703662544E-2,1.221730467E-2
1.334869189E0,-2.321287990E-2,4.764748737E-2,1.343903504E-2
1.336851961E0,-2.626720630E-2,4.948008433E-2,1.466076635E-2
1.338867117E0,-2.443460934E-2,4.764748737E-2,1.710422710E-2
1.340849811E0,-2.871066704E-2,4.031710699E-2,1.832595654E-2
1.342864352E0,-3.115412779E-2,4.092797264E-2,2.076941915E-2
1.344847124E0,-2.748893574E-2,3.848451003E-2,2.076941915E-2
1.346862434E0,-3.054326214E-2,2.932153270E-2,2.321287990E-2
1.348876589E0,-3.298672289E-2,2.809980139E-2,2.138028294E-2
1.350859438E0,-3.298672289E-2,1.710422710E-2,2.138028294E-2
1.352874441E0,-3.481931984E-2,8.552113548E-3,2.260201424E-2
1.354858135E0,-3.481931984E-2,2.443460980E-3,2.260201424E-2
1.356872291E0,-3.604105115E-2,-1.038470957E-2,2.382374369E-2
1.358856677E0,-3.726277873E-2,-2.138028294E-2,2.382374369E-2
1.360869526E0,-3.909537569E-2,-2.626720630E-2,2.321287990E-2
1.362852375E0,-3.909537569E-2,-3.726277873E-2,2.687807009E-2
1.364868069E0,-3.665191308E-2,-5.192354694E-2,2.748893574E-2
1.366851148E0,-4.092797264E-2,-5.497787148E-2,2.748893574E-2
1.368864304E0,-3.909537569E-2,-6.902777404E-2,2.932153270E-2
1.370848999E0,-4.092797264E-2,-8.002334833E-2,3.298672289E-2
1.372863463E0,-4.337143153E-2,-8.429940045E-2,3.298672289E-2
1.374877234E0,-4.092797264E-2,-9.468411654E-2,3.420845419E-2
1.376860620E0,-4.459316283E-2,-9.529497474E-2,3.604105115E-2
1.378876393E0,-4.031710699E-2,-1.026253626E-1,3.848451003E-2
1.380859087E0,-4.276056588E-2,-1.050688252E-1,3.604105115E-2
1.382872320E0,-4.337143153E-2,-1.062905490E-1,3.665191308E-2
1.384855783E0,-4.520402849E-2,-1.069014147E-1,3.604105115E-2
1.386870863E0,-4.581489414E-2,-1.075122803E-1,3.726277873E-2
1.388854558E0,-4.886921868E-2,-1.038470939E-1,3.481931984E-2
1.390868713E0,-5.070181563E-2,-9.712757170E-2,3.481931984E-2
1.392852408E0,-5.497787148E-2,-9.040805697E-2,3.726277873E-2
1.394866565E0,-5.681046844E-2,-8.368854225E-2,3.359758854E-2
1.396850490E0,-5.925392732E-2,-7.391469181E-2,3.665191308E-2
1.398865030E0,-6.475171447E-2,-5.986479297E-2,3.481931984E-2
1.400848417E0,-6.658431143E-2,-5.253441259E-2,3.481931984E-2
1.402861958E0,-7.147123665E-2,-3.604105115E-2,3.543018550E-2
1.404876422E0,-7.635815442E-2,-1.954768784E-2,3.481931984E-2
1.406860039E0,-8.246681094E-2,-1.038470957E-2,3.726277873E-2
1.408874580E0,-8.491026610E-2,9.162978269E-3,3.848451003E-2
1.410857660E0,-8.857546002E-2,1.893682219E-2,3.848451003E-2
1.412871508E0,-9.346238524E-2,3.787364438E-2,4.031710699E-2
1.414855510E0,-9.896016866E-2,5.742133409E-2,4.153883830E-2
1.416869050E0,-1.026253626E-1,6.841690838E-2,4.092797264E-2
1.418853669E0,-1.069014147E-1,8.613199741E-2,3.787364438E-2
1.420868440E0,-1.105666086E-1,1.069014147E-1,3.726277873E-2
1.422851749E0,-1.123992056E-1,1.172861308E-1,3.543018550E-2
1.424864982E0,-1.142318025E-1,1.356120855E-1,3.420845419E-2
1.426849369E0,-1.160643995E-1,1.527163088E-1,2.932153270E-2
1.428863449E0,-1.160643995E-1,1.576032341E-1,2.871066704E-2
1.430876682E0,-1.166752651E-1,1.710422635E-1,2.565634064E-2
1.432860684E0,-1.185078546E-1,1.802052408E-1,2.076941915E-2
1.434875224E0,-1.178969890E-1,1.850921661E-1,2.260201424E-2
1.436858842E0,-1.191187203E-1,1.912008226E-1,1.710422710E-2
1.438873306E0,-1.185078546E-1,1.930334121E-1,1.099557430E-2
1.440856385E0,-1.166752651E-1,1.954768747E-1,8.552113548E-3
1.442870925E0,-1.160643995E-1,1.924225539E-1,4.886921961E-3
1.444854851E0,-1.191187203E-1,1.942551434E-1,1.221730490E-3
1.446868469E0,-1.136209369E-1,1.893682331E-1,0.000000000E0
1.448852394E0,-1.136209369E-1,1.850921661E-1,-4.276056774E-3
1.450866627E0,-1.111774743E-1,1.802052408E-1,-4.886921961E-3
1.452849937E0,-1.087340117E-1,1.728748679E-1,-1.099557430E-2
1.454865016E0,-1.062905490E-1,1.637118906E-1,-1.404990070E-2
1.456847788E0,-1.044579595E-1,1.582140923E-1,-1.282817032E-2
1.458862636E0,-1.014036313E-1,1.508837193E-1,-1.649336144E-2
1.460876100E0,-9.712757170E-2,1.392772794E-1,-1.893682219E-2
1.462859487E0,-9.407325089E-2,1.350012124E-1,-2.076941915E-2
1.464870873E0,-9.040805697E-2,1.233947799E-1,-2.076941915E-2
1.466856491E0,-8.796459436E-2,1.130100712E-1,-2.199114859E-2
1.468871802E0,-8.368854225E-2,1.069014147E-1,-2.260201424E-2
1.470854957E0,-8.246681094E-2,9.407325089E-2,-2.015855350E-2
1.472869421E0,-8.002334833E-2,8.552113175E-2,-1.954768784E-2
1.474852731E0,-7.696902007E-2,7.880161703E-2,-2.015855350E-2
1.476867195E0,-7.269296050E-2,7.086037099E-2,-1.649336144E-2
1.478851890E0,-7.086037099E-2,6.475171447E-2,-2.138028294E-2
1.480866045E0,-6.719517708E-2,5.742133409E-2,-2.015855350E-2
1.482848124E0,-6.902777404E-2,4.825835302E-2,-1.954768784E-2
1.484863820E0,-6.597344577E-2,4.581489414E-2,-2.199114859E-2
1.486877129E0,-6.658431143E-2,4.398229718E-2,-2.382374369E-2
1.488861054E0,-6.536258012E-2,3.970624134E-2,-2.809980139E-2
1.490874672E0,-6.352998316E-2,3.726277873E-2,-2.443460934E-2
1.492858982E0,-6.291911751E-2,3.420845419E-2,-2.626720630E-2
1.494872446E0,-6.230825558E-2,3.298672289E-2,-2.748893574E-2
1.496856448E0,-6.230825558E-2,3.115412779E-2,-2.748893574E-2
1.498871527E0,-6.230825558E-2,3.115412779E-2,-2.748893574E-2
1.500853760E0,-6.108652428E-2,3.054326214E-2,-2.626720630E-2
1.502868224E0,-6.169738993E-2,2.993239649E-2,-2.382374369E-2
1.504851303E0,-6.108652428E-2,3.298672289E-2,-2.321287990E-2
1.506866690E0,-6.108652428E-2,3.359758854E-2,-2.199114859E-2
1.508850076E0,-5.864306539E-2,3.543018550E-2,-2.015855350E-2
1.510863003E0,-5.925392732E-2,3.420845419E-2,-1.771509275E-2
1.512878620E0,-5.864306539E-2,3.787364438E-2,-1.527163107E-2
1.514862314E0,-5.803219974E-2,4.214970022E-2,-1.649336144E-2
1.516875624E0,-5.558873713E-2,4.214970022E-2,-1.466076635E-2
1.518860858E0,-5.436700583E-2,3.909537569E-2,-1.466076635E-2
1.520873398E0,-5.558873713E-2,4.398229718E-2,-1.404990070E-2
1.522857092E0,-5.436700583E-2,4.214970022E-2,-1.404990070E-2
1.524871941E0,-5.253441259E-2,3.970624134E-2,-1.160643995E-2
1.526855021E0,-5.131268129E-2,3.970624134E-2,-1.466076635E-2
1.528869407E0,-5.009094998E-2,3.604105115E-2,-1.466076635E-2
1.530853486E0,-5.070181563E-2,3.481931984E-2,-1.343903504E-2
1.532866950E0,-5.009094998E-2,3.359758854E-2,-1.649336144E-2
1.534850337E0,-4.764748737E-2,2.932153270E-2,-1.710422710E-2
1.536864878E0,-4.581489414E-2,2.687807009E-2,-1.588249579E-2
1.538849187E0,-4.703662544E-2,2.260201424E-2,-1.710422710E-2
1.540863266E0,-4.764748737E-2,2.138028294E-2,-1.527163107E-2
1.542876885E0,-4.398229718E-2,1.832595654E-2,-1.588249579E-2
1.544859579E0,-4.520402849E-2,1.466076635E-2,-1.832595654E-2
1.546873735E0,-4.092797264E-2,1.099557430E-2,-1.832595654E-2
1.548858352E0,-4.092797264E-2,7.941247895E-3,-1.954768784E-2
1.550872894E0,-3.848451003E-2,3.054326167E-3,-1.771509275E-2
1.552856511E0,-4.214970022E-2,3.665191587E-3,-1.954768784E-2
1.554870436E0,-3.970624134E-2,-6.108652451E-4,-1.893682219E-2
1.556854131E0,-3.909537569E-2,-1.832595794E-3,-1.893682219E-2
1.558869749E0,-3.848451003E-2,-6.108652451E-4,-1.954768784E-2
1.560851905E0,-3.604105115E-2,-1.832595794E-3,-1.710422710E-2
1.562866061E0,-3.298672289E-2,6.108652451E-4,-1.832595654E-2
1.564849524E0,-3.298672289E-2,6.108652451E-4,-1.588249579E-2
1.566863680E0,-3.054326214E-2,1.221730490E-3,-1.649336144E-2
1.568878068E0,-2.687807009E-2,1.832595794E-3,-1.527163107E-2
1.570861839E0,-2.504547499E-2,1.832595794E-3,-1.282817032E-2
1.572875379E0,-2.321287990E-2,4.886921961E-3,-1.221730467E-2
1.574858766E0,-2.015855350E-2,6.719517522E-3,-1.221730467E-2
1.576873538E0,-2.138028294E-2,8.552113548E-3,-1.404990070E-2
1.578857771E0,-1.710422710E-2,9.162978269E-3,-1.282817032E-2
1.580871081E0,-1.649336144E-2,7.941247895E-3,-1.404990070E-2
1.582855083E0,-1.466076635E-2,9.773843922E-3,-1.282817032E-2
1.584868624E0,-1.282817032E-2,1.160643995E-2,-1.038470957E-2
1.586853165E0,-1.527163107E-2,1.282817032E-2,-1.160643995E-2
1.588867090E0,-1.160643995E-2,1.832595654E-2,-8.552113548E-3
1.590850169E0,-1.038470957E-2,2.076941915E-2,-9.162978269E-3
1.592866172E0,-1.221730467E-2,2.260201424E-2,-9.162978269E-3
1.594848251E0,-9.162978269E-3,2.687807009E-2,-4.886921961E-3
1.596863099E0,-8.552113548E-3,3.420845419E-2,-1.221730490E-3
1.598877485E0,-8.552113548E-3,3.665191308E-2,-1.832595794E-3
1.600860642E0,-7.941247895E-3,4.459316283E-2,3.665191587E-3
1.602874183E0,-6.719517522E-3,4.948008433E-2,6.719517522E-3
1.604857877E0,-9.162978269E-3,5.192354694E-2,9.162978269E-3
1.606872879E0,-9.773843922E-3,6.414084882E-2,1.466076635E-2
1.608856344E0,-8.552113548E-3,6.841690838E-2,2.015855350E-2
1.610870499E0,-1.038470957E-2,8.002334833E-2,2.443460934E-2
1.612853809E0,-1.099557430E-2,9.529497474E-2,2.871066704E-2
1.614867965E0,-1.160643995E-2,1.026253626E-1,3.237585723E-2
1.616851045E0,-1.404990070E-2,1.178969890E-1,3.909537569E-2
1.618866816E0,-1.649336144E-2,1.411098689E-1,4.398229718E-2
1.620849818E0,-1.771509275E-2,1.514945775E-1,4.703662544E-2
1.622863743E0,-1.771509275E-2,1.771509200E-1,5.314527452E-2
1.624876669E0,-2.076941915E-2,2.046398520E-1,5.619960278E-2
1.626861902E0,-2.199114859E-2,2.199114859E-1,6.108652428E-2
1.628875442E0,-2.321287990E-2,2.535090744E-1,6.719517708E-2
1.630858829E0,-2.382374369E-2,2.852740586E-1,7.024950534E-2
1.632872370E0,-2.565634064E-2,3.054326177E-1,7.269296050E-2
1.634857219E0,-2.809980139E-2,3.451388776E-1,7.757988572E-2
1.636870836E0,-2.993239649E-2,3.878994286E-1,8.246681094E-2
1.638856607E0,-2.993239649E-2,4.092797041E-1,8.613199741E-2
1.640869302E0,-2.993239649E-2,4.520402849E-1,9.346238524E-2
1.642852382E0,-3.054326214E-2,4.746423066E-1,9.773843735E-2
1.644866768E0,-2.871066704E-2,5.198463202E-1,1.038470939E-1
1.646850463E0,-2.871066704E-2,5.626068711E-1,1.123992056E-1
1.648864388E0,-2.626720630E-2,5.821545720E-1,1.185078546E-1
1.650848391E0,-2.260201424E-2,6.236934066E-1,1.270599663E-1
1.652862239E0,-2.138028294E-2,6.652322412E-1,1.368338168E-1
1.654876010E0,-1.832595654E-2,6.841690540E-1,1.417207420E-1
1.656860320E0,-1.404990070E-2,7.220427394E-1,1.521054506E-1
1.658874861E0,-7.330383174E-3,7.580837607E-1,1.631010175E-1
1.660858479E0,-5.497787148E-3,7.745771408E-1,1.710422635E-1
1.662871711E0,1.221730490E-3,8.069530129E-1,1.826487035E-1
1.664855098E0,9.773843922E-3,8.319984674E-1,1.973094791E-1
1.666870563E0,1.160643995E-2,8.454375267E-1,2.040289938E-1
1.668853949E0,2.260201424E-2,8.655960560E-1,2.186897546E-1
1.670867490E0,2.504547499E-2,8.857545853E-1,2.272418737E-1
1.672851107E0,3.298672289E-2,8.943067193E-1,2.394591719E-1
1.674865879E0,4.153883830E-2,9.053022861E-1,2.553416789E-1
1.676849574E0,4.703662544E-2,9.101892114E-1,2.602286041E-1
1.678864345E0,5.681046844E-2,9.156870246E-1,2.742784917E-1
1.680877885E0,6.902777404E-2,9.224064946E-1,2.858849466E-1
1.682861042E0,6.963863969E-2,9.254608750E-1,2.926044464E-1
1.684876044E0,8.429940045E-2,9.248499870E-1,3.011565804E-1
1.686858892E0,9.407325089E-2,9.230173826E-1,3.109304011E-1
1.688873048E0,9.773843735E-2,9.224064946E-1,3.145956099E-1
1.690856742E0,1.093448773E-1,9.156870246E-1,3.219259977E-1
1.692871207E0,1.197295859E-1,9.126327038E-1,3.249803185E-1
1.694855132E0,1.270599663E-1,9.095783234E-1,3.286454976E-1
1.696868673E0,1.368338168E-1,9.010262489E-1,3.286454976E-1
1.698853290E0,1.478293836E-1,8.906415105E-1,3.316998184E-1
1.700867216E0,1.557706445E-1,8.851437569E-1,3.292563558E-1
1.702850526E0,1.649336219E-1,8.729264140E-1,3.310889602E-1
1.704860758E0,1.685988009E-1,8.692612648E-1,3.329215646E-1
1.706877684E0,1.820378453E-1,8.552113175E-1,3.347541690E-1
1.708862533E0,1.942551434E-1,8.429940343E-1,3.371976018E-1
1.710876073E0,1.991420686E-1,8.362745047E-1,3.390302062E-1
1.712860075E0,2.125810981E-1,8.234463334E-1,3.426954150E-1
1.714874616E0,2.229658216E-1,8.112290502E-1,3.445279896E-1
1.716858234E0,2.327396572E-1,8.026769161E-1,3.494149148E-1
1.718872390E0,2.443460971E-1,7.947356701E-1,3.573561609E-1
1.720856392E0,2.608394623E-1,7.819074988E-1,3.604104817E-1
1.722869932E0,2.645046413E-1,7.782423496E-1,3.634648323E-1
1.724853397E0,2.791654170E-1,7.690793276E-1,3.665191531E-1
1.726867476E0,2.932153046E-1,7.574729323E-1,3.762930036E-1
1.728851478E0,3.011565804E-1,7.550294399E-1,3.811798990E-1
1.730865018E0,3.182607889E-1,7.483099103E-1,3.866777122E-1
1.732848483E0,3.316998184E-1,7.446447611E-1,3.982841372E-1
1.734863793E0,3.408628106E-1,7.409795523E-1,4.025602043E-1
1.736877025E0,3.536909819E-1,7.348709106E-1,4.117231667E-1
1.738862566E0,3.628539443E-1,7.342600226E-1,4.166100919E-1
1.740875184E0,3.824016452E-1,7.281513810E-1,4.288274050E-1
1.742858878E0,3.976732790E-1,7.238753438E-1,4.373795092E-1
1.744872111E0,4.043927789E-1,7.208209634E-1,4.428772926E-1
1.746856806E0,4.233296216E-1,7.165449262E-1,4.532620013E-1
1.748871193E0,4.416555762E-1,7.092145681E-1,4.593706727E-1
1.750853657E0,4.508185387E-1,7.061602473E-1,4.605923891E-1
1.752868736E0,4.691445231E-1,6.976081133E-1,4.636467099E-1
1.754851815E0,4.917465150E-1,6.890559793E-1,4.612032473E-1
1.756866279E0,5.021312237E-1,6.872233748E-1,4.605923891E-1
1.758851204E0,5.222898126E-1,6.780604124E-1,4.557054639E-1
1.760863822E0,5.393940210E-1,6.731734872E-1,4.447098970E-1
1.762878362E0,5.479460955E-1,6.658431292E-1,4.404338300E-1
1.764862364E0,5.668829679E-1,6.646214128E-1,4.288274050E-1
1.766875829E0,5.858197808E-1,6.609562039E-1,4.184426963E-1
1.768859908E0,5.943718553E-1,6.603453159E-1,4.111123085E-1
1.770874602E0,6.133087277E-1,6.585127115E-1,3.958406746E-1
1.772857988E0,6.224716902E-1,6.609562039E-1,3.909537494E-1
1.774871607E0,6.401867867E-1,6.640105247E-1,3.793473244E-1
1.776855224E0,6.591235995E-1,6.713408828E-1,3.659082949E-1
1.778870072E0,6.682865620E-1,6.756169796E-1,3.597996235E-1
1.780853767E0,6.878342628E-1,6.872233748E-1,3.518583775E-1
1.782867308E0,7.061602473E-1,7.043276429E-1,3.433062732E-1
1.784850002E0,7.159340382E-1,7.116580009E-1,3.384193480E-1
1.786864774E0,7.385360599E-1,7.293730974E-1,3.353650272E-1
1.788848853E0,7.599163651E-1,7.525860071E-1,3.310889602E-1
1.790862702E0,7.751879692E-1,7.654141784E-1,3.286454976E-1
1.792877396E0,7.971791625E-1,7.892379165E-1,3.262020350E-1
1.794860860E0,8.216137290E-1,8.148942590E-1,3.286454976E-1
1.796874631E0,8.368853927E-1,8.271115422E-1,3.237585723E-1
1.798859326E0,8.600982428E-1,8.521569967E-1,3.268128932E-1
1.800872251E0,8.845328689E-1,8.790351152E-1,3.292563558E-1
1.802856253E0,8.973610401E-1,8.906415105E-1,3.298672438E-1
1.804871025E0,9.211847782E-1,9.126327038E-1,3.329215646E-1
1.806854104E0,9.370672703E-1,9.205739498E-1,3.353650272E-1
1.808868568E0,9.627236128E-1,9.340129495E-1,3.390302062E-1
1.810852185E0,9.877691269E-1,9.456194043E-1,3.433062732E-1
1.812866341E0,1.000597239E0,9.511171579E-1,3.469714522E-1
1.814849729E0,1.026253581E0,9.547823668E-1,3.500257730E-1
1.816863885E0,1.054964304E0,9.541715384E-1,3.561344445E-1
1.818878656E0,1.065959811E0,9.560040832E-1,3.591887653E-1
1.820861812E0,1.094670534E0,9.474520087E-1,3.640756905E-1
1.822875661E0,1.122159481E0,9.346238375E-1,3.671300113E-1
1.824858971E0,1.136820197E0,9.279043078E-1,3.707951903E-1
1.826874357E0,1.161865711E0,9.053022861E-1,3.756821156E-1
1.828857744E0,1.192408919E0,8.814785480E-1,3.811798990E-1
1.830871284E0,1.205237150E0,8.686503768E-1,3.848451078E-1
1.832854980E0,1.232726097E0,8.362745047E-1,3.872885704E-1
1.834869136E0,1.246165156E0,8.191702962E-1,3.909537494E-1
1.836853830E0,1.273043156E0,7.861835957E-1,3.958406746E-1
1.838867909E0,1.299921274E0,7.501425147E-1,3.988949955E-1
1.840851296E0,1.315803766E0,7.263187766E-1,4.025602043E-1
1.842864529E0,1.339627504E0,6.872233748E-1,4.025602043E-1
1.844879608E0,1.362840414E0,6.462954283E-1,4.031710625E-1
1.846862995E0,1.373225093E0,6.267477274E-1,4.043927789E-1
1.848877459E0,1.394605398E0,5.864306092E-1,4.068362415E-1
1.850860615E0,1.416596532E0,5.479460955E-1,4.056145251E-1
1.852875309E0,1.426370382E0,5.332853794E-1,4.062253833E-1
1.854858158E0,1.448972344E0,5.033529401E-1,4.050036669E-1
1.856872853E0,1.470352650E0,4.795292318E-1,4.050036669E-1
1.858856932E0,1.484402537E0,4.667010605E-1,4.025602043E-1
1.860870395E0,1.505782843E0,4.495968223E-1,3.982841372E-1
1.862854090E0,1.531439185E0,4.318817258E-1,4.001167417E-1
1.864866093E0,1.543656468E0,4.263839424E-1,3.976732790E-1
1.866852018E0,1.566869378E0,4.184426963E-1,3.970624208E-1
1.868866481E0,1.576643229E0,4.159992337E-1,3.940080702E-1
1.870849483E0,1.602910399E0,4.147774875E-1,3.940080702E-1
1.872864025E0,1.629177570E0,4.117231667E-1,3.927863538E-1
1.874877796E0,1.636507988E0,4.129449129E-1,3.921754956E-1
1.876861567E0,1.660331726E0,4.184426963E-1,3.915646076E-1
1.878876569E0,1.682322860E0,4.227187634E-1,3.946189582E-1
1.880859649E0,1.693929315E0,4.239404798E-1,3.940080702E-1
1.882873882E0,1.714698792E0,4.324925840E-1,3.940080702E-1
1.884858499E0,1.737911582E0,4.392121136E-1,3.964515328E-1
1.886871424E0,1.746463776E0,4.447098970E-1,3.940080702E-1
1.888855042E0,1.767843962E0,4.520402849E-1,3.946189582E-1
1.890869199E0,1.791056871E0,4.605923891E-1,3.933972120E-1
1.892852278E0,1.802663326E0,4.618141353E-1,3.940080702E-1
1.894867357E0,1.824654460E0,4.697553813E-1,3.927863538E-1
1.896850820E0,1.846645594E0,4.752531648E-1,3.903428912E-1
1.898865823E0,1.854586840E0,4.770857692E-1,3.921754956E-1
1.900848594E0,1.875356317E0,4.764748812E-1,3.903428912E-1
1.902863366E0,1.882075787E0,4.740314186E-1,3.897320330E-1
1.904876675E0,1.902234316E0,4.715879560E-1,3.903428912E-1
1.906860986E0,1.916895151E0,4.685336351E-1,3.927863538E-1
1.908875065E0,1.925447226E0,4.636467099E-1,3.933972120E-1
1.910857605E0,1.940718889E0,4.587597847E-1,3.958406746E-1
1.912873223E0,1.954768777E0,4.471533597E-1,3.988949955E-1
1.914856687E0,1.963320851E0,4.434881806E-1,3.995058835E-1
1.916870151E0,1.976759911E0,4.361577928E-1,4.050036669E-1
1.918855076E0,1.986533761E0,4.263839424E-1,4.080579877E-1
1.920868309E0,1.992642403E0,4.214970171E-1,4.105014503E-1
1.922851696E0,2.003638029E0,4.111123085E-1,4.166100919E-1
1.924866544E0,2.015855312E0,4.013384581E-1,4.221078753E-1
1.926849623E0,2.020742178E0,3.976732790E-1,4.257730842E-1
1.928863472E0,2.031737804E0,3.878994286E-1,4.337143302E-1
1.930877936E0,2.045787811E0,3.799581826E-1,4.386012554E-1
1.932861630E0,2.054950714E0,3.762930036E-1,4.428772926E-1
1.934875709E0,2.067167997E0,3.695734739E-1,4.483750761E-1
1.936858788E0,2.072665691E0,3.695734739E-1,4.502076805E-1
1.938873945E0,2.089770079E0,3.616322279E-1,4.520402849E-1
1.940856947E0,2.103209019E0,3.573561609E-1,4.605923891E-1
1.942871103E0,2.111150265E0,3.567453027E-1,4.636467099E-1
1.944853874E0,2.123978376E0,3.506366611E-1,4.734205604E-1
1.946869646E0,2.139250040E0,3.494149148E-1,4.789183438E-1
1.948852956E0,2.143526077E0,3.481931984E-1,4.838052690E-1
1.950866881E0,2.154521704E0,3.457497358E-1,4.880813360E-1
1.952850806E0,2.163073778E0,3.414736688E-1,4.948008358E-1
1.954864424E0,2.167960644E0,3.359758854E-1,4.972442985E-1
1.956878504E0,2.178956270E0,3.335324228E-1,5.027421117E-1
1.958862890E0,2.187508345E0,3.243694305E-1,5.076290369E-1
1.960877354E0,2.191784382E0,3.194825351E-1,5.106833577E-1
1.962859740E0,2.202169180E0,3.133738637E-1,5.149593949E-1
1.964874820E0,2.214386463E0,3.023782969E-1,5.125159621E-1
1.966859130E0,2.218662500E0,2.981022298E-1,5.125159621E-1
1.968872055E0,2.226603746E0,2.901609838E-1,5.112941861E-1
1.970855826E0,2.235155821E0,2.871066630E-1,5.106833577E-1
1.972869675E0,2.241264582E0,2.755002379E-1,5.064072609E-1
1.974852985E0,2.250427485E0,2.681698501E-1,5.057964325E-1
1.976868064E0,2.255925417E0,2.620611787E-1,5.064072609E-1
1.978852681E0,2.264477491E0,2.541199327E-1,5.033529401E-1
1.980865915E0,2.269975185E0,2.474004179E-1,5.027421117E-1
1.982849071E0,2.276083946E0,2.449569702E-1,5.027421117E-1
1.984863458E0,2.282803535E0,2.345722616E-1,5.039638281E-1
1.986877921E0,2.291966438E0,2.284636050E-1,5.039638281E-1
1.988862232E0,2.297464132E0,2.223549485E-1,5.057964325E-1
1.990874926E0,2.309681416E0,2.150245607E-1,5.076290369E-1
1.992859774E0,2.320677042E0,2.021963894E-1,5.106833577E-1
1.994873623E0,2.327396631E0,1.948660165E-1,5.100724697E-1
1.996856472E0,2.339003086E0,1.850921661E-1,5.112941861E-1
1.998871781E0,2.342668295E0,1.740965992E-1,5.137376785E-1
2.000854322E0,2.352442026E0,1.679879427E-1,5.161811113E-1
2.002868785E0,2.359161615E0,1.551597714E-1,5.155702829E-1
2.004853327E0,2.362215996E0,1.453859210E-1,5.155702829E-1
2.006866637E0,2.368935347E0,1.319468915E-1,5.143485069E-1
2.008850869E0,2.373211384E0,1.203404516E-1,5.119050741E-1
2.010864410E0,2.376265764E0,1.123992056E-1,5.106833577E-1
2.012878644E0,2.381763697E0,1.038470939E-1,5.082398653E-1
2.014862261E0,2.389093876E0,9.590584040E-2,5.064072609E-1
2.016875801E0,2.391537428E0,9.346238524E-2,5.064072609E-1
2.018860727E0,2.393369913E0,9.529497474E-2,5.039638281E-1
2.020875268E0,2.398257017E0,9.712757170E-2,4.984660447E-1
2.022857732E0,2.401922226E0,1.014036313E-1,4.966334403E-1
2.024868503E0,2.401922226E0,1.050688252E-1,4.966334403E-1
2.026855582E0,2.403143883E0,1.087340117E-1,4.966334403E-1
2.028870045E0,2.401922226E0,1.111774743E-1,4.972442985E-1
2.030853048E0,2.400700331E0,1.178969890E-1,5.002986193E-1
2.032867896E0,2.400089502E0,1.197295859E-1,5.039638281E-1
2.034850668E0,2.398867846E0,1.215621829E-1,5.051855445E-1
2.036865977E0,2.396424294E0,1.276708394E-1,5.082398653E-1
2.038850057E0,2.396424294E0,1.295034289E-1,5.137376785E-1
2.040862905E0,2.391537428E0,1.356120855E-1,5.198463202E-1
2.042877138E0,2.390315771E0,1.429424733E-1,5.229006410E-1
2.044861371E0,2.390315771E0,1.429424733E-1,5.253441334E-1
2.046875605E0,2.387261391E0,1.459967941E-1,5.320636034E-1
2.048858684E0,2.385428667E0,1.472185254E-1,5.369505286E-1
2.050873455E0,2.387261391E0,1.466076523E-1,5.387831330E-1
2.052856842E0,2.388483047E0,1.429424733E-1,5.418374538E-1
2.054870998E0,2.389093876E0,1.435533315E-1,5.455026627E-1
2.056854308E0,2.388483047E0,1.417207420E-1,5.442809463E-1
2.058869464E0,2.385428667E0,1.386664063E-1,5.461135507E-1
2.060852235E0,2.386650562E0,1.301143020E-1,5.442809463E-1
2.062866007E0,2.386039734E0,1.276708394E-1,5.430592299E-1
2.064849394E0,2.383596182E0,1.185078546E-1,5.406157374E-1
2.066865165E0,2.384207010E0,1.117883399E-1,5.418374538E-1
2.068848244E0,2.384207010E0,1.044579595E-1,5.345070958E-1
2.070861786E0,2.384817839E0,9.529497474E-2,5.283984542E-1
2.072876172E0,2.386650562E0,9.346238524E-2,5.241223574E-1
2.074860482E0,2.380541801E0,8.674286306E-2,5.174028873E-1
2.076875022E0,2.379930973E0,8.307767659E-2,5.125159621E-1
2.078858641E0,2.379320145E0,8.307767659E-2,5.082398653E-1
2.080871951E0,2.373822451E0,8.491026610E-2,5.002986193E-1
2.082855029E0,2.369546175E0,8.735372871E-2,4.941899776E-1
2.084870724E0,2.367713690E0,9.224065393E-2,4.923573732E-1
2.086853726E0,2.363437653E0,9.896016866E-2,4.850270152E-1
2.088867575E0,2.357328892E0,1.123992056E-1,4.770857692E-1
2.090851269E0,2.353663683E0,1.197295859E-1,4.721988440E-1
2.092865194E0,2.348165989E0,1.380555481E-1,4.636467099E-1
2.094848581E0,2.342668295E0,1.612684280E-1,4.593706727E-1
2.096863584E0,2.342057467E0,1.747074574E-1,4.508185387E-1
2.098878432E0,2.336559534E0,2.046398520E-1,4.398229718E-1
2.100861126E0,2.334727049E0,2.174680233E-1,4.361577928E-1
2.102875359E0,2.329229116E0,2.535090744E-1,4.282165468E-1
2.104857747E0,2.322509766E0,2.913827300E-1,4.196644127E-1
2.106872210E0,2.320066214E0,3.097086847E-1,4.153883755E-1
2.108857135E0,2.313346624E0,3.512475193E-1,4.062253833E-1
2.110871368E0,2.307848930E0,3.946189582E-1,4.019493461E-1
2.112854679E0,2.303572893E0,4.202753007E-1,3.988949955E-1
2.114869142E0,2.293798923E0,4.624249935E-1,3.933972120E-1
2.116852529E0,2.288301229E0,5.070181489E-1,3.878994286E-1
2.118866685E0,2.283414364E0,5.296201706E-1,3.872885704E-1
2.120850073E0,2.274862289E0,5.699372888E-1,3.860668242E-1
2.122863921E0,2.271807909E0,6.072000265E-1,3.872885704E-1
2.124879000E0,2.267531872E0,6.224716902E-1,3.885102868E-1
2.126861848E0,2.261423111E0,6.499606371E-1,3.872885704E-1
2.128876235E0,2.255314589E0,6.701191664E-1,3.891211748E-1
2.130859622E0,2.253481865E0,6.798930168E-1,3.909537494E-1
2.132873855E0,2.245540619E0,6.957755089E-1,3.927863538E-1
2.134857241E0,2.243708134E0,7.031059265E-1,3.927863538E-1
2.136871937E0,2.233323336E0,7.116580009E-1,3.927863538E-1
2.138855939E0,2.221716881E0,7.208209634E-1,3.970624208E-1
2.140869172E0,2.215608358E0,7.226535678E-1,3.952298164E-1
2.142852327E0,2.201558352E0,7.281513810E-1,3.952298164E-1
2.144867638E0,2.187508345E0,7.287622094E-1,3.976732790E-1
2.146851717E0,2.179567099E0,7.287622094E-1,3.964515328E-1
2.148865873E0,2.166128159E0,7.281513810E-1,3.970624208E-1
2.150847644E0,2.152078152E0,7.281513810E-1,4.001167417E-1
2.152863031E0,2.146580458E0,7.238753438E-1,3.988949955E-1
2.154877803E0,2.134363174E0,7.220427394E-1,4.007275999E-1
2.156860343E0,2.122145891E0,7.153232098E-1,3.988949955E-1
2.158875422E0,2.114815474E0,7.165449262E-1,4.013384581E-1
2.160858809E0,2.098932981E0,7.061602473E-1,4.056145251E-1
2.162872581E0,2.090991735E0,6.988298297E-1,4.074471295E-1
2.164856968E0,2.087326527E0,6.963863969E-1,4.086688459E-1
2.166870816E0,2.073887587E0,6.914994717E-1,4.123340547E-1
2.168854433E0,2.068389654E0,6.878342628E-1,4.111123085E-1
2.170868898E0,2.056783199E0,6.896668673E-1,4.092797041E-1
2.172852361E0,2.048231125E0,6.945537925E-1,4.080579877E-1
2.174866133E0,2.043344259E0,6.994407177E-1,4.050036669E-1
2.176849596E0,2.032959461E0,7.165449262E-1,3.988949955E-1
2.178864676E0,2.029294252E0,7.287622094E-1,3.940080702E-1
2.180878217E0,2.021353006E0,7.367035151E-1,3.872885704E-1
2.182861296E0,2.013411760E0,7.507534027E-1,3.799581826E-1
2.184876067E0,2.007914066E0,7.623597980E-1,3.677408695E-1
2.186859070E0,2.006081581E0,7.684684992E-1,3.665191531E-1
2.188874149E0,1.998751044E0,7.757988572E-1,3.610213697E-1
2.190857305E0,1.990809798E0,7.849618196E-1,3.530801237E-1
2.192871076E0,1.988977194E0,7.861835957E-1,3.530801237E-1
2.194855387E0,1.981035948E0,7.867944241E-1,3.488040566E-1
2.196869312E0,1.976759911E0,7.867944241E-1,3.475823104E-1
2.198853544E0,1.964542627E0,7.880161405E-1,3.488040566E-1
2.200867777E0,1.956601381E0,7.904596329E-1,3.494149148E-1
2.202850857E0,1.950492740E0,7.898487449E-1,3.475823104E-1
2.204865551E0,1.942551494E0,7.898487449E-1,3.451388776E-1
2.206848707E0,1.934610248E0,7.941248417E-1,3.488040566E-1
2.208862863E0,1.930334210E0,7.941248417E-1,3.481931984E-1
2.210877251E0,1.917505980E0,8.026769161E-1,3.481931984E-1
2.212860714E0,1.904677868E0,8.142833710E-1,3.463605940E-1
2.214874486E0,1.897347450E0,8.210029006E-1,3.433062732E-1
2.216858488E0,1.885130167E0,8.356636763E-1,3.414736688E-1
2.218873644E0,1.872912884E0,8.478809595E-1,3.371976018E-1
2.220856646E0,1.865582466E0,8.588765264E-1,3.359758854E-1
2.222870802E0,1.855808616E0,8.741481900E-1,3.316998184E-1
2.224853343E0,1.844812989E0,8.949176073E-1,3.274237812E-1
2.226868729E0,1.838093519E0,9.083566070E-1,3.213151097E-1
2.228852040E0,1.828319669E0,9.303477407E-1,3.176499307E-1
2.230865273E0,1.824654460E0,9.431759119E-1,3.139847219E-1
2.232850275E0,1.815491557E0,9.694431424E-1,3.109304011E-1
2.234863815E0,1.803274155E0,9.981538057E-1,3.060434759E-1
2.236877357E0,1.800830722E0,1.012814522E0,3.029891551E-1
2.238862820E0,1.789224267E0,1.042136073E0,2.999348342E-1
2.240875822E0,1.777617812E0,1.073901057E0,2.993239760E-1
2.242858901E0,1.776396155E0,1.087340117E0,2.999348342E-1
2.244873058E0,1.764789701E0,1.119105101E0,2.981022298E-1
2.246857675E0,1.752572417E0,1.146594048E0,2.999348342E-1
2.248871216E0,1.747685432E0,1.161865711E0,2.987131178E-1
2.250854603E0,1.734246373E0,1.186911225E0,2.974913716E-1
2.252869375E0,1.721418262E0,1.212567568E0,2.944370508E-1
2.254852454E0,1.715309620E0,1.224173903E0,2.956587672E-1
2.256866917E0,1.703703165E0,1.247386813E0,2.950479090E-1
2.258851458E0,1.687209845E0,1.268767118E0,2.938261926E-1
2.260864461E0,1.678046823E0,1.274264932E0,2.956587672E-1
2.262879155E0,1.663996935E0,1.291980028E0,2.956587672E-1
2.264861695E0,1.654223084E0,1.296866894E0,2.968805134E-1
2.266876467E0,1.638951421E0,1.304808140E0,2.981022298E-1
2.268861008E0,1.627344966E0,1.310916781E0,3.042109013E-1
2.270874241E0,1.619403720E0,1.313360333E0,3.054326177E-1
2.272858012E0,1.607186437E0,1.313971162E0,3.103195429E-1
2.274872476E0,1.596190929E0,1.310916781E0,3.152064681E-1
2.276856402E0,1.590082288E0,1.308473349E0,3.188716471E-1
2.278871481E0,1.577254057E0,1.299310327E0,3.231477141E-1
2.280854021E0,1.566869378E0,1.287093043E0,3.323107064E-1
2.282868177E0,1.560760736E0,1.277930140E0,3.329215646E-1
2.284852410E0,1.552208543E0,1.257771492E0,3.365867436E-1
2.286865336E0,1.539991260E0,1.232115149E0,3.433062732E-1
2.288849953E0,1.535715222E0,1.217454433E0,3.445279896E-1
2.290863494E0,1.525941372E0,1.183856845E0,3.488040566E-1
2.292877957E0,1.519832730E0,1.145372391E0,3.512475193E-1
2.294861730E0,1.516778350E0,1.126435518E0,3.530801237E-1
2.296875578E0,1.514945865E0,1.081842303E0,3.555235863E-1
2.298860118E0,1.514334917E0,1.062294602E0,3.561344445E-1
2.300873428E0,1.518610954E0,1.015868902E0,3.561344445E-1
2.302857354E0,1.520443559E0,9.712757468E-1,3.549126983E-1
2.304870587E0,1.520443559E0,9.511171579E-1,3.518583775E-1
2.306855512E0,1.521054506E0,9.108000994E-1,3.481931984E-1
2.308869437E0,1.518000126E0,8.753699064E-1,3.402519524E-1
2.310851901E0,1.514334917E0,8.576548100E-1,3.384193480E-1
2.312867288E0,1.516167521E0,8.258898258E-1,3.298672438E-1
2.314850059E0,1.519221902E0,7.959573865E-1,3.207042515E-1
2.316865061E0,1.524719596E0,7.831292152E-1,3.170390725E-1
2.318879603E0,1.530828357E0,7.635815740E-1,3.090978265E-1
2.320862374E0,1.536936998E0,7.464773059E-1,3.023782969E-1
2.322877145E0,1.539991260E0,7.434229851E-1,2.974913716E-1
2.324861070E0,1.544878244E0,7.379252315E-1,2.895501256E-1
2.326874073E0,1.550375938E0,7.342600226E-1,2.883284092E-1
2.328857998E0,1.558928132E0,7.342600226E-1,2.840523422E-1
2.330871923E0,1.563204169E0,7.422012687E-1,2.779437006E-1
2.332855618E0,1.569923639E0,7.434229851E-1,2.791654170E-1
2.334870082E0,1.579086661E0,7.519751191E-1,2.779437006E-1
2.336853469E0,1.587638736E0,7.635815740E-1,2.761110961E-1
2.338868548E0,1.590082288E0,7.696902156E-1,2.773328125E-1
2.340851627E0,1.598634362E0,7.788531780E-1,2.785545588E-1
2.342866091E0,1.603521228E0,7.916813493E-1,2.840523422E-1
2.344848247E0,1.607186437E0,7.984008789E-1,2.852740586E-1
2.346862634E0,1.612073421E0,8.112290502E-1,2.895501256E-1
2.348877174E0,1.616960287E0,8.191702962E-1,2.926044464E-1
2.350861792E0,1.621847272E0,8.222246170E-1,2.956587672E-1
2.352875564E0,1.627955914E0,8.295549750E-1,2.981022298E-1
2.354859027E0,1.636507988E0,8.295549750E-1,3.011565804E-1
2.356873722E0,1.639562368E0,8.271115422E-1,3.011565804E-1
2.358857724E0,1.649336219E0,8.203920126E-1,3.036000133E-1
2.360870034E0,1.653001308E0,8.161159754E-1,3.054326177E-1
2.362855036E0,1.662775159E0,7.984008789E-1,2.999348342E-1
2.364869192E0,1.671327353E0,7.794640660E-1,3.011565804E-1
2.366852502E0,1.673159957E0,7.660250068E-1,2.974913716E-1
2.368866428E0,1.682322860E0,7.354817390E-1,2.938261926E-1
2.370850430E0,1.686598897E0,7.018841505E-1,2.877175212E-1
2.372863663E0,1.692096710E0,6.805039048E-1,2.846632004E-1
2.374878126E0,1.698205352E0,6.420193911E-1,2.803871334E-1
2.376862129E0,1.703703165E0,5.949827433E-1,2.724458873E-1
2.378877516E0,1.707368374E0,5.699372888E-1,2.687807083E-1
2.380860518E0,1.712866187E0,5.167919993E-1,2.638937831E-1
2.382874059E0,1.716531396E0,4.587597847E-1,2.553416789E-1
2.384857523E0,1.718363881E0,4.300491214E-1,2.486221492E-1
2.386872602E0,1.722029090E0,3.665191531E-1,2.419026345E-1
2.388855681E0,1.729359508E0,3.005456924E-1,2.364048511E-1
2.390869221E0,1.730581284E0,2.675589919E-1,2.327396572E-1
2.392854071E0,1.733024716E0,2.046398520E-1,2.235766798E-1
2.394867380E0,1.735468149E0,1.685988009E-1,2.205223590E-1
2.396851690E0,1.736689925E0,1.056796908E-1,2.144137025E-1
2.398866077E0,1.735468149E0,4.459316283E-2,2.034181207E-1
2.400848618E0,1.736078978E0,1.343903504E-2,2.009746730E-1
2.402863620E0,1.733635545E0,-4.459316283E-2,1.869247705E-1
2.404877237E0,1.734857321E0,-1.044579595E-1,1.789835095E-1
2.406861239E0,1.729970336E0,-1.307251602E-1,1.740965992E-1
2.408875319E0,1.728137732E0,-1.820378453E-1,1.655444801E-1
2.410858706E0,1.722640038E0,-2.309070677E-1,1.545489132E-1
2.412872939E0,1.719585657E0,-2.498438805E-1,1.453859210E-1
2.414856556E0,1.715309620E0,-2.907718420E-1,1.350012124E-1
2.416871020E0,1.709811807E0,-3.231477141E-1,1.246165112E-1
2.418853869E0,1.708590150E0,-3.378084898E-1,1.209513173E-1
2.420868871E0,1.703703165E0,-3.585779071E-1,1.038470939E-1
2.422852642E0,1.700037956E0,-3.787364662E-1,9.224065393E-2
2.424863644E0,1.698205352E0,-3.824016452E-1,8.735372871E-2
2.426881186E0,1.693318486E0,-3.885102868E-1,7.513642311E-2
2.428864572E0,1.693929315E0,-3.933972120E-1,6.902777404E-2
2.430878420E0,1.690875053E0,-3.897320330E-1,6.169738993E-2
2.432862115E0,1.687820673E0,-3.836233616E-1,4.948008433E-2
2.434875964E0,1.686598897E0,-3.793473244E-1,4.398229718E-2
2.436860350E0,1.684766293E0,-3.695734739E-1,3.604105115E-2
2.438874814E0,1.681712031E0,-3.585779071E-1,2.565634064E-2
2.440857585E0,1.680490255E0,-3.536909819E-1,2.076941915E-2
2.442871665E0,1.674992561E0,-3.378084898E-1,1.466076635E-2
2.444856359E0,1.665829539E0,-3.274237812E-1,9.162978269E-3
2.446869900E0,1.662775159E0,-3.182607889E-1,3.054326167E-3
2.448854133E0,1.656666517E0,-3.090978265E-1,-6.108652451E-4
2.450867443E0,1.646892667E0,-2.962696552E-1,-5.497787148E-3
2.452850522E0,1.643227458E0,-2.895501256E-1,-8.552113548E-3
2.454864986E0,1.634675384E0,-2.816088796E-1,-8.552113548E-3
2.456879449E0,1.621847272E0,-2.718350291E-1,-1.282817032E-2
2.458864068E0,1.614516854E0,-2.712241709E-1,-1.282817032E-2
2.460876993E0,1.601688623E0,-2.651155293E-1,-1.649336144E-2
2.462860610E0,1.594358325E0,-2.638937831E-1,-1.771509275E-2
2.464874151E0,1.579697490E0,-2.632829249E-1,-1.832595654E-2
2.466859077E0,1.562593341E0,-2.626720667E-1,-1.893682219E-2
2.468873310E0,1.555873752E0,-2.651155293E-1,-2.015855350E-2
2.470855773E0,1.536326051E0,-2.693915665E-1,-2.076941915E-2
2.472870237E0,1.518000126E0,-2.755002379E-1,-2.076941915E-2
2.474853855E0,1.508226275E0,-2.779437006E-1,-2.015855350E-2
2.476868626E0,1.489289522E0,-2.883284092E-1,-2.199114859E-2
2.478853628E0,1.469130874E0,-2.974913716E-1,-2.076941915E-2
2.480866246E0,1.454470158E0,-3.023782969E-1,-2.076941915E-2
2.482850171E0,1.433700681E0,-3.170390725E-1,-2.138028294E-2
2.484864635E0,1.409876943E0,-3.304781020E-1,-2.138028294E-2
2.486878483E0,1.396438003E0,-3.402519524E-1,-2.260201424E-2
2.488861639E0,1.369559884E0,-3.488040566E-1,-2.321287990E-2
2.490875795E0,1.356120825E0,-3.591887653E-1,-2.626720630E-2
2.492859414E0,1.328631878E0,-3.695734739E-1,-2.504547499E-2
2.494874185E0,1.301142931E0,-3.811798990E-1,-2.626720630E-2
2.496857264E0,1.284649611E0,-3.866777122E-1,-2.687807009E-2
2.498872650E0,1.254717231E0,-3.940080702E-1,-2.993239649E-2
2.500855192E0,1.224173903E0,-3.995058835E-1,-3.359758854E-2
2.502869348E0,1.207680583E0,-4.019493461E-1,-3.176499158E-2
2.504852350E0,1.178359032E0,-4.056145251E-1,-3.298672289E-2
2.506867121E0,1.147204876E0,-4.068362415E-1,-3.420845419E-2
2.508850893E0,1.133765936E0,-4.062253833E-1,-3.420845419E-2
2.510864741E0,1.105666041E0,-4.031710625E-1,-3.481931984E-2
2.512878897E0,1.075733662E0,-3.982841372E-1,-3.359758854E-2
2.514863207E0,1.064738154E0,-3.964515328E-1,-3.726277873E-2
2.516876671E0,1.038470864E0,-3.878994286E-1,-3.298672289E-2
2.518861366E0,1.009760261E0,-3.744603992E-1,-3.298672289E-2
2.520874829E0,9.969320893E-1,-3.714060783E-1,-2.993239649E-2
2.522858831E0,9.700540304E-1,-3.555235863E-1,-2.748893574E-2
2.524872988E0,9.566149712E-1,-3.488040566E-1,-2.809980139E-2
2.526857067E0,9.272934198E-1,-3.286454976E-1,-2.687807009E-2
2.528870838E0,9.022479653E-1,-3.121521473E-1,-2.504547499E-2
2.530854225E0,8.881980777E-1,-3.011565804E-1,-2.321287990E-2
2.532868766E0,8.637634516E-1,-2.816088796E-1,-2.015855350E-2
2.534852384E0,8.350527883E-1,-2.638937831E-1,-2.015855350E-2
2.536865924E0,8.228355050E-1,-2.553416789E-1,-1.649336144E-2
2.538850849E0,7.959573865E-1,-2.388483137E-1,-1.527163107E-2
2.540863852E0,7.696902156E-1,-2.254092693E-1,-1.160643995E-2
2.542877931E0,7.568620443E-1,-2.186897546E-1,-6.108652335E-3
2.544861010E0,7.275404930E-1,-2.083050460E-1,-3.665191587E-3
2.546876474E0,7.012733221E-1,-1.954768747E-1,2.443460980E-3
2.548859553E0,6.860016584E-1,-1.924225539E-1,4.886921961E-3
2.550873402E0,6.554583907E-1,-1.820378453E-1,1.099557430E-2
2.552857635E0,6.255260110E-1,-1.734857261E-1,1.282817032E-2
2.554871483E0,6.139195561E-1,-1.692096740E-1,1.527163107E-2
2.556855869E0,5.852088928E-1,-1.606575549E-1,1.710422710E-2
2.558870642E0,5.711590052E-1,-1.606575549E-1,1.771509275E-2
2.560853105E0,5.387831330E-1,-1.527163088E-1,2.076941915E-2
2.562866876E0,5.112941861E-1,-1.472185254E-1,2.382374369E-2
2.564851186E0,4.960225821E-1,-1.466076523E-1,2.382374369E-2
2.566865112E0,4.673119187E-1,-1.441642046E-1,2.687807009E-2
2.568879268E0,4.422664344E-1,-1.423316002E-1,2.687807009E-2
2.570863193E0,4.257730842E-1,-1.392772794E-1,2.504547499E-2
2.572876503E0,3.988949955E-1,-1.356120855E-1,2.443460934E-2
2.574861044E0,3.750712574E-1,-1.350012124E-1,2.565634064E-2
2.576874277E0,3.628539443E-1,-1.319468915E-1,2.260201424E-2
2.578859510E0,3.408628106E-1,-1.295034289E-1,2.260201424E-2
2.580872127E0,3.262020350E-1,-1.240056455E-1,2.321287990E-2
2.582855822E0,3.188716471E-1,-1.191187203E-1,1.954768784E-2
2.584867209E0,3.072652221E-1,-1.123992056E-1,1.710422710E-2
2.586853673E0,3.023782969E-1,-1.117883399E-1,1.710422710E-2
2.588868521E0,2.968805134E-1,-1.062905490E-1,1.343903504E-2
2.590851831E0,2.895501256E-1,-1.026253626E-1,1.038470957E-2
2.592865449E0,2.846632004E-1,-1.001819000E-1,9.773843922E-3
2.594849682E0,2.755002379E-1,-9.712757170E-2,9.773843922E-3
2.596863530E0,2.681698501E-1,-9.407325089E-2,3.665191587E-3
2.598878610E0,2.651155293E-1,-9.162978828E-2,6.719517522E-3
2.600861689E0,2.541199327E-1,-8.796459436E-2,6.719517522E-3
2.602875921E0,2.461786866E-1,-8.429940045E-2,9.162978269E-3
2.604860539E0,2.400700450E-1,-8.246681094E-2,7.941247895E-3
2.606873080E0,2.315179259E-1,-8.124507964E-2,1.099557430E-2
2.608856775E0,2.211332172E-1,-8.002334833E-2,1.404990070E-2
2.610871007E0,2.119702399E-1,-7.696902007E-2,1.588249579E-2
2.612855009E0,2.015855312E-1,-7.819075137E-2,2.076941915E-2
2.614870011E0,1.887573600E-1,-7.757988572E-2,2.504547499E-2
2.616852784E0,1.802052408E-1,-7.696902007E-2,3.054326214E-2
2.618867324E0,1.692096740E-1,-7.513642311E-2,3.848451003E-2
2.620850634E0,1.612684280E-1,-7.330382615E-2,4.276056588E-2
2.622864174E0,1.447750628E-1,-7.024950534E-2,4.886921868E-2
2.624878331E0,1.276708394E-1,-7.086037099E-2,5.803219974E-2
2.626863256E0,1.191187203E-1,-6.841690838E-2,6.108652428E-2
2.628876489E0,9.834930301E-2,-6.719517708E-2,7.086037099E-2
2.630859876E0,8.063421398E-2,-6.352998316E-2,7.513642311E-2
2.632875032E0,7.024950534E-2,-6.352998316E-2,8.124507964E-2
2.634858419E0,5.375614017E-2,-6.047565863E-2,9.040805697E-2
2.636871883E0,3.726277873E-2,-5.803219974E-2,9.224065393E-2
2.638857423E0,2.993239649E-2,-5.864306539E-2,9.712757170E-2
2.640870965E0,1.404990070E-2,-5.803219974E-2,1.020144969E-1
2.642854120E0,1.832595794E-3,-6.047565863E-2,1.069014147E-1
2.644867892E0,-6.108652335E-3,-6.169738993E-2,1.062905490E-1
2.646851663E0,-1.588249579E-2,-6.475171447E-2,1.099557430E-1
2.648864897E0,-2.932153270E-2,-7.269296050E-2,1.123992056E-1
2.650880206E0,-3.481931984E-2,-7.696902007E-2,1.136209369E-1
2.652862978E0,-4.520402849E-2,-8.368854225E-2,1.148426682E-1
2.654877518E0,-5.070181563E-2,-9.040805697E-2,1.148426682E-1
2.656861444E0,-5.986479297E-2,-1.014036313E-1,1.123992056E-1
2.658875600E0,-6.963863969E-2,-1.136209369E-1,1.105666086E-1
2.660859602E0,-7.391469181E-2,-1.197295859E-1,1.087340117E-1
2.662873142E0,-8.124507964E-2,-1.350012124E-1,1.020144969E-1
2.664855992E0,-9.040805697E-2,-1.447750628E-1,9.773843735E-2
2.666870378E0,-9.101892263E-2,-1.496619880E-1,9.468411654E-2
2.668854996E0,-9.651670605E-2,-1.618792862E-1,9.162978828E-2
2.670867998E0,-1.038470939E-1,-1.698205322E-1,8.552113175E-2
2.672852616E0,-1.032362282E-1,-1.740965992E-1,8.124507964E-2
2.674866464E0,-1.117883399E-1,-1.844813079E-1,7.391469181E-2
2.676850466E0,-1.166752651E-1,-1.887573600E-1,6.597344577E-2
2.678865237E0,-1.172861308E-1,-1.912008226E-1,6.291911751E-2
2.680878702E0,-1.227839142E-1,-1.954768747E-1,5.803219974E-2
2.682861858E0,-1.258382350E-1,-1.966986060E-1,5.192354694E-2
2.684877475E0,-1.295034289E-1,-1.948660165E-1,4.825835302E-2
2.686860631E0,-1.343903542E-1,-1.930334121E-1,4.214970022E-2
2.688874710E0,-1.362229437E-1,-1.887573600E-1,4.031710699E-2
2.690858174E0,-1.404990107E-1,-1.838704348E-1,3.665191308E-2
2.692872023E0,-1.435533315E-1,-1.777617931E-1,3.298672289E-2
2.694855409E0,-1.466076523E-1,-1.698205322E-1,3.298672289E-2
2.696870411E0,-1.496619880E-1,-1.600466967E-1,2.993239649E-2
2.698854107E0,-1.539380401E-1,-1.502728462E-1,2.871066704E-2
2.700867955E0,-1.563815027E-1,-1.447750628E-1,2.871066704E-2
2.702851957E0,-1.588249654E-1,-1.319468915E-1,2.748893574E-2
2.704865190E0,-1.649336219E-1,-1.209513173E-1,2.626720630E-2
2.706879731E0,-1.655444801E-1,-1.148426682E-1,2.687807009E-2
2.708863348E0,-1.698205322E-1,-1.026253626E-1,2.748893574E-2
2.710876889E0,-1.722639948E-1,-9.529497474E-2,2.687807009E-2
2.712860660E0,-1.765400618E-1,-8.918632567E-2,2.565634064E-2
2.714875355E0,-1.783726513E-1,-8.246681094E-2,2.687807009E-2
2.716858127E0,-1.838704348E-1,-8.002334833E-2,2.932153270E-2
2.718874206E0,-1.863138974E-1,-7.880161703E-2,2.871066704E-2
2.720856669E0,-1.887573600E-1,-7.880161703E-2,2.993239649E-2
2.722870826E0,-1.887573600E-1,-8.063421398E-2,3.115412779E-2
2.724855059E0,-1.954768747E-1,-8.307767659E-2,2.871066704E-2
2.726868984E0,-1.985312104E-1,-8.918632567E-2,3.176499158E-2
2.728852294E0,-2.015855312E-1,-9.651670605E-2,3.115412779E-2
2.730865835E0,-2.070833147E-1,-1.044579595E-1,3.543018550E-2
2.732850145E0,-2.119702399E-1,-1.160643995E-1,3.726277873E-2
2.734864301E0,-2.144137025E-1,-1.264491081E-1,3.726277873E-2
2.736878456E0,-2.193006277E-1,-1.392772794E-1,3.848451003E-2
2.738863382E0,-2.247984111E-1,-1.551597714E-1,3.909537569E-2
2.740876000E0,-2.302961946E-1,-1.618792862E-1,4.092797264E-2
2.742859463E0,-2.357939780E-1,-1.789835095E-1,4.153883830E-2
2.744870850E0,-2.437352389E-1,-1.942551434E-1,4.214970022E-2
2.746856698E0,-2.480112910E-1,-2.015855312E-1,4.520402849E-2
2.748872393E0,-2.583959997E-1,-2.193006277E-1,4.153883830E-2
2.750855165E0,-2.602286041E-1,-2.272418737E-1,4.092797264E-2
2.752870474E0,-2.675589919E-1,-2.394591719E-1,3.970624134E-2
2.754852707E0,-2.755002379E-1,-2.541199327E-1,3.665191308E-2
2.756867172E0,-2.803871334E-1,-2.596177161E-1,3.665191308E-2
2.758852020E0,-2.858849466E-1,-2.736676335E-1,3.359758854E-2
2.760865022E0,-2.950479090E-1,-2.816088796E-1,2.871066704E-2
2.762879716E0,-3.011565804E-1,-2.852740586E-1,2.748893574E-2
2.764863488E0,-3.121521473E-1,-2.962696552E-1,2.626720630E-2
2.766877337E0,-3.188716471E-1,-3.042109013E-1,2.260201424E-2
2.768860954E0,-3.249803185E-1,-3.066543639E-1,1.832595654E-2
2.770874879E0,-3.316998184E-1,-3.109304011E-1,1.649336144E-2
2.772858267E0,-3.390302062E-1,-3.133738637E-1,1.466076635E-2
2.774873576E0,-3.457497358E-1,-3.158173263E-1,1.404990070E-2
2.776856425E0,-3.506366611E-1,-3.176499307E-1,9.162978269E-3
2.778871734E0,-3.579670191E-1,-3.207042515E-1,7.330383174E-3
2.780854814E0,-3.634648323E-1,-3.182607889E-1,6.719517522E-3
2.782868355E0,-3.714060783E-1,-3.182607889E-1,3.054326167E-3
2.784851510E0,-3.726277947E-1,-3.176499307E-1,4.886921961E-3
2.786867205E0,-3.805690408E-1,-3.207042515E-1,3.054326167E-3
2.788851131E0,-3.872885704E-1,-3.255911767E-1,6.108652451E-4
2.790863441E0,-3.921754956E-1,-3.243694305E-1,0.000000000E0
2.792878519E0,-3.964515328E-1,-3.292563558E-1,-2.443460980E-3
2.794862291E0,-4.007275999E-1,-3.359758854E-1,-2.443460980E-3
2.796876755E0,-4.019493461E-1,-3.408628106E-1,-2.443460980E-3
2.798860450E0,-4.043927789E-1,-3.549126983E-1,-4.886921961E-3
2.800873990E0,-4.074471295E-1,-3.665191531E-1,-5.497787148E-3
2.802857300E0,-4.074471295E-1,-3.775147200E-1,-6.719517522E-3
2.804872457E0,-4.043927789E-1,-4.013384581E-1,-8.552113548E-3
2.806855843E0,-4.043927789E-1,-4.214970171E-1,-9.773843922E-3
2.808869614E0,-4.080579877E-1,-4.355469346E-1,-1.038470957E-2
2.810853001E0,-4.080579877E-1,-4.697553813E-1,-1.099557430E-2
2.812867772E0,-4.117231667E-1,-4.954117239E-1,-1.404990070E-2
2.814850929E0,-4.141666293E-1,-5.143485069E-1,-1.160643995E-2
2.816865085E0,-4.221078753E-1,-5.485569835E-1,-1.588249579E-2
2.818880087E0,-4.276056588E-1,-5.619960427E-1,-1.649336144E-2
2.820863474E0,-4.367686510E-1,-5.913175344E-1,-1.404990070E-2
2.822877400E0,-4.483750761E-1,-6.200281978E-1,-1.404990070E-2
2.824859786E0,-4.508185387E-1,-6.359107494E-1,-1.343903504E-2
2.826874865E0,-4.673119187E-1,-6.603453159E-1,-1.038470957E-2
2.828858560E0,-4.813618064E-1,-6.872233748E-1,-7.330383174E-3
2.830872793E0,-4.911356568E-1,-6.994407177E-1,-4.276056774E-3
2.832856411E0,-5.076290369E-1,-7.226535678E-1,-1.221730490E-3
2.834870644E0,-5.247332454E-1,-7.415903807E-1,4.276056774E-3
2.836853646E0,-5.357288122E-1,-7.507534027E-1,4.886921961E-3
2.838869033E0,-5.546656251E-1,-7.684684992E-1,9.162978269E-3
2.840852189E0,-5.772676468E-1,-7.800748944E-1,1.282817032E-2
2.842866576E0,-5.894849896E-1,-7.849618196E-1,1.282817032E-2
2.844850039E0,-6.108652353E-1,-7.971791625E-1,1.466076635E-2
2.846864119E0,-6.346889734E-1,-8.057312369E-1,1.649336144E-2
2.848878275E0,-6.493497491E-1,-8.063421249E-1,1.649336144E-2
2.850861969E0,-6.719517708E-1,-8.075638413E-1,1.404990070E-2
2.852875894E0,-6.847799420E-1,-8.063421249E-1,1.343903504E-2
2.854859590E0,-7.079927921E-1,-8.032878041E-1,9.773843922E-3
2.856873745E0,-7.305948138E-1,-7.947356701E-1,4.886921961E-3
2.858858363E0,-7.409795523E-1,-7.916813493E-1,2.443460980E-3
2.860872442E0,-7.648032904E-1,-7.806857824E-1,-4.276056774E-3
2.862855522E0,-7.843509912E-1,-7.684684992E-1,-1.099557430E-2
2.864869062E0,-7.935139537E-1,-7.623597980E-1,-9.162978269E-3
2.866853680E0,-8.106181622E-1,-7.513642311E-1,-1.221730467E-2
2.868867297E0,-8.289441466E-1,-7.397578359E-1,-1.527163107E-2
2.870850299E0,-8.362745047E-1,-7.342600226E-1,-1.954768784E-2
2.872865456E0,-8.533787727E-1,-7.226535678E-1,-1.954768784E-2
2.874879304E0,-8.692612648E-1,-7.147123218E-1,-1.832595654E-2
2.876862614E0,-8.753699064E-1,-7.122688890E-1,-2.199114859E-2
2.878877693E0,-8.906415105E-1,-7.067710757E-1,-1.954768784E-2
2.880860849E0,-9.004153609E-1,-7.098253965E-1,-2.015855350E-2
2.882874698E0,-9.083566070E-1,-7.092145681E-1,-1.832595654E-2
2.884858623E0,-9.144652486E-1,-7.141014934E-1,-1.954768784E-2
2.886873163E0,-9.175195694E-1,-7.202101350E-1,-1.954768784E-2
2.888855935E0,-9.248499870E-1,-7.336491346E-1,-1.893682219E-2
2.890870091E0,-9.315695167E-1,-7.519751191E-1,-2.015855350E-2
2.892853093E0,-9.352346659E-1,-7.629706860E-1,-1.893682219E-2
2.894868480E0,-9.474520087E-1,-7.898487449E-1,-1.893682219E-2
2.896852252E0,-9.602801800E-1,-8.148942590E-1,-1.954768784E-2
2.898866946E0,-9.657779336E-1,-8.277224302E-1,-2.199114859E-2
2.900849487E0,-9.816604257E-1,-8.546004891E-1,-2.626720630E-2
2.902863027E0,-9.969320893E-1,-8.802568316E-1,-2.565634064E-2
2.904874723E0,-1.004873276E0,-8.930850029E-1,-3.054326214E-2
2.906861109E0,-1.018312335E0,-9.162978530E-1,-3.359758854E-2
2.908875650E0,-1.031751394E0,-9.401215911E-1,-3.909537569E-2
2.910859344E0,-1.037249207E0,-9.492846131E-1,-4.092797264E-2
2.912873732E0,-1.050688267E0,-9.669997096E-1,-4.276056588E-2
2.914857195E0,-1.061072946E0,-9.737191796E-1,-4.581489414E-2
2.916871274E0,-1.071457624E0,-9.877691269E-1,-4.886921868E-2
2.918855661E0,-1.084285855E0,-9.938777685E-1,-5.131268129E-2
2.920869510E0,-1.091616154E0,-9.963212013E-1,-4.948008433E-2
2.922852512E0,-1.104444385E0,-1.001819015E0,-5.375614017E-2
2.924867899E0,-1.117272496E0,-1.004262447E0,-5.375614017E-2
2.926850670E0,-1.123381138E0,-1.002429843E0,-5.253441259E-2
2.928865134E0,-1.134376764E0,-1.001819015E0,-5.192354694E-2
2.930879290E0,-1.150259256E0,-9.981538057E-1,-5.131268129E-2
2.932862677E0,-1.157589674E0,-9.944885969E-1,-5.009094998E-2
2.934876294E0,-1.171028733E0,-9.841039181E-1,-4.703662544E-2
2.936859990E0,-1.185078621E0,-9.761626720E-1,-4.520402849E-2
2.938874761E0,-1.193019867E0,-9.718865752E-1,-4.031710699E-2
2.940858070E0,-1.207680583E0,-9.578366876E-1,-3.726277873E-2
2.942871996E0,-1.227228284E0,-9.456194043E-1,-3.115412779E-2
2.944855074E0,-1.240056396E0,-9.382890463E-1,-2.871066704E-2
2.946870077E0,-1.260215044E0,-9.236282706E-1,-2.138028294E-2
2.948854387E0,-1.269988894E0,-9.181304574E-1,-2.076941915E-2
2.950867620E0,-1.293201685E0,-9.034696817E-1,-1.282817032E-2
2.952852237E0,-1.312749386E0,-8.906415105E-1,-7.330383174E-3
2.954865856E0,-1.324966669E0,-8.814785480E-1,-5.497787148E-3
2.956849550E0,-1.341460109E0,-8.686503768E-1,6.108652451E-4
2.958863629E0,-1.359786034E0,-8.564330935E-1,3.665191587E-3
2.960877785E0,-1.365894675E0,-8.521569967E-1,8.552113548E-3
2.962861788E0,-1.376890302E0,-8.442157507E-1,1.038470957E-2
2.964876021E0,-1.387274981E0,-8.393288255E-1,1.160643995E-2
2.966859715E0,-1.392772794E0,-8.374962807E-1,1.160643995E-2
2.968873794E0,-1.401935697E0,-8.326093554E-1,1.343903504E-2
2.970857181E0,-1.409266114E0,-8.319984674E-1,1.099557430E-2
2.972872030E0,-1.413542151E0,-8.313875794E-1,8.552113548E-3
2.974854801E0,-1.422094345E0,-8.362745047E-1,3.665191587E-3
2.976867957E0,-1.432479024E0,-8.381071091E-1,-4.276056774E-3
2.978853190E0,-1.437976837E0,-8.399397135E-1,-6.108652335E-3
2.980867654E0,-1.447139740E0,-8.448266387E-1,-1.710422710E-2
2.982850810E0,-1.452637553E0,-8.509352803E-1,-2.504547499E-2
2.984861889E0,-1.463022232E0,-8.576548100E-1,-3.726277873E-2
2.986877892E0,-1.472796082E0,-8.662069440E-1,-5.070181563E-2
2.988862509E0,-1.474017859E0,-8.735373020E-1,-5.681046844E-2
2.990876588E0,-1.483180761E0,-8.857545853E-1,-6.902777404E-2
2.992860282E0,-1.485013366E0,-9.046914577E-1,-7.941248268E-2
2.994874516E0,-1.488067746E0,-9.138544202E-1,-8.368854225E-2
2.996858134E0,-1.490511179E0,-9.370672703E-1,-9.285151958E-2
2.998873213E0,-1.494176388E0,-9.627236128E-1,-1.020144969E-1
3.000856291E0,-1.497230768E0,-9.773843884E-1,-1.062905490E-1
3.002869525E0,-1.502728462E0,-1.006095052E0,-1.099557430E-1
3.004854220E0,-1.511891484E0,-1.039081812E0,-1.111774743E-1
3.006868375E0,-1.518000126E0,-1.055575132E0,-1.099557430E-1
3.008851070E0,-1.525941372E0,-1.086729288E0,-1.123992056E-1
3.010865533E0,-1.537547827E0,-1.119105101E0,-1.081231460E-1
3.012879690E0,-1.544878244E0,-1.133154988E0,-1.062905490E-1
3.014863692E0,-1.554041147E0,-1.161865711E0,-9.834930301E-2
3.016878156E0,-1.558317184E0,-1.172250390E0,-9.590584040E-2
3.018861542E0,-1.562593341E0,-1.194241524E0,-8.735372871E-2
3.020874468E0,-1.568091035E0,-1.212567568E0,-8.002334833E-2
3.022858855E0,-1.568091035E0,-1.220508814E0,-7.757988572E-2
3.024872395E0,-1.569312811E0,-1.231504321E0,-6.719517708E-2
3.026857551E0,-1.571145415E0,-1.241278172E0,-6.169738993E-2
3.028871477E0,-1.572367191E0,-1.242499948E0,-5.314527452E-2
3.030853864E0,-1.572978020E0,-1.246165156E0,-4.642575979E-2
3.032869020E0,-1.582141042E0,-1.246165156E0,-3.787364438E-2
3.034852022E0,-1.587027907E0,-1.241889000E0,-3.848451003E-2
3.036866179E0,-1.599245191E0,-1.232726097E0,-3.176499158E-2
3.038851181E0,-1.613906026E0,-1.215621829E0,-3.176499158E-2
3.040865029E0,-1.620625496E0,-1.207680583E0,-3.054326214E-2
3.042878185E0,-1.637729764E0,-1.185689449E0,-3.237585723E-2
3.044863111E0,-1.651168704E0,-1.155757070E0,-3.604105115E-2
3.046876344E0,-1.655444860E0,-1.141707182E0,-3.787364438E-2
3.048859807E0,-1.671327353E0,-1.108109593E0,-4.398229718E-2
3.050874194E0,-1.675603390E0,-1.088561893E0,-4.642575979E-2
3.052858504E0,-1.685988069E0,-1.050077319E0,-5.558873713E-2
3.054872045E0,-1.695151091E0,-1.006705880E0,-6.414084882E-2
3.056855739E0,-1.700648785E0,-9.847147465E-1,-7.208210230E-2
3.058869972E0,-1.714087844E0,-9.382890463E-1,-8.613199741E-2
3.060853667E0,-1.722640038E0,-8.906415105E-1,-9.773843735E-2
3.062867823E0,-1.726305127E0,-8.704829812E-1,-1.050688252E-1
3.064850825E0,-1.737911582E0,-8.258898258E-1,-1.209513173E-1
3.066865058E0,-1.745852828E0,-7.849618196E-1,-1.337794960E-1
3.068878830E0,-1.749518037E0,-7.654141784E-1,-1.374446750E-1
3.070862524E0,-1.755626678E0,-7.293730974E-1,-1.521054506E-1
3.072877603E0,-1.758681059E0,-6.982190013E-1,-1.624901593E-1
3.074860759E0,-1.762346268E0,-6.847799420E-1,-1.649336219E-1
3.076875146E0,-1.766011477E0,-6.585127115E-1,-1.692096740E-1
3.078860072E0,-1.766622305E0,-6.493497491E-1,-1.734857261E-1
3.080872997E0,-1.762346268E0,-6.340781450E-1,-1.734857261E-1
3.082856384E0,-1.759291887E0,-6.267477274E-1,-1.740965992E-1
3.084872078E0,-1.756848454E0,-6.261368990E-1,-1.722639948E-1
3.086854927E0,-1.750739813E0,-6.273586154E-1,-1.673770845E-1
3.088868698E0,-1.740355134E0,-6.407976151E-1,-1.588249654E-1
3.090852162E0,-1.736078978E0,-6.505714655E-1,-1.563815027E-1
3.092866241E0,-1.729359508E0,-6.774495840E-1,-1.429424733E-1
3.094849398E0,-1.722029090E0,-7.073819637E-1,-1.307251602E-1
3.096864169E0,-1.717142224E0,-7.287622094E-1,-1.240056455E-1
3.098878556E0,-1.709200978E0,-7.690793276E-1,-1.111774743E-1
3.100862865E0,-1.703092337E0,-8.161159754E-1,-1.001819000E-1
3.102876484E0,-1.699427128E0,-8.399397135E-1,-9.224065393E-2
3.104859255E0,-1.690875053E0,-8.912523985E-1,-7.941248268E-2
3.106874257E0,-1.684155464E0,-9.401215911E-1,-6.719517708E-2
3.108857951E0,-1.682933807E0,-9.663888216E-1,-6.352998316E-2
3.110870646E0,-1.680490255E0,-1.011592865E0,-5.436700583E-2
3.112855495E0,-1.678046823E0,-1.034194827E0,-4.642575979E-2
3.114869650E0,-1.676214218E0,-1.073290229E0,-4.337143153E-2
3.116853729E0,-1.678657651E0,-1.104444385E0,-4.214970022E-2
3.118869348E0,-1.679268599E0,-1.117272496E0,-4.276056588E-2
3.120851504E0,-1.678657651E0,-1.133154988E0,-4.703662544E-2
3.122864736E0,-1.678657651E0,-1.145372391E0,-5.314527452E-2
3.124879585E0,-1.678046823E0,-1.149648428E0,-5.803219974E-2
3.126863588E0,-1.674992561E0,-1.149648428E0,-7.086037099E-2
3.128877128E0,-1.673159957E0,-1.143539786E0,-8.002334833E-2
3.130860438E0,-1.670105577E0,-1.139263630E0,-8.796459436E-2
3.132874978E0,-1.665218711E0,-1.126435518E0,-1.038470939E-1
3.134858597E0,-1.660942554E0,-1.109942198E0,-1.172861308E-1
3.136872829E0,-1.659109950E0,-1.100168347E0,-1.221730486E-1
3.138857139E0,-1.657277465E0,-1.076955438E0,-1.362229437E-1
3.140870603E0,-1.654223084E0,-1.055575132E0,-1.484402567E-1
3.142854297E0,-1.655444860E0,-1.042747021E0,-1.539380401E-1
3.144864531E0,-1.656666517E0,-1.012203693E0,-1.612684280E-1
3.146881763E0,-1.653001308E0,-9.987646937E-1,-1.643227488E-1
3.148865689E0,-1.656666517E0,-9.737191796E-1,-1.692096740E-1
3.150880460E0,-1.659720898E0,-9.474520087E-1,-1.685988009E-1
3.152863924E0,-1.661553502E0,-9.352346659E-1,-1.685988009E-1
3.154877465E0,-1.665218711E0,-9.095783234E-1,-1.624901593E-1
3.156861775E0,-1.667051196E0,-8.894197941E-1,-1.551597714E-1
3.158877084E0,-1.668272972E0,-8.814785480E-1,-1.502728462E-1
3.160859856E0,-1.669494748E0,-8.680394888E-1,-1.398881376E-1
3.162873397E0,-1.667051196E0,-8.631525636E-1,-1.246165112E-1
3.164858014E0,-1.663996935E0,-8.637634516E-1,-1.160643995E-1
3.166871324E0,-1.661553502E0,-8.704829812E-1,-9.834930301E-2
3.168855558E0,-1.657888293E0,-8.833111525E-1,-7.819075137E-2
3.170869175E0,-1.656666517E0,-8.979719281E-1,-6.658431143E-2
3.172853177E0,-1.654833913E0,-9.193521738E-1,-4.581489414E-2
3.174867025E0,-1.659720898E0,-9.498954415E-1,-2.321287990E-2
3.176850721E0,-1.662164330E0,-9.621127844E-1,-1.466076635E-2
3.178866107E0,-1.668883801E0,-9.944885969E-1,7.941247895E-3
3.180849109E0,-1.673770785E0,-1.009149432E0,1.588249579E-2
3.182862957E0,-1.677435994E0,-1.036027431E0,3.604105115E-2
3.184876268E0,-1.678657651E0,-1.064738154E0,4.825835302E-2
3.186861809E0,-1.676214218E0,-1.077566266E0,5.497787148E-2
3.188875272E0,-1.667051196E0,-1.101390004E0,6.658431143E-2
3.190857736E0,-1.655444860E0,-1.122159481E0,7.147123665E-2
3.192873739E0,-1.648725271E0,-1.133154988E0,7.024950534E-2
3.194856510E0,-1.631621122E0,-1.152702689E0,6.658431143E-2
3.196870743E0,-1.614516854E0,-1.169196129E0,6.291911751E-2
3.198854668E0,-1.607186437E0,-1.177748203E0,5.681046844E-2
3.200868825E0,-1.595579982E0,-1.193630695E0,4.276056588E-2
3.202852519E0,-1.583362699E0,-1.205847979E0,2.871066704E-2
3.204866444E0,-1.579697490E0,-1.209513187E0,2.015855350E-2
3.206849831E0,-1.569312811E0,-1.221119642E0,1.221730490E-3
3.208864217E0,-1.560149789E0,-1.224173903E0,-1.893682219E-2
3.210877759E0,-1.557706356E0,-1.224173903E0,-2.871066704E-2
3.212861145E0,-1.549154282E0,-1.222952247E0,-4.398229718E-2
3.214875917E0,-1.545489073E0,-1.219287038E0,-5.070181563E-2
3.216858996E0,-1.539991260E0,-1.205847979E0,-6.475171447E-2
3.218874383E0,-1.533882618E0,-1.188743711E0,-7.696902007E-2
3.220858385E0,-1.528995752E0,-1.180191636E0,-7.819075137E-2
3.222871079E0,-1.522887111E0,-1.155146122E0,-7.941248268E-2
3.224853851E0,-1.514334917E0,-1.125824690E0,-8.063421398E-2
3.226868238E0,-1.509448051E0,-1.111774802E0,-8.002334833E-2
3.228854086E0,-1.504561067E0,-1.081842303E0,-7.269296050E-2
3.230867396E0,-1.496619821E0,-1.057407737E0,-6.414084882E-2
3.232850783E0,-1.496008992E0,-1.044579625E0,-5.925392732E-2
3.234864940E0,-1.492343783E0,-1.021977544E0,-4.459316283E-2
3.236879634E0,-1.486235142E0,-1.007316828E0,-2.809980139E-2
3.238863636E0,-1.485624313E0,-1.003651619E0,-1.832595654E-2
3.240876330E0,-1.477683067E0,-9.963212013E-1,1.221730490E-3
3.242859949E0,-1.474017859E0,-1.000597239E0,2.443460934E-2
3.244875028E0,-1.472796082E0,-1.005484223E0,3.604105115E-2
3.246858107E0,-1.470352650E0,-1.015868902E0,5.864306539E-2
3.248872570E0,-1.466687441E0,-1.025031924E0,7.147123665E-2
3.250855727E0,-1.466687441E0,-1.045190454E0,9.529497474E-2
3.252870498E0,-1.469130874E0,-1.067792416E0,1.185078546E-1
3.254853885E0,-1.472185254E0,-1.077566266E0,1.325577646E-1
3.256868041E0,-1.478293896E0,-1.098335743E0,1.533271819E-1
3.258852351E0,-1.491122007E0,-1.119105101E0,1.722639948E-1
3.260866199E0,-1.494176388E0,-1.126435518E0,1.820378453E-1
3.262849586E0,-1.501506805E0,-1.140485406E0,1.973094791E-1
3.264863665E0,-1.508837104E0,-1.152702689E0,2.113593817E-1
3.266877591E0,-1.510058880E0,-1.158811331E0,2.144137025E-1
3.268862439E0,-1.513113260E0,-1.167363524E0,2.241875380E-1
3.270875672E0,-1.510669708E0,-1.175915599E0,2.284636050E-1
3.272859366E0,-1.509448051E0,-1.180191636E0,2.266310006E-1
3.274873599E0,-1.504561067E0,-1.189354658E0,2.254092693E-1
3.276857910E0,-1.502728462E0,-1.190576315E0,2.211332172E-1
3.278872296E0,-1.496619821E0,-1.200350165E0,2.101376504E-1
3.280855145E0,-1.485624313E0,-1.211345792E0,1.985312104E-1
3.282869224E0,-1.485013366E0,-1.211345792E0,1.893682331E-1
3.284853534E0,-1.480126500E0,-1.217454433E0,1.722639948E-1
3.286866767E0,-1.471574426E0,-1.218065262E0,1.508837193E-1
3.288850461E0,-1.469130874E0,-1.219897866E0,1.404990107E-1
3.290864079E0,-1.466076612E0,-1.212567568E0,1.203404516E-1
3.292879159E0,-1.459967971E0,-1.203404546E0,9.773843735E-2
3.294862238E0,-1.456302762E0,-1.199739337E0,9.040805697E-2
3.296876393E0,-1.452026725E0,-1.177748203E0,7.208210230E-2
3.298860703E0,-1.447750688E0,-1.158811331E0,5.558873713E-2
3.300875091E0,-1.445918083E0,-1.145372391E0,5.070181563E-2
3.302857939E0,-1.443474531E0,-1.115439892E0,4.031710699E-2
3.304871402E0,-1.441031098E0,-1.085507512E0,3.359758854E-2
3.306856020E0,-1.440420270E0,-1.070235968E0,2.809980139E-2
3.308869638E0,-1.437976837E0,-1.039081812E0,2.565634064E-2
3.310852948E0,-1.437976837E0,-1.024420977E0,2.748893574E-2
3.312868104E0,-1.433700681E0,-9.957103729E-1,2.871066704E-2
3.314850875E0,-1.432479024E0,-9.718865752E-1,3.481931984E-2
3.316866263E0,-1.431868076E0,-9.584475756E-1,3.604105115E-2
3.318849880E0,-1.431257248E0,-9.382890463E-1,4.520402849E-2
3.320863190E0,-1.430646420E0,-9.248499870E-1,5.497787148E-2
3.322877576E0,-1.434311628E0,-9.132435322E-1,5.925392732E-2
3.324862502E0,-1.431257248E0,-9.022479653E-1,7.391469181E-2
3.326876043E0,-1.430646420E0,-8.918632865E-1,8.857546002E-2
3.328858814E0,-1.431868076E0,-8.869763613E-1,9.712757170E-2
3.330872970E0,-1.431868076E0,-8.784242272E-1,1.136209369E-1
3.332857280E0,-1.433700681E0,-8.741481900E-1,1.307251602E-1
3.334871206E0,-1.430646420E0,-8.723155856E-1,1.374446750E-1
3.336854285E0,-1.434311628E0,-8.655960560E-1,1.527163088E-1
3.338869671E0,-1.434311628E0,-8.625417352E-1,1.698205322E-1
3.340852750E0,-1.436144233E0,-8.600982428E-1,1.789835095E-1
3.342867446E0,-1.435533285E0,-8.600982428E-1,1.942551434E-1
3.344849986E0,-1.436144233E0,-8.600982428E-1,2.034181207E-1
3.346864680E0,-1.438587666E0,-8.564330935E-1,2.217440903E-1
3.348879528E0,-1.439809442E0,-8.552113175E-1,2.333505303E-1
3.350861301E0,-1.440420270E0,-8.521569967E-1,2.406809032E-1
3.352876457E0,-1.435533285E0,-8.527678847E-1,2.492330223E-1
3.354860382E0,-1.435533285E0,-8.515461683E-1,2.541199327E-1
3.356874307E0,-1.431868076E0,-8.503243923E-1,2.559525371E-1
3.358859464E0,-1.430646420E0,-8.509352803E-1,2.577851415E-1
3.360872696E0,-1.426370382E0,-8.503243923E-1,2.565633953E-1
3.362855544E0,-1.426370382E0,-8.497135639E-1,2.528982162E-1
3.364871162E0,-1.421483397E0,-8.484918475E-1,2.443460971E-1
3.366853703E0,-1.417818189E0,-8.460483551E-1,2.351831198E-1
3.368867475E0,-1.416596532E0,-8.429940343E-1,2.302961946E-1
3.370851553E0,-1.411098719E0,-8.362745047E-1,2.125810981E-1
3.372864402E0,-1.404379249E0,-8.265006542E-1,1.979203373E-1
3.374879482E0,-1.401324868E0,-8.185594082E-1,1.912008226E-1
3.376862945E0,-1.393994451E0,-8.020660877E-1,1.789835095E-1
3.378878563E0,-1.389107585E0,-7.935139537E-1,1.710422635E-1
3.380861718E0,-1.378111959E0,-7.727445364E-1,1.600466967E-1
3.382875798E0,-1.367727280E0,-7.464773059E-1,1.472185254E-1
3.384857723E0,-1.363451242E0,-7.342600226E-1,1.411098689E-1
3.386872802E0,-1.354288220E0,-7.049384713E-1,1.350012124E-1
3.388857958E0,-1.343292713E0,-6.792821288E-1,1.264491081E-1
3.390870269E0,-1.340849161E0,-6.621779203E-1,1.264491081E-1
3.392854963E0,-1.323745012E0,-6.352998614E-1,1.209513173E-1
3.394869042E0,-1.313360333E0,-6.084218025E-1,1.221730486E-1
3.396852506E0,-1.307251573E0,-5.943718553E-1,1.203404516E-1
3.398867586E0,-1.294423461E0,-5.687155724E-1,1.209513173E-1
3.400850588E0,-1.282206178E0,-5.479460955E-1,1.209513173E-1
3.402864513E0,-1.272432327E0,-5.387831330E-1,1.215621829E-1
3.404879207E0,-1.259604096E0,-5.204572082E-1,1.276708394E-1
3.406862286E0,-1.252884626E0,-5.112941861E-1,1.270599663E-1
3.408875597E0,-1.237612963E0,-4.972442985E-1,1.307251602E-1
3.410859599E0,-1.224784851E0,-4.874704778E-1,1.350012124E-1
3.412873754E0,-1.218065262E0,-4.838052690E-1,1.380555481E-1
3.414858603E0,-1.199739337E0,-4.813618064E-1,1.398881376E-1
3.416872144E0,-1.185078621E0,-4.819726646E-1,1.447750628E-1
3.418856531E0,-1.176526427E0,-4.813618064E-1,1.490511149E-1
3.420869687E0,-1.162476540E0,-4.838052690E-1,1.514945775E-1
3.422853689E0,-1.151481032E0,-4.899139404E-1,1.551597714E-1
3.424866692E0,-1.147815824E0,-4.923573732E-1,1.576032341E-1
3.426851847E0,-1.139874578E0,-5.033529401E-1,1.606575549E-1
3.428865696E0,-1.133154988E0,-5.174028873E-1,1.649336219E-1
3.430879544E0,-1.128268123E0,-5.253441334E-1,1.679879427E-1
3.432863624E0,-1.122770309E0,-5.442809463E-1,1.722639948E-1
3.434876856E0,-1.118494272E0,-5.632177591E-1,1.753183305E-1
3.436860781E0,-1.118494272E0,-5.729916096E-1,1.759291887E-1
3.438876245E0,-1.114218235E0,-5.980370641E-1,1.777617931E-1
3.440858017E0,-1.116050839E0,-6.114761233E-1,1.789835095E-1
3.442873173E0,-1.112385631E0,-6.365215778E-1,1.789835095E-1
3.444856791E0,-1.112996459E0,-6.621779203E-1,1.814269722E-1
3.446870331E0,-1.113607287E0,-6.737843752E-1,1.808161139E-1
3.448854334E0,-1.114218235E0,-7.000515461E-1,1.771509200E-1
3.450868490E0,-1.114218235E0,-7.257078886E-1,1.740965992E-1
3.452852492E0,-1.113607287E0,-7.367035151E-1,1.759291887E-1
3.454866109E0,-1.113607287E0,-7.580837607E-1,1.747074574E-1
3.456880574E0,-1.116661668E0,-7.745771408E-1,1.710422635E-1
3.458865114E0,-1.115439892E0,-7.849618196E-1,1.716531366E-1
3.460878962E0,-1.120326877E0,-7.959573865E-1,1.722639948E-1
3.462862041E0,-1.121548533E0,-8.075638413E-1,1.740965992E-1
3.464872814E0,-1.120937705E0,-8.100073338E-1,1.759291887E-1
3.466858969E0,-1.124602914E0,-8.155050874E-1,1.802052408E-1
3.468873125E0,-1.122770309E0,-8.185594082E-1,1.869247705E-1
3.470857512E0,-1.120937705E0,-8.179485798E-1,1.887573600E-1
3.472871360E0,-1.119105101E0,-8.142833710E-1,1.930334121E-1
3.474855286E0,-1.116661668E0,-8.148942590E-1,2.003637999E-1
3.476870134E0,-1.111163855E0,-8.106181622E-1,2.083050460E-1
3.478854675E0,-1.102000952E0,-8.069530129E-1,2.180788964E-1
3.480866984E0,-1.097724795E0,-8.063421249E-1,2.205223590E-1
3.482850987E0,-1.087950945E0,-8.026769161E-1,2.254092693E-1
3.484865220E0,-1.076955438E0,-8.014551997E-1,2.302961946E-1
3.486879376E0,-1.068403363E0,-8.020660877E-1,2.339613885E-1
3.488863070E0,-1.054964304E0,-8.026769161E-1,2.333505303E-1
3.490877227E0,-1.042136073E0,-8.020660877E-1,2.327396572E-1
3.492860614E0,-1.034805775E0,-8.014551997E-1,2.345722616E-1
3.494874154E0,-1.025642753E0,-7.971791625E-1,2.278527319E-1
3.496859079E0,-1.010982037E0,-7.861835957E-1,2.003637999E-1
3.498873236E0,-1.009149432E0,-7.831292152E-1,1.924225539E-1
3.500855931E0,-9.999864101E-1,-7.843509912E-1,1.863138974E-1
3.502870471E0,-9.920451641E-1,-7.819074988E-1,1.814269722E-1
3.504854088E0,-9.859365225E-1,-7.849618196E-1,1.783726513E-1
3.506869476E0,-9.767735004E-1,-7.916813493E-1,1.759291887E-1
3.508852247E0,-9.737191796E-1,-7.959573865E-1,1.771509200E-1
3.510864942E0,-9.724974632E-1,-8.038986921E-1,1.802052408E-1
3.512880251E0,-9.688322544E-1,-8.124507666E-1,1.814269722E-1
3.514864254E0,-9.682214260E-1,-8.106181622E-1,1.869247705E-1
3.516879410E0,-9.645562172E-1,-8.069530129E-1,1.899790913E-1
3.518863028E0,-9.633345008E-1,-7.996225953E-1,1.973094791E-1
3.520875645E0,-9.615018964E-1,-7.941248417E-1,1.991420686E-1
3.522859109E0,-9.621127844E-1,-7.806857824E-1,2.052507252E-1
3.524874727E0,-9.608910084E-1,-7.648032904E-1,2.101376504E-1
3.526857806E0,-9.627236128E-1,-7.525860071E-1,2.113593817E-1
3.528871731E0,-9.627236128E-1,-7.336491346E-1,2.186897546E-1
3.530854733E0,-9.669997096E-1,-7.079927921E-1,2.229658216E-1
3.532869274E0,-9.700540304E-1,-6.957755089E-1,2.260201424E-1
3.534852892E0,-9.767735004E-1,-6.725626588E-1,2.290744632E-1
3.536867432E0,-9.877691269E-1,-6.487388611E-1,2.351831198E-1
3.538852050E0,-9.896016717E-1,-6.389650702E-1,2.370157093E-1
3.540865283E0,-1.001208186E0,-6.194173694E-1,2.394591719E-1
3.542879055E0,-1.008538485E0,-6.114761233E-1,2.412917763E-1
3.544862518E0,-1.021977544E0,-6.010913849E-1,2.437352389E-1
3.546875982E0,-1.029307961E0,-5.949827433E-1,2.480112910E-1
3.548860600E0,-1.032973170E0,-5.949827433E-1,2.492330223E-1
3.550874833E0,-1.045801282E0,-5.937610269E-1,2.510656118E-1
3.552858527E0,-1.057407737E0,-5.907067060E-1,2.547308207E-1
3.554872375E0,-1.062294602E0,-5.919284225E-1,2.565633953E-1
3.556855763E0,-1.072068453E0,-5.900958180E-1,2.583959997E-1
3.558871765E0,-1.082453251E0,-5.925393105E-1,2.602286041E-1
3.560853921E0,-1.088561893E0,-5.882632136E-1,2.608394623E-1
3.562868000E0,-1.092227101E0,-5.821545720E-1,2.632829249E-1
3.564852310E0,-1.099557400E0,-5.772676468E-1,2.663372457E-1
3.566865620E0,-1.101390004E0,-5.729916096E-1,2.657263875E-1
3.568880391E0,-1.106276989E0,-5.638286471E-1,2.669481039E-1
3.570863393E0,-1.106276989E0,-5.601634383E-1,2.712241709E-1
3.572877935E0,-1.106887817E0,-5.522221923E-1,2.700024247E-1
3.574861552E0,-1.100779176E0,-5.430592299E-1,2.718350291E-1
3.576875708E0,-1.098335743E0,-5.393940210E-1,2.742784917E-1
3.578860018E0,-1.087340117E0,-5.363397002E-1,2.748893499E-1
3.580874175E0,-1.074512005E0,-5.314527750E-1,2.761110961E-1
3.582857561E0,-1.065959811E0,-5.302310586E-1,2.779437006E-1
3.584870794E0,-1.047633886E0,-5.338962078E-1,2.767219543E-1
3.586855411E0,-1.025642753E0,-5.375614166E-1,2.761110961E-1
3.588869568E0,-1.014036298E0,-5.412266254E-1,2.767219543E-1
3.590852109E0,-9.920451641E-1,-5.522221923E-1,2.730567753E-1
3.592867495E0,-9.694431424E-1,-5.656611919E-1,2.681698501E-1
3.594850574E0,-9.560040832E-1,-5.754350424E-1,2.663372457E-1
3.596865039E0,-9.346238375E-1,-5.962044597E-1,2.608394623E-1
3.598879810E0,-9.162978530E-1,-6.188064814E-1,2.547308207E-1
3.600862581E0,-9.053022861E-1,-6.291912198E-1,2.504547536E-1
3.602876660E0,-8.881980777E-1,-6.536257863E-1,2.461786866E-1
3.604860662E0,-8.778133392E-1,-6.658431292E-1,2.419026345E-1
3.606874511E0,-8.613200188E-1,-6.884451509E-1,2.357939780E-1
3.608858206E0,-8.484918475E-1,-7.104362845E-1,2.327396572E-1
3.610872746E0,-8.374962807E-1,-7.220427394E-1,2.296853364E-1
3.612855825E0,-8.216137290E-1,-7.476990819E-1,2.260201424E-1
3.614869905E0,-8.063421249E-1,-7.703011036E-1,2.254092693E-1
3.616853676E0,-8.026769161E-1,-7.812966704E-1,2.229658216E-1
3.618868986E0,-7.892379165E-1,-8.020660877E-1,2.272418737E-1
3.620850834E0,-7.739662528E-1,-8.228355050E-1,2.302961946E-1
3.622865914E0,-7.696902156E-1,-8.350527883E-1,2.345722616E-1
3.624876454E0,-7.574729323E-1,-8.570439219E-1,2.425135076E-1
3.626863226E0,-7.501425147E-1,-8.735373020E-1,2.522873580E-1
3.628878535E0,-7.446447611E-1,-8.820894361E-1,2.553416789E-1
3.630861692E0,-7.379252315E-1,-8.979719281E-1,2.687807083E-1
3.632875464E0,-7.293730974E-1,-9.169087410E-1,2.791654170E-1
3.634859158E0,-7.287622094E-1,-9.217956662E-1,2.828305960E-1
3.636873391E0,-7.214318514E-1,-9.364564419E-1,2.981022298E-1
3.638858624E0,-7.195992470E-1,-9.456194043E-1,3.042109013E-1
3.640871780E0,-7.147123218E-1,-9.627236128E-1,3.188716471E-1
3.642855167E0,-7.122688890E-1,-9.786061049E-1,3.292563558E-1
3.644869092E0,-7.122688890E-1,-9.877691269E-1,3.371976018E-1
3.646852710E0,-7.141014934E-1,-1.006705880E0,3.463605940E-1
3.648867174E0,-7.171558142E-1,-1.025031924E0,3.597996235E-1
3.650850945E0,-7.226535678E-1,-1.030529618E0,3.646865487E-1
3.652864409E0,-7.299839854E-1,-1.048244715E0,3.707951903E-1
3.654879258E0,-7.428121567E-1,-1.059240341E0,3.769038618E-1
3.656862567E0,-7.476990819E-1,-1.063516378E0,3.799581826E-1
3.658877108E0,-7.623597980E-1,-1.067792416E0,3.830125034E-1
3.660860725E0,-7.739662528E-1,-1.069014192E0,3.799581826E-1
3.662874036E0,-7.812966704E-1,-1.067792416E0,3.793473244E-1
3.664857346E0,-7.947356701E-1,-1.060462117E0,3.738495409E-1
3.666873655E0,-8.081747293E-1,-1.050077319E0,3.683517575E-1
3.668856811E0,-8.124507666E-1,-1.044579625E0,3.640756905E-1
3.670869121E0,-8.222246170E-1,-1.024420977E0,3.543018401E-1
3.672854047E0,-8.265006542E-1,-1.015868902E0,3.506366611E-1
3.674868511E0,-8.374962807E-1,-9.914342761E-1,3.378084898E-1
3.676851590E0,-8.429940343E-1,-9.663888216E-1,3.243694305E-1
3.678867284E0,-8.460483551E-1,-9.511171579E-1,3.182607889E-1
3.680849364E0,-8.521569967E-1,-9.224064946E-1,3.036000133E-1
3.682863597E0,-8.546004891E-1,-8.894197941E-1,2.901609838E-1
3.684877983E0,-8.576548100E-1,-8.710938692E-1,2.834414840E-1
3.686861139E0,-8.582656980E-1,-8.350527883E-1,2.718350291E-1
3.688875604E0,-8.607091308E-1,-7.947356701E-1,2.602286041E-1
3.690858375E0,-8.637634516E-1,-7.751879692E-1,2.553416789E-1
3.692873146E0,-8.637634516E-1,-7.330383062E-1,2.449569702E-1
3.694856533E0,-8.631525636E-1,-6.951646209E-1,2.376265824E-1
3.696870690E0,-8.625417352E-1,-6.725626588E-1,2.315179259E-1
3.698855538E0,-8.619308472E-1,-6.340781450E-1,2.260201424E-1
3.700868232E0,-8.607091308E-1,-5.955936313E-1,2.241875380E-1
3.702853157E0,-8.582656980E-1,-5.778785348E-1,2.180788964E-1
3.704863852E0,-8.594874144E-1,-5.418374538E-1,2.150245607E-1
3.706879931E0,-8.564330935E-1,-5.259549618E-1,2.138028294E-1
3.708864779E0,-8.570439219E-1,-4.923573732E-1,2.131919712E-1
3.710878089E0,-8.515461683E-1,-4.679227769E-1,2.156354338E-1
3.712862400E0,-8.527678847E-1,-4.550946057E-1,2.162462920E-1
3.714876556E0,-8.484918475E-1,-4.331034720E-1,2.186897546E-1
3.716860250E0,-8.478809595E-1,-4.129449129E-1,2.229658216E-1
3.718875252E0,-8.460483551E-1,-4.056145251E-1,2.254092693E-1
3.720857486E0,-8.399397135E-1,-3.903428912E-1,2.260201424E-1
3.722871872E0,-8.387179971E-1,-3.769038618E-1,2.327396572E-1
3.724856259E0,-8.338310719E-1,-3.732386529E-1,2.339613885E-1
3.726870030E0,-8.313875794E-1,-3.665191531E-1,2.431243658E-1
3.728853109E0,-8.295549750E-1,-3.597996235E-1,2.474004179E-1
3.730867343E0,-8.265006542E-1,-3.585779071E-1,2.510656118E-1
3.732850730E0,-8.240572214E-1,-3.604104817E-1,2.565633953E-1
3.734864885E0,-8.234463334E-1,-3.610213697E-1,2.614503205E-1
3.736880195E0,-8.185594082E-1,-3.689626157E-1,2.681698501E-1
3.738863890E0,-8.173376918E-1,-3.769038618E-1,2.761110961E-1
3.740877431E0,-8.161159754E-1,-3.824016452E-1,2.803871334E-1
3.742861433E0,-8.161159754E-1,-3.958406746E-1,2.877175212E-1
3.744874666E0,-8.197811842E-1,-4.068362415E-1,2.974913716E-1
3.746860284E0,-8.185594082E-1,-4.166100919E-1,3.023782969E-1
3.748873825E0,-8.246681094E-1,-4.257730842E-1,3.109304011E-1
3.750856288E0,-8.313875794E-1,-4.379903674E-1,3.152064681E-1
3.752870982E0,-8.417723179E-1,-4.392121136E-1,3.213151097E-1
3.754854447E0,-8.503243923E-1,-4.453207552E-1,3.268128932E-1
3.756868603E0,-8.613200188E-1,-4.483750761E-1,3.329215646E-1
3.758853143E0,-8.686503768E-1,-4.459316432E-1,3.359758854E-1
3.760866991E0,-8.820894361E-1,-4.392121136E-1,3.408628106E-1
3.762850456E0,-8.912523985E-1,-4.288274050E-1,3.408628106E-1
3.764864535E0,-8.949176073E-1,-4.233296216E-1,3.420845270E-1
3.766878998E0,-9.053022861E-1,-4.056145251E-1,3.408628106E-1
3.768862077E0,-9.101892114E-1,-3.964515328E-1,3.408628106E-1
3.770875927E0,-9.169087410E-1,-3.756821156E-1,3.384193480E-1
3.772859698E0,-9.217956662E-1,-3.561344445E-1,3.310889602E-1
3.774874161E0,-9.242390990E-1,-3.426954150E-1,3.280346394E-1
3.776858086E0,-9.285151958E-1,-3.158173263E-1,3.176499307E-1
3.778872628E0,-9.321803451E-1,-2.901609838E-1,3.060434759E-1
3.780856245E0,-9.334021211E-1,-2.742784917E-1,2.974913716E-1
3.782869863E0,-9.340129495E-1,-2.449569702E-1,2.834414840E-1
3.784852942E0,-9.388998747E-1,-2.101376504E-1,2.651155293E-1
3.786867021E0,-9.364564419E-1,-1.918116808E-1,2.596177161E-1
3.788851408E0,-9.376781583E-1,-1.514945775E-1,2.412917763E-1
3.790865256E0,-9.370672703E-1,-1.142318025E-1,2.266310006E-1
3.792879027E0,-9.364564419E-1,-9.346238524E-2,2.168571651E-1
3.794861876E0,-9.370672703E-1,-5.253441259E-2,2.058615834E-1
3.796877186E0,-9.321803451E-1,-1.221730467E-2,1.960877478E-1
3.798861573E0,-9.315695167E-1,8.552113548E-3,1.905899495E-1
3.800875113E0,-9.297369123E-1,4.703662544E-2,1.832595766E-1
3.802858808E0,-9.303477407E-1,7.208210230E-2,1.783726513E-1
3.804873195E0,-9.236282706E-1,1.081231460E-1,1.789835095E-1
3.806856582E0,-9.162978530E-1,1.435533315E-1,1.777617931E-1
3.808870430E0,-9.138544202E-1,1.618792862E-1,1.771509200E-1
3.810853817E0,-9.089674950E-1,1.942551434E-1,1.826487035E-1
3.812868666E0,-9.004153609E-1,2.229658216E-1,1.863138974E-1
3.814852360E0,-8.936958313E-1,2.351831198E-1,1.881465018E-1
3.816866439E0,-8.857545853E-1,2.596177161E-1,1.936442852E-1
3.818881518E0,-8.729264140E-1,2.797762752E-1,1.997529417E-1
3.820863675E0,-8.674286604E-1,2.895501256E-1,2.003637999E-1
3.822877831E0,-8.515461683E-1,3.023782969E-1,2.064724565E-1
3.824861833E0,-8.399397135E-1,3.121521473E-1,2.113593817E-1
3.826877219E0,-8.356636763E-1,3.133738637E-1,2.125810981E-1
3.828860069E0,-8.197811842E-1,3.127630055E-1,2.168571651E-1
3.830873301E0,-8.057312369E-1,3.048217595E-1,2.211332172E-1
3.832857842E0,-7.965682745E-1,2.993239760E-1,2.247984111E-1
3.834872075E0,-7.867944241E-1,2.840523422E-1,2.278527319E-1
3.836855078E0,-7.782423496E-1,2.748893499E-1,2.290744632E-1
3.838870157E0,-7.635815740E-1,2.510656118E-1,2.327396572E-1
3.840853005E0,-7.483099103E-1,2.235766798E-1,2.400700450E-1
3.842867084E0,-7.415903807E-1,2.095267773E-1,2.406809032E-1
3.844851702E0,-7.281513810E-1,1.789835095E-1,2.480112910E-1
3.846864704E0,-7.159340382E-1,1.423316002E-1,2.547308207E-1
3.848879091E0,-7.098253965E-1,1.209513173E-1,2.602286041E-1
3.850863170E0,-6.982190013E-1,8.246681094E-2,2.663372457E-1
3.852876711E0,-6.878342628E-1,4.581489414E-2,2.773328125E-1
3.854859790E0,-6.811147332E-1,2.382374369E-2,2.840523422E-1
3.856874792E0,-6.713408828E-1,-1.710422710E-2,2.956587672E-1
3.858859179E0,-6.603453159E-1,-5.803219974E-2,3.121521473E-1
3.860872720E0,-6.560692787E-1,-7.330382615E-2,3.164281845E-1
3.862856414E0,-6.481280327E-1,-1.111774743E-1,3.310889602E-1
3.864869570E0,-6.359107494E-1,-1.459967941E-1,3.433062732E-1
3.866853341E0,-6.322455406E-1,-1.612684280E-1,3.469714522E-1
3.868868728E0,-6.249151230E-1,-1.893682331E-1,3.567453027E-1
3.870851423E0,-6.194173694E-1,-2.015855312E-1,3.622430861E-1
3.872866195E0,-6.120869517E-1,-2.266310006E-1,3.677408695E-1
3.874880658E0,-6.029239893E-1,-2.467895597E-1,3.732386529E-1
3.876863737E0,-5.998696685E-1,-2.541199327E-1,3.750712574E-1
3.878878586E0,-5.907067060E-1,-2.712241709E-1,3.750712574E-1
3.880861896E0,-5.797111392E-1,-2.797762752E-1,3.769038618E-1
3.882875744E0,-5.766568184E-1,-2.809980214E-1,3.744603992E-1
3.884859746E0,-5.699372888E-1,-2.846632004E-1,3.701843321E-1
3.886873364E0,-5.626068711E-1,-2.816088796E-1,3.604104817E-1
3.888857290E0,-5.564982295E-1,-2.773328125E-1,3.585779071E-1
3.890871215E0,-5.516113043E-1,-2.657263875E-1,3.500257730E-1
3.892855217E0,-5.436700583E-1,-2.498438805E-1,3.365867436E-1
3.894869604E0,-5.430592299E-1,-2.382374406E-1,3.316998184E-1
3.896852145E0,-5.381723046E-1,-2.144137025E-1,3.176499307E-1
3.898868147E0,-5.332853794E-1,-2.015855312E-1,3.145956099E-1
3.900850841E0,-5.277875662E-1,-1.704314053E-1,2.987131178E-1
3.902865306E0,-5.229006410E-1,-1.362229437E-1,2.846632004E-1
3.904878538E0,-5.180137157E-1,-1.172861308E-1,2.767219543E-1
3.906862925E0,-5.125159621E-1,-8.124507964E-2,2.620611787E-1
3.908876773E0,-5.076290369E-1,-4.092797264E-2,2.461786866E-1
3.910859545E0,-5.039638281E-1,-2.015855350E-2,2.406809032E-1
3.912874547E0,-4.960225821E-1,2.015855350E-2,2.260201424E-1
3.914858549E0,-4.917465150E-1,6.352998316E-2,2.138028294E-1
3.916872167E0,-4.868595898E-1,8.368854225E-2,2.070833147E-1
3.918857631E0,-4.831944108E-1,1.233947799E-1,1.954768747E-1
3.920870556E0,-4.758640230E-1,1.667662114E-1,1.863138974E-1
3.922854251E0,-4.721988440E-1,1.863138974E-1,1.808161139E-1
3.924868407E0,-4.673119187E-1,2.235766798E-1,1.734857261E-1
3.926851486E0,-4.636467099E-1,2.602286041E-1,1.618792862E-1
3.928865335E0,-4.599815309E-1,2.785545588E-1,1.594358236E-1
3.930879798E0,-4.526511431E-1,3.097086847E-1,1.514945775E-1
3.932863877E0,-4.514294267E-1,3.225368559E-1,1.484402567E-1
3.934877648E0,-4.453207552E-1,3.445279896E-1,1.435533315E-1
3.936861113E0,-4.392121136E-1,3.628539443E-1,1.398881376E-1
3.938876730E0,-4.373795092E-1,3.701843321E-1,1.380555481E-1
3.940860194E0,-4.294382632E-1,3.811798990E-1,1.343903542E-1
3.942873734E0,-4.245513380E-1,3.842342496E-1,1.343903542E-1
3.944856737E0,-4.196644127E-1,3.842342496E-1,1.350012124E-1
3.946870970E0,-4.135557711E-1,3.799581826E-1,1.331686229E-1
3.948855280E0,-4.074471295E-1,3.714060783E-1,1.307251602E-1
3.950868436E0,-4.013384581E-1,3.640756905E-1,1.337794960E-1
3.952852746E0,-3.933972120E-1,3.543018401E-1,1.325577646E-1
3.954866902E0,-3.842342496E-1,3.347541690E-1,1.337794960E-1
3.956850673E0,-3.830125034E-1,3.274237812E-1,1.350012124E-1
3.958865675E0,-3.744603992E-1,3.072652221E-1,1.337794960E-1
3.960879217E0,-3.695734739E-1,2.877175212E-1,1.325577646E-1
3.962862373E0,-3.659082949E-1,2.773328125E-1,1.325577646E-1
3.964877759E0,-3.585779071E-1,2.565633953E-1,1.343903542E-1
3.966859915E0,-3.536909819E-1,2.461786866E-1,1.343903542E-1
3.968874611E0,-3.457497358E-1,2.241875380E-1,1.313360333E-1
3.970857997E0,-3.408628106E-1,2.070833147E-1,1.307251602E-1
3.972872153E0,-3.365867436E-1,2.009746730E-1,1.295034289E-1
3.974856155E0,-3.280346394E-1,1.863138974E-1,1.282816976E-1
