"Time (s)","Linear Acceleration x (m/s^2)","Linear Acceleration y (m/s^2)","Linear Acceleration z (m/s^2)"
1.287639600E-2,-6.382322311E-2,1.701307297E-1,-7.699966431E-2
2.087148200E-2,-1.521565914E-1,1.768331528E-1,-4.696702957E-2
2.886810600E-2,-2.198646069E-1,1.757745743E-1,-2.192306519E-2
3.686342300E-2,-2.056858540E-1,2.010622025E-1,-1.282024384E-2
4.485943200E-2,-1.950912476E-1,2.156782150E-1,-9.818077087E-3
5.285421000E-2,-1.386864185E-1,2.110042572E-1,-4.349470139E-3
6.085091200E-2,-1.019792557E-1,2.361536026E-1,-2.664160728E-2
6.884592100E-2,-5.222892761E-2,2.035760880E-1,-5.431127548E-2
7.687154500E-2,5.141019821E-3,1.920566559E-1,-5.355668068E-2
8.486786200E-2,6.835365295E-2,1.776247025E-1,-3.033661842E-2
9.286356300E-2,6.588602066E-2,1.575336456E-1,1.309037209E-2
1.008585720E-1,1.135754585E-2,1.351881027E-1,3.716492653E-2
1.088548890E-1,-1.167635918E-1,1.465778351E-1,3.899741173E-2
1.168499750E-1,-1.800098419E-1,1.092300415E-1,4.157996178E-2
1.248771380E-1,-2.219944000E-1,9.868812561E-2,2.588987350E-2
1.328715310E-1,-2.212977409E-1,1.078853607E-1,-4.094743729E-2
1.408673090E-1,-2.269973755E-1,1.093740463E-1,-1.135258675E-1
1.488635490E-1,-2.625598907E-1,6.690502167E-2,-1.294338703E-1
1.568590200E-1,-1.831536293E-1,4.131031036E-2,-1.259818077E-1
1.648547210E-1,-1.030073166E-1,3.639030457E-2,-1.075279713E-1
1.728497300E-1,-8.606171608E-2,4.947853088E-2,-3.727149963E-2
1.808756620E-1,-5.654978752E-2,7.171916962E-2,4.766774178E-2
1.888715930E-1,-7.052707672E-2,5.482196808E-2,1.039175987E-1
1.968666790E-1,-7.603502274E-2,7.316207886E-2,6.179904938E-2
2.048633810E-1,-8.867764473E-2,4.305171967E-2,6.253790855E-2
2.128584670E-1,-4.578781128E-2,1.568412781E-2,3.610277176E-2
2.208537830E-1,-4.630565643E-3,2.285194397E-2,1.687097549E-2
2.288501770E-1,-1.192855835E-2,3.347873688E-2,-5.327224731E-3
2.368757240E-1,-4.899621010E-2,5.529308319E-2,-7.404327393E-3
2.448722720E-1,-7.013511658E-2,8.575630188E-2,-7.126331329E-3
2.528676650E-1,-7.240986824E-2,4.791259766E-3,-9.741783142E-4
2.608624440E-1,1.057386398E-2,-1.606760025E-1,6.768846512E-2
2.688582220E-1,6.323742867E-2,-2.046756744E-1,1.205635071E-2
2.768530000E-1,3.792762756E-2,-1.440849304E-1,-3.587341309E-2
2.848502400E-1,3.718733788E-2,-4.740142822E-2,-7.301020622E-2
2.928754030E-1,6.448149681E-2,3.352165222E-3,-8.900332451E-2
3.008708730E-1,3.939151764E-3,5.659198761E-2,-1.429243088E-1
3.088681130E-1,-4.604077339E-2,1.093673706E-1,-1.329805851E-1
3.168625840E-1,1.467847824E-2,1.535768509E-1,-1.086692810E-1
3.248592080E-1,1.202092171E-1,2.105627060E-1,-1.204442978E-2
3.328536020E-1,1.862573624E-1,3.105859756E-1,7.815074921E-2
3.408493800E-1,1.604025364E-1,4.456863403E-1,5.169296265E-2
3.488755430E-1,8.497714996E-2,4.790430069E-1,1.238515377E-1
3.568706290E-1,1.108074188E-2,2.877388000E-1,4.550609589E-1
3.648672530E-1,1.026256084E-1,9.999942780E-2,1.316125393E-1
3.728617240E-1,1.686785221E-1,9.666347504E-2,-9.715819359E-2
3.808577330E-1,4.387736320E-2,1.418590546E-1,-1.047313213E-1
3.888533570E-1,3.569459915E-2,8.318901062E-2,-1.959166527E-1
3.968497510E-1,3.029546738E-1,1.592922211E-2,-2.006313801E-1
4.048761440E-1,4.780225754E-1,2.960300446E-2,-1.743080616E-1
4.128709230E-1,4.201681614E-1,7.812404633E-2,-1.790845394E-1
4.208663930E-1,3.269498348E-1,7.787704468E-2,-2.395653725E-2
4.288626330E-1,3.253297806E-1,7.180023193E-2,6.084942818E-2
4.368574880E-1,3.301961422E-1,1.053457260E-1,-1.949143410E-2
4.448537270E-1,2.524785995E-1,2.049264908E-1,-7.045960426E-2
4.528485820E-1,-3.529787064E-2,3.499946594E-1,-1.366903782E-1
4.608750530E-1,-1.147589684E-1,3.899736404E-1,-1.668236256E-1
4.688710620E-1,-2.715954781E-1,3.522586823E-1,-2.626774311E-1
4.768660710E-1,-1.701440811E-1,2.418346405E-1,-2.900726795E-1
4.848626950E-1,8.228921890E-2,1.275997162E-1,-1.762900352E-1
4.928568580E-1,3.337967396E-1,6.355476379E-2,-1.957545280E-1
5.008535590E-1,3.254663944E-1,8.718967438E-2,-2.638201714E-1
5.088482610E-1,6.972877979E-1,4.464817047E-2,-4.259715080E-1
5.168748080E-1,8.888187408E-1,6.326484680E-2,-6.860454082E-1
5.248705100E-1,9.107844830E-1,1.218938828E-1,-7.496943474E-1
5.328661340E-1,9.166264534E-1,1.156282425E-1,-7.877233028E-1
5.408621430E-1,7.597768307E-1,1.094055176E-1,-7.651727200E-1
5.488576140E-1,4.257709980E-1,3.743267059E-2,-7.243509293E-1
5.568526990E-1,1.958763599E-1,-5.420017242E-2,-6.242718697E-1
5.648490160E-1,8.454132080E-2,-1.268882751E-1,-5.864558220E-1
5.728744870E-1,1.264598370E-1,-1.811180115E-1,-4.863951206E-1
5.808708030E-1,1.962935925E-1,-1.817255020E-1,-3.777339458E-1
5.888659660E-1,3.433058262E-1,-1.415910721E-1,-3.646414280E-1
5.968607450E-1,4.567470551E-1,-7.593917847E-2,-3.600513935E-1
6.048572920E-1,5.574674606E-1,5.018234253E-3,-3.433434963E-1
6.128520700E-1,5.833287239E-1,1.055879593E-1,-3.039727211E-1
6.208481560E-1,4.657893181E-1,2.070503235E-1,-3.257060051E-1
6.288745500E-1,1.891758442E-1,2.819547653E-1,-3.613626957E-1
6.368705590E-1,1.664149761E-1,3.039560318E-1,-3.665888309E-1
6.448657220E-1,1.231360435E-1,2.016944885E-1,-4.367384911E-1
6.528613460E-1,-8.107423782E-3,2.643203735E-2,-6.141870022E-1
6.608573550E-1,-9.671783447E-2,-1.230812073E-1,-5.948147774E-1
6.688525180E-1,-9.158205986E-2,-2.056274414E-1,-6.080212593E-1
6.768479120E-1,-5.975747108E-2,-1.549558640E-1,-4.859108925E-1
6.848752280E-1,1.441740990E-2,-3.454494476E-2,-3.694238663E-1
6.928697760E-1,7.502317429E-2,3.744316101E-2,-2.886223793E-1
7.008651700E-1,1.616673470E-1,1.202964783E-1,-2.102842331E-1
7.088608700E-1,2.066268921E-1,1.801662445E-1,-1.081914902E-1
7.168561870E-1,2.552006245E-1,1.786718369E-1,-4.699802399E-2
7.248528880E-1,3.049755096E-1,8.271980286E-2,-1.978676319E-1
7.328475890E-1,3.683161736E-1,-3.783702850E-2,-2.991290092E-1
7.408744440E-1,4.335124493E-1,-1.370506287E-1,-3.833050728E-1
7.488695300E-1,5.058946609E-1,-2.360391617E-1,-4.474389553E-1
7.568652320E-1,3.533353806E-1,-3.003549576E-1,-4.682786465E-1
7.648614710E-1,4.122209549E-1,-4.047040939E-1,-2.734248638E-1
7.728566340E-1,3.730449677E-1,-4.382114410E-1,-1.887800694E-1
7.808523360E-1,2.865037918E-1,-4.461307526E-1,-8.738923073E-2
7.888482680E-1,2.410442829E-1,-4.741964340E-1,-1.052498817E-2
7.968738920E-1,1.251943111E-1,-5.827198029E-1,3.513264656E-2
8.048699010E-1,-5.494332314E-2,-6.330394745E-1,1.678128242E-1
8.128642950E-1,-2.074053288E-1,-6.945686340E-1,1.741373539E-1
8.208606880E-1,-2.393844128E-1,-7.599306107E-1,1.513013840E-1
8.288563900E-1,-2.249286175E-1,-7.907075882E-1,9.705400467E-2
8.368514760E-1,-1.829957962E-1,-7.081346512E-1,1.492531300E-1
8.448474850E-1,-1.143200397E-1,-5.535316467E-1,1.897437572E-1
8.528736480E-1,-3.830718994E-2,-3.846826553E-1,2.226297855E-1
8.608690410E-1,2.998971939E-2,-1.829462051E-1,2.233302593E-1
8.688652810E-1,8.491492271E-2,-5.411243439E-2,2.155597210E-1
8.768612900E-1,1.234622002E-1,7.826042175E-2,2.139415741E-1
8.848567610E-1,9.715914726E-2,1.777782440E-1,2.272796631E-1
8.928518470E-1,6.496667862E-3,2.157526016E-1,2.214632034E-1
9.008472400E-1,-3.569793701E-2,1.923151016E-1,1.940548420E-1
9.088742490E-1,-1.410086155E-1,2.013921738E-1,1.574475765E-1
9.168694120E-1,-2.363994122E-1,1.980628967E-1,1.357274055E-1
9.248653440E-1,-2.709465027E-1,1.995515823E-1,9.597158432E-2
9.328604300E-1,-3.186590672E-1,2.156505585E-1,1.151957512E-1
9.408565160E-1,-4.099824429E-1,2.060689926E-1,1.483204365E-1
9.488527560E-1,-4.819447994E-1,1.758394241E-1,2.023077011E-1
9.568469190E-1,-5.385272503E-1,1.036138535E-1,2.647778988E-1
9.648734660E-1,-5.247609615E-1,1.063861847E-1,3.851637840E-1
9.728687820E-1,-4.591035843E-1,7.338619232E-2,3.723206520E-1
9.808638680E-1,-3.699417114E-1,3.529453278E-2,3.281626701E-1
9.888598770E-1,-3.045642376E-1,6.875896454E-2,1.618213654E-1
9.968556550E-1,-2.558653355E-1,5.897712708E-2,5.325627327E-2
1.004851895E0,-2.154495716E-1,2.292251587E-2,1.509428024E-3
1.012846981E0,-1.680331230E-1,2.531337738E-2,-6.383895874E-2
1.020873144E0,-1.531722546E-1,2.065753937E-2,4.136085510E-3
1.028869230E0,-1.799557209E-1,-1.733684540E-2,7.809114456E-2
1.036864008E0,-2.625591755E-1,-7.663249969E-2,1.388578415E-1
1.044859094E0,-3.201971054E-1,-1.717147827E-1,2.156198025E-1
1.052855718E0,-4.104132652E-1,-2.020053864E-1,2.678744793E-1
1.060851727E0,-3.954386711E-1,-2.275018692E-1,2.247409821E-1
1.068877505E0,-3.173041344E-1,-2.580709457E-1,1.994991302E-1
1.076873284E0,-2.281184196E-1,-2.631502151E-1,1.447160244E-1
1.084869216E0,-1.921429634E-1,-2.951993942E-1,3.420329094E-2
1.092863994E0,-1.534528732E-1,-2.893066406E-1,-4.373598099E-2
1.100859465E0,-1.515853405E-1,-2.309980392E-1,-4.709744453E-2
1.108856089E0,-1.810345650E-1,-2.301387787E-1,-8.367657661E-2
1.116851483E0,-2.293856144E-1,-1.812658310E-1,-4.111838341E-2
1.124878876E0,-2.608387470E-1,-1.371021271E-1,-8.385181427E-4
1.132872962E0,-2.355108261E-1,-1.074838638E-1,4.691267014E-2
1.140867817E0,-1.711516380E-1,-6.168556213E-2,5.898714066E-2
1.148863826E0,-1.230597496E-1,-5.015373230E-2,7.822489738E-2
1.156859451E0,-4.785299301E-2,-2.256298065E-2,8.046483994E-2
1.164856383E0,3.594613075E-2,-3.390979767E-2,1.082665920E-1
1.172851161E0,5.259370804E-2,-1.454067230E-2,1.038055420E-1
1.180877016E0,9.868621826E-3,-5.760574341E-2,9.819960594E-2
1.188872718E0,-7.794785500E-2,-1.209163666E-2,5.618548393E-2
1.196868419E0,-1.797194481E-1,4.064178467E-2,5.930042267E-2
1.204864505E0,-2.902057171E-1,7.454109192E-2,3.844380379E-2
1.212858976E0,-2.995331287E-1,7.771301270E-2,-1.539587975E-2
1.220855215E0,-2.228794098E-1,7.875156403E-2,-2.747488022E-2
1.228850377E0,-5.963134766E-2,6.023502350E-2,-7.912969589E-2
1.236877155E0,4.634261131E-2,1.961040497E-2,-1.107628345E-1
1.244873395E0,1.864137650E-1,4.715919495E-3,-1.421177387E-1
1.252867943E0,2.301437855E-1,-1.054477692E-2,-1.906943321E-1
1.260863952E0,2.571592331E-1,-1.136016846E-2,-2.917437553E-1
1.268859961E0,2.314851284E-1,2.493858337E-3,-3.295848370E-1
1.276855277E0,1.886589527E-1,3.348445892E-2,-3.394570351E-1
1.284850748E0,1.334679127E-1,3.376102448E-2,-3.308329582E-1
1.292876295E0,1.279125214E-1,3.206920624E-2,-3.536415100E-1
1.300872920E0,1.452589035E-1,6.179618835E-2,-3.694767952E-1
1.308868544E0,1.522188187E-1,8.209514618E-2,-3.383638859E-1
1.316863630E0,1.422894001E-1,8.570098877E-2,-2.781143188E-1
1.324859639E0,1.471226215E-1,6.300163269E-2,-2.301700115E-1
1.332854187E0,1.166422367E-1,1.168746948E-1,-1.974127293E-1
1.340849811E0,4.888367653E-2,1.541213989E-1,-1.917996407E-1
1.348876589E0,-2.733969688E-2,1.772813797E-1,-1.914169788E-1
1.356872291E0,-1.075320244E-1,1.264553070E-1,-1.793100834E-1
1.364868069E0,-1.418499947E-1,8.312320709E-2,-1.953935623E-1
1.372863463E0,-1.066508293E-1,6.398773193E-2,-1.987638474E-1
1.380859087E0,5.748772621E-2,6.172847748E-2,-1.821441650E-1
1.388854558E0,1.752824783E-1,6.414794922E-2,-2.198424339E-1
1.396850490E0,2.609634399E-1,1.118869781E-1,-2.209136486E-1
1.404876422E0,3.503801823E-1,1.569480896E-1,-2.071552277E-1
1.412871508E0,3.956191540E-1,1.824922562E-1,-1.787981987E-1
1.420868440E0,4.184486866E-1,2.073621750E-1,-3.418183327E-2
1.428863449E0,4.044075012E-1,1.569395065E-1,9.142088890E-2
1.436858842E0,3.160023689E-1,9.357261658E-2,1.972851753E-1
1.444854851E0,1.899335384E-1,4.644203186E-2,2.431454659E-1
1.452849937E0,4.850888252E-2,4.955863953E-2,2.919073105E-1
1.460876100E0,-8.197379112E-2,3.127861023E-2,3.202524185E-1
1.468871802E0,-1.729350090E-1,2.291297913E-2,2.619562149E-1
1.476867195E0,-1.959352493E-1,-1.145648956E-2,2.370882034E-1
1.484863820E0,-1.491138935E-1,3.820323944E-2,1.334705353E-1
1.492858982E0,-1.025152206E-1,5.444431305E-2,7.356381416E-2
1.500853760E0,-1.348140240E-1,7.082080841E-2,6.903171539E-2
1.508850076E0,-1.425240040E-1,8.021354675E-2,1.050293446E-1
1.516875624E0,-1.444196701E-1,9.446811676E-2,1.878154278E-1
1.524871941E0,-1.430928707E-1,8.466529846E-2,2.428081036E-1
1.532866950E0,-1.435377598E-1,6.502246857E-2,2.985396385E-1
1.540863266E0,-1.485106945E-1,6.182670593E-2,2.978436947E-1
1.548858352E0,-1.767351627E-1,2.970695496E-2,3.291640282E-1
1.556854131E0,-2.635533810E-1,-2.635192871E-2,3.325653076E-1
1.564849524E0,-3.502273560E-1,-6.063747406E-2,3.790040016E-1
1.572875379E0,-4.352853298E-1,-1.207485199E-1,4.029512405E-1
1.580871081E0,-5.114204884E-1,-1.034259796E-1,3.478782177E-1
1.588867090E0,-5.619633198E-1,-8.050537109E-2,3.743886948E-1
1.596863099E0,-6.022739410E-1,-4.748058319E-2,4.637730122E-1
1.604857877E0,-6.294867992E-1,-5.475044250E-2,5.577397346E-1
1.612853809E0,-6.246862411E-1,9.571075439E-3,7.792265415E-1
1.620849818E0,-5.784993172E-1,6.123828888E-2,9.118394852E-1
1.628875442E0,-4.346897602E-1,5.405139923E-2,1.084341288E0
1.636870836E0,-3.444409370E-1,2.136325836E-2,1.213108301E0
1.644866768E0,-3.119452000E-1,-1.202363968E-1,1.358782053E0
1.652862239E0,-3.408575058E-1,-2.982463837E-1,1.505700588E0
1.660858479E0,-4.228684902E-1,-4.711503983E-1,1.588318110E0
1.668853949E0,-5.958459377E-1,-6.121177673E-1,1.741951942E0
1.676849574E0,-7.306675911E-1,-6.468343735E-1,1.845178843E0
1.684876044E0,-8.931097984E-1,-6.592664719E-1,1.953857660E0
1.692871207E0,-1.001209378E0,-6.808509827E-1,2.030596972E0
1.700867216E0,-1.055177212E0,-7.311048508E-1,2.165214539E0
1.708862533E0,-1.255269051E0,-7.813787460E-1,2.262807846E0
1.716858234E0,-1.365630269E0,-8.148431778E-1,2.372086287E0
1.724853397E0,-1.470709562E0,-8.743228912E-1,2.522636890E0
1.732848483E0,-1.511597037E0,-9.321975708E-1,2.679760218E0
1.740875184E0,-1.541116476E0,-1.034193039E0,2.848461390E0
1.748871193E0,-1.396172643E0,-1.192421913E0,3.057079077E0
1.756866279E0,-1.154394269E0,-1.311647415E0,3.300439119E0
1.764862364E0,-8.322399855E-1,-1.361556053E0,3.398597240E0
1.772857988E0,-6.567060947E-1,-1.356925011E0,3.495575428E0
1.780853767E0,-6.055786610E-1,-1.391098976E0,3.641393423E0
1.788848853E0,-5.599446297E-1,-1.528841019E0,3.839750290E0
1.796874631E0,-5.509731770E-1,-1.686468124E0,3.962424755E0
1.804871025E0,-5.965572596E-1,-1.852069855E0,4.030585289E0
1.812866341E0,-6.244432926E-1,-1.951424599E0,4.022986412E0
1.820861812E0,-7.286449671E-1,-2.150008202E0,4.002185822E0
1.828857744E0,-8.274036646E-1,-2.330690384E0,3.952537060E0
1.836853830E0,-9.175262451E-1,-2.405120850E0,3.874712467E0
1.844879608E0,-9.120157957E-1,-2.371060371E0,3.695191383E0
1.852875309E0,-7.789123058E-1,-2.283576012E0,3.539346218E0
1.860870395E0,-4.937818050E-1,-2.291006088E0,3.474370480E0
1.868866481E0,-1.753419638E-1,-2.410662651E0,3.240547657E0
1.876861567E0,1.352640390E-1,-2.475148201E0,3.016751289E0
1.884858499E0,3.864948750E-1,-2.493803978E0,2.781886578E0
1.892852278E0,5.384471416E-1,-2.488426208E0,2.595597744E0
1.900848594E0,5.645002127E-1,-2.526250839E0,2.393518448E0
1.908875065E0,5.141457319E-1,-2.516049385E0,2.159961224E0
1.916870151E0,4.875230789E-1,-2.469446659E0,1.946207523E0
1.924866544E0,4.079474211E-1,-2.479490757E0,1.867945194E0
1.932861630E0,4.194740057E-1,-2.536758423E0,1.834123611E0
1.940856947E0,4.621418715E-1,-2.533143997E0,1.697060108E0
1.948852956E0,4.311599731E-1,-2.519618034E0,1.475116253E0
1.956878504E0,5.398374796E-1,-2.447897434E0,1.250417709E0
1.964874820E0,7.371306419E-1,-2.483087063E0,1.045007706E0
1.972869675E0,8.851729631E-1,-2.575174332E0,8.111371994E-1
1.980865915E0,9.354112148E-1,-2.695343971E0,5.922679901E-1
1.988862232E0,8.835394382E-1,-2.810382843E0,5.629162788E-1
1.996856472E0,8.299335241E-1,-2.934123516E0,5.514402390E-1
2.004853327E0,9.490227699E-1,-3.014413834E0,2.534337044E-1
2.012878644E0,1.101193547E0,-3.041072369E0,1.927614212E-2
2.020875268E0,1.121568561E0,-2.980450630E0,-2.035522461E-1
2.028870045E0,1.071931839E0,-2.911162376E0,-4.340147972E-1
2.036865977E0,9.678754807E-1,-2.779652596E0,-5.397601128E-1
2.044861371E0,8.556332588E-1,-2.727267265E0,-6.597886086E-1
2.052856842E0,8.975807428E-1,-2.786402702E0,-5.345726013E-1
2.060852235E0,1.025518298E0,-2.866984367E0,-6.244249344E-1
2.068848244E0,1.266528726E0,-2.980812550E0,-5.651502609E-1
2.076875022E0,1.497356176E0,-3.020264149E0,-5.913934708E-1
2.084870724E0,1.675705791E0,-3.051840782E0,-6.837430000E-1
2.092865194E0,1.925797343E0,-3.051113129E0,-7.487373352E-1
2.100861126E0,2.046901226E0,-3.039927959E0,-8.442816734E-1
2.108857135E0,1.986177921E0,-2.947694778E0,-9.435076714E-1
2.116852529E0,1.778021097E0,-2.834450245E0,-1.008454323E0
2.124879000E0,1.562447429E0,-2.829041481E0,-1.060446262E0
2.132873855E0,1.375467062E0,-2.871877670E0,-1.197596073E0
2.140869172E0,1.280857205E0,-2.950672626E0,-1.453072548E0
2.148865873E0,1.156513810E0,-2.932460308E0,-1.579610348E0
2.156860343E0,1.092204571E0,-2.819650173E0,-1.586911201E0
2.164856968E0,1.139043570E0,-2.656660557E0,-1.503378391E0
2.172852361E0,1.296057820E0,-2.447649479E0,-1.484447956E0
2.180878217E0,1.445338368E0,-2.359398603E0,-1.334957123E0
2.188874149E0,1.466480732E0,-2.252533913E0,-1.276961327E0
2.196869312E0,1.405513287E0,-2.140281439E0,-1.358705521E0
2.204865551E0,1.303713322E0,-1.935372591E0,-1.329079151E0
2.212860714E0,1.382046461E0,-1.700248003E0,-1.475114346E0
2.220856646E0,1.591255188E0,-1.570306301E0,-1.450455189E0
2.228852040E0,1.746234655E0,-1.459632158E0,-1.362370968E0
2.236877357E0,1.782630682E0,-1.278917313E0,-1.328737259E0
2.244873058E0,1.676555872E0,-9.397959709E-1,-1.337549686E0
2.252869375E0,1.513768673E0,-6.524655819E-1,-1.381693840E0
2.260864461E0,1.340349674E0,-4.137301445E-1,-1.364996433E0
2.268861008E0,1.029739857E0,-1.585056782E-1,-1.325303078E0
2.276856402E0,7.626941204E-1,-5.494880676E-2,-1.208045959E0
2.284852410E0,5.389071703E-1,-2.751612663E-2,-1.191933632E0
2.292877957E0,4.554913640E-1,-7.561993599E-2,-1.153585434E0
2.300873428E0,4.678890109E-1,-1.181576252E-1,-9.677658081E-1
2.308869437E0,6.822922230E-1,-8.872342110E-2,-1.342278481E0
2.316865061E0,9.435552955E-1,-6.021904945E-2,-1.274989128E0
2.324861070E0,1.109302044E0,-4.631376266E-2,-1.359720230E0
2.332855618E0,1.094254017E0,-7.383394241E-2,-1.429683685E0
2.340851627E0,9.368307590E-1,-4.884433746E-2,-1.541338444E0
2.348877174E0,7.822811604E-1,-5.007553101E-2,-1.519609928E0
2.356873722E0,7.378764749E-1,-9.414911270E-2,-1.479290962E0
2.364869192E0,6.424120665E-1,-1.191058159E-1,-1.497228622E0
2.372863663E0,4.718931019E-1,-1.680737734E-1,-1.566648483E0
2.380860518E0,2.102299929E-1,-1.524896622E-1,-1.752635479E0
2.388855681E0,3.512382507E-3,-1.498475075E-1,-1.930992603E0
2.396851690E0,-1.574305296E-1,-8.142828941E-2,-2.276889801E0
2.404877237E0,-1.049019098E-1,5.845522881E-2,-2.488569260E0
2.412872939E0,1.046579480E-1,1.461930275E-1,-2.781295300E0
2.420868871E0,3.987181187E-1,2.758929729E-1,-2.962992191E0
2.428864572E0,5.736443996E-1,3.344706893E-1,-2.982949257E0
2.436860350E0,7.116435766E-1,4.063141644E-1,-3.065600395E0
2.444856359E0,7.153230906E-1,5.244122744E-1,-3.196372032E0
2.452850522E0,6.191508770E-1,6.442642212E-1,-3.439815044E0
2.460876993E0,4.537343383E-1,7.639579773E-1,-3.796054363E0
2.468873310E0,2.918385863E-1,8.846539855E-1,-4.045020103E0
2.476868626E0,5.986678600E-2,1.079011440E0,-4.273173332E0
2.484864635E0,-1.935434341E-1,1.288172603E0,-4.552620411E0
2.492859414E0,-3.091769218E-1,1.474324703E0,-4.615471840E0
2.500855192E0,-3.223435879E-1,1.603316188E0,-4.552840710E0
2.508850893E0,-2.413203716E-1,1.575195551E0,-4.491738796E0
2.516876671E0,-9.544342756E-2,1.559213877E0,-4.317313194E0
2.524872988E0,2.395737171E-2,1.545535684E0,-4.216357231E0
2.532868766E0,9.457170963E-2,1.521736503E0,-4.109929562E0
2.540863852E0,9.667336941E-3,1.507257462E0,-4.034066200E0
2.548859553E0,-1.673545241E-1,1.552269936E0,-4.029710293E0
2.556855869E0,-3.801286817E-1,1.614339590E0,-3.838531494E0
2.564851186E0,-5.120674968E-1,1.686083317E0,-3.630674839E0
2.572876503E0,-5.592910051E-1,1.702877045E0,-3.248282433E0
2.580872127E0,-5.051659942E-1,1.618845463E0,-2.708175659E0
2.588868521E0,-4.641175270E-1,1.520050645E0,-2.316664696E0
2.596863530E0,-4.625340700E-1,1.428188801E0,-2.150232315E0
2.604860539E0,-5.892971158E-1,1.395940065E0,-2.082020760E0
2.612855009E0,-7.704062462E-1,1.423728108E0,-2.071390152E0
2.620850634E0,-8.747567534E-1,1.524098277E0,-2.017875671E0
2.628876489E0,-9.811684489E-1,1.618441343E0,-1.950247765E0
2.636871883E0,-1.001016855E0,1.650509238E0,-1.732145309E0
2.644867892E0,-9.296366572E-1,1.571869135E0,-1.495222092E0
2.652862978E0,-7.657780647E-1,1.348059893E0,-1.246642113E0
2.660859602E0,-5.873577595E-1,1.165266991E0,-1.108525276E0
2.668854996E0,-4.047933817E-1,9.463916421E-1,-9.683389664E-1
2.676850466E0,-2.631743550E-1,9.110932946E-1,-9.840135574E-1
2.684877475E0,-1.708821952E-1,9.226884842E-1,-1.002235413E0
2.692872023E0,-1.596554518E-1,9.522478580E-1,-1.097120285E0
2.700867955E0,-1.774831116E-1,9.804932475E-1,-1.208723068E0
2.708863348E0,-2.379714847E-1,1.031365991E0,-1.404058456E0
2.716858127E0,-3.147775531E-1,1.076016784E0,-1.503555298E0
2.724855059E0,-4.360890090E-1,1.114468098E0,-1.605454445E0
2.732850145E0,-5.273600817E-1,1.144414186E0,-1.673929214E0
2.740876000E0,-5.572187304E-1,1.134972930E0,-1.766533852E0
2.748872393E0,-5.000123978E-1,1.151164293E0,-1.825840473E0
2.756867172E0,-3.773365617E-1,1.195744514E0,-1.904518604E0
2.764863488E0,-2.338915467E-1,1.247206688E0,-1.973781109E0
2.772858267E0,-1.021901071E-1,1.212480307E0,-2.138922215E0
2.780854814E0,-6.718489528E-2,1.167887807E0,-2.325639248E0
2.788851131E0,-5.862706900E-2,1.108407021E0,-2.588937759E0
2.796876755E0,-1.370281577E-1,1.038702726E0,-2.799523354E0
2.804872457E0,-2.250387818E-1,9.196050763E-1,-3.043553829E0
2.812867772E0,-3.833240271E-1,8.293257952E-1,-3.337777138E0
2.820863474E0,-6.284671426E-1,8.694657087E-1,-3.433206081E0
2.828858560E0,-8.523172736E-1,1.117877603E0,-3.435122967E0
2.836853646E0,-8.722494841E-1,1.346298575E0,-3.321895123E0
2.844850039E0,-6.286435127E-1,1.493479252E0,-3.332822323E0
2.852875894E0,-2.799049616E-1,1.522235155E0,-3.328938961E0
2.860872442E0,6.924875081E-2,1.456267715E0,-3.300573826E0
2.868867297E0,2.295068800E-1,1.271432757E0,-3.223742962E0
2.876862614E0,2.680298388E-1,1.062697291E0,-3.129510403E0
2.884858623E0,2.267985344E-1,7.615843415E-1,-3.017790318E0
2.892853093E0,1.456524134E-1,5.871711969E-1,-3.046428680E0
2.900849487E0,8.824944496E-3,5.659312010E-1,-2.982929707E0
2.908875650E0,-1.036764383E-1,7.111670971E-1,-2.728865147E0
2.916871274E0,-1.523568928E-1,8.143063784E-1,-2.561810970E0
2.924867899E0,-9.142416716E-2,8.560031056E-1,-2.508082390E0
2.932862677E0,-2.411240339E-2,9.085038304E-1,-2.589217186E0
2.940858070E0,7.387602329E-2,8.611645699E-1,-2.793387890E0
2.948854387E0,1.057186127E-1,7.224817276E-1,-2.921866417E0
2.956849550E0,2.009339929E-1,4.692494869E-1,-2.845266342E0
2.964876021E0,2.949169874E-1,2.278989553E-1,-2.520447731E0
2.972872030E0,3.954083920E-1,1.257354617E-1,-2.237011433E0
2.980867654E0,5.796490908E-1,1.404165030E-1,-1.875052929E0
2.988862509E0,6.351610422E-1,3.154655099E-1,-1.608985901E0
2.996858134E0,6.373040676E-1,4.864628315E-1,-1.433938980E0
3.004854220E0,5.878795385E-1,3.848662376E-1,-1.440402031E0
3.012879690E0,4.945797920E-1,9.539484978E-3,-1.412222862E0
3.020874468E0,4.378453493E-1,-5.336726904E-1,-1.267845154E0
3.028871477E0,3.914171457E-1,-8.126312494E-1,-1.146489143E0
3.036866179E0,4.042387009E-1,-8.684000969E-1,-1.043888092E0
3.044863111E0,4.629038572E-1,-5.954968929E-1,-7.924880981E-1
3.052858504E0,6.412060261E-1,-1.743240356E-1,-5.872354507E-1
3.060853667E0,8.505344391E-1,9.519743919E-2,-4.528236389E-1
3.068878830E0,9.197835922E-1,1.455845833E-1,-3.634700775E-1
3.076875146E0,8.060300350E-1,-5.505180359E-2,-2.160959244E-1
3.084872078E0,5.387327671E-1,-2.407522202E-1,-7.835769653E-2
3.092866241E0,1.886184216E-1,-5.518836975E-1,2.557458878E-1
3.100862865E0,-3.893041611E-2,-9.310803413E-1,4.977064133E-1
3.108857951E0,-1.133358479E-1,-1.122362852E0,6.075859070E-1
3.116853729E0,-4.015374184E-2,-1.046446800E0,7.295265198E-1
3.124879585E0,1.575644016E-1,-7.456445694E-1,8.564777374E-1
3.132874978E0,3.725020885E-1,-4.386482239E-1,8.801803589E-1
3.140870603E0,4.566581249E-1,-3.043539524E-1,6.698923111E-1
3.148865689E0,3.675940037E-1,-2.749178410E-1,3.829097748E-1
3.156861775E0,1.588864326E-1,-3.210563660E-1,5.896472931E-2
3.164858014E0,-6.833672523E-2,-3.858630657E-1,1.030540466E-1
3.172853177E0,-2.457733154E-1,-5.851080418E-1,5.001268387E-1
3.180849109E0,-3.263244629E-1,-8.299582005E-1,8.749942780E-1
3.188875272E0,-1.641643047E-1,-9.041016102E-1,1.452719688E0
3.196870743E0,1.843924522E-1,-8.658061028E-1,1.754706383E0
3.202852519E0,4.104654789E-1,-7.349514961E-1,1.717654228E0
3.204866444E0,4.583497047E-1,-7.325572968E-1,1.698500633E0
3.212861145E0,5.571191311E-1,-5.787434578E-1,1.475032806E0
3.220858385E0,4.446129799E-1,-4.934411049E-1,1.221572876E0
3.228854086E0,2.454879284E-1,-4.639606476E-1,8.693389893E-1
3.236879634E0,1.261689663E-1,-5.256204605E-1,5.126395226E-1
3.244875028E0,-2.997612953E-2,-6.118240356E-1,2.846260071E-1
3.252870498E0,-2.291924953E-1,-7.664065361E-1,2.642436028E-1
3.260866199E0,-3.440120220E-1,-8.711328506E-1,6.061482430E-1
3.268862439E0,-1.912727356E-1,-8.158473969E-1,1.194028378E0
3.276857910E0,1.241185665E-1,-6.501240730E-1,1.673842907E0
3.284853534E0,5.124249458E-1,-6.283621788E-1,1.997472763E0
3.292879159E0,6.879010201E-1,-7.088408470E-1,2.068615437E0
3.300875091E0,6.504058838E-1,-7.000985146E-1,1.948216915E0
3.308869638E0,5.354290009E-1,-7.015728951E-1,1.723447323E0
3.316866263E0,4.479870796E-1,-6.856760979E-1,1.487205029E0
3.324862502E0,3.278584480E-1,-7.921781540E-1,1.192706108E0
3.332857280E0,1.077351570E-1,-8.483490944E-1,1.070071220E0
3.340852750E0,-9.607934952E-2,-8.174567223E-1,1.283280373E0
3.348879528E0,-2.483515739E-1,-6.611981392E-1,1.804003239E0
3.356874307E0,-1.532158852E-1,-3.918776512E-1,2.215662956E0
3.364871162E0,1.780500412E-1,-1.428394318E-1,2.395763397E0
3.372864402E0,4.542188644E-1,-1.381273270E-1,2.482856750E0
3.388857958E0,6.454234123E-1,-4.149041176E-1,2.420270443E0
3.396852506E0,6.123542786E-1,-5.241670609E-1,2.327002525E0
3.404879207E0,5.526256561E-1,-6.508255005E-1,2.172103882E0
3.412873754E0,4.463305473E-1,-7.251124382E-1,2.049532890E0
3.420869687E0,1.865043640E-1,-8.451294899E-1,1.996213436E0
3.428865696E0,-1.349897385E-1,-8.214526176E-1,1.987068653E0
3.436860781E0,-3.138809204E-1,-5.762453079E-1,1.916884899E0
3.444856791E0,-3.249735832E-1,-2.650995255E-1,1.808170319E0
3.452852492E0,-2.029509544E-1,-1.390690804E-1,1.743746281E0
3.460878962E0,-7.280349731E-3,-1.360001564E-1,1.596467972E0
3.468873125E0,1.776580811E-1,-2.003550529E-1,1.655276775E0
3.476870134E0,3.733377457E-1,-2.050900459E-1,1.688665390E0
3.484865220E0,6.720809937E-1,-2.248716354E-1,1.656582832E0
3.492860614E0,7.856645584E-1,-2.869896889E-1,1.465090275E0
3.500855931E0,7.700538635E-1,-3.236336708E-1,1.240072727E0
3.508852247E0,6.959877014E-1,-3.347043991E-1,1.106953144E0
3.516879410E0,5.332021713E-1,-2.585072517E-1,9.189882278E-1
3.524874727E0,3.484225273E-1,-9.883165359E-2,7.426357269E-1
3.532869274E0,1.865377426E-1,5.373859406E-2,6.556634903E-1
3.540865283E0,1.634225845E-1,2.366561890E-1,5.574903488E-1
3.548860600E0,2.763314247E-1,3.331708908E-1,5.492353439E-1
3.556855763E0,3.405747414E-1,3.941497803E-1,6.077513695E-1
3.564852310E0,4.695467949E-1,5.067133904E-1,7.597198486E-1
3.572877935E0,6.342372894E-1,5.447969437E-1,9.850206375E-1
3.580874175E0,8.014636040E-1,5.058536530E-1,1.488029003E0
3.588869568E0,8.684144020E-1,3.954477310E-1,1.750376225E0
3.596865039E0,8.676028252E-1,1.468110085E-1,1.694710255E0
3.604860662E0,7.708945274E-1,-2.772617340E-2,1.518192291E0
3.612855825E0,4.749140739E-1,-5.432271957E-2,1.173340797E0
3.620850834E0,1.283211708E-1,-5.229806900E-2,8.165354729E-1
3.628878535E0,-1.444330215E-1,-1.213221550E-1,5.708823204E-1
3.636873391E0,-3.074116707E-1,-2.397890091E-1,3.516440392E-1
3.644869092E0,-3.115439415E-1,-2.717013359E-1,2.685935497E-1
3.652864409E0,-1.267781258E-1,-1.111726761E-1,2.833230495E-1
3.660860725E0,2.157330513E-1,1.433587074E-1,4.581801891E-1
3.668856811E0,6.181917191E-1,1.870837212E-1,5.644943714E-1
3.676851590E0,1.006019592E0,-2.938175201E-2,6.861009598E-1
3.684877983E0,1.158148289E0,-2.778072357E-1,8.563132286E-1
3.692873146E0,1.165398598E0,-4.665775299E-1,8.726410866E-1
3.700868232E0,1.082263470E0,-5.503787994E-1,8.808848858E-1
3.708864779E0,8.519382477E-1,-5.871763229E-1,8.144750595E-1
3.716860250E0,5.558614731E-1,-6.614470482E-1,7.005484104E-1
3.724856259E0,2.701663971E-1,-6.755843163E-1,5.527999401E-1
3.732850730E0,1.340484619E-2,-6.803483963E-1,3.804223537E-1
3.740877431E0,-1.764321327E-1,-6.993975639E-1,2.897689342E-1
3.748873825E0,-3.878526688E-1,-6.675591469E-1,3.010687828E-1
3.756868603E0,-5.222163200E-1,-3.812437057E-1,4.880158901E-1
3.764864535E0,-4.785914421E-1,-7.313156128E-2,7.171852589E-1
3.772859698E0,-1.767730713E-1,-5.136489868E-3,9.161045551E-1
3.780856245E0,1.751236916E-1,-1.542062759E-1,1.148062229E0
3.788851408E0,4.246745110E-1,-3.885793686E-1,1.264796019E0
3.796877186E0,4.598579407E-1,-5.141344070E-1,1.356928110E0
3.804873195E0,3.494744301E-1,-6.088962555E-1,1.440956593E0
3.812868666E0,1.672043800E-1,-6.696376801E-1,1.549630165E0
3.820863675E0,-7.065773010E-3,-6.697082520E-1,1.598558664E0
3.828860069E0,-2.961325645E-1,-7.247495651E-1,1.567693233E0
3.836855078E0,-5.334343910E-1,-7.489690781E-1,1.498263359E0
3.844851702E0,-8.130064011E-1,-7.474508286E-1,1.380882263E0
3.852876711E0,-9.978678226E-1,-6.792554855E-1,1.279969692E0
3.860872720E0,-1.053781748E0,-6.608076096E-1,1.271184444E0
3.868868728E0,-8.991377354E-1,-5.840473175E-1,1.350407600E0
3.876863737E0,-6.045284271E-1,-5.045404434E-1,1.329003096E0
3.884859746E0,-1.747064590E-1,-3.901596069E-1,1.376710892E0
3.892855217E0,2.567696571E-1,-2.898387909E-1,1.349705219E0
3.900850841E0,5.242662430E-1,-2.303981781E-1,1.311664104E0
3.908876773E0,7.118940353E-1,-2.429466248E-1,1.295441151E0
3.916872167E0,7.391815186E-1,-2.697877884E-1,1.264114618E0
3.924868407E0,6.051707268E-1,-3.199672699E-1,1.221585989E0
3.932863877E0,3.947343826E-1,-3.834896088E-1,1.155317068E0
3.940860194E0,6.033182144E-2,-4.863872528E-1,1.044107914E0
3.948855280E0,-1.918959618E-1,-5.349416733E-1,9.868426323E-1
3.956850673E0,-2.810616493E-1,-5.074577332E-1,9.585459232E-1
3.964877759E0,-2.411751747E-1,-4.254913330E-1,9.384963512E-1
3.972872153E0,-1.518430710E-1,-3.346614838E-1,1.015842915E0
3.980868777E0,8.000373840E-3,-2.663679123E-1,1.099491596E0
3.988864479E0,1.973271370E-1,-2.519779205E-1,1.134121418E0
3.996859565E0,2.841424942E-1,-2.800693512E-1,1.130405188E0
4.004855343E0,2.662243843E-1,-2.956352234E-1,1.023236513E0
4.012880275E0,1.795721054E-1,-2.891902924E-1,8.505160809E-1
4.020876899E0,8.217144012E-2,-3.200244904E-1,6.347806454E-1
4.028871678E0,8.186864853E-2,-2.753238678E-1,5.060961246E-1
4.036867302E0,1.186690331E-1,-1.980838776E-1,3.165650368E-1
4.044864234E0,1.279320717E-1,-1.550598145E-1,1.820137501E-1
4.052858782E0,2.008147240E-1,-1.888847351E-1,1.107666492E-1
4.060855021E0,2.824597359E-1,-3.087005615E-1,7.745099068E-2
4.068850492E0,3.460531235E-1,-3.949317932E-1,6.798434258E-2
4.076875963E0,2.912116051E-1,-4.063100815E-1,-1.679229736E-2
4.084873510E0,2.162041664E-1,-4.125127792E-1,-1.850275993E-1
4.092867673E0,8.297491074E-2,-3.994512558E-1,-3.230099678E-1
4.100863374E0,-3.627490997E-2,-3.649835587E-1,-4.584100246E-1
4.108858845E0,-8.353090286E-2,-3.420658112E-1,-5.712399483E-1
4.116854238E0,-6.761407852E-2,-3.172969818E-1,-7.063016891E-1
4.124880940E0,-2.912950516E-2,-2.922925949E-1,-7.297546864E-1
4.132876025E0,2.425909042E-2,-2.932109833E-1,-7.792203426E-1
4.140872418E0,1.368279457E-1,-3.268060684E-1,-7.580692768E-1
4.148867812E0,1.598200798E-1,-3.360404968E-1,-7.508456707E-1
4.156862590E0,1.292142868E-1,-3.163633347E-1,-7.271838188E-1
4.164859215E0,4.301881790E-2,-2.749538422E-1,-6.804666519E-1
4.172854531E0,-6.230211258E-2,-2.403278351E-1,-6.850664616E-1
4.180881079E0,-1.645450592E-1,-2.166662216E-1,-7.448873520E-1
4.188875857E0,-2.607669830E-1,-1.437368393E-1,-7.494084835E-1
4.196870866E0,-2.812089920E-1,-1.100749969E-1,-6.749501228E-1
4.204868106E0,-2.878355980E-1,-8.250331879E-2,-5.541136265E-1
4.212862884E0,-2.951979637E-1,-4.732990265E-2,-4.126770496E-1
4.220857970E0,-2.748160362E-1,-4.642295837E-2,-1.679100990E-1
4.228854594E0,-2.577652931E-1,-7.050895691E-2,1.617383957E-2
4.236881142E0,-2.073040009E-1,-1.289062500E-1,3.408129215E-1
4.244876536E0,-1.941285133E-1,-2.175111771E-1,6.548480988E-1
4.252871622E0,-2.393741608E-1,-3.174524307E-1,1.075611591E0
4.260866631E0,-2.942194939E-1,-4.607172012E-1,1.512735605E0
4.268862101E0,-2.626781464E-1,-7.136707306E-1,2.153702259E0
4.276858418E0,-1.888322830E-1,-9.760370255E-1,2.795262337E0
4.284854042E0,-1.825795174E-1,-1.048615456E0,3.428341627E0
4.292879667E0,-3.059570789E-1,-9.994678497E-1,4.221007347E0
4.300875906E0,-4.900977612E-1,-1.051239967E0,4.904624939E0
4.308870992E0,-7.987720966E-1,-1.287189484E0,5.638933182E0
4.316866386E0,-1.215761662E0,-1.547529221E0,6.052354813E0
4.324863318E0,-1.595497608E0,-1.662465096E0,6.284518242E0
4.332858173E0,-1.950521469E0,-1.686543465E0,6.338293076E0
4.340854105E0,-2.192084312E0,-1.686570168E0,6.193057060E0
4.348880037E0,-2.250101566E0,-1.740823746E0,5.948504448E0
4.356875662E0,-2.080506325E0,-1.681372643E0,5.769888878E0
4.364872363E0,-1.610689640E0,-1.556017876E0,5.611388683E0
4.372866218E0,-1.002792358E0,-1.482500076E0,5.517183304E0
4.380862458E0,-4.473369122E-1,-1.549872398E0,5.399517059E0
4.388858543E0,8.642864227E-2,-1.739413261E0,5.349566460E0
4.396853321E0,5.650866032E-1,-1.965933800E0,5.145615578E0
4.404880330E0,1.109582186E0,-2.135012627E0,4.698370934E0
4.412875109E0,1.567241907E0,-2.156889915E0,4.123034000E0
4.420870810E0,1.871990442E0,-1.969606400E0,3.447653294E0
4.428866511E0,1.967367887E0,-1.732870102E0,2.707104683E0
4.436862213E0,1.829393625E0,-1.605289936E0,2.231544495E0
4.444858606E0,1.566516876E0,-1.601874828E0,2.041427135E0
4.452852769E0,1.513130188E0,-1.716917992E0,1.977278709E0
4.460879547E0,1.620733261E0,-1.907978535E0,1.987842083E0
4.468874633E0,1.871605396E0,-2.246229172E0,1.887526035E0
4.476871181E0,2.030745745E0,-2.602228642E0,1.591227531E0
4.484866574E0,2.180854082E0,-3.046634674E0,1.271245003E0
4.492862276E0,2.381700516E0,-3.266780376E0,8.518218994E-1
4.500857362E0,2.684330463E0,-3.285135269E0,4.026598930E-1
4.508853448E0,2.826473951E0,-3.170916557E0,2.264342308E-1
4.516879226E0,2.769175291E0,-3.136640072E0,6.832170486E-2
4.524875312E0,2.548441410E0,-3.030533314E0,6.269121170E-2
4.532870321E0,2.298622370E0,-2.898520470E0,2.973127365E-2
4.540866714E0,1.893325806E0,-2.718805313E0,1.384644508E-1
4.548862339E0,1.440137148E0,-2.551734447E0,2.843289375E-1
4.556857425E0,1.166914225E0,-2.527742386E0,2.324619293E-1
4.564853126E0,1.103925943E0,-2.610997677E0,2.296800613E-1
4.572878751E0,1.243947506E0,-2.715223312E0,1.491541862E-1
4.580875606E0,1.365653515E0,-2.839959621E0,6.261634827E-2
4.588871076E0,1.372900963E0,-2.886651039E0,-2.505860329E-1
4.596865854E0,1.331864357E0,-2.840035915E0,-4.415154457E-1
4.604862479E0,1.226792812E0,-2.743162632E0,-6.596732140E-1
4.612857180E0,1.085722446E0,-2.687033653E0,-7.433705330E-1
4.620853266E0,8.481264114E-1,-2.607429981E0,-8.675103188E-1
4.628878814E0,6.828861237E-1,-2.561019421E0,-8.468818665E-1
4.636874823E0,5.543506145E-1,-2.502278805E0,-7.216253281E-1
4.644871062E0,5.269711018E-1,-2.541864872E0,-7.739739418E-1
4.652865840E0,5.910470486E-1,-2.622138977E0,-9.530081749E-1
4.660861849E0,7.507364750E-1,-2.669197559E0,-1.139241219E0
4.668857550E0,1.040715694E0,-2.782011032E0,-1.258098125E0
4.676852713E0,1.329567194E0,-2.896780014E0,-1.334872246E0
4.684880030E0,1.494946003E0,-3.052437305E0,-1.533312798E0
4.692874269E0,1.544796705E0,-3.117583275E0,-1.638272762E0
4.700869663E0,1.524936557E0,-3.013104677E0,-1.704821110E0
4.708865672E0,1.484575272E0,-2.887497663E0,-1.651313305E0
4.716861912E0,1.418832660E0,-2.768656731E0,-1.697145939E0
4.724857305E0,1.373926282E0,-2.589095592E0,-1.699928761E0
4.732851853E0,1.338334799E0,-2.312123775E0,-1.594551563E0
4.740878324E0,1.340177774E0,-2.096020699E0,-1.480317593E0
4.748874256E0,1.259876370E0,-2.007852554E0,-1.394920349E0
4.756869726E0,1.089100957E0,-1.860321522E0,-1.541311264E0
4.764866043E0,1.045337915E0,-1.737983942E0,-1.665609360E0
4.772860821E0,9.821727276E-1,-1.497030973E0,-1.672224998E0
4.780857138E0,9.058768749E-1,-1.278394699E0,-1.625571251E0
4.788851839E0,8.969955444E-1,-1.083253622E0,-1.538038731E0
4.796878079E0,9.381674528E-1,-8.320739269E-1,-1.442193508E0
4.804874934E0,9.817850590E-1,-6.032347679E-1,-1.357005596E0
4.812869405E0,9.842088223E-1,-3.696742058E-1,-1.207020760E0
4.820865798E0,9.819815159E-1,-2.382438183E-1,-9.228963852E-1
4.828861423E0,1.032047868E0,-1.011729240E-1,-5.519828796E-1
4.836856509E0,1.077606201E0,1.517534256E-3,-2.654237747E-1
4.844853133E0,9.885668755E-1,1.006288528E-1,-1.198959351E-1
4.852877834E0,8.446291685E-1,1.661872864E-1,1.367416382E-1
4.860873767E0,6.831382513E-1,4.144954681E-2,6.954069138E-1
4.868869237E0,4.243948460E-1,-6.534409523E-2,8.176393509E-1
4.876864938E0,4.734504223E-2,-8.229970932E-3,6.796817780E-1
4.884861255E0,-3.809888363E-1,1.246106625E-1,4.842977524E-1
4.892856264E0,-8.866407871E-1,3.370432854E-1,2.768592834E-1
4.900852658E0,-1.264624834E0,4.107950926E-1,1.449642181E-1
4.908877821E0,-1.456145167E0,5.320508480E-1,-3.194236755E-2
4.916873829E0,-1.379473209E0,5.119456053E-1,-2.667713165E-2
4.924869530E0,-1.088531733E0,3.919967413E-1,-1.256656647E-2
4.932864616E0,-7.026019096E-1,1.571247578E-1,-1.250448227E-1
4.940860317E0,-3.668521643E-1,-1.084673405E-2,-2.653684616E-1
4.948856019E0,-1.228940487E-1,-7.448613644E-2,-4.771270752E-1
4.956883181E0,-1.699030399E-2,1.192903519E-2,-7.397556305E-1
4.964878806E0,-6.102478504E-2,2.467401028E-1,-1.123923302E0
4.972872738E0,-2.266569138E-1,4.957650304E-1,-1.498660088E0
4.980869055E0,-4.018579721E-1,5.758553147E-1,-1.880726337E0
4.988864679E0,-6.093096733E-1,6.195249557E-1,-2.339049816E0
4.996860765E0,-7.580614686E-1,6.873453259E-1,-2.631944180E0
5.004857312E0,-7.960692644E-1,7.219885588E-1,-2.811790466E0
5.012881937E0,-7.448744178E-1,7.000055313E-1,-2.957399368E0
5.020878254E0,-6.852434874E-1,5.996075869E-1,-3.214771748E0
5.032871191E0,-6.698868275E-1,2.299462855E-1,-3.678983212E0
5.034854962E0,-6.483389735E-1,1.868506670E-1,-3.779539585E0
5.036868425E0,-6.267911792E-1,1.605144441E-1,-3.829817772E0
5.044865742E0,-4.292606115E-1,-5.907547474E-2,-4.185392380E0
5.052859905E0,-1.993983984E-1,-8.744600415E-2,-4.598206997E0
5.060855914E0,1.393604279E-2,1.026757061E-1,-4.973184586E0
5.068882000E0,1.446715593E-1,4.554784596E-1,-5.407166004E0
5.076877778E0,1.873610020E-1,7.158334255E-1,-5.578196526E0
5.084873403E0,1.338839531E-1,9.479291439E-1,-5.580476284E0
5.092868489E0,-1.422040462E-1,1.125009894E0,-5.457695007E0
5.100864575E0,-6.627429128E-1,1.271648049E0,-5.166356564E0
5.108859891E0,-1.129686117E0,1.447727919E0,-5.139012337E0
5.116855977E0,-1.541100502E0,1.679177999E0,-5.456082821E0
5.124882448E0,-1.671724796E0,2.210391760E0,-5.830074787E0
5.132876918E0,-1.635962009E0,2.669082642E0,-6.091669083E0
5.140873235E0,-1.522839785E0,3.023805618E0,-6.155662060E0
5.148868629E0,-1.497184396E0,3.153148413E0,-6.097111702E0
5.156864253E0,-1.533532739E0,3.198430061E0,-5.748908043E0
5.164860570E0,-1.558758974E0,3.043696404E0,-5.094213963E0
5.172855116E0,-1.599008203E0,2.839479446E0,-4.637256622E0
5.180880587E0,-1.632907510E0,2.612096310E0,-4.087264061E0
5.188877211E0,-1.689905405E0,2.458014965E0,-3.687610149E0
5.196873297E0,-1.707461596E0,2.374637127E0,-3.270200253E0
5.204868922E0,-1.759467602E0,2.295195580E0,-3.057486057E0
5.212863777E0,-1.824123621E0,2.319385052E0,-2.819856644E0
5.220860017E0,-1.878402710E0,2.427138329E0,-2.722754478E0
5.228854564E0,-1.881505132E0,2.618772507E0,-2.716294289E0
5.236881881E0,-1.853446960E0,2.806676388E0,-2.599729061E0
5.244877351E0,-1.727101803E0,2.819131374E0,-2.327786446E0
5.252872360E0,-1.530665398E0,2.619780540E0,-1.859735489E0
5.260868446E0,-1.399410248E0,2.370485067E0,-1.446787834E0
5.268863840E0,-1.331654072E0,2.216837883E0,-1.124610901E0
5.276858926E0,-1.275919318E0,2.064853191E0,-8.043622971E-1
5.284855858E0,-1.288406610E0,1.962122440E0,-6.414442062E-1
5.292881021E0,-1.317513943E0,1.939826131E0,-6.286182404E-1
5.300876722E0,-1.286254644E0,1.993500471E0,-6.078948975E-1
5.308872731E0,-1.148565769E0,2.090485573E0,-6.489191055E-1
5.316867894E0,-9.695407748E-1,2.125999451E0,-5.939626694E-1
5.324864134E0,-8.362711072E-1,2.060847998E0,-5.246496201E-1
5.332858066E0,-7.495344877E-1,1.951470733E0,-4.193334579E-1
5.340854998E0,-7.029223442E-1,1.865405321E0,-3.261232376E-1
5.348881161E0,-6.767774820E-1,1.776739955E0,-2.495994568E-1
5.356876247E0,-8.509715796E-1,1.719425678E0,-2.637462616E-1
5.364873179E0,-1.052147865E0,1.637827277E0,-3.683319092E-1
5.372867572E0,-1.278205633E0,1.555667400E0,-5.322465897E-1
5.380863582E0,-1.323867798E0,1.459853888E0,-6.622705460E-1
5.388858744E0,-1.265603185E0,1.302027583E0,-8.376722336E-1
5.396854446E0,-1.139195800E0,1.212808132E0,-1.097105026E0
5.404881147E0,-1.026658058E0,1.070286036E0,-1.345149994E0
5.412875925E0,-9.845948219E-1,8.874421120E-1,-1.622940063E0
5.420871627E0,-9.581384659E-1,8.339318633E-1,-1.820322037E0
5.428868251E0,-9.024082422E-1,8.386088014E-1,-1.927499771E0
5.436863951E0,-8.693543673E-1,9.219965339E-1,-1.964892864E0
5.444859037E0,-9.694678783E-1,1.164012671E0,-2.169469357E0
5.452854508E0,-1.133538604E0,1.419829130E0,-2.452735424E0
5.460880363E0,-1.219208956E0,1.506567001E0,-2.778813362E0
5.468876064E0,-1.282736778E0,1.418529987E0,-3.315297604E0
5.476872304E0,-1.259787440E0,1.384489059E0,-3.715031147E0
5.484868082E0,-1.185452938E0,1.355669975E0,-4.006803989E0
5.492862861E0,-1.020916462E0,1.281280756E0,-4.049398899E0
5.500859485E0,-9.198945165E-1,1.252127886E0,-3.814072132E0
5.508854571E0,-8.026580215E-1,1.188304186E0,-3.523567677E0
5.516880118E0,-7.048967481E-1,1.117569685E0,-3.304885864E0
5.524876743E0,-7.019975185E-1,1.005123019E0,-3.033555984E0
5.532871136E0,-8.159163594E-1,8.908226490E-1,-2.896249294E0
5.540867222E0,-9.674785137E-1,8.343751431E-1,-2.713162899E0
5.548862924E0,-1.124072909E0,7.908840775E-1,-2.598850727E0
5.556858317E0,-1.137961149E0,7.458692193E-1,-2.497826576E0
5.564854634E0,-1.054698586E0,5.411205888E-1,-2.395330906E0
5.572880105E0,-9.637175202E-1,3.050420880E-1,-2.389279842E0
5.580875575E0,-8.303929567E-1,1.419580877E-1,-2.496429920E0
5.588871507E0,-7.323937416E-1,1.144986898E-1,-2.522884369E0
5.596866055E0,-6.774685383E-1,1.938227415E-1,-2.437646389E0
5.604863295E0,-5.697273612E-1,3.516506255E-1,-2.178373337E0
5.612858073E0,-5.285974145E-1,5.829059482E-1,-1.843182087E0
5.620854313E0,-4.612690210E-1,7.995139360E-1,-1.530017853E0
5.628879552E0,-4.344525337E-1,8.022992611E-1,-1.341404915E0
5.636875946E0,-4.300230742E-1,5.795155764E-1,-1.320073128E0
5.644872494E0,-3.366740942E-1,2.511655092E-1,-1.286430359E0
5.652866964E0,-2.493994236E-1,1.302202344E-1,-1.254858017E0
5.660862742E0,-1.094331741E-1,2.651442885E-1,-1.373816490E0
5.668858136E0,-3.883576393E-2,5.443111658E-1,-1.258067131E0
5.676854453E0,8.693647385E-2,8.301029801E-1,-1.027547836E0
5.684880539E0,2.352797985E-1,8.902558088E-1,-8.098030090E-1
5.692875394E0,3.744394779E-1,8.095874190E-1,-6.677103043E-1
5.700871941E0,4.119060040E-1,4.861663580E-1,-4.120607376E-1
5.708866180E0,2.866942883E-1,1.011611223E-1,-2.576627731E-1
5.716862112E0,5.873942375E-2,-3.166346550E-1,-2.325220108E-1
5.724857890E0,-6.865215302E-2,-4.311389923E-1,-2.033948898E-1
5.732854130E0,-6.249618530E-2,-3.127148151E-1,-7.382869720E-2
5.740880293E0,1.410171986E-1,-1.010434628E-1,1.212272644E-1
5.748875994E0,4.214460850E-1,-9.008646011E-3,1.936559677E-1
5.756870773E0,8.499395847E-1,-5.415725708E-2,6.644725800E-2
5.764865936E0,1.108769655E0,-1.653106213E-1,2.929687500E-2
5.772861945E0,1.201798677E0,-2.554247379E-1,4.181861877E-2
5.780857569E0,1.074007988E0,-4.090437889E-1,1.155519485E-1
5.788884655E0,8.400344849E-1,-6.912622452E-1,3.021211624E-1
5.796879433E0,6.092500687E-1,-1.119798183E0,4.872970581E-1
5.804875750E0,4.747505188E-1,-1.300972223E0,6.414995193E-1
5.812870297E0,4.672930241E-1,-1.296117544E0,7.456092834E-1
5.820867229E0,5.178263187E-1,-1.073132038E0,8.023395538E-1
5.828862546E0,5.637691021E-1,-8.655338287E-1,7.521371841E-1
5.836857940E0,5.193922520E-1,-8.001205921E-1,6.498556137E-1
5.844854256E0,3.173570633E-1,-7.268736362E-1,6.149024963E-1
5.852879265E0,-2.684831619E-2,-5.770454407E-1,6.665468216E-1
5.860874890E0,-3.755276203E-1,-5.299212933E-1,8.853197098E-1
5.868870591E0,-5.126075745E-1,-7.760658264E-1,1.177721024E0
5.876865985E0,-4.736404419E-1,-1.274347305E0,1.494608879E0
5.884862609E0,-3.845269680E-1,-1.476010323E0,1.745212555E0
5.892857388E0,-2.106766701E-1,-1.234639645E0,1.454627037E0
5.900853089E0,-1.659846306E-1,-6.660552025E-1,1.223855972E0
5.908879021E0,-1.062633991E-1,-6.750583649E-3,9.262132645E-1
5.916874722E0,8.099317551E-2,3.599920273E-1,8.646163940E-1
5.924871577E0,3.787913322E-1,3.851389885E-1,8.718090057E-1
5.932865433E0,6.955451965E-1,1.053195000E-1,1.164061069E0
5.940861826E0,8.459405899E-1,-1.931548119E-1,1.533988953E0
5.948857758E0,8.152279854E-1,-4.887518883E-1,1.987268448E0
5.956853460E0,7.087159157E-1,-7.254691124E-1,2.279882431E0
5.964879315E0,5.246858597E-1,-8.160204887E-1,2.444244385E0
5.972875092E0,1.756839752E-1,-8.459534645E-1,2.423634052E0
5.980871024E0,-1.945710182E-1,-7.150716782E-1,2.159158230E0
5.988865572E0,-5.274319649E-1,-3.520674706E-1,1.736676216E0
5.996861273E0,-6.140358448E-1,-4.499292374E-2,1.477993488E0
6.004857205E0,-4.350223541E-1,1.140899658E-1,1.361087799E0
6.012882753E0,-5.205869675E-2,1.663713455E-1,1.386940002E0
6.020879069E0,3.091540337E-1,1.814141273E-1,1.710175991E0
6.028874463E0,6.034708023E-1,1.698112488E-2,2.198018074E0
6.036870241E0,7.607474327E-1,-2.254781723E-1,2.566997051E0
6.044867096E0,7.354502678E-1,-5.453281403E-1,2.766731262E0
6.052860721E0,5.328774452E-1,-6.787586212E-1,2.614500046E0
6.060856730E0,2.427797318E-1,-6.207909584E-1,2.460641861E0
6.068883123E0,-1.895804405E-1,-4.686551094E-1,2.130847931E0
6.076878594E0,-4.695529938E-1,-3.530402184E-1,1.877245903E0
6.084874218E0,-6.400847435E-1,-2.439298630E-1,1.717758656E0
6.092869920E0,-6.748604774E-1,-1.167726517E-2,1.765301704E0
6.100865929E0,-5.193843842E-1,2.317872047E-1,1.870194912E0
6.108861399E0,-2.371602058E-1,2.657837868E-1,2.054615498E0
6.116856716E0,5.195713043E-2,1.480803490E-1,2.142014980E0
6.124882648E0,3.161706924E-1,-2.295622826E-1,2.266954422E0
6.132877965E0,4.907822609E-1,-3.841156960E-1,2.484145641E0
6.140874051E0,6.046586037E-1,-3.544964790E-1,2.687432766E0
6.148869752E0,6.781873703E-1,-3.832707405E-1,2.610972881E0
6.156865069E0,6.217479706E-1,-4.460797310E-1,2.356368065E0
6.164861385E0,3.216743469E-1,-4.130244255E-1,1.982617378E0
6.172856241E0,-5.650758743E-2,-2.562656403E-1,1.757040024E0
6.180882942E0,-3.475322723E-1,-7.763242722E-2,1.549381733E0
6.188878413E0,-3.873591423E-1,-2.023887634E-2,1.596167564E0
6.196873729E0,-2.742972374E-1,-3.472328186E-3,1.826953888E0
6.204870046E0,-2.187266350E-1,4.313755035E-2,2.110160828E0
6.212865516E0,-1.935071945E-1,4.952192307E-2,2.163954735E0
6.220860602E0,-2.107820511E-1,-3.018474579E-2,2.074191093E0
6.228856303E0,-2.049145699E-1,-5.894756317E-2,1.934206963E0
6.236883004E0,-1.065969467E-1,5.704212189E-2,1.744780064E0
6.244878782E0,1.807260513E-2,1.714482307E-1,1.530695915E0
6.252873253E0,4.509210587E-2,1.639938354E-1,1.314222813E0
6.260869262E0,1.281452179E-2,6.403017044E-2,9.888682365E-1
6.268865271E0,3.040790558E-2,-2.907848358E-2,7.295846939E-1
6.276860049E0,1.468749046E-1,-6.805086136E-2,6.005930901E-1
6.284856058E0,3.844661713E-1,1.134457588E-1,7.470891476E-1
6.292882452E0,6.087193489E-1,3.408713341E-1,1.162710667E0
6.300878461E0,7.720661163E-1,3.325099945E-1,1.544514894E0
6.308873239E0,7.960333824E-1,7.497549057E-2,1.649572372E0
6.316869017E0,6.567034721E-1,-1.391811371E-1,1.529105663E0
6.324865257E0,4.859428406E-1,-1.739010811E-1,1.385605812E0
6.332860112E0,2.458782196E-1,-1.642727852E-1,1.225969553E0
6.340856121E0,-8.371353149E-3,-1.921339035E-1,1.089818954E0
6.348882207E0,-1.929149628E-1,-2.048082352E-1,1.015205145E0
6.356877678E0,-3.001966476E-1,-1.404290199E-1,8.114888668E-1
6.364873995E0,-2.726655006E-1,2.968835831E-2,6.913628578E-1
6.372868696E0,-1.349148750E-1,3.623800278E-1,5.536146164E-1
6.380864397E0,4.970788956E-2,7.395625114E-1,5.703048706E-1
6.388860483E0,2.761659622E-1,7.167167664E-1,7.243514061E-1
6.396856108E0,5.163607597E-1,3.229074478E-1,9.683275223E-1
6.404882578E0,5.813455582E-1,-1.184086800E-1,1.278200865E0
6.412877741E0,5.301265717E-1,-4.644556046E-1,1.502059698E0
6.420873135E0,4.915981293E-1,-6.009812355E-1,1.528917074E0
6.428868836E0,3.660368919E-1,-6.797275543E-1,1.457275152E0
6.436863845E0,5.437135696E-2,-6.927824020E-1,1.325399637E0
6.444860546E0,-2.567825317E-1,-6.675052643E-1,1.198114395E0
6.452855940E0,-5.400199890E-1,-5.611629486E-1,1.051307201E0
6.460881718E0,-7.007417679E-1,-3.974575996E-1,1.048760176E0
6.468877112E0,-7.145390511E-1,-2.026195526E-1,1.039052963E0
6.476872890E0,-5.347652435E-1,-1.561470032E-1,1.227730274E0
6.484868284E0,-3.311896324E-1,-2.607064247E-1,1.449939251E0
6.492863676E0,-8.691883087E-2,-5.685067177E-1,1.660216570E0
6.500859993E0,8.913850784E-2,-7.375297546E-1,1.785457373E0
6.508855694E0,1.472859383E-1,-7.344923019E-1,1.884103775E0
6.516881473E0,9.867429733E-2,-5.530676842E-1,1.826874733E0
6.524877251E0,-4.293632507E-2,-3.780646324E-1,1.674102068E0
6.532872952E0,-2.380590439E-1,-2.838344574E-1,1.550130367E0
6.540868577E0,-4.163165092E-1,-2.389459610E-1,1.511432171E0
6.548864047E0,-5.365118980E-1,-2.402496338E-1,1.544761658E0
6.556860056E0,-5.490961075E-1,-3.685092926E-1,1.578877449E0
6.564855373E0,-5.299487114E-1,-5.632457733E-1,1.606442928E0
6.572881536E0,-4.499969482E-1,-7.501764297E-1,1.568930149E0
6.580877622E0,-3.156089783E-1,-7.530059814E-1,1.428312778E0
6.588872400E0,-1.929001808E-1,-4.575986862E-1,1.381869555E0
6.596868409E0,-5.188226700E-2,-1.281499863E-1,1.257375479E0
6.604864649E0,1.608824730E-1,8.405542374E-2,1.095176458E0
6.612859735E0,3.114123344E-1,1.546812057E-1,9.465601444E-1
6.620854898E0,3.811745644E-1,1.298446655E-1,9.295871258E-1
6.628881291E0,4.235806465E-1,9.157705307E-2,9.921784401E-1
6.636877069E0,4.244599342E-1,-4.057598114E-2,1.072211266E0
6.644873386E0,3.353509903E-1,-1.872310638E-1,1.171821117E0
6.652867549E0,1.434559822E-1,-2.814054489E-1,1.194154501E0
6.660863173E0,-1.559705734E-1,-3.159694672E-1,1.115072012E0
6.668859490E0,-3.281507492E-1,-2.883825302E-1,9.036176205E-1
6.676853961E0,-3.415374756E-1,-2.030544281E-1,6.631305218E-1
6.684880816E0,-1.892714500E-1,-1.007976532E-1,4.895987511E-1
6.692876517E0,-3.476381302E-2,-4.651737213E-2,4.527406693E-1
6.700872757E0,1.364140511E-1,-1.409912109E-2,4.273407459E-1
6.708868228E0,2.833347321E-1,-5.408477783E-2,4.801011086E-1
6.716863544E0,3.914484978E-1,-1.616659164E-1,4.773201942E-1
6.724859553E0,3.840246201E-1,-2.792768478E-1,4.362151623E-1
6.732854639E0,2.756619453E-1,-3.110952377E-1,3.876965046E-1
6.740880879E0,1.243243217E-1,-2.950954437E-1,2.935431004E-1
6.748876196E0,2.599811554E-2,-3.075208664E-1,2.118635178E-1
6.756871665E0,-2.712392807E-2,-2.731533051E-1,4.315757751E-2
6.764868828E0,-7.850837708E-2,-2.904405594E-1,-6.676316261E-2
6.772863299E0,-6.192207336E-2,-2.832474709E-1,-1.946012974E-1
6.780859308E0,-2.309179306E-2,-3.000121117E-1,-2.792057991E-1
6.788855009E0,2.160644531E-2,-2.953519821E-1,-3.190400600E-1
6.796880326E0,1.299877167E-1,-2.620744705E-1,-3.457508087E-1
6.804876258E0,2.521023750E-1,-2.405548096E-1,-4.236509800E-1
6.812871421E0,2.992434502E-1,-2.760214806E-1,-4.824810028E-1
6.820868353E0,3.022642136E-1,-2.795286179E-1,-5.688483715E-1
6.828863131E0,2.565555573E-1,-2.577519417E-1,-6.218929291E-1
6.834875061E0,2.057394981E-1,-2.348861694E-1,-6.478011608E-1
6.836858755E0,2.009510994E-1,-2.205209732E-1,-6.382243633E-1
6.844855457E0,1.286835670E-1,-1.583490372E-1,-6.593377590E-1
6.852880312E0,9.462738037E-2,-1.264104843E-1,-6.205658913E-1
6.860876090E0,7.712697983E-2,-7.012844086E-2,-5.109908581E-1
6.868872022E0,9.988260269E-2,-1.160955429E-2,-4.369914532E-1
6.876867493E0,1.275162697E-1,-2.323341370E-2,-2.882595062E-1
6.884863425E0,1.677255630E-1,-9.811973572E-2,-1.358127594E-1
6.892857972E0,1.358270645E-1,-7.888603210E-2,8.823013306E-2
6.900854597E0,1.144194603E-1,-6.862926483E-2,2.571668625E-1
6.908880144E0,1.324334145E-1,-3.334045410E-2,5.061066151E-1
6.916875846E0,1.464595795E-1,8.281993866E-2,8.615639210E-1
6.924871547E0,1.477594376E-1,1.598677635E-1,1.169697523E0
6.932866633E0,9.456157684E-2,1.901922226E-1,1.439555407E0
6.940863180E0,1.337747574E-1,1.324338913E-1,1.649503469E0
6.948858959E0,1.964159012E-1,8.724498749E-2,1.757564783E0
6.956884814E0,2.438249588E-1,1.816749573E-4,1.847419500E0
6.964880746E0,2.733483315E-1,-4.664134979E-2,1.906924963E0
6.972875216E0,2.857084274E-1,-1.311488152E-1,2.019083261E0
6.980871225E0,3.774595261E-1,-2.689690590E-1,2.142318487E0
6.988867004E0,5.819749832E-1,-4.518461227E-1,2.300641060E0
6.996862320E0,7.361536026E-1,-5.736403465E-1,2.405012608E0
7.004858637E0,8.634572029E-1,-7.102551460E-1,2.502510548E0
7.012884569E0,9.987053871E-1,-8.342738152E-1,2.421430349E0
7.020879962E0,9.472136497E-1,-8.698406219E-1,2.312102795E0
7.028875586E0,8.526034355E-1,-9.127011299E-1,2.246620417E0
7.036871288E0,8.134374619E-1,-9.436898232E-1,2.186469793E0
7.044866989E0,8.609728813E-1,-9.699826241E-1,2.246670723E0
7.052862460E0,9.799976349E-1,-1.054024220E0,2.234056473E0
7.060858084E0,1.069725037E0,-1.169980526E0,2.253476620E0
7.068884247E0,1.125542641E0,-1.296312809E0,2.204423904E0
7.076879717E0,1.155185223E0,-1.351613522E0,2.189569473E0
7.084875957E0,1.025355816E0,-1.313924313E0,2.192425251E0
7.092871120E0,7.944445610E-1,-1.276322365E0,2.212928295E0
7.100866744E0,6.234922409E-1,-1.312890053E0,2.231908798E0
7.108862523E0,5.039248466E-1,-1.382781982E0,2.289478779E0
7.116858839E0,4.941358566E-1,-1.426595688E0,2.312144756E0
7.124885002E0,6.192855835E-1,-1.461298943E0,2.382108212E0
7.132879704E0,8.527550697E-1,-1.518614769E0,2.482022285E0
7.140875174E0,1.087352037E0,-1.616122246E0,2.392522335E0
7.148871799E0,1.198246956E0,-1.703707695E0,2.317972660E0
7.156866269E0,1.197631359E0,-1.797944546E0,2.197247028E0
7.164862817E0,1.080510378E0,-1.884184361E0,2.111119747E0
7.172857672E0,8.667581081E-1,-1.950171947E0,2.045742035E0
7.180883450E0,5.644443035E-1,-2.038905621E0,1.995713234E0
7.188879844E0,4.128215313E-1,-2.124485970E0,1.926746845E0
7.196875237E0,2.142646313E-1,-2.204268456E0,1.731637955E0
7.204871785E0,8.698201180E-2,-2.188832760E0,1.493696213E0
7.220862264E0,5.564908981E-1,-2.260593414E0,1.125434399E0
7.228857427E0,9.729847908E-1,-2.272731781E0,1.071393490E0
7.236883205E0,1.376147509E0,-2.332622051E0,9.822115898E-1
7.244879830E0,1.754230738E0,-2.512461185E0,8.323321342E-1
7.252874916E0,1.950427532E0,-2.734040737E0,7.319898605E-1
7.260870386E0,1.973512650E0,-2.906778336E0,5.225362778E-1
7.268865395E0,1.759414911E0,-2.988131046E0,3.211522102E-1
7.276861096E0,1.358561516E0,-2.981931686E0,2.093214989E-1
7.284858028E0,7.683031559E-1,-2.883896351E0,3.258037567E-2
7.292883575E0,3.723294735E-1,-2.700829983E0,-2.259211540E-1
7.300879584E0,1.113619804E-1,-2.448698044E0,-3.939270973E-1
7.308874439E0,5.845522881E-2,-2.328080654E0,-4.891099930E-1
7.316869833E0,2.297191620E-1,-2.293473721E0,-5.642738342E-1
7.324866381E0,5.954167843E-1,-2.429796696E0,-6.297469139E-1
7.332860851E0,9.525837898E-1,-2.602213860E0,-7.285442352E-1
7.340857475E0,1.254824162E0,-2.686356544E0,-6.946091652E-1
7.348883638E0,1.494918108E0,-2.682274818E0,-8.982219696E-1
7.356878801E0,1.727216482E0,-2.656242847E0,-1.048004627E0
7.364875118E0,1.870865822E0,-2.729959011E0,-1.245016575E0
7.372870127E0,1.788323879E0,-2.792457104E0,-1.357309818E0
7.380865828E0,1.371745586E0,-2.764675617E0,-1.267317772E0
7.388861530E0,1.024751186E0,-2.734066010E0,-1.212837219E0
7.396857000E0,7.832753658E-1,-2.638781548E0,-1.087515831E0
7.404883394E0,7.303740978E-1,-2.627188683E0,-1.005053997E0
7.412878249E0,8.343795538E-1,-2.647164583E0,-9.221987724E-1
7.420873950E0,1.054808021E0,-2.696617365E0,-8.939523697E-1
7.428869882E0,1.252104163E0,-2.783006191E0,-9.928789139E-1
7.436865891E0,1.490361810E0,-2.861778975E0,-9.953203201E-1
7.444861362E0,1.624572515E0,-2.901010036E0,-1.062128067E0
7.452856986E0,1.663810611E0,-2.919776917E0,-1.104273796E0
7.460882918E0,1.543254375E0,-2.909325838E0,-1.067914963E0
7.468878620E0,1.430281639E0,-2.866664171E0,-9.770765305E-1
7.476873937E0,1.261332035E0,-2.676983595E0,-7.217311859E-1
7.484870022E0,1.162891865E0,-2.563696146E0,-4.035177231E-1
7.492865416E0,1.194316864E0,-2.452580214E0,-3.979921341E-1
7.500860733E0,1.254936934E0,-2.397882938E0,-3.743276596E-1
7.508857357E0,1.315610647E0,-2.439747572E0,-4.905738831E-1
7.516882674E0,1.351313591E0,-2.438150167E0,-8.244972229E-1
7.524878683E0,1.345402598E0,-2.367071390E0,-1.038388252E0
7.532873769E0,1.223024845E0,-2.123405457E0,-8.891239166E-1
7.540870315E0,1.094424248E0,-1.800217867E0,-7.580881119E-1
7.548865171E0,9.873515368E-1,-1.561651349E0,-5.291795731E-1
7.556860872E0,9.256912470E-1,-1.456934810E0,-4.226999283E-1
7.564857419E0,8.081119061E-1,-1.426334023E0,-4.718198776E-1
7.572882428E0,5.335072279E-1,-1.397193909E0,-3.416404724E-1
7.580877745E0,3.618100882E-1,-1.359246492E0,-3.220558167E-1
7.588874139E0,2.181318998E-1,-1.363366604E0,-2.814054489E-1
7.596869532E0,1.830109358E-1,-1.272371531E0,-4.819917679E-1
7.604865157E0,1.226069927E-1,-1.117356300E0,-4.936447144E-1
7.612860935E0,5.446624756E-2,-8.776556253E-1,-6.645708084E-1
7.620855636E0,6.233024597E-2,-6.484168768E-1,-8.161211014E-1
7.628883107E0,8.290147781E-2,-4.314553738E-1,-1.172705650E0
7.636877270E0,-7.867336273E-3,-3.165367842E-1,-1.473357201E0
7.644873894E0,-2.180460691E-1,-1.602772474E-1,-1.707883835E0
7.652868903E0,-4.548305273E-1,-1.568675041E-3,-1.700077057E0
7.660865528E0,-5.978681445E-1,8.983492851E-2,-1.409277916E0
7.668860614E0,-6.344370842E-1,5.890226364E-2,-1.206840515E0
7.676856007E0,-5.789992809E-1,-7.891952991E-2,-1.409917831E0
7.684883170E0,-6.287884116E-1,-1.661989689E-1,-1.803486824E0
7.692877948E0,-6.614847183E-1,-1.138065457E-1,-2.169783592E0
7.700873573E0,-6.523984671E-1,-4.829454422E-2,-2.468640327E0
7.708868736E0,-6.692181230E-1,7.594487071E-2,-2.820421219E0
7.716864437E0,-5.896179676E-1,1.483127773E-1,-3.182714939E0
7.724860984E0,-4.557964802E-1,2.678256333E-1,-3.527320862E0
7.732855532E0,-3.053315878E-1,2.821221948E-1,-3.739513874E0
7.740881387E0,-2.798382044E-1,2.823881209E-1,-4.022559643E0
7.748878319E0,-3.940983415E-1,3.149478436E-1,-4.256544113E0
7.756873020E0,-4.864876866E-1,3.292416930E-1,-4.388538361E0
7.764869337E0,-6.443947554E-1,3.495039046E-1,-4.514027596E0
7.772864192E0,-8.534677029E-1,5.194803476E-1,-4.884289742E0
7.780860124E0,-1.019837499E0,1.063057780E0,-5.272417068E0
7.788855595E0,-1.005967021E0,1.692802906E0,-5.514155388E0
7.796881681E0,-9.135547876E-1,2.048730612E0,-5.622413158E0
7.804878613E0,-8.116399050E-1,2.268340588E0,-5.638661385E0
7.812872467E0,-7.163927555E-1,2.242341042E0,-5.589663982E0
7.820868553E0,-6.912409067E-1,1.980152011E0,-5.654577732E0
7.828863562E0,-7.084487677E-1,1.506158590E0,-5.621956825E0
7.836859648E0,-7.231279612E-1,8.899430633E-1,-5.471862316E0
7.844855042E0,-7.153090239E-1,6.377075911E-1,-5.297209263E0
7.852881512E0,-7.361201048E-1,7.451487780E-1,-5.150462627E0
7.860876906E0,-8.582730293E-1,1.009273529E0,-4.959902763E0
7.868872607E0,-1.037928104E0,1.311911941E0,-4.831109047E0
7.876868539E0,-1.197301149E0,1.654640198E0,-4.601487160E0
7.884865164E0,-1.237359285E0,1.929691672E0,-4.161138058E0
7.892859634E0,-1.226135015E0,2.002563953E0,-3.773484230E0
7.900855413E0,-1.259967804E0,1.985597134E0,-3.227781773E0
7.908881268E0,-1.381300926E0,1.947456121E0,-2.758469582E0
7.916876969E0,-1.522425652E0,1.975907683E0,-2.348594666E0
7.924873209E0,-1.573919058E0,1.958337069E0,-2.146348000E0
7.932868372E0,-1.609316826E0,1.989081502E0,-2.082209110E0
7.940863688E0,-1.545917034E0,2.062369823E0,-2.036605358E0
7.948859159E0,-1.459673166E0,2.103355885E0,-1.830277443E0
7.956855091E0,-1.205393434E0,2.019294977E0,-1.506633759E0
7.964881869E0,-9.553595185E-1,1.872754574E0,-1.235876083E0
7.972876417E0,-6.474890113E-1,1.680202961E0,-9.439620972E-1
7.980872657E0,-3.634136319E-1,1.534601331E0,-6.406612396E-1
7.988868358E0,-2.241975665E-1,1.456631899E0,-4.194145203E-1
7.996863444E0,-2.059012055E-1,1.466656923E0,-2.586193085E-1
8.004860068E0,-2.858424187E-1,1.533813715E0,-1.153507233E-1
8.012885616E0,-3.992585540E-1,1.506991625E0,1.276960373E-1
8.020881086E0,-4.841967225E-1,1.423554182E0,4.040393829E-1
8.028876711E0,-5.460095406E-1,1.310611963E0,5.944595337E-1
8.036872489E0,-5.865276456E-1,1.163549423E0,7.615137100E-1
8.044868113E0,-5.625550747E-1,1.027987957E0,8.025560379E-1
8.052863584E0,-4.670908749E-1,9.070813656E-1,7.201642990E-1
8.060858670E0,-4.091243744E-1,7.910835743E-1,5.573348999E-1
8.068885448E0,-3.632227182E-1,6.249443889E-1,2.011518478E-1
8.076881456E0,-3.298162222E-1,4.997509718E-1,-2.338781357E-1
8.084876465E0,-3.023830056E-1,5.304844379E-1,-6.210374832E-1
8.092871859E0,-2.892340422E-1,5.503854752E-1,-1.017967224E0
8.100868175E0,-3.164739609E-1,5.022658110E-1,-1.276408195E0
8.108863646E0,-2.839402556E-1,4.823448658E-1,-1.635872841E0
8.116858732E0,-1.725304127E-1,5.395182371E-1,-2.017467499E0
8.124885433E0,-8.196717501E-2,5.272476673E-1,-2.337616444E0
8.132880596E0,-1.331746578E-2,4.174257517E-1,-2.658040047E0
8.140876913E0,1.392990351E-2,3.601037264E-1,-2.937521458E0
8.148871383E0,6.544697285E-2,2.162979841E-1,-3.291020393E0
8.156867392E0,4.073488712E-2,6.556606293E-2,-3.440826893E0
8.164863325E0,5.517005920E-4,-2.293574810E-2,-3.571314812E0
8.172858410E0,-6.633281708E-3,6.881976128E-2,-3.761587620E0
8.180885804E0,-2.483046055E-2,1.884094477E-1,-3.899321079E0
8.188880967E0,-4.330635071E-2,2.890231013E-1,-3.829091072E0
8.196876591E0,-5.924868584E-2,2.300127149E-1,-3.742489815E0
8.204872062E0,-4.870295525E-3,2.292175293E-1,-3.606035709E0
8.212867148E0,6.957793236E-2,3.036788702E-1,-3.359833241E0
8.220863465E0,9.626233578E-2,3.379271626E-1,-2.989293575E0
8.228858474E0,4.662561417E-2,2.016647458E-1,-2.692689419E0
8.236884713E0,-7.675874233E-2,4.244390130E-2,-2.656319618E0
8.244881569E0,-2.850400209E-1,-1.095619798E-2,-2.843928814E0
8.252876039E0,-4.215096235E-1,1.660761237E-2,-3.159490108E0
8.260871817E0,-4.200841188E-1,4.962788522E-2,-3.358501434E0
8.268866903E0,-3.580181599E-1,2.491246909E-2,-3.567540646E0
8.276862605E0,-2.838692665E-1,1.932356320E-2,-3.563922405E0
8.284858921E0,-1.471549273E-1,-4.141671956E-2,-3.335806370E0
8.292884392E0,1.323294640E-2,-7.880382240E-2,-2.952676296E0
8.300880401E0,1.914296150E-1,-2.112329900E-1,-2.167958260E0
8.308876102E0,3.522036076E-1,-4.337191582E-1,-1.479686737E0
8.316871804E0,4.295023680E-1,-6.743425131E-1,-1.081553459E0
8.324867274E0,3.113312721E-1,-8.293275237E-1,-8.655176163E-1
8.332862282E0,1.244167089E-1,-8.068643212E-1,-9.106731415E-1
8.340857983E0,-1.536396742E-1,-7.377101183E-1,-1.154530525E0
8.348884454E0,-4.282500744E-1,-6.068383455E-1,-1.362098694E0
8.356879925E0,-5.311390162E-1,-5.308339596E-1,-1.428018570E0
8.364875857E0,-4.363065958E-1,-5.421087742E-1,-1.146621704E0
8.372870712E0,-2.127320766E-1,-5.521446466E-1,-7.675170898E-1
8.380867567E0,1.195151806E-1,-5.537652969E-1,-1.665477753E-1
8.388862422E0,2.551777363E-1,-4.718426466E-1,3.229055405E-1
8.396857816E0,2.227642536E-1,-4.246016741E-1,7.221908569E-1
8.404885133E0,8.086228371E-2,-5.473775864E-1,7.667503357E-1
8.412879372E0,-7.293987274E-2,-7.416343689E-1,5.865135193E-1
8.420874997E0,-2.836501598E-1,-1.048846960E0,5.417156219E-2
8.428871390E0,-5.012023449E-1,-1.091945171E0,-3.425483704E-1
8.436866707E0,-6.419391632E-1,-9.628758430E-1,-9.611701965E-2
8.444863024E0,-4.660329819E-1,-7.731337547E-1,2.907028198E-1
8.452858187E0,1.677942276E-2,-7.048041821E-1,5.890197754E-1
8.460884273E0,6.842095852E-1,-6.652994156E-1,7.154979706E-1
8.468879666E0,1.087423325E0,-5.957844257E-1,8.574848175E-1
8.476874445E0,1.308279991E0,-6.052544117E-1,9.681797028E-1
8.484871454E0,1.241285324E0,-6.803166866E-1,1.032116890E0
8.492866770E0,8.805441856E-1,-8.537921906E-1,9.101839066E-1
8.500862241E0,4.246640205E-1,-9.417998791E-1,5.830383301E-1
8.508857250E0,9.624147415E-2,-9.485700130E-1,3.486328125E-1
8.516884028E0,-1.087689400E-1,-9.196083546E-1,3.752012253E-1
8.524879729E0,-1.148719788E-1,-8.461840153E-1,3.957586288E-1
8.532875200E0,3.568813801E-1,-8.459341526E-1,3.605318069E-1
8.540870594E0,9.448077679E-1,-7.617154121E-1,4.728937149E-1
8.548865987E0,1.333097219E0,-7.366061211E-1,8.327684402E-1
8.556862227E0,1.533227444E0,-7.633781433E-1,1.093702316E0
8.564858544E0,1.553526402E0,-7.924036980E-1,1.294508934E0
8.572883553E0,1.316671848E0,-8.520741463E-1,1.259493828E0
8.580879177E0,8.363444805E-1,-8.320665359E-1,9.995403290E-1
8.588874648E0,2.181684971E-1,-7.942047119E-1,7.108259201E-1
8.596870963E0,-2.567646503E-1,-9.096927643E-1,5.276126862E-1
8.604865972E0,-3.652842045E-1,-9.589891434E-1,6.005563736E-1
8.612861981E0,7.116556168E-3,-8.979983330E-1,8.707733154E-1
8.620857375E0,6.503779888E-1,-7.613978386E-1,1.218946934E0
8.628883846E0,1.472954273E0,-7.714853287E-1,1.533830166E0
8.636878701E0,2.149726391E0,-9.653906822E-1,1.660633087E0
8.644874710E0,2.402420998E0,-1.063020229E0,1.668271065E0
8.652870027E0,2.275110245E0,-1.041676521E0,1.534881115E0
8.660866112E0,1.835700989E0,-9.551529884E-1,1.384921551E0
8.668862429E0,1.196740627E0,-8.875527382E-1,1.094668388E0
8.676857131E0,7.248020172E-1,-8.552093506E-1,8.009457588E-1
8.684883909E0,2.547755241E-1,-9.489135742E-1,7.881321907E-1
8.692878764E0,-1.206150055E-1,-1.146511078E0,1.064798832E0
8.700874465E0,-2.220849991E-1,-1.111152172E0,1.442923069E0
8.708869782E0,-7.397270203E-2,-9.542951584E-1,1.591338158E0
8.716866406E0,2.500829697E-1,-7.756323814E-1,1.513197422E0
8.724861492E0,5.976877213E-1,-6.005764008E-1,1.329455853E0
8.732856578E0,8.533253670E-1,-5.076317787E-1,1.193477154E0
8.740883664E0,1.060110092E0,-4.146189690E-1,1.090695858E0
8.748879366E0,1.144244194E0,-3.233103752E-1,1.019544125E0
8.756874451E0,1.073299885E0,-3.531517982E-1,9.457025528E-1
8.764870537E0,8.247933388E-1,-4.725718498E-1,8.125624657E-1
8.772865008E0,5.179896355E-1,-5.156421661E-1,8.095049858E-1
8.780861248E0,2.497520447E-1,-4.422035217E-1,8.427982330E-1
8.788856411E0,1.250143051E-1,-4.294061661E-1,9.360895157E-1
8.796883112E0,9.404706955E-2,-4.564819336E-1,9.965825081E-1
8.804879736E0,2.070350647E-1,-4.924883842E-1,9.595885277E-1
8.812873976E0,3.858890533E-1,-4.610066414E-1,8.099036217E-1
8.820869985E0,5.949454308E-1,-4.284763336E-1,5.749578476E-1
8.828865379E0,7.819018364E-1,-4.187555313E-1,3.196506500E-1
8.836861003E0,8.724308014E-1,-3.539738655E-1,1.561350822E-1
8.844857628E0,8.313431740E-1,-2.587146759E-1,1.187386513E-1
8.852882560E0,7.220754623E-1,-1.778035164E-1,1.676373482E-1
8.860877952E0,5.599694252E-1,-1.516098976E-1,3.114256859E-1
8.868874038E0,4.418072701E-1,-2.010722160E-1,5.807318687E-1
8.876869663E0,3.728799820E-1,-3.185052872E-1,8.294458389E-1
8.884865672E0,3.257155418E-1,-4.538979530E-1,9.696455002E-1
8.892861065E0,2.967705727E-1,-5.119414330E-1,9.490695000E-1
8.900886074E0,3.676567078E-1,-5.335874557E-1,7.743902206E-1
8.908882622E0,4.481763840E-1,-4.568762779E-1,6.240062714E-1
8.916877477E0,5.976610184E-1,-4.082727432E-1,5.063314438E-1
8.924874409E0,7.463083267E-1,-3.346133232E-1,4.272446632E-1
8.932869187E0,8.025317192E-1,-1.902890205E-1,4.735608101E-1
8.940865735E0,7.097759247E-1,-8.523654938E-2,6.013431549E-1
8.948860282E0,6.138925552E-1,-1.431322098E-1,7.401580811E-1
8.956886676E0,5.085182190E-1,-3.012099266E-1,9.403400421E-1
8.964882762E0,4.036288261E-1,-4.468026161E-1,1.120472908E0
8.972878079E0,3.216004372E-1,-5.751957893E-1,1.289398193E0
8.980873472E0,2.185144424E-1,-6.556563377E-1,1.301415920E0
8.988869789E0,2.160797119E-1,-6.358990669E-1,1.235419273E0
8.996864644E0,3.149900436E-1,-5.670161247E-1,1.096356869E0
9.004861269E0,3.891563416E-1,-5.044546127E-1,9.855155945E-1
9.012887047E0,4.137659073E-1,-4.245777130E-1,8.692288399E-1
9.020881825E0,4.306454659E-1,-3.009004593E-1,7.581803799E-1
9.028877603E0,3.638281822E-1,-2.310562134E-1,7.817156315E-1
9.036873305E0,2.396311760E-1,-1.309962273E-1,9.210176468E-1
9.044869314E0,2.063164711E-1,-8.140134811E-2,1.227979422E0
9.052864323E0,2.459721565E-1,-1.325440407E-1,1.629808187E0
9.060860332E0,2.040767670E-1,-2.151446342E-1,1.929094076E0
9.068886571E0,1.561422348E-1,-3.150420189E-1,1.980806112E0
9.076881657E0,2.381420135E-1,-4.484395981E-1,1.942641735E0
9.084878282E0,4.287385941E-1,-4.889497757E-1,1.918591499E0
9.092873060E0,6.643810272E-1,-4.163837433E-1,1.820019007E0
9.100869377E0,8.001484871E-1,-2.808647156E-1,1.710156679E0
9.108864693E0,6.937880516E-1,-8.679866791E-2,1.657132626E0
9.116860394E0,4.178285599E-1,-8.728599548E-2,1.881716490E0
9.124886634E0,1.512126923E-1,-3.493556976E-1,2.049460649E0
9.132881950E0,-1.133761406E-1,-5.360736847E-1,2.111995459E0
9.140877421E0,-2.136445045E-1,-5.287647247E-1,2.061257601E0
9.148873430E0,-3.235430717E-1,-4.019651413E-1,1.927448988E0
9.156868439E0,-2.684049606E-1,-3.519678116E-1,1.813794136E0
9.164864448E0,-2.731752396E-2,-3.087682724E-1,1.666497231E0
9.172859918E0,3.227758408E-1,-2.454776764E-1,1.534109831E0
9.180885774E0,5.255413055E-1,-1.306838989E-1,1.480746269E0
9.188881706E0,6.256480217E-1,4.576683044E-3,1.597275496E0
9.196877099E0,4.846463203E-1,1.436424255E-2,1.789718628E0
9.204873724E0,2.000861168E-1,-6.316566467E-2,1.919655800E0
9.212868579E0,-2.053213120E-1,-9.957122803E-2,1.869225502E0
9.220863973E0,-5.145435333E-1,-4.767799377E-2,1.783774614E0
9.228859597E0,-7.273111343E-1,1.834774017E-2,1.677473783E0
9.236886068E0,-7.617454529E-1,4.374694824E-2,1.509912252E0
9.244881846E0,-6.934175491E-1,8.434391022E-2,1.315359116E0
9.252876932E0,-4.502615929E-1,1.216745377E-1,1.198670626E0
9.260872556E0,-1.831870079E-1,1.514215469E-1,1.051385641E0
9.268868334E0,1.326980591E-1,1.783633232E-1,9.549448490E-1
9.276864343E0,2.550830841E-1,2.000832558E-1,9.580171108E-1
9.284859660E0,1.843233109E-1,1.807889938E-1,1.007777452E0
9.292886131E0,7.856082916E-2,8.241462708E-2,9.395408630E-1
9.300880909E0,-7.987499237E-3,5.588436127E-2,8.194429874E-1
9.308876687E0,-9.773969650E-2,9.599304199E-2,5.805873871E-1
9.316872389E0,-8.139276505E-2,9.506082535E-2,4.780147076E-1
9.324868398E0,3.905296326E-4,3.263473511E-3,4.121229649E-1
9.332863791E0,1.333866119E-1,-1.073589325E-1,3.352243900E-1
9.340859800E0,1.983718872E-1,-1.864528656E-1,3.113601208E-1
9.348885578E0,2.392506599E-1,-2.482872009E-1,3.443908691E-1
9.356881280E0,1.516122818E-1,-3.404588699E-1,4.360985756E-1
9.364876673E0,-2.084255219E-2,-4.078664780E-1,5.402455330E-1
9.368874831E0,-1.058149338E-1,-4.196414948E-1,5.605847836E-1
9.370857910E0,-1.560931206E-1,-3.956995010E-1,5.869209766E-1
9.372872067E0,-1.848235130E-1,-3.765459061E-1,6.060745716E-1
9.380868075E0,-3.379936218E-1,-2.636384964E-1,7.357437611E-1
9.388863546E0,-3.511624336E-1,-2.990851402E-1,8.741238117E-1
9.396858632E0,-3.078289032E-1,-4.589776993E-1,1.102201462E0
9.404886256E0,-3.271250725E-1,-6.810712814E-1,1.615653038E0
9.412880803E0,-3.636460304E-1,-7.931332588E-1,2.249123812E0
9.420876736E0,-5.172715187E-1,-8.644461632E-1,3.198992729E0
9.428872129E0,-6.865346432E-1,-7.982897758E-1,4.158140182E0
9.436867292E0,-8.011605740E-1,-7.815437317E-1,4.815276623E0
9.444863916E0,-8.120703697E-1,-9.057736397E-1,5.352694511E0
9.452858695E0,-7.366487980E-1,-1.181177139E0,5.525807858E0
9.460885165E0,-5.548865795E-1,-1.521472931E0,5.774600506E0
9.468880790E0,-2.981204987E-1,-1.768415451E0,5.929854393E0
9.476876491E0,2.877092361E-2,-2.142474651E0,6.120841980E0
9.484873115E0,2.195796967E-1,-2.587162018E0,6.253249168E0
9.492867894E0,1.264319420E-1,-2.873480797E0,6.234982967E0
9.500863056E0,-2.609529495E-1,-2.965395451E0,6.068219662E0
9.508859373E0,-6.278500557E-1,-2.929764271E0,5.703012466E0
9.516885459E0,-9.250290394E-1,-2.766177654E0,5.053135395E0
9.524881237E0,-1.036618948E0,-2.526557446E0,4.549759865E0
9.532875708E0,-7.828969955E-1,-2.399677277E0,4.101916790E0
9.540871717E0,-1.327357292E-1,-2.345319271E0,3.725387573E0
9.548867418E0,5.968680382E-1,-2.426677704E0,3.297852516E0
9.556862735E0,1.453892469E0,-2.521446228E0,3.042960167E0
9.564859975E0,2.083180904E0,-2.663876057E0,2.799181461E0
9.572884292E0,2.535607100E0,-2.825333595E0,2.541107178E0
9.580881224E0,2.708425283E0,-3.006474018E0,2.145034313E0
9.588875694E0,2.598727942E0,-3.090209007E0,1.602640629E0
9.596871088E0,2.205896854E0,-3.109457493E0,1.202484608E0
9.604868712E0,1.828118086E0,-3.071247101E0,9.665966034E-1
9.612862260E0,1.446918011E0,-2.974658012E0,8.746194839E-1
9.620858192E0,1.275026083E0,-2.879799366E0,7.983064651E-1
9.628885278E0,1.300637722E0,-2.827267170E0,7.170605659E-1
9.636880056E0,1.509303331E0,-2.783357620E0,6.283817291E-1
9.644876680E0,1.819561958E0,-2.937977791E0,6.030931473E-1
9.652871458E0,2.178209543E0,-3.134482384E0,4.115381241E-1
9.660867236E0,2.459392309E0,-3.193434715E0,4.850244522E-2
9.668862630E0,2.708682537E0,-3.057136059E0,-3.525223732E-1
9.676858331E0,2.828112364E0,-2.757918835E0,-5.614180565E-1
9.684885032E0,2.777303457E0,-2.651291370E0,-6.713070869E-1
9.692880118E0,2.655227423E0,-2.629070759E0,-7.752542496E-1
9.700876127E0,2.566440821E0,-2.652605057E0,-8.341970444E-1
9.708870982E0,2.453595638E0,-2.602012157E0,-9.069790840E-1
9.716866376E0,2.338815451E0,-2.602948666E0,-8.693656921E-1
9.724862616E0,2.364656925E0,-2.750111103E0,-9.895658493E-1
9.732858086E0,2.419605017E0,-2.955670357E0,-1.143369675E0
9.740884557E0,2.534154654E0,-3.076515675E0,-1.295175076E0
9.748880258E0,2.646223307E0,-3.060177803E0,-1.575131893E0
9.756875652E0,2.749337912E0,-2.891980171E0,-1.923968315E0
9.764871353E0,2.840161085E0,-2.774234295E0,-2.157559872E0
9.772866670E0,2.827452183E0,-2.495566845E0,-2.341864109E0
9.780861833E0,2.727200031E0,-2.340296268E0,-2.376484871E0
9.788858149E0,2.523550034E0,-2.291042805E0,-2.208220005E0
9.796883928E0,2.419864178E0,-2.350422382E0,-2.054646969E0
9.804880552E0,2.148298979E0,-2.442748547E0,-1.805295944E0
9.812875023E0,2.076726198E0,-2.483149052E0,-1.809570789E0
9.820871339E0,2.104204178E0,-2.412709236E0,-1.864775181E0
9.828866733E0,2.258554935E0,-2.246767282E0,-1.931680202E0
9.836862511E0,2.336695671E0,-2.144146204E0,-2.045964718E0
9.844858443E0,2.359434843E0,-1.947457314E0,-2.129472256E0
9.852883145E0,2.177678108E0,-1.749715328E0,-2.170246124E0
9.860878846E0,1.851021051E0,-1.589721203E0,-2.220745564E0
9.868874855E0,1.474489093E0,-1.425508261E0,-2.113055706E0
9.876870249E0,1.121306062E0,-1.359303713E0,-1.849514961E0
9.884866488E0,7.462176085E-1,-1.319552183E0,-1.654431820E0
9.892861882E0,4.714701176E-1,-1.311873436E0,-1.525897503E0
9.900857968E0,2.919373512E-1,-1.260267258E0,-1.238463402E0
9.908883515E0,3.149242401E-1,-1.089683533E0,-1.256402969E0
9.916879139E0,4.991205931E-1,-1.033919096E0,-1.227266312E0
9.924875763E0,8.008506298E-1,-9.362645149E-1,-1.277844429E0
9.932870849E0,9.982225895E-1,-8.464155197E-1,-1.399948120E0
9.940866627E0,1.064763665E0,-6.238713264E-1,-1.537444115E0
9.948861713E0,8.634231091E-1,-3.633878231E-1,-1.547973156E0
9.956887569E0,5.836051702E-1,-1.617450714E-1,-1.438432693E0
9.964884424E0,1.886409521E-1,-6.978404522E-2,-1.356662750E0
9.972878971E0,-1.027337313E-1,-1.218134165E-1,-1.286598206E0
9.980874288E0,-3.900759220E-1,-2.017396688E-1,-1.368401527E0
9.988870912E0,-6.055290103E-1,-2.171803713E-1,-1.178594589E0
9.996866614E0,-6.360991001E-1,-1.827535629E-1,-1.358477592E0
1.000486201E1,-4.409688711E-1,-3.190577030E-2,-1.508598328E0
1.001285679E1,-1.989517212E-1,-6.373274326E-2,-1.799257755E0
1.002088272E1,4.526591301E-2,-1.128244400E-1,-2.204701900E0
1.002887926E1,6.499671936E-2,-1.375246048E-1,-2.435951233E0
1.003687435E1,-1.694971323E-1,-6.087833643E-2,-2.615620136E0
1.004487074E1,-4.924182296E-1,7.485747337E-3,-2.703075886E0
1.005286583E1,-6.678575277E-1,3.290754557E-2,-2.764936924E0
1.006086215E1,-6.916749477E-1,9.151065350E-2,-2.834584713E0
1.006885693E1,-5.151621103E-1,1.640134752E-1,-2.866554260E0
1.007688332E1,-1.450044513E-1,2.925059497E-1,-3.263337612E0
1.008487910E1,2.588148713E-1,4.708498716E-1,-3.795420170E0
1.009287418E1,4.515427947E-1,5.060759783E-1,-4.044232368E0
1.010086950E1,4.995818734E-1,5.104000568E-1,-4.321391106E0
1.010886589E1,3.520451188E-1,4.867990017E-1,-4.552737236E0
1.011686121E1,-8.626866341E-2,5.617016554E-1,-4.821860790E0
1.012488807E1,-5.475630760E-1,5.916266441E-1,-4.977566719E0
1.013288254E1,-1.108233690E0,7.107837796E-1,-5.129714012E0
1.014087885E1,-1.428535819E0,9.746631980E-1,-5.055646896E0
1.014887355E1,-1.469170094E0,1.232179761E0,-5.102751255E0
1.015686933E1,-1.281424642E0,1.416548610E0,-4.986402512E0
1.016486596E1,-9.374936819E-1,1.514071107E0,-4.905560493E0
1.017286066E1,-6.079134345E-1,1.594472408E0,-4.802975178E0
1.018088805E1,-5.080729723E-1,1.627171516E0,-4.492023468E0
1.018888321E1,-6.060186028E-1,1.646891356E0,-4.252814293E0
1.019687799E1,-8.661573529E-1,1.631064892E0,-3.941602230E0
1.020487454E1,-1.079178333E0,1.507001400E0,-3.627742290E0
1.021287024E1,-1.279950976E0,1.309122801E0,-3.229856968E0
1.022086533E1,-1.408668995E0,1.149037004E0,-2.815163136E0
1.022886080E1,-1.518351793E0,1.016167998E0,-2.455669403E0
1.023688781E1,-1.390354276E0,9.215494394E-1,-2.256859303E0
1.024488412E1,-1.146708369E0,8.958836794E-1,-2.077469349E0
1.025287744E1,-7.681966424E-1,8.001357317E-1,-2.051469803E0
1.026087430E1,-5.107869506E-1,7.013061047E-1,-1.956078529E0
1.026886969E1,-3.312964737E-1,6.238781214E-1,-1.716986656E0
1.027686454E1,-2.907529473E-1,6.664753556E-1,-1.504137039E0
1.028486109E1,-3.474885225E-1,7.582877874E-1,-1.231348038E0
1.029288664E1,-4.169375598E-1,7.126792669E-1,-8.747072220E-1
1.030088388E1,-5.441251397E-1,6.543231010E-1,-5.898647308E-1
1.030887781E1,-6.814852357E-1,6.354767084E-1,-3.098163605E-1
1.031687351E1,-8.222684264E-1,6.847768426E-1,-1.183986664E-1
1.032486952E1,-1.039921522E0,7.418819070E-1,3.704929352E-2
1.033286515E1,-1.236684918E0,7.722973824E-1,1.062564850E-1
1.034086062E1,-1.319951296E0,7.408958077E-1,6.775093079E-2
1.034888609E1,-1.209492207E0,7.407327890E-1,-1.071043015E-1
1.035688302E1,-1.021499395E0,7.739044428E-1,-6.397533417E-2
1.036487818E1,-7.144071460E-1,6.953815222E-1,4.632949829E-2
1.037287265E1,-5.058076978E-1,6.738805175E-1,9.696769714E-2
1.038086858E1,-4.786741734E-1,6.745207906E-1,1.909818649E-1
1.038886498E1,-5.617056489E-1,6.764317155E-1,2.925624847E-1
1.039686006E1,-6.176459789E-1,5.848518014E-1,3.778514862E-1
1.040488684E1,-6.413309574E-1,4.308313727E-1,3.606176376E-1
1.041288185E1,-6.397702098E-1,2.412596941E-1,3.771562576E-1
1.042087786E1,-6.180385351E-1,1.533315480E-1,3.051986694E-1
1.042887333E1,-5.306355953E-1,1.269357651E-1,2.736663818E-1
1.043686895E1,-3.915955126E-1,1.342074126E-1,2.968463898E-1
1.044486504E1,-2.394958735E-1,1.467947662E-1,2.455234528E-1
1.045285982E1,-1.656905413E-1,1.656289399E-1,1.940088272E-1
1.046088621E1,-1.417203546E-1,2.370402217E-1,9.454917908E-2
1.046888168E1,-1.902139187E-1,2.697769403E-1,2.383041382E-2
1.047687761E1,-2.634519935E-1,2.657399178E-1,-6.124114990E-2
1.048487393E1,-3.758251071E-1,1.971767545E-1,-8.647823334E-2
1.049286817E1,-4.010290504E-1,7.222950459E-2,-1.429271698E-1
1.050086510E1,-3.447059393E-1,-3.042578697E-3,-1.660318375E-1
1.050885988E1,-2.605769634E-1,1.241266727E-4,-1.726236343E-1
1.051688635E1,-2.047197819E-1,6.259664893E-2,-1.532020569E-1
1.052488236E1,-1.896454096E-1,1.424978971E-1,-1.746578217E-1
1.053287714E1,-1.616768241E-1,2.197214365E-1,-2.440776825E-1
1.054087338E1,-9.748464823E-2,1.735440791E-1,-3.926715851E-1
1.054886877E1,-2.353304625E-2,1.693335176E-1,-4.911642075E-1
1.055686386E1,7.685762644E-2,1.736886203E-1,-6.640577316E-1
1.056485994E1,1.252388656E-1,1.841221154E-1,-8.346977234E-1
1.057288549E1,1.339848638E-1,1.907747984E-1,-1.012619019E0
1.058088181E1,7.637077570E-2,9.112089872E-2,-1.135604858E0
1.058887682E1,-1.971966028E-2,-9.806185961E-3,-1.332969666E0
1.059687221E1,-1.940406561E-1,-4.058343172E-2,-1.573640823E0
1.060486891E1,-3.557921648E-1,3.485292196E-2,-1.747597694E0
1.061286338E1,-3.954046667E-1,1.742154360E-1,-2.039303780E0
1.062085908E1,-2.554713786E-1,3.724731207E-1,-2.326440811E0
1.062888548E1,-3.142592311E-2,4.466585517E-1,-2.525134087E0
1.063688126E1,2.644614577E-1,4.494912624E-1,-2.702241898E0
1.064487788E1,4.486642182E-1,4.242258072E-1,-2.836035252E0
1.065287235E1,6.316685677E-1,4.213235676E-1,-2.866561413E0
1.066086859E1,7.477343082E-1,3.402371109E-1,-2.784218788E0
1.066886429E1,7.951318622E-1,2.138067931E-1,-2.668011665E0
1.067685999E1,7.898302078E-1,1.047348976E-2,-2.474871159E0
1.068488616E1,7.210272551E-1,-5.564181134E-2,-2.310147285E0
1.069288101E1,5.454416871E-1,-3.564220294E-2,-2.118772984E0
1.070087633E1,3.598493934E-1,1.135269254E-1,-2.209554672E0
1.070887234E1,2.706757784E-1,3.604677916E-1,-2.345324039E0
1.071686865E1,3.407262564E-1,5.392376781E-1,-2.511532307E0
1.072486412E1,5.158883333E-1,5.246257782E-1,-2.545165062E0
1.073285890E1,8.118576407E-1,3.215545118E-1,-2.482025623E0
1.074088537E1,1.041245699E0,4.946909845E-2,-2.243128300E0
1.074888169E1,1.209228992E0,-2.046771646E-1,-1.905201435E0
1.075687670E1,1.384718895E0,-4.879359305E-1,-1.640807152E0
1.076487248E1,1.449059248E0,-5.730423927E-1,-1.493191719E0
1.077286779E1,1.426870942E0,-4.675358832E-1,-1.347586632E0
1.078086411E1,1.326366305E0,-3.024169803E-1,-1.259198189E0
1.078885950E1,1.157056928E0,-1.421564221E-1,-1.163443565E0
1.079688505E1,9.805804491E-1,-1.181857586E-1,-1.103403091E0
1.080488175E1,8.040092587E-1,-1.419801712E-1,-1.086063385E0
1.081287592E1,5.371956229E-1,-1.825445294E-1,-1.077539444E0
1.082087185E1,2.959236503E-1,-2.683297992E-1,-1.000764847E0
1.082886847E1,1.273246408E-1,-4.860363007E-1,-7.859458923E-1
1.083686356E1,1.200568676E-1,-7.213131189E-1,-5.189542770E-1
1.084485934E1,1.976805925E-1,-8.624210358E-1,-3.146467209E-1
1.085288481E1,4.400708675E-1,-8.115619421E-1,-2.591838837E-1
1.086088082E1,6.099740267E-1,-6.593379974E-1,-2.975463867E-1
1.086887629E1,7.724102736E-1,-5.021008253E-1,-4.375391006E-1
1.087687191E1,8.404817581E-1,-4.544234276E-1,-5.767087936E-1
1.088486761E1,7.620735168E-1,-4.520722628E-1,-7.922296524E-1
1.089286270E1,5.986015797E-1,-3.816311359E-1,-9.813537598E-1
1.090085971E1,3.145450354E-1,-3.095890284E-1,-9.594230652E-1
1.090888548E1,1.404416561E-2,-2.980751991E-1,-8.264293671E-1
1.091688088E1,-1.719397306E-1,-3.756108284E-1,-6.560144424E-1
1.092487720E1,-1.708052158E-1,-5.111899376E-1,-3.923749924E-1
1.093287167E1,-6.905853748E-2,-6.503977776E-1,-9.009647369E-2
1.094086706E1,4.964113235E-2,-6.779618263E-1,1.499500275E-1
1.094886314E1,1.992160082E-1,-6.259515285E-1,1.549129486E-1
1.095688985E1,2.336786985E-1,-4.782569408E-1,1.519012451E-2
1.096488501E1,1.700794697E-1,-2.226417065E-1,-3.535089493E-1
1.097287979E1,5.124950409E-2,5.757236481E-2,-6.235656738E-1
1.098087580E1,-1.298608780E-1,2.980756760E-1,-7.548437119E-1
1.098887150E1,-1.997041702E-1,4.089260101E-1,-5.636463165E-1
1.099686681E1,-6.431174278E-2,3.876645565E-1,-3.201236725E-1
1.100486352E1,3.142399788E-1,1.201825142E-1,9.256172180E-2
1.101288868E1,6.369693279E-1,-1.732556820E-1,3.149271011E-1
1.102088469E1,8.863644600E-1,-5.651588440E-1,5.628805161E-1
1.102888039E1,9.383668900E-1,-8.772001266E-1,5.602941513E-1
1.103687547E1,8.568713665E-1,-1.106980801E0,4.912586212E-1
1.104487156E1,5.818288326E-1,-1.153606892E0,3.951549530E-1
1.105286665E1,2.212052345E-1,-1.085103512E0,3.312501907E-1
1.106086258E1,-1.463408470E-1,-9.995050430E-1,3.673801422E-1
1.106888820E1,-3.389122486E-1,-1.009277105E0,4.492197037E-1
1.107688383E1,-2.848629951E-1,-1.042259455E0,5.500535965E-1
1.108488014E1,-5.870819092E-2,-1.048261166E0,6.669406891E-1
1.109287562E1,1.271243095E-1,-9.782004356E-1,6.699314117E-1
1.110087155E1,2.341430187E-1,-9.160826206E-1,6.092576981E-1
1.110886725E1,2.384476662E-1,-8.935236931E-1,3.051052094E-1
1.111686210E1,2.135245800E-1,-1.005190849E0,-6.463909149E-2
1.112488888E1,1.221058369E-1,-1.155272484E0,-1.387157440E-1
1.113288397E1,5.115175247E-2,-1.176820278E0,-3.871917725E-3
1.114088082E1,-5.281329155E-2,-1.085439682E0,2.963771820E-1
1.114887568E1,-1.199238300E-1,-9.248671532E-1,4.701585770E-1
1.115687076E1,-1.205563545E-1,-7.956233025E-1,5.729875565E-1
1.116486616E1,-2.564477921E-2,-7.995328903E-1,6.324844360E-1
1.117286178E1,9.237504005E-2,-9.006638527E-1,6.058378220E-1
1.118088825E1,2.348110676E-1,-9.741325378E-1,4.857320786E-1
1.118888372E1,3.135182858E-1,-9.434857368E-1,3.262205124E-1
1.119687996E1,3.884065151E-1,-8.881111145E-1,6.155109406E-2
1.120487513E1,4.160776138E-1,-7.792301178E-1,-1.271233559E-1
1.121287044E1,4.302859306E-1,-6.759915352E-1,-3.377065659E-1
1.122086591E1,4.503889084E-1,-5.524401665E-1,-5.275149345E-1
1.122886192E1,4.106004238E-1,-4.795627594E-1,-5.232481956E-1
1.123688862E1,2.930588722E-1,-5.518898964E-1,-2.733626366E-1
1.124488432E1,2.601795197E-1,-7.449183464E-1,6.233596802E-2
1.125287887E1,3.047349453E-1,-8.946003914E-1,5.621161461E-1
1.126087480E1,4.693241119E-1,-8.830513954E-1,9.543247223E-1
1.126887089E1,5.759305954E-1,-8.168473244E-1,1.152152061E0
1.127686659E1,6.387085915E-1,-7.543764114E-1,1.066300392E0
1.128486252E1,6.125559807E-1,-6.643004417E-1,8.929610252E-1
1.129288784E1,5.296249390E-1,-5.629453659E-1,7.180833817E-1
1.130088346E1,4.460768700E-1,-4.170718193E-1,4.977049828E-1
1.130887947E1,3.337490559E-1,-3.077478409E-1,4.232082367E-1
1.131687464E1,2.569320202E-1,-3.226332664E-1,4.594774246E-1
1.132487034E1,2.573161125E-1,-4.748139381E-1,5.746703148E-1
1.133286604E1,2.783446312E-1,-6.348900795E-1,7.241110802E-1
1.134086228E1,3.547186852E-1,-7.615866661E-1,7.556972504E-1
1.134888759E1,4.757490158E-1,-1.021385193E0,8.410692215E-1
1.135688383E1,6.434829235E-1,-1.257249832E0,8.360075951E-1
1.136487930E1,7.846922874E-1,-1.305404186E0,7.220253944E-1
1.137287401E1,9.652390480E-1,-1.190064907E0,5.772528648E-1
1.138087063E1,9.250676632E-1,-1.017240047E0,3.933496475E-1
1.138886541E1,1.223684549E0,-9.167151451E-1,1.999435425E-1
1.139686088E1,1.201717138E0,-7.083921432E-1,-6.187677383E-2
1.140488766E1,9.445431232E-1,-5.014786720E-1,-1.288180351E-1
1.141288328E1,6.437420845E-1,-3.291754723E-1,-1.457562447E-1
1.142087898E1,4.166698456E-1,-2.747855186E-1,-1.075639725E-1
1.142887415E1,2.734234333E-1,-3.015794754E-1,-6.740713120E-2
1.143687039E1,1.609117985E-1,-3.276605606E-1,-1.824331284E-2
1.144486609E1,1.270346642E-1,-3.752207756E-1,2.643966675E-2
1.145286156E1,2.362141609E-1,-4.473056793E-1,1.983642578E-2
1.146088795E1,3.916599751E-1,-5.418868065E-1,1.507282257E-2
1.146888304E1,5.967409611E-1,-4.797453880E-1,3.768301010E-2
1.147687820E1,8.276729584E-1,-2.500028610E-1,1.033306122E-3
1.148487536E1,1.043619633E0,6.760120392E-3,5.714178085E-2
1.149286953E1,1.139738560E0,2.510833740E-2,-8.954048157E-3
1.150086561E1,1.054979801E0,-1.783304214E-1,-6.331777573E-2
1.150886062E1,7.580065727E-1,-4.266886711E-1,-1.052947044E-1
1.151688648E1,4.462947845E-1,-5.982089043E-1,-1.334319115E-1
1.152488348E1,1.430425644E-1,-7.964048386E-1,-1.186223030E-1
1.153287819E1,-5.351543427E-2,-9.837431908E-1,-8.451223373E-2
1.154087420E1,-1.967601776E-1,-1.205211639E0,-5.783987045E-2
1.154887020E1,-2.117443085E-1,-1.237642288E0,-1.669583321E-1
1.155686475E1,-1.846003532E-1,-9.590535164E-1,-1.197404861E-1
1.156486130E1,1.075744629E-3,-4.701652527E-1,-6.101369858E-2
1.157288692E1,2.776479721E-1,-2.195334435E-1,1.631498337E-2
1.158088286E1,5.919342041E-1,-1.884713173E-1,3.818416595E-2
1.158887833E1,7.173781395E-1,-1.950693130E-1,1.212449074E-1
1.159687403E1,6.851348877E-1,-1.344399452E-1,1.785726547E-1
1.160486973E1,5.559782982E-1,-1.571569443E-1,2.380652428E-1
1.161286512E1,4.271426201E-1,-2.556157112E-1,2.745437622E-1
1.162086052E1,2.740030289E-1,-4.622182846E-1,2.804517746E-1
1.162888660E1,1.648936272E-1,-5.997624397E-1,2.998156548E-1
1.163688269E1,1.303362846E-1,-6.904125214E-1,3.202567101E-1
1.164487862E1,1.239681244E-2,-8.230705261E-1,1.904730797E-1
1.165287432E1,-7.723760605E-2,-8.536567688E-1,1.972050667E-1
1.166086971E1,2.016496658E-2,-7.527976036E-1,1.375102997E-1
1.166886488E1,2.617177963E-1,-5.349926949E-1,1.785531044E-1
1.167686050E1,5.287446976E-1,-3.011994362E-1,9.105014801E-2
1.168488697E1,7.282552719E-1,-2.644844055E-1,-2.016496658E-2
1.169288237E1,7.963027954E-1,-3.098387718E-1,2.151966095E-3
1.170087784E1,7.332220078E-1,-3.774385452E-1,2.809000015E-2
1.170887346E1,6.941499710E-1,-3.813257217E-1,1.293969154E-1
1.171686924E1,6.725625992E-1,-4.178123474E-1,2.039389610E-1
1.172486517E1,6.112804413E-1,-4.702310562E-1,9.354615211E-2
1.173286064E1,5.121536255E-1,-5.763459206E-1,8.005189896E-2
1.174088680E1,4.566168785E-1,-6.711235046E-1,-8.109569550E-3
1.174888158E1,3.685073853E-1,-6.177868843E-1,-9.417057037E-2
1.175687759E1,2.660570145E-1,-2.940926552E-1,-8.147644997E-2
1.176487383E1,2.250432968E-1,6.031131744E-2,3.507852554E-3
1.177286922E1,2.937588692E-1,3.102483749E-1,3.086805344E-2
1.178086470E1,3.898386955E-1,2.683639526E-1,1.950383186E-2
1.178886032E1,2.742843628E-1,1.454339027E-1,1.148419380E-1
1.179688656E1,1.138520241E-1,9.673595428E-3,3.122868538E-1
1.180488288E1,6.989860535E-2,-1.066427231E-1,5.362484455E-1
1.181287727E1,1.193189621E-1,-2.323565483E-1,7.430741787E-1
1.182087305E1,2.142457962E-1,-3.918805122E-1,7.818362713E-1
1.182886867E1,2.477402687E-1,-4.948058128E-1,7.181782722E-1
1.183686384E1,1.673302650E-1,-6.150484085E-1,5.692930222E-1
1.184486108E1,8.716487885E-2,-6.562638283E-1,4.514563084E-1
1.185288624E1,-2.667903900E-3,-5.271077156E-1,3.959300518E-1
1.186088202E1,-4.574537277E-2,-3.326768875E-1,4.514729977E-1
1.186887741E1,-4.427909851E-2,-1.906013489E-1,5.116324425E-1
1.187687242E1,-4.926061630E-2,-2.017717361E-1,4.808597565E-1
1.188486912E1,-1.096496582E-1,-2.539219856E-1,5.612456799E-1
1.189286359E1,-1.995830536E-1,-3.396224976E-1,6.774802208E-1
1.190086014E1,-2.571945190E-1,-4.514341354E-1,7.254128456E-1
1.190888607E1,-2.713303566E-1,-5.342564583E-1,7.422871590E-1
1.191688200E1,-2.478723526E-1,-6.481194496E-1,7.221727371E-1
1.192487770E1,-1.614804268E-1,-7.552056313E-1,6.606166363E-1
1.193287217E1,-1.521396637E-2,-7.913656235E-1,4.999887943E-1
1.194086826E1,-4.375934601E-3,-6.825661659E-1,2.406525612E-1
1.194886396E1,-4.042530060E-2,-5.216026306E-1,2.060317993E-1
1.195689043E1,-1.592826843E-2,-3.676023483E-1,9.299874306E-2
1.196488606E1,-9.558200836E-3,-2.968587875E-1,8.142089844E-2
1.197288122E1,-1.338806152E-1,-2.109069824E-1,1.002981663E-1
1.198087746E1,-3.291215897E-1,-1.955976486E-1,1.937377453E-1
1.198887255E1,-4.668498039E-1,-2.676606178E-1,4.062550068E-1
1.199686825E1,-5.200219154E-1,-3.869748116E-1,5.857870579E-1
1.200486464E1,-4.310774803E-1,-4.996323586E-1,6.898672581E-1
1.201288980E1,-2.737956047E-1,-5.276684761E-1,6.877005100E-1
1.202088558E1,-7.947349548E-2,-5.025081635E-1,5.643968582E-1
1.202888120E1,1.241064072E-1,-4.240212440E-1,4.146080017E-1
1.203687660E1,2.381739616E-1,-2.965998650E-1,3.132684231E-1
1.204487330E1,2.305755615E-1,-1.653871536E-1,2.951488495E-1
1.205286831E1,1.555724144E-1,-7.326507568E-2,4.686343670E-1
1.206086309E1,-2.568626404E-2,-2.511882782E-2,6.417922974E-1
1.206888994E1,-2.139153481E-1,9.753227234E-3,9.176096916E-1
1.207688595E1,-3.454236984E-1,-3.338098526E-2,1.235323191E0
1.208488127E1,-4.787821770E-1,-1.283736229E-1,1.519765615E0
1.209287643E1,-5.787220001E-1,-8.613443375E-2,1.582897902E0
1.210087236E1,-6.902503967E-1,-9.891510010E-3,1.835616112E0
1.210886806E1,-8.552005291E-1,1.312985420E-1,1.869345665E0
1.211686284E1,-9.306428432E-1,1.249489784E-1,1.918500185E0
1.212489031E1,-8.896553516E-1,6.718540192E-2,2.031713486E0
1.213288509E1,-8.453028202E-1,-1.912684441E-1,2.321170568E0
1.214088110E1,-7.537648678E-1,-8.914852142E-1,2.690180302E0
1.214887642E1,-5.976955891E-1,-1.763523579E0,3.110742569E0
1.215687212E1,-2.977461815E-1,-2.377153397E0,3.501054764E0
1.216486790E1,2.282867432E-1,-2.921837330E0,4.005510807E0
1.217286321E1,7.369880676E-1,-3.208555222E0,4.338395596E0
1.218089007E1,1.378697872E0,-3.476897240E0,4.409079552E0
1.218888546E1,1.794387817E0,-3.587034702E0,4.226841927E0
1.219687986E1,2.130767822E0,-3.521028996E0,4.080805302E0
1.220487648E1,2.184693336E0,-3.256637573E0,3.960565567E0
1.221287134E1,2.311739445E0,-3.020443439E0,3.912867546E0
1.222086758E1,2.303609848E0,-2.826019287E0,3.959200859E0
1.222886358E1,2.088765144E0,-2.781628609E0,4.000982761E0
1.223688944E1,1.758024693E0,-2.796526432E0,4.241998672E0
1.224488491E1,1.480140209E0,-2.682135105E0,4.510243893E0
1.225288000E1,1.422125340E0,-2.599259853E0,4.621146679E0
1.226087562E1,1.594372749E0,-2.675429344E0,4.472253323E0
1.226887140E1,1.924985409E0,-2.770220757E0,4.065058708E0
1.227686764E1,2.282172441E0,-2.706287384E0,3.539734840E0
1.228486334E1,2.510207176E0,-2.632202148E0,3.120787144E0
1.229288919E1,2.673374176E0,-2.714584827E0,2.697117805E0
1.230088489E1,2.523799658E0,-2.794646263E0,2.344927311E0
1.230888090E1,2.196216583E0,-2.825785637E0,2.185854912E0
1.231687637E1,1.942076921E0,-3.001753807E0,2.196054935E0
1.232487146E1,1.919188738E0,-3.258975506E0,2.061847210E0
1.233286747E1,2.003612757E0,-3.408832073E0,1.817743778E0
1.234086309E1,2.356805325E0,-3.546323776E0,1.466441631E0
1.234888895E1,2.673880100E0,-3.688995361E0,1.005166054E0
1.235688434E1,2.932701349E0,-3.831519127E0,5.497937202E-1
1.236488035E1,3.027402401E0,-3.860419750E0,3.521604538E-1
1.237287574E1,3.140230894E0,-3.853579521E0,8.347511292E-2
1.238087122E1,3.263092041E0,-3.837425709E0,-2.515258789E-1
1.238886661E1,3.250538111E0,-3.889318466E0,-4.696927071E-1
1.239686254E1,3.154696465E0,-4.055004597E0,-6.488394737E-1
1.240488909E1,3.080335855E0,-4.140577793E0,-7.829952240E-1
1.241288471E1,2.992272139E0,-4.097838879E0,-8.426804543E-1
1.242087949E1,3.078948736E0,-4.225745678E0,-1.078973293E0
1.242887581E1,3.339713573E0,-4.477206707E0,-1.149916649E0
1.243687128E1,3.572051525E0,-4.542645931E0,-1.464187145E0
1.244486660E1,3.630316973E0,-4.458356380E0,-1.613537312E0
1.245286237E1,3.622714520E0,-4.293436527E0,-1.697382450E0
1.246088823E1,3.637197018E0,-4.207991600E0,-1.682950497E0
1.246888385E1,3.489294767E0,-4.156435013E0,-1.668023109E0
1.247687963E1,3.267398596E0,-4.121898174E0,-1.850377560E0
1.248487556E1,3.072715282E0,-4.122523308E0,-1.969967842E0
1.249287042E1,2.892602682E0,-4.100763321E0,-2.119563103E0
1.250086704E1,2.824318886E0,-4.073812485E0,-2.250588894E0
1.250886182E1,2.881745338E0,-3.955690861E0,-2.390089035E0
1.251688852E1,2.989158869E0,-3.893552542E0,-2.274662495E0
1.252488399E1,2.977393150E0,-3.780042648E0,-2.067582607E0
1.253287969E1,2.852192163E0,-3.601076126E0,-1.922454834E0
1.254087509E1,2.718133450E0,-3.557760715E0,-1.770164013E0
1.254887110E1,2.566708088E0,-3.524245501E0,-1.618279934E0
1.255686557E1,2.446912289E0,-3.597537994E0,-1.662693501E0
1.256486342E1,2.305053711E0,-3.606051445E0,-1.666452408E0
1.257288797E1,2.290935993E0,-3.589483738E0,-1.762257576E0
1.258088429E1,2.323491573E0,-3.610106230E0,-1.870858669E0
1.258887945E1,2.306444645E0,-3.558062553E0,-1.721360683E0
1.259687446E1,2.203610659E0,-3.404168606E0,-1.674015045E0
1.260487085E1,2.112476826E0,-3.181861162E0,-1.751087666E0
1.261286586E1,1.989974022E0,-2.976642370E0,-1.792613506E0
1.262086225E1,1.755969763E0,-2.806353807E0,-1.890074730E0
1.262888873E1,1.530269980E0,-2.686699629E0,-2.032286644E0
1.263688412E1,1.397085667E0,-2.612686157E0,-2.004681587E0
1.264488036E1,1.274760008E0,-2.469524384E0,-1.957288265E0
1.265287544E1,1.259914398E0,-2.353019476E0,-1.982779503E0
1.266087092E1,1.321387291E0,-2.235730886E0,-2.061267376E0
1.266886569E1,1.509405732E0,-2.226005077E0,-2.184480190E0
1.267686132E1,1.704516411E0,-2.323318481E0,-2.380128384E0
1.268488810E1,1.788232684E0,-2.424046993E0,-2.634699821E0
1.269288380E1,1.671477199E0,-2.527479887E0,-2.918897629E0
1.270087981E1,1.440564990E0,-2.514897108E0,-3.302171230E0
1.270887435E1,1.202491283E0,-2.315923452E0,-3.648145199E0
1.271686967E1,9.699525833E-1,-2.092851639E0,-3.990675926E0
1.272486660E1,8.530779481E-1,-1.865851641E0,-4.344540119E0
1.273286084E1,8.968424201E-1,-1.779406190E0,-4.564216614E0
1.274088816E1,1.023401022E0,-1.765824080E0,-4.547302723E0
1.274888332E1,1.112739682E0,-1.854003191E0,-4.454759121E0
1.275687810E1,1.268616438E0,-1.889163971E0,-4.430665016E0
1.276487472E1,1.503840804E0,-1.922208309E0,-4.566291332E0
1.277286920E1,1.754559517E0,-1.986068726E0,-4.945291996E0
1.278086520E1,1.885521650E0,-1.855250239E0,-5.673104763E0
1.278886121E1,1.741200686E0,-1.437111139E0,-6.534438610E0
1.279688699E1,1.513252020E0,-5.230481625E-1,-7.972585201E0
1.280488362E1,1.155093789E0,4.347782135E-1,-9.655701637E0
1.281287847E1,7.266901135E-1,1.170157909E0,-1.045240307E1
1.282087440E1,1.302355528E-2,1.777919054E0,-1.059071732E1
1.282887010E1,-5.151901245E-1,2.023523808E0,-1.011197186E1
1.283686557E1,-8.684266806E-1,2.036889553E0,-9.344176292E0
1.284486158E1,-7.432271242E-1,1.877698421E0,-8.549195290E0
1.285288713E1,-2.827553749E-1,1.668568850E0,-7.700973511E0
1.286088283E1,1.448658705E-1,1.562250614E0,-7.082358360E0
1.286887823E1,3.336442709E-1,1.689453840E0,-6.922367096E0
1.287687539E1,4.095900059E-1,1.969152451E0,-7.016219616E0
1.288487055E1,4.369702339E-1,2.174227715E0,-7.415493011E0
1.289286594E1,4.967874885E-1,2.222841024E0,-8.057186127E0
1.290086095E1,5.499589443E-1,2.134956121E0,-8.359435081E0
1.290888712E1,5.444664955E-1,1.867744684E0,-8.312966347E0
1.291688259E1,5.081766844E-1,1.527145505E0,-7.947077274E0
1.292487883E1,6.269506216E-1,1.240522385E0,-7.614192009E0
1.293287337E1,9.358863831E-1,9.446535110E-1,-7.128121376E0
1.294086969E1,1.223173738E0,6.979099512E-1,-6.735797882E0
1.294886562E1,1.562402248E0,4.077889919E-1,-6.243042469E0
1.295689179E1,2.034714699E0,8.071398735E-2,-5.752490044E0
1.296488756E1,2.518523693E0,-1.226437092E-1,-5.341895103E0
1.297288226E1,3.082043648E0,-3.458036184E-1,-5.246945858E0
1.298087797E1,3.343665123E0,-5.084308386E-1,-5.057506084E0
1.298887375E1,3.356239319E0,-6.382389069E-1,-4.816374302E0
1.299686906E1,3.102465153E0,-6.914337873E-1,-4.638453960E0
1.300486484E1,2.750177145E0,-7.749826312E-1,-4.284696102E0
1.301286054E1,2.331144333E0,-1.008606076E0,-3.630542755E0
1.302088663E1,1.886506200E0,-1.303475142E0,-3.025409222E0
1.302888264E1,1.323017955E0,-1.652067184E0,-2.270415783E0
1.303687803E1,9.446474910E-1,-1.922305107E0,-1.640625954E0
1.304487412E1,7.900091410E-1,-2.017113209E0,-9.753141403E-1
1.305286828E1,8.956128359E-1,-1.883775115E0,-6.187953949E-1
1.306086544E1,1.024551034E0,-1.572335601E0,-4.320507050E-1
1.306889106E1,1.000312567E0,-1.146902323E0,-4.725780487E-1
1.307688615E1,9.649685621E-1,-8.219754696E-1,-6.305017471E-1
1.308488247E1,8.594423532E-1,-6.370750666E-1,-8.247232437E-1
1.309287786E1,6.188032031E-1,-8.595327735E-1,-5.597763062E-1
1.310087356E1,4.275395870E-1,-1.232425332E0,-1.849527359E-1
1.310886896E1,3.775087595E-1,-1.611515880E0,2.091360092E-1
1.311686497E1,5.025491118E-1,-1.864164829E0,5.272150040E-1
1.312489113E1,7.663459778E-1,-2.166202784E0,8.132896423E-1
1.313288560E1,1.104648590E0,-2.320279360E0,1.021710396E0
1.314088192E1,1.353324533E0,-2.228441477E0,1.064698219E0
1.314887723E1,1.604944944E0,-1.929411530E0,8.152570724E-1
1.315687301E1,1.628252029E0,-1.565800667E0,4.599876404E-1
1.316486902E1,1.482543588E0,-1.335006714E0,-1.540470123E-2
1.317286464E1,1.168881178E0,-1.266027212E0,-5.836582184E-2
1.318089088E1,7.883915901E-1,-1.298665166E0,3.973550797E-1
1.318888712E1,6.084716320E-1,-1.279697299E0,1.116187096E0
1.319688167E1,7.105352879E-1,-1.195957661E0,1.542826653E0
1.320487799E1,9.233968258E-1,-1.310696959E0,1.797282219E0
1.321287300E1,1.023164988E0,-1.477044225E0,1.662330627E0
1.322086901E1,9.635875225E-1,-1.548156023E0,1.440293312E0
1.322886448E1,7.640776634E-1,-1.368768930E0,1.025548935E0
1.323689025E1,5.493028164E-1,-1.100615978E0,5.043792725E-1
1.324488603E1,1.945667267E-1,-1.088474751E0,-1.728534698E-2
1.325288143E1,-1.399385929E-1,-1.152891159E0,-1.599016190E-1
1.326087767E1,-3.045210838E-1,-1.098145723E0,1.909751892E-1
1.326887221E1,-2.572515011E-1,-1.076262236E0,8.600168228E-1
1.327686815E1,-4.627656937E-2,-1.149572372E0,1.371031761E0
1.328486477E1,1.393485069E-1,-1.269965410E0,1.514255524E0
1.329289039E1,4.103176594E-1,-1.299542427E0,1.467340469E0
1.330088663E1,7.898020744E-1,-1.205641985E0,1.084418297E0
1.330888087E1,9.011487961E-1,-1.053394556E0,7.192115784E-1
1.331687658E1,8.741276264E-1,-9.499559402E-1,9.934043884E-2
1.332487320E1,8.356883526E-1,-1.051754236E0,-1.471529007E-1
1.333286798E1,8.258571625E-1,-1.123612881E0,-1.179800034E-1
1.334086422E1,7.760982513E-1,-1.063810349E0,1.913661957E-1
1.334889015E1,6.408967972E-1,-9.207839966E-1,5.984220505E-1
1.335688554E1,4.763011932E-1,-7.777259350E-1,8.190584183E-1
1.336488209E1,2.815575600E-1,-7.126665115E-1,9.413471222E-1
1.337287718E1,9.110927582E-2,-6.693925858E-1,8.743467331E-1
1.338087203E1,-3.728628159E-2,-6.124248505E-1,6.560721397E-1
1.338886835E1,-9.908485413E-2,-5.488252640E-1,3.957529068E-1
1.339686428E1,-1.110930443E-1,-5.152149200E-1,-1.829004288E-2
1.340489021E1,3.079795837E-2,-5.891103745E-1,-1.908183098E-1
1.341288584E1,3.248229027E-1,-7.173051834E-1,7.348632812E-2
1.342088184E1,7.440252304E-1,-7.271285057E-1,6.063632965E-1
1.342887632E1,1.150837421E0,-5.500226021E-1,8.785376549E-1
1.343687179E1,1.427852154E0,-3.748321533E-1,9.845337868E-1
1.344486864E1,1.309567928E0,-3.371949196E-1,8.904619217E-1
1.345286342E1,8.546776772E-1,-4.138221741E-1,8.548588753E-1
1.346088966E1,4.413647652E-1,-5.583338737E-1,7.287931442E-1
1.346888528E1,2.589387894E-1,-6.193971634E-1,6.758136749E-1
1.347688106E1,1.782393456E-1,-7.601456642E-1,7.202305794E-1
1.348487761E1,1.988902092E-1,-8.952531815E-1,8.729124069E-1
1.349287239E1,3.140120506E-1,-1.041903973E0,9.898848534E-1
1.350086755E1,4.557929039E-1,-9.575214386E-1,9.731507301E-1
1.350886294E1,6.199378967E-1,-7.177200317E-1,9.006042480E-1
1.351688934E1,8.097777367E-1,-4.654550552E-1,8.375072479E-1
1.352488566E1,1.021336079E0,-3.411116600E-1,8.444418907E-1
1.353288113E1,1.198103905E0,-3.060545921E-1,8.417906761E-1
1.354087652E1,1.167998791E0,-2.859673500E-1,9.465265274E-1
1.354887160E1,1.040370941E0,-3.307609558E-1,1.058846951E0
1.355686754E1,8.947234154E-1,-4.749097824E-1,1.061833382E0
1.356486416E1,8.165173531E-1,-5.752310753E-1,1.086647511E0
1.357288879E1,7.217445374E-1,-5.270438194E-1,1.139440536E0
1.358088487E1,7.851481438E-1,-3.622703552E-1,1.221766472E0
1.358888026E1,9.982914925E-1,-2.995452881E-1,1.190489769E0
1.359687681E1,1.106381893E0,-3.533010483E-1,9.843034744E-1
1.360487313E1,1.015023232E0,-4.359860420E-1,7.015080452E-1
1.361286668E1,7.231979370E-1,-3.693470955E-1,5.837783813E-1
1.362086330E1,5.206427574E-1,-3.166003227E-1,4.585642815E-1
1.362888916E1,5.084619522E-1,-4.130706787E-1,4.199767113E-1
1.363688401E1,5.936312675E-1,-4.603209496E-1,5.511655807E-1
1.364488087E1,8.928360939E-1,-4.091539383E-1,7.989106178E-1
1.365287603E1,1.191079617E0,-3.254089355E-1,1.094307423E0
1.366087165E1,1.394414425E0,-2.362918854E-1,1.192588329E0
1.366886736E1,1.572125912E0,-2.358779907E-1,1.154973507E0
1.367686244E1,1.565975189E0,-2.733893394E-1,9.819993973E-1
1.368488960E1,1.368896008E0,-3.675389290E-1,8.174591064E-1
1.369288438E1,1.075841904E0,-4.625997543E-1,7.227721214E-1
1.370088031E1,6.294898987E-1,-5.126271248E-1,6.601805687E-1
1.370887509E1,3.032231331E-1,-5.313959122E-1,4.986429214E-1
1.371687210E1,1.376581192E-1,-5.407071114E-1,3.770565987E-1
1.372486780E1,4.279851913E-2,-6.333012581E-1,3.869018555E-1
1.373286312E1,2.094202042E-1,-6.397495270E-1,3.513202667E-1
1.374088867E1,6.667027473E-1,-3.961758614E-1,3.468556404E-1
1.374888475E1,1.270070553E0,5.855512619E-2,4.427900314E-1
1.375687984E1,1.756928444E0,3.342199326E-1,6.113944054E-1
1.376487639E1,2.138189793E0,3.125386238E-1,6.685924530E-1
1.377287086E1,2.128816128E0,2.226800919E-1,7.055058479E-1
1.378086756E1,1.620446205E0,1.596307755E-2,7.973172665E-1
1.378886234E1,1.112896919E0,-1.531729698E-1,9.587643147E-1
1.379688842E1,5.547556877E-1,-3.277568817E-1,1.113090515E0
1.380488505E1,1.041016579E-1,-5.328192711E-1,1.108643532E0
1.381287952E1,-2.030496597E-1,-5.700378418E-1,1.005412579E0
1.382087530E1,-4.461426735E-1,-5.097608566E-1,7.921516895E-1
1.382887123E1,-3.691391945E-1,-4.061675072E-1,5.417392254E-1
1.383686693E1,-2.216339111E-3,-2.712936401E-1,5.061686039E-1
1.384486263E1,5.601181984E-1,-1.235055923E-1,5.465657711E-1
1.385288826E1,9.741344452E-1,-1.788806915E-2,5.821685791E-1
1.386088511E1,1.230657101E0,1.622352600E-1,6.822519302E-1
1.386887927E1,1.040591717E0,3.535323143E-1,9.981377125E-1
1.387687566E1,8.125309944E-1,2.315187454E-1,1.331078768E0
1.388487160E1,3.999533653E-1,2.083735466E-1,1.522093773E0
1.389286615E1,3.659772873E-2,9.031534195E-2,1.637463808E0
1.390086215E1,-3.214130402E-1,-1.294279099E-1,1.720214605E0
1.390888862E1,-5.032348633E-1,-1.665134430E-1,1.661098719E0
1.391688333E1,-5.142679214E-1,-1.429624557E-1,1.571474314E0
1.392488003E1,-3.119421005E-1,-8.532047272E-2,1.386952400E0
1.393287419E1,5.855035782E-2,-1.102180481E-1,1.204771280E0
1.394087020E1,4.135022163E-1,-1.429328918E-1,1.192872047E0
1.394886582E1,6.801562309E-1,-1.110134125E-1,1.192512751E0
1.395686183E1,8.976526260E-1,-1.188278198E-2,1.248246193E0
1.396488953E1,9.637913704E-1,-1.272201538E-2,1.350363016E0
1.397288316E1,8.784303665E-1,-1.061191559E-1,1.473473072E0
1.398087878E1,6.817097664E-1,-2.013549805E-1,1.593847036E0
1.398887510E1,4.950213432E-1,-2.198476791E-1,1.692308426E0
1.399687080E1,3.724870682E-1,-2.245473862E-1,1.615185499E0
1.400486689E1,3.637070656E-1,-2.681436539E-1,1.583924294E0
1.401289236E1,3.965082169E-1,-2.480649948E-1,1.447154522E0
1.402088806E1,3.901605606E-1,-2.096471786E-1,1.465051889E0
1.402888384E1,3.489089012E-1,-2.215642929E-1,1.564754009E0
1.403687862E1,3.341073990E-1,-2.544536591E-1,1.704725504E0
1.404487493E1,3.516283035E-1,-3.599443436E-1,1.986783266E0
1.405287025E1,3.650393486E-1,-5.682621002E-1,2.283111572E0
1.406086541E1,3.114700317E-1,-7.063970566E-1,2.594077826E0
1.406889181E1,1.954765320E-1,-8.089971542E-1,3.019509315E0
1.407688789E1,6.444311142E-2,-9.433269501E-1,3.504556417E0
1.408488475E1,-2.287864685E-2,-1.069046021E0,3.873008013E0
1.409287899E1,-1.678380966E-1,-1.222062111E0,4.363383293E0
1.410087430E1,-2.580909729E-1,-1.326184273E0,4.802329540E0
1.410887008E1,-2.071890831E-1,-1.388670921E0,5.215546608E0
1.411686601E1,-6.964206696E-2,-1.433413506E0,5.489772797E0
1.412489279E1,2.986941338E-1,-1.570343018E0,5.672797203E0
1.413288734E1,6.253094673E-1,-1.809560776E0,6.025854111E0
1.414088327E1,8.084964752E-1,-1.981790543E0,6.595355034E0
1.414887813E1,7.659330368E-1,-2.243059158E0,7.311337948E0
1.415687444E1,6.689920425E-1,-2.493315697E0,7.831242085E0
1.416487107E1,4.227123260E-1,-2.788132668E0,8.353908539E0
1.417286554E1,4.892253876E-2,-2.949392319E0,8.616682053E0
1.418086062E1,-2.878885269E-1,-2.942411423E0,8.646163940E0
1.418888763E1,-7.425577641E-1,-2.795847893E0,8.390813828E0
1.419688279E1,-1.039399624E0,-2.490601540E0,7.798253059E0
1.420487965E1,-1.142195940E0,-2.080564022E0,7.129670620E0
1.421287443E1,-8.597707748E-1,-1.871176720E0,6.495545864E0
1.422086982E1,-3.115448952E-1,-1.916380882E0,6.030508995E0
1.422886529E1,3.910350800E-1,-2.163969994E0,5.772110462E0
1.423689115E1,8.910665512E-1,-2.564598560E0,5.406605721E0
1.424488769E1,1.169623375E0,-3.157186031E0,5.108872414E0
1.425288193E1,1.222193241E0,-3.662613392E0,4.676833153E0
1.426087856E1,1.171618223E0,-4.028507233E0,3.995084286E0
1.426887418E1,1.216259241E0,-4.095047951E0,3.367839813E0
1.427686965E1,1.412907839E0,-4.106109619E0,2.744146824E0
1.428486651E1,1.646790743E0,-4.246141434E0,2.078815937E0
1.429289113E1,1.828950882E0,-4.392338753E0,1.603352547E0
1.430088653E1,2.026029587E0,-4.491189957E0,1.259493828E0
1.430888261E1,2.316512346E0,-4.547173977E0,8.660507202E-1
1.431687924E1,2.721472740E0,-4.601154804E0,5.907135010E-1
1.432487340E1,3.116515398E0,-4.737919807E0,3.461856842E-1
1.433286910E1,3.324049711E0,-4.833122730E0,8.961391449E-2
1.434086450E1,3.376277685E0,-4.887383461E0,-1.476192474E-2
1.434889120E1,3.343672037E0,-4.924455643E0,-9.620618820E-2
1.435688690E1,3.260605574E0,-4.996324539E0,-3.408775330E-1
1.436488360E1,3.201228380E0,-4.917863369E0,-4.939999580E-1
1.437287776E1,3.124062061E0,-4.811174870E0,-5.909657478E-1
1.438087369E1,2.919074297E0,-4.638948441E0,-1.032234192E0
1.438886939E1,2.801525593E0,-4.596101284E0,-1.466885567E0
1.439686517E1,2.747122526E0,-4.622410297E0,-1.722060204E0
1.440489103E1,2.742122650E0,-4.587960243E0,-1.868538380E0
1.441288665E1,2.655748606E0,-4.537630558E0,-2.001333237E0
1.442088212E1,2.489875078E0,-4.422811031E0,-2.024290085E0
1.442887813E1,2.444802284E0,-4.348743439E0,-2.009190559E0
1.443687314E1,2.529432058E0,-4.388205051E0,-1.864382744E0
1.444487007E1,2.832999229E0,-4.446501732E0,-2.081724167E0
1.445286547E1,3.143699408E0,-4.532883167E0,-2.163595676E0
1.446089101E1,3.234228373E0,-4.440969467E0,-2.259009361E0
1.446888587E1,3.204524517E0,-4.382767677E0,-2.500281334E0
1.447688157E1,3.022209644E0,-4.285340309E0,-2.698679924E0
1.448487781E1,2.786996841E0,-4.150485516E0,-2.679546833E0
1.449287297E1,2.447891235E0,-3.952564716E0,-2.567428112E0
1.450086921E1,2.089210510E0,-3.774223804E0,-2.346746922E0
1.450886407E1,1.823754430E0,-3.726984501E0,-2.158500195E0
1.451689046E1,1.559621572E0,-3.637523413E0,-1.962005138E0
1.452488678E1,1.468873739E0,-3.568607092E0,-2.190503597E0
1.453288163E1,1.507817149E0,-3.469777822E0,-2.452483654E0
1.454087734E1,1.719481349E0,-3.272387743E0,-2.900315762E0
1.454887296E1,1.957078934E0,-2.998650551E0,-3.077289104E0
1.455686843E1,2.071201324E0,-2.658105373E0,-2.728540421E0
1.456486498E1,1.959221482E0,-2.377985001E0,-2.467276096E0
1.457288999E1,1.776935935E0,-2.061636686E0,-1.723335266E0
1.458088592E1,1.626781464E0,-1.986598134E0,-1.263049126E0
1.458888108E1,1.580482244E0,-2.037576675E0,-1.166275024E0
1.459687732E1,1.496996880E0,-2.349587917E0,-9.829845428E-1
1.460487372E1,1.315447092E0,-2.528663158E0,-1.129932404E0
1.461286811E1,1.237828493E0,-2.553452492E0,-1.317646027E0
1.462086412E1,1.187134385E0,-2.536360502E0,-1.532664299E0
1.462889005E1,1.191763878E0,-2.374371290E0,-2.131354332E0
1.463688629E1,1.110108614E0,-1.963362932E0,-2.812010765E0
1.464488199E1,9.041621685E-1,-1.581770420E0,-3.364748955E0
1.465287715E1,5.450156331E-1,-1.153577089E0,-3.499111176E0
1.466087224E1,3.854526281E-1,-7.743334770E-1,-3.822351933E0
1.466886856E1,3.827456832E-1,-3.384615779E-1,-3.987804413E0
1.467686449E1,5.565615892E-1,-1.634124517E-1,-3.983492374E0
1.468489034E1,6.728377342E-1,-1.691477299E-1,-3.772869587E0
1.469288543E1,7.964708805E-1,-3.560070097E-1,-3.542185307E0
1.470088121E1,8.853940964E-1,-6.109110117E-1,-3.662299156E0
1.470887629E1,8.736985326E-1,-8.560617566E-1,-4.715099812E0
1.471687292E1,7.820956707E-1,-7.530621290E-1,-6.104787827E0
1.472486854E1,6.180363297E-1,-2.676399648E-1,-7.757785797E0
1.473286363E1,3.371323943E-1,4.695141613E-1,-9.289317131E0
1.474089110E1,-2.277705446E-2,1.246577144E0,-1.058990192E1
1.474888557E1,-5.124055743E-1,2.212487936E0,-1.145172882E1
1.475688065E1,-8.356138468E-1,2.810654402E0,-1.130775261E1
1.476487728E1,-1.011221409E0,3.147036791E0,-1.090008926E1
1.477287260E1,-8.584715128E-1,3.030740261E0,-1.014000607E1
1.478086768E1,-3.960008025E-1,2.741047382E0,-9.625794411E0
1.478886377E1,1.354971528E-1,2.371774435E0,-9.125551224E0
1.479688985E1,4.807000756E-1,2.215669394E0,-9.171498299E0
1.480488563E1,6.280524731E-1,2.372592211E0,-9.656617165E0
1.481288064E1,5.724195242E-1,2.715677261E0,-1.007380199E1
1.482087634E1,2.557986379E-1,3.100403309E0,-1.030103970E1
1.482887235E1,-2.418541312E-1,3.466005325E0,-1.044610596E1
1.483686713E1,-7.540337443E-1,3.662268400E0,-1.045395470E1
1.484486383E1,-1.335194349E0,3.615004539E0,-1.013539505E1
1.485288938E1,-1.544422746E0,3.338620901E0,-9.809209824E0
1.486088562E1,-1.410147667E0,2.788165569E0,-9.162004471E0
1.486888101E1,-1.083174944E0,2.191894531E0,-8.248889923E0
1.487687648E1,-8.242033124E-1,1.813559532E0,-7.421103001E0
1.488487303E1,-6.720748544E-1,1.545835495E0,-6.440436840E0
1.489286750E1,-6.072441936E-1,1.432787180E0,-5.475672722E0
1.490086359E1,-3.673799038E-1,1.327318192E0,-4.410669327E0
1.490888913E1,-8.702869713E-2,1.249880552E0,-3.639726639E0
1.491688453E1,3.892014325E-1,1.067269564E0,-2.980702877E0
1.492488107E1,7.194903493E-1,8.151520491E-1,-2.266234398E0
1.493287531E1,7.334204316E-1,7.098513246E-1,-1.834312439E0
1.494087186E1,5.270196199E-1,6.393358707E-1,-1.388515472E0
1.494886733E1,2.024634778E-1,5.248737335E-1,-1.027251244E0
1.495686265E1,-1.133409441E-1,3.085302114E-1,-7.170257568E-1
1.496488943E1,-3.261523545E-1,6.347554922E-2,-5.725564957E-1
1.497288482E1,-4.746164978E-1,-1.338574290E-1,-4.929304123E-1
1.498088091E1,-4.622761309E-1,-2.830537558E-1,-5.424776077E-1
1.498887622E1,-3.755562901E-1,-2.816519141E-1,-3.977861404E-1
1.499687162E1,-1.336277127E-1,-2.354493141E-1,1.274013519E-1
1.500486824E1,2.132577896E-1,-1.977078915E-1,6.182899475E-1
1.501286271E1,6.232070923E-1,-2.796312571E-1,1.090929985E0
1.502088949E1,9.715762138E-1,-4.725176096E-1,1.652400970E0
1.502888435E1,1.048186183E0,-6.662249565E-1,1.941775322E0
1.503688128E1,8.068174124E-1,-7.322262526E-1,1.990975380E0
1.504487667E1,2.963192463E-1,-6.404855251E-1,1.885161400E0
1.505287137E1,-4.504845738E-1,-4.343296289E-1,1.671122551E0
1.506086676E1,-1.013579965E0,-2.748535872E-1,1.595671654E0
1.506889262E1,-1.230474710E0,-2.964332104E-1,1.630991936E0
1.507688871E1,-9.902725816E-1,-4.956425428E-1,1.782991409E0
1.508488556E1,-5.387964249E-1,-6.612918377E-1,1.961010933E0
1.509288011E1,1.361763477E-2,-7.011718750E-1,2.108892441E0
1.510087573E1,3.643071651E-1,-4.985146523E-1,2.020189285E0
1.510887120E1,4.875218868E-1,-2.353949547E-1,1.947921753E0
1.511686683E1,3.037667274E-1,-9.835720062E-3,1.711945534E0
1.512489338E1,-4.795300961E-2,5.261635780E-2,1.534979820E0
1.513288808E1,-6.085072756E-1,-1.304776669E-1,1.422511101E0
1.514088416E1,-9.432967901E-1,-3.181483746E-1,1.531259537E0
1.514887925E1,-1.072948813E0,-4.907240868E-1,1.689880371E0
1.515687587E1,-9.815201759E-1,-5.395340919E-1,1.800647736E0
1.516487127E1,-7.213197947E-1,-4.627630711E-1,1.753903389E0
1.517286635E1,-3.782169819E-1,-3.345057964E-1,1.679096222E0
1.518086205E1,-9.244084358E-2,-2.465238571E-1,1.479523659E0
1.518888814E1,1.280071735E-1,-1.080949306E-1,1.313859940E0
1.519688361E1,1.408925056E-1,1.097590923E-1,1.417330742E0
1.520488054E1,-4.056525230E-2,2.442121506E-1,1.491701126E0
1.521287524E1,-2.342836857E-1,1.884050369E-1,1.510577202E0
1.522087064E1,-4.549200535E-1,1.841235161E-2,1.378557205E0
1.522886695E1,-7.102179527E-1,-1.794216633E-1,1.204927444E0
1.523689289E1,-8.803403378E-1,-2.776777744E-1,9.505872726E-1
1.524488890E1,-9.692674875E-1,-2.546176910E-1,7.677526474E-1
1.525288398E1,-8.887887001E-1,-1.029617786E-1,5.688934326E-1
1.526087907E1,-7.159998417E-1,7.056665421E-2,5.524368286E-1
1.526887500E1,-3.789930344E-1,1.524102688E-1,7.156677246E-1
1.527687109E1,-7.893157005E-2,8.808684349E-2,9.031877518E-1
1.528486709E1,1.678578854E-1,-8.544778824E-2,1.067376137E0
1.529289256E1,2.672872543E-1,-2.892522812E-1,1.116596222E0
1.530088804E1,1.338362694E-1,-3.400473595E-1,1.078799248E0
1.530888404E1,-2.031750679E-1,-2.971241474E-1,9.265079498E-1
1.531687936E1,-4.908289909E-1,-2.145044804E-1,8.173227310E-1
1.532487537E1,-5.881528854E-1,-1.540052891E-1,4.486227036E-1
1.533287076E1,-6.062593460E-1,-1.433482170E-1,4.981613159E-2
1.534086708E1,-6.458990574E-1,-2.165422440E-1,-3.447432518E-1
1.534889201E1,-6.943082809E-1,-2.629728317E-1,-4.170694351E-1
1.535688679E1,-7.738671303E-1,-1.401352882E-1,-3.027119637E-1
1.536488411E1,-8.041179180E-1,2.039279938E-1,-3.234653473E-1
1.537287850E1,-6.052315235E-1,4.768054485E-1,-2.535719872E-1
1.538087397E1,-1.215291023E-1,6.118903160E-1,-1.235303879E-1
1.538887060E1,5.476269722E-1,4.385879040E-1,-9.595775604E-2
1.539686560E1,1.057101011E0,1.580619812E-1,-1.366415024E-1
1.540489269E1,1.357883215E0,-1.859846115E-1,-1.462426186E-1
1.541288778E1,1.319949150E0,-4.287590981E-1,-1.312470436E-1
1.542088317E1,1.050810337E0,-6.336560249E-1,-1.539692879E-1
1.542887926E1,6.164824963E-1,-7.634191513E-1,-4.669141769E-2
1.543687373E1,2.419805527E-1,-6.808109283E-1,2.912712097E-2
1.544487066E1,-2.298882008E-1,-3.235416412E-1,-4.221296310E-2
1.545286482E1,-5.786826611E-1,2.024736404E-1,-8.325338364E-2
1.546089152E1,-8.364036083E-1,8.489096165E-1,-3.410468102E-1
1.546888761E1,-8.253757954E-1,1.146603584E0,-6.366271973E-1
1.547688293E1,-5.166904926E-1,9.622533321E-1,-7.880487442E-1
1.548487893E1,6.192827225E-2,4.882478714E-1,-7.026729584E-1
1.549287402E1,5.592513084E-1,2.376432419E-1,-7.455377579E-1
1.550087041E1,1.006660461E0,1.851530075E-1,-5.935387611E-1
1.550886573E1,1.264914513E0,1.309928894E-1,-5.885047913E-1
1.551689228E1,1.360444546E0,8.313655853E-3,-6.945743561E-1
1.552488767E1,1.198840141E0,-1.613483429E-1,-7.697854042E-1
1.553288299E1,1.001972675E0,-2.845587730E-1,-5.670928955E-1
1.554087930E1,6.786537170E-1,-4.145636559E-1,-2.999000549E-1
1.554887439E1,4.190468788E-1,-3.300933838E-1,-2.317595482E-1
1.555686978E1,1.783256531E-1,-4.126167297E-2,-4.386148453E-1
1.556486579E1,1.162815094E-2,2.444896698E-1,-5.783233643E-1
1.557289165E1,5.642890930E-2,3.134055138E-1,-7.275066376E-1
1.558088704E1,2.832431793E-1,2.170639038E-1,-8.843402863E-1
1.558888251E1,5.197105408E-1,9.525585175E-2,-8.190698624E-1
1.559687844E1,7.924170494E-1,-1.246476173E-1,-8.213477135E-1
1.560487415E1,9.494709969E-1,-3.795080185E-1,-7.956056595E-1
1.561286892E1,6.156878471E-1,-7.472434044E-1,-7.669873238E-1
1.562086593E1,6.150484085E-1,-1.005702972E0,-4.681320190E-1
1.562889179E1,4.181370735E-1,-1.159915924E0,-3.180718422E-1
1.563688718E1,1.857857704E-1,-1.076339722E0,-2.146434784E-2
1.564488281E1,1.501889229E-1,-8.419818878E-1,3.484058380E-2
1.565287828E1,1.870036125E-1,-5.514631271E-1,-1.316485405E-1
1.566087306E1,2.867074013E-1,-2.980642319E-1,-3.651766777E-1
1.566886937E1,3.599839211E-1,-2.867898941E-1,-6.446771622E-1
1.567686469E1,3.376436234E-1,-4.939212799E-1,-9.223475456E-1
1.568489154E1,3.056526184E-1,-7.373652458E-1,-1.068069935E0
1.569288624E1,3.262281418E-1,-1.003605843E0,-1.154053211E0
1.570088256E1,3.728384972E-1,-9.518175125E-1,-1.037687778E0
1.570887795E1,4.418964386E-1,-7.625102997E-1,-6.806373596E-1
1.571687396E1,6.181154251E-1,-4.687681198E-1,-2.541022301E-1
1.572487005E1,7.872586250E-1,-2.599415779E-1,1.834158897E-1
1.573286483E1,9.224648476E-1,-2.804155350E-1,5.854668617E-1
1.574089068E1,9.204344749E-1,-4.353408813E-1,8.424177170E-1
1.574888692E1,7.566776276E-1,-5.858526230E-1,8.542222977E-1
1.575688262E1,6.691994667E-1,-7.499165535E-1,9.067516327E-1
1.576487802E1,5.714139938E-1,-9.546947479E-1,8.038163185E-1
1.577287318E1,4.370446205E-1,-1.139410496E0,4.461340904E-1
1.578086950E1,3.217406273E-1,-1.162921906E0,3.162002563E-2
1.578889558E1,1.686754227E-1,-1.036588669E0,-2.671537399E-1
1.579689013E1,6.758165359E-2,-8.936886787E-1,-3.042764664E-1
1.580488706E1,1.383132935E-1,-6.142568588E-1,-2.517876625E-1
1.581288123E1,5.450987816E-1,-4.404506683E-1,-8.481454849E-2
1.582087808E1,1.008288860E0,-4.454984665E-1,2.114629745E-1
1.582887317E1,1.421894550E0,-5.084676743E-1,6.001417637E-1
1.583686918E1,1.629467010E0,-5.639247894E-1,9.703640938E-1
1.584486519E1,1.689146042E0,-7.168550491E-1,1.302863359E0
1.585288989E1,1.615651608E0,-9.660139084E-1,1.448359489E0
1.586088620E1,1.502247810E0,-1.131359577E0,1.215844393E0
1.586888221E1,1.161478043E0,-1.238649368E0,9.399406910E-1
1.587687730E1,7.865524292E-1,-1.241582870E0,6.974353790E-1
1.588487392E1,3.957147598E-1,-1.173497200E0,3.823196888E-1
1.589286862E1,1.173319817E-1,-1.093873978E0,1.405849457E-1
1.590086471E1,-1.093382835E-1,-9.763612747E-1,3.132343292E-2
1.590889080E1,-2.490239143E-1,-8.426127434E-1,1.489613056E-1
1.591688619E1,-1.918067932E-1,-7.983393669E-1,4.381616116E-1
1.592488281E1,1.650786400E-1,-8.419761658E-1,7.512927055E-1
1.593287667E1,6.002573967E-1,-9.147777557E-1,9.797801971E-1
1.594087329E1,9.073057175E-1,-1.030013561E0,1.106563330E0
1.594886899E1,9.691734314E-1,-1.135434151E0,1.131942272E0
1.595686416E1,8.377604485E-1,-1.223073959E0,1.006545067E0
1.596489063E1,6.914815903E-1,-1.265568256E0,7.543299198E-1
1.597288541E1,5.499286652E-1,-1.269408226E0,6.250395775E-1
1.598088164E1,3.482003212E-1,-1.208106518E0,7.079293728E-1
1.598887742E1,1.144933701E-1,-1.084058285E0,1.061346292E0
1.599687312E1,-1.971907616E-1,-8.544554710E-1,1.412265062E0
1.600486906E1,-3.794670105E-1,-5.960798264E-1,1.706937551E0
1.601286391E1,-4.474635124E-1,-4.358983040E-1,1.901346684E0
1.602089007E1,-4.323844910E-1,-2.853288651E-1,2.017210007E0
1.602888547E1,-3.959488869E-1,-2.232055664E-1,2.044283390E0
1.603688109E1,-3.245220184E-1,-2.348918915E-1,2.110789776E0
1.604487718E1,-2.897205353E-1,-2.790260315E-1,2.027548075E0
1.605287257E1,-3.139772415E-1,-3.045101166E-1,1.953433394E0
1.606086789E1,-3.580722809E-1,-2.460613251E-1,1.887962103E0
1.606889405E1,-4.453835487E-1,-1.775255203E-1,1.964682937E0
1.607689006E1,-4.310159683E-1,-8.244609833E-2,2.166225910E0
1.608488638E1,-3.551836014E-1,-6.686496735E-2,2.334615946E0
1.609288085E1,-1.942486763E-1,-1.148672104E-1,2.514687538E0
