"Time (s)","Acceleration x (m/s^2)","Acceleration y (m/s^2)","Acceleration z (m/s^2)"
5.401683000E-3,1.915361285E-1,-3.323152065E0,9.179368973E0
7.366767000E-3,1.604115069E-1,-3.311181068E0,9.186552048E0
9.471917000E-3,9.816227108E-2,-3.287238836E0,9.193734169E0
1.145722100E-2,1.675941236E-2,-3.272873640E0,9.196128845E0
1.347137200E-2,-1.915361360E-2,-3.268085241E0,9.188945770E0
1.545344600E-2,-8.140286058E-2,-3.263296843E0,9.186552048E0
1.746798000E-2,-1.412578970E-1,-3.251325846E0,9.188945770E0
1.945190000E-2,-1.723825186E-1,-3.244143248E0,9.186552048E0
2.146582000E-2,-2.250549644E-1,-3.248931646E0,9.191340446E0
2.345012400E-2,-2.442085743E-1,-3.253720045E0,9.167398453E0
2.546366000E-2,-3.016694188E-1,-3.275267839E0,9.153033257E0
2.744788700E-2,-3.256114423E-1,-3.284844637E0,9.150638580E0
2.946211400E-2,-3.351882398E-1,-3.289633036E0,9.141061783E0
3.144641900E-2,-3.543418646E-1,-3.315969467E0,9.114726067E0
3.345872400E-2,-3.519476354E-1,-3.318363667E0,9.093177795E0
3.547379600E-2,-3.543418646E-1,-3.323152065E0,9.100360870E0
3.745710100E-2,-3.447650373E-1,-3.323152065E0,9.083600998E0
3.947102100E-2,-3.375824392E-1,-3.313575268E0,9.076418877E0
4.145463300E-2,-3.351882398E-1,-3.311181068E0,9.064447403E0
4.346909100E-2,-3.112462163E-1,-3.315969467E0,9.047688484E0
4.545278100E-2,-2.968810201E-1,-3.299209833E0,9.045293808E0
4.746662300E-2,-2.849099934E-1,-3.299209833E0,9.040505409E0
4.945008100E-2,-2.585737705E-1,-3.289633036E0,9.038111687E0
5.146477100E-2,-2.442085743E-1,-3.277662039E0,9.059659004E0
5.344815100E-2,-2.370259613E-1,-3.268085241E0,9.069235802E0
5.546261000E-2,-1.915361285E-1,-3.272873640E0,9.069235802E0
5.744637600E-2,-1.795651317E-1,-3.251325846E0,9.071630478E0
5.946044900E-2,-1.460463107E-1,-3.241749048E0,9.074024200E0
6.147406100E-2,-1.316810995E-1,-3.253720045E0,9.059659004E0
6.345805800E-2,-1.316810995E-1,-3.251325846E0,9.059659004E0
6.547182300E-2,-1.125274822E-1,-3.241749048E0,9.059659004E0
6.745582000E-2,-8.619125932E-2,-3.227383852E0,9.071630478E0
6.947120200E-2,-6.943184882E-2,-3.222595453E0,9.078812599E0
7.145519800E-2,-6.224924326E-2,-3.203441858E0,9.085995674E0
7.346811800E-2,-5.267243832E-2,-3.196259260E0,9.088389397E0
7.545119200E-2,-4.548983276E-2,-3.189076662E0,9.095572472E0
7.746541900E-2,-3.351882473E-2,-3.155557871E0,9.085995674E0
7.944880100E-2,-1.675941236E-2,-3.155557871E0,9.088389397E0
8.146325900E-2,-9.576806799E-3,-3.160346270E0,9.107542992E0
8.344633200E-2,-9.576806799E-3,-3.134010077E0,9.153033257E0
8.546079100E-2,2.873042040E-2,-3.131615877E0,9.179368973E0
8.747578800E-2,2.394201607E-2,-3.134010077E0,9.181763649E0
8.945855300E-2,2.154781483E-2,-3.131615877E0,9.150638580E0
9.147493400E-2,1.197100803E-2,-3.131615877E0,9.141061783E0
9.345700800E-2,7.182605099E-3,-3.134010077E0,9.160215378E0
9.547123500E-2,-7.182605099E-3,-3.150769472E0,9.215282440E0
9.745430900E-2,-1.436521020E-2,-3.153163671E0,9.241618156E0
9.946846000E-2,-2.394201607E-2,-3.160346270E0,9.236829758E0
1.014533020E-1,-4.070143029E-2,-3.160346270E0,9.184157372E0
1.034662990E-1,-5.985504389E-2,-3.169923067E0,9.172186852E0
1.054502960E-1,-7.900865376E-2,-3.201047659E0,9.210494041E0
1.074644460E-1,-9.337386489E-2,-3.220201254E0,9.260771751E0
1.094489810E-1,-1.173158810E-1,-3.241749048E0,9.253589630E0
1.114632090E-1,-1.484405100E-1,-3.258508444E0,9.241618156E0
1.134462050E-1,-1.628057212E-1,-3.268085241E0,9.196128845E0
1.154604330E-1,-1.771709323E-1,-3.270479441E0,9.191340446E0
1.174739680E-1,-1.963245422E-1,-3.289633036E0,9.227252960E0
1.194573490E-1,-2.418143749E-1,-3.306392431E0,9.265560150E0
1.214718080E-1,-2.585737705E-1,-3.318363667E0,9.260771751E0
1.234551120E-1,-2.968810201E-1,-3.335123062E0,9.222464561E0
1.254699540E-1,-3.232172430E-1,-3.335123062E0,9.203310966E0
1.274530280E-1,-3.375824392E-1,-3.335123062E0,9.246406555E0
1.294674100E-1,-3.423708379E-1,-3.356670856E0,9.272743225E0
1.314505600E-1,-3.423708379E-1,-3.363853455E0,9.267954826E0
1.334661720E-1,-3.495534360E-1,-3.375824451E0,9.246406555E0
1.354487080E-1,-3.687070608E-1,-3.375824451E0,9.241618156E0
1.374631650E-1,-3.758896589E-1,-3.378218651E0,9.263166428E0
1.394461620E-1,-3.711012602E-1,-3.387795448E0,9.308655739E0
1.414610050E-1,-3.567360640E-1,-3.385401249E0,9.308655739E0
1.434446170E-1,-3.471592367E-1,-3.392583847E0,9.299078941E0
1.454585370E-1,-3.375824392E-1,-3.416525841E0,9.275136948E0
1.474726110E-1,-3.423708379E-1,-3.426102638E0,9.282320023E0
1.494566070E-1,-3.375824392E-1,-3.440467834E0,9.299078941E0
1.514720650E-1,-3.160346150E-1,-3.440467834E0,9.313444138E0
1.534545240E-1,-3.280056417E-1,-3.462015629E0,9.323021889E0
1.554683660E-1,-3.375824392E-1,-3.459621429E0,9.306262016E0
1.574526710E-1,-3.327940404E-1,-3.471592426E0,9.270348549E0
1.594664370E-1,-3.280056417E-1,-3.476380825E0,9.267954826E0
1.614498940E-1,-3.280056417E-1,-3.483563423E0,9.306262016E0
1.634640450E-1,-3.232172430E-1,-3.485957623E0,9.308655739E0
1.654482730E-1,-3.232172430E-1,-3.483563423E0,9.299078941E0
1.674611920E-1,-3.232172430E-1,-3.485957623E0,9.284713745E0
1.694449580E-1,-3.208230138E-1,-3.488351822E0,9.279925346E0
1.714611860E-1,-3.112462163E-1,-3.502717018E0,9.294290543E0
1.734753360E-1,-2.896983922E-1,-3.519476414E0,9.315838814E0
1.754535640E-1,-2.873041928E-1,-3.538630009E0,9.344569206E0
1.774717150E-1,-2.968810201E-1,-3.536235809E0,9.332598686E0
1.794556340E-1,-3.280056417E-1,-3.526659012E0,9.188945770E0
1.814692460E-1,-3.375824392E-1,-3.519476414E0,9.074024200E0
1.834535510E-1,-3.256114423E-1,-3.526659012E0,9.121908188E0
1.854670080E-1,-2.801215947E-1,-3.552995205E0,9.346963882E0
1.874507750E-1,-2.561795712E-1,-3.572149038E0,9.483432770E0
1.894658490E-1,-2.513911724E-1,-3.581725836E0,9.481039047E0
1.914491520E-1,-2.944868207E-1,-3.562572241E0,9.421183586E0
1.934629950E-1,-3.303998411E-1,-3.541024208E0,9.373299599E0
1.954464540E-1,-3.711012602E-1,-3.524264812E0,9.320627213E0
1.974602960E-1,-4.213795066E-1,-3.521870613E0,9.368511200E0
1.994744470E-1,-4.501099288E-1,-3.524264812E0,9.394847870E0
2.014583670E-1,-4.668693244E-1,-3.552995205E0,9.406818390E0
2.034725940E-1,-4.692635238E-1,-3.572149038E0,9.368511200E0
2.054565140E-1,-4.788403511E-1,-3.569754839E0,9.342175484E0
2.074710490E-1,-4.836287498E-1,-3.564966440E0,9.311050415E0
2.094537380E-1,-4.692635238E-1,-3.541024208E0,9.287108421E0
2.114673500E-1,-4.644751251E-1,-3.526659012E0,9.282320023E0
2.134519620E-1,-4.237737060E-1,-3.493140221E0,9.308655739E0
2.154663430E-1,-4.022258818E-1,-3.490746021E0,9.358934402E0
2.174494940E-1,-3.878606856E-1,-3.478775024E0,9.370905876E0
2.194636450E-1,-3.615244627E-1,-3.440467834E0,9.363722801E0
2.214475640E-1,-3.639186621E-1,-3.452438831E0,9.356540680E0
2.234607920E-1,-3.615244627E-1,-3.466804028E0,9.354146004E0
2.254447890E-1,-3.830722570E-1,-3.462015629E0,9.349357605E0
2.274598620E-1,-3.926490843E-1,-3.466804028E0,9.349357605E0
2.294737820E-1,-3.830722570E-1,-3.488351822E0,9.320627213E0
2.314580090E-1,-3.830722570E-1,-3.497928619E0,9.289502144E0
2.334706980E-1,-3.998316824E-1,-3.505111217E0,9.284713745E0
2.354550020E-1,-4.309563041E-1,-3.512293816E0,9.296685219E0
2.374690760E-1,-4.572925270E-1,-3.524264812E0,9.299078941E0
2.394524570E-1,-4.620809257E-1,-3.517082214E0,9.291896820E0
2.414669160E-1,-4.644751251E-1,-3.514688015E0,9.294290543E0
2.434509130E-1,-4.596867263E-1,-3.517082214E0,9.289502144E0
2.454642160E-1,-4.572925270E-1,-3.512293816E0,9.284713745E0
2.474482130E-1,-4.525041282E-1,-3.497928619E0,9.291896820E0
2.494623640E-1,-4.309563041E-1,-3.497928619E0,9.303867340E0
2.514478990E-1,-4.309563041E-1,-3.502717018E0,9.301473618E0
2.534610490E-1,-4.405331016E-1,-3.512293816E0,9.303867340E0
2.554428930E-1,-4.429273009E-1,-3.519476414E0,9.306262016E0
2.574582730E-1,-4.381389022E-1,-3.519476414E0,9.313444138E0
2.594724240E-1,-4.189853072E-1,-3.531447411E0,9.320627213E0
2.614554980E-1,-4.189853072E-1,-3.543418407E0,9.318233490E0
2.634702630E-1,-4.141969085E-1,-3.572149038E0,9.308655739E0
2.654533370E-1,-3.950432837E-1,-3.569754839E0,9.301473618E0
2.674677960E-1,-3.878606856E-1,-3.572149038E0,9.296685219E0
2.694524070E-1,-3.878606856E-1,-3.567360640E0,9.287108421E0
2.714663270E-1,-3.758896589E-1,-3.567360640E0,9.267954826E0
2.734493240E-1,-3.782838583E-1,-3.567360640E0,9.248801231E0
2.754635510E-1,-3.782838583E-1,-3.572149038E0,9.224859238E0
2.774469330E-1,-3.830722570E-1,-3.569754839E0,9.208099365E0
2.794610060E-1,-3.950432837E-1,-3.564966440E0,9.215282440E0
2.814443870E-1,-3.950432837E-1,-3.550601006E0,9.236829758E0
2.834589230E-1,-3.974374831E-1,-3.569754839E0,9.239224434E0
2.854733030E-1,-3.950432837E-1,-3.576937437E0,9.234436035E0
2.874567620E-1,-3.878606856E-1,-3.591302633E0,9.210494041E0
2.894702970E-1,-3.902548850E-1,-3.586514235E0,9.203310966E0
2.914542170E-1,-3.854664862E-1,-3.593696833E0,9.181763649E0
2.934692900E-1,-3.734954596E-1,-3.605667830E0,9.188945770E0
2.954526720E-1,-3.806780577E-1,-3.622427225E0,9.193734169E0
2.974662830E-1,-3.758896589E-1,-3.615244627E0,9.186552048E0
2.994498960E-1,-3.591302633E-1,-3.634398222E0,9.191340446E0
3.014643540E-1,-3.687070608E-1,-3.629609823E0,9.198522568E0
3.034481200E-1,-3.687070608E-1,-3.622427225E0,9.200917244E0
3.054621930E-1,-3.615244627E-1,-3.612850428E0,9.193734169E0
3.074455750E-1,-3.687070608E-1,-3.605667830E0,9.196128845E0
3.094604170E-1,-3.687070608E-1,-3.596091032E0,9.212887764E0
3.114745680E-1,-3.567360640E-1,-3.591302633E0,9.224859238E0
3.134579500E-1,-3.567360640E-1,-3.591302633E0,9.222464561E0
3.154717150E-1,-3.423708379E-1,-3.564966440E0,9.229647636E0
3.174557890E-1,-3.471592367E-1,-3.552995205E0,9.215282440E0
3.194695550E-1,-3.351882398E-1,-3.552995205E0,9.208099365E0
3.214532430E-1,-3.447650373E-1,-3.512293816E0,9.198522568E0
3.234677790E-1,-3.567360640E-1,-3.483563423E0,9.191340446E0
3.254510830E-1,-3.711012602E-1,-3.483563423E0,9.191340446E0
3.274646950E-1,-3.854664862E-1,-3.488351822E0,9.208099365E0
3.294492300E-1,-3.902548850E-1,-3.483563423E0,9.222464561E0
3.314649200E-1,-3.998316824E-1,-3.471592426E0,9.239224434E0
3.334473770E-1,-4.237737060E-1,-3.428496838E0,9.258378029E0
3.354606050E-1,-4.213795066E-1,-3.418920040E0,9.267954826E0
3.374745250E-1,-4.118026793E-1,-3.409343243E0,9.253589630E0
3.394584440E-1,-4.141969085E-1,-3.411737442E0,9.253589630E0
3.414726720E-1,-4.165911078E-1,-3.411737442E0,9.265560150E0
3.434566690E-1,-4.381389022E-1,-3.418920040E0,9.289502144E0
3.454713570E-1,-4.501099288E-1,-3.409343243E0,9.301473618E0
3.474544310E-1,-4.525041282E-1,-3.402160645E0,9.299078941E0
3.494691970E-1,-4.525041282E-1,-3.392583847E0,9.303867340E0
3.514525780E-1,-4.596867263E-1,-3.397372246E0,9.313444138E0
3.534667290E-1,-4.548983276E-1,-3.392583847E0,9.323021889E0
3.554504180E-1,-4.548983276E-1,-3.394978046E0,9.323021889E0
3.574643370E-1,-4.548983276E-1,-3.392583847E0,9.334992409E0
3.594480260E-1,-4.405331016E-1,-3.394978046E0,9.330204010E0
3.614618700E-1,-4.285621047E-1,-3.399766445E0,9.330204010E0
3.634457890E-1,-4.405331016E-1,-3.404554844E0,9.325415611E0
3.654594010E-1,-4.405331016E-1,-3.426102638E0,9.315838814E0
3.674737830E-1,-4.453215301E-1,-3.430891037E0,9.313444138E0
3.694566250E-1,-4.525041282E-1,-3.433285236E0,9.315838814E0
3.714716990E-1,-4.716577232E-1,-3.442862034E0,9.337387085E0
3.734553880E-1,-4.692635238E-1,-3.476380825E0,9.346963882E0
3.754695380E-1,-4.716577232E-1,-3.481169224E0,9.356540680E0
3.774526120E-1,-4.572925270E-1,-3.478775024E0,9.344569206E0
3.794663780E-1,-4.668693244E-1,-3.502717018E0,9.344569206E0
3.814509900E-1,-4.740519226E-1,-3.505111217E0,9.346963882E0
3.834649100E-1,-4.812345505E-1,-3.495534420E0,9.344569206E0
3.854485990E-1,-4.908113480E-1,-3.526659012E0,9.344569206E0
3.874624410E-1,-4.860229492E-1,-3.533841610E0,9.325415611E0
3.894467460E-1,-4.908113480E-1,-3.524264812E0,9.325415611E0
3.914615120E-1,-4.692635238E-1,-3.512293816E0,9.315838814E0
3.934442770E-1,-4.716577232E-1,-3.517082214E0,9.323021889E0
3.954581200E-1,-4.764461517E-1,-3.517082214E0,9.351752281E0
3.974725790E-1,-4.764461517E-1,-3.517082214E0,9.358934402E0
3.994558830E-1,-4.668693244E-1,-3.519476414E0,9.361329079E0
4.014700340E-1,-4.548983276E-1,-3.517082214E0,9.361329079E0
4.034540310E-1,-4.596867263E-1,-3.519476414E0,9.351752281E0
4.054681800E-1,-4.525041282E-1,-3.517082214E0,9.349357605E0
4.074521770E-1,-4.525041282E-1,-3.514688015E0,9.361329079E0
4.094660970E-1,-4.477157295E-1,-3.526659012E0,9.375694275E0
4.114515550E-1,-4.357447028E-1,-3.550601006E0,9.394847870E0
4.134645520E-1,-4.261679053E-1,-3.552995205E0,9.394847870E0
4.154470110E-1,-4.237737060E-1,-3.555389643E0,9.397241592E0
4.174617760E-1,-4.213795066E-1,-3.555389643E0,9.394847870E0
4.194456960E-1,-4.261679053E-1,-3.560178041E0,9.402029991E0
4.214590010E-1,-4.405331016E-1,-3.557783842E0,9.428366661E0
4.234739970E-1,-4.429273009E-1,-3.557783842E0,9.409213066E0
4.254571470E-1,-4.357447028E-1,-3.552995205E0,9.390059471E0
4.274709140E-1,-4.261679053E-1,-3.533841610E0,9.378087997E0
4.294552170E-1,-4.357447028E-1,-3.519476414E0,9.385271072E0
4.314693680E-1,-4.453215301E-1,-3.502717018E0,9.385271072E0
4.334528270E-1,-4.668693244E-1,-3.500322819E0,9.409213066E0
4.354669000E-1,-4.525041282E-1,-3.490746021E0,9.411606789E0
4.374506660E-1,-4.429273009E-1,-3.481169224E0,9.402029991E0
4.394641240E-1,-4.405331016E-1,-3.466804028E0,9.385271072E0
4.414484280E-1,-4.357447028E-1,-3.459621429E0,9.373299599E0
4.434629640E-1,-4.429273009E-1,-3.466804028E0,9.382876396E0
4.454460380E-1,-4.429273009E-1,-3.493140221E0,9.392453194E0
4.474601870E-1,-4.261679053E-1,-3.478775024E0,9.392453194E0
4.494740310E-1,-4.285621047E-1,-3.488351822E0,9.390059471E0
4.514573350E-1,-4.237737060E-1,-3.497928619E0,9.394847870E0
4.534721770E-1,-4.165911078E-1,-3.488351822E0,9.402029991E0
4.554555590E-1,-4.261679053E-1,-3.478775024E0,9.404424667E0
4.574700180E-1,-4.357447028E-1,-3.493140221E0,9.368511200E0
4.594533980E-1,-4.405331016E-1,-3.495534420E0,9.356540680E0
4.614677800E-1,-4.501099288E-1,-3.497928619E0,9.349357605E0
4.634517770E-1,-4.740519226E-1,-3.495534420E0,9.363722801E0
4.654653880E-1,-4.740519226E-1,-3.502717018E0,9.375694275E0
4.674487700E-1,-5.051765442E-1,-3.495534420E0,9.387664795E0
4.694638440E-1,-5.339069963E-1,-3.493140221E0,9.358934402E0
4.714477630E-1,-5.482721925E-1,-3.500322819E0,9.358934402E0
4.734607600E-1,-5.410895944E-1,-3.502717018E0,9.373299599E0
4.754447570E-1,-5.530605912E-1,-3.519476414E0,9.375694275E0
4.774591370E-1,-5.674257874E-1,-3.533841610E0,9.375694275E0
4.794732880E-1,-5.770025849E-1,-3.533841610E0,9.370905876E0
4.814566700E-1,-5.793967843E-1,-3.533841610E0,9.382876396E0
4.834708200E-1,-5.913678408E-1,-3.531447411E0,9.378087997E0
4.854545090E-1,-6.033388376E-1,-3.533841610E0,9.375694275E0
4.874680450E-1,-6.009446383E-1,-3.552995205E0,9.375694275E0
4.894520410E-1,-6.081272364E-1,-3.550601006E0,9.368511200E0
4.914674990E-1,-5.913678408E-1,-3.562572241E0,9.387664795E0
4.934504960E-1,-5.889736414E-1,-3.564966440E0,9.387664795E0
4.954634920E-1,-5.961562395E-1,-3.572149038E0,9.390059471E0
4.974480280E-1,-6.009446383E-1,-3.545812607E0,9.397241592E0
4.994624860E-1,-5.961562395E-1,-3.541024208E0,9.402029991E0
5.014458670E-1,-5.793967843E-1,-3.550601006E0,9.399636269E0
5.034600180E-1,-5.626373887E-1,-3.557783842E0,9.414001465E0
5.054741680E-1,-5.530605912E-1,-3.564966440E0,9.416395187E0
5.074581640E-1,-5.315127969E-1,-3.572149038E0,9.399636269E0
5.094729310E-1,-5.339069963E-1,-3.564966440E0,9.380482674E0
5.114569280E-1,-5.363011956E-1,-3.562572241E0,9.375694275E0
5.134696160E-1,-5.315127969E-1,-3.574543238E0,9.356540680E0
5.154529980E-1,-5.315127969E-1,-3.569754839E0,9.349357605E0
5.174671480E-1,-5.410895944E-1,-3.572149038E0,9.351752281E0
5.194508370E-1,-5.482721925E-1,-3.569754839E0,9.358934402E0
5.214658340E-1,-5.339069963E-1,-3.564966440E0,9.356540680E0
5.234483690E-1,-5.267243981E-1,-3.569754839E0,9.349357605E0
5.254628270E-1,-5.267243981E-1,-3.584120035E0,9.313444138E0
5.274467470E-1,-5.171475410E-1,-3.579331636E0,9.299078941E0
5.294597440E-1,-4.908113480E-1,-3.576937437E0,9.277531624E0
5.314745090E-1,-4.740519226E-1,-3.581725836E0,9.272743225E0
5.334591220E-1,-4.716577232E-1,-3.586514235E0,9.277531624E0
5.354726570E-1,-4.668693244E-1,-3.586514235E0,9.291896820E0
5.374571910E-1,-4.453215301E-1,-3.572149038E0,9.267954826E0
5.394708040E-1,-4.333505034E-1,-3.579331636E0,9.265560150E0
5.414538780E-1,-4.213795066E-1,-3.584120035E0,9.239224434E0
5.434683350E-1,-4.237737060E-1,-3.572149038E0,9.248801231E0
5.454519480E-1,-4.141969085E-1,-3.574543238E0,9.251194954E0
5.474660990E-1,-4.165911078E-1,-3.572149038E0,9.267954826E0
5.494510950E-1,-4.094084799E-1,-3.560178041E0,9.272743225E0
5.514648610E-1,-3.926490843E-1,-3.552995205E0,9.239224434E0
5.534476270E-1,-3.950432837E-1,-3.517082214E0,9.222464561E0
5.554620850E-1,-3.926490843E-1,-3.512293816E0,9.212887764E0
5.574451590E-1,-3.830722570E-1,-3.502717018E0,9.200917244E0
5.594593090E-1,-3.854664862E-1,-3.512293816E0,9.222464561E0
5.614741520E-1,-3.878606856E-1,-3.502717018E0,9.229647636E0
5.634574560E-1,-3.878606856E-1,-3.476380825E0,9.210494041E0
5.654719150E-1,-3.854664862E-1,-3.466804028E0,9.186552048E0
5.674544490E-1,-3.806780577E-1,-3.469198227E0,9.167398453E0
5.694688310E-1,-3.950432837E-1,-3.457227230E0,9.150638580E0
5.714546740E-1,-4.141969085E-1,-3.454833031E0,9.160215378E0
5.734679780E-1,-4.213795066E-1,-3.450044632E0,9.169792175E0
5.754498210E-1,-4.070142806E-1,-3.438073635E0,9.136273384E0
5.774658180E-1,-4.046200812E-1,-3.433285236E0,9.107542992E0
5.794482750E-1,-4.046200812E-1,-3.433285236E0,9.100360870E0
5.814633490E-1,-4.070142806E-1,-3.411737442E0,9.095572472E0
5.834463460E-1,-4.022258818E-1,-3.404554844E0,9.112331390E0
5.854608810E-1,-3.830722570E-1,-3.390189648E0,9.107542992E0
5.874439550E-1,-3.711012602E-1,-3.380612850E0,9.071630478E0
5.894587210E-1,-3.663128614E-1,-3.383007050E0,9.062053680E0
5.914731020E-1,-3.639186621E-1,-3.387795448E0,9.057265282E0
5.934562520E-1,-3.543418646E-1,-3.394978046E0,9.057265282E0
5.954706340E-1,-3.447650373E-1,-3.392583847E0,9.062053680E0
5.974531690E-1,-3.280056417E-1,-3.385401249E0,9.054870605E0
5.994684730E-1,-3.280056417E-1,-3.406949043E0,9.040505409E0
6.014512390E-1,-3.232172430E-1,-3.404554844E0,9.033323288E0
6.034663120E-1,-3.160346150E-1,-3.409343243E0,9.006986618E0
6.054496940E-1,-3.184288144E-1,-3.394978046E0,8.973467827E0
6.074638450E-1,-3.232172430E-1,-3.392583847E0,8.966285706E0
6.094463790E-1,-3.208230138E-1,-3.399766445E0,8.971074104E0
6.114610690E-1,-2.968810201E-1,-3.406949043E0,8.939949036E0
6.134447580E-1,-2.944868207E-1,-3.397372246E0,8.920795441E0
6.154589850E-1,-3.016694188E-1,-3.399766445E0,8.870517731E0
6.174739820E-1,-3.016694188E-1,-3.409343243E0,8.851364136E0
6.194565170E-1,-3.088520169E-1,-3.392583847E0,8.851364136E0
6.214708980E-1,-2.896983922E-1,-3.397372246E0,8.825027466E0
6.234548950E-1,-2.705447972E-1,-3.387795448E0,8.801085472E0
6.254687380E-1,-2.633621991E-1,-3.385401249E0,8.750806808E0
6.274524260E-1,-2.633621991E-1,-3.356670856E0,8.741230011E0
6.294672690E-1,-2.513911724E-1,-3.354276657E0,8.731653214E0
6.314512660E-1,-2.609679997E-1,-3.356670856E0,8.700529099E0
6.334651090E-1,-2.705447972E-1,-3.361459255E0,8.707711220E0
6.354472590E-1,-2.753331959E-1,-3.356670856E0,8.705317497E0
6.374620260E-1,-2.825157940E-1,-3.368641853E0,8.693346024E0
6.394456370E-1,-2.920926213E-1,-3.371036053E0,8.686163902E0
6.414598650E-1,-2.944868207E-1,-3.344699860E0,8.676587105E0
6.434743230E-1,-2.920926213E-1,-3.347094059E0,8.664615631E0
6.454580120E-1,-2.896983922E-1,-3.344699860E0,8.595184326E0
6.474721630E-1,-3.016694188E-1,-3.335123062E0,8.544905663E0
6.494552360E-1,-2.944868207E-1,-3.332728863E0,8.564059258E0
6.514712330E-1,-2.849099934E-1,-3.332728863E0,8.614337921E0
6.534539990E-1,-2.585737705E-1,-3.347094059E0,8.714894295E0
6.554666110E-1,-2.322375625E-1,-3.383007050E0,8.746018410E0
6.574517610E-1,-2.298433632E-1,-3.387795448E0,8.736441612E0
6.594656040E-1,-2.466027737E-1,-3.371036053E0,8.688557625E0
6.614489860E-1,-2.609679997E-1,-3.373430252E0,8.712499619E0
6.634634430E-1,-2.633621991E-1,-3.378218651E0,8.736441612E0
6.654471330E-1,-2.753331959E-1,-3.390189648E0,8.796297073E0
6.674613600E-1,-2.825157940E-1,-3.406949043E0,8.808267593E0
6.694452790E-1,-2.992752194E-1,-3.409343243E0,8.808267593E0
6.714595070E-1,-3.136404157E-1,-3.409343243E0,8.810662270E0
6.734729650E-1,-3.064578176E-1,-3.404554844E0,8.848969460E0
6.754572690E-1,-2.968810201E-1,-3.404554844E0,8.858546257E0
6.774708050E-1,-3.064578176E-1,-3.394978046E0,8.889671326E0
6.794542630E-1,-2.992752194E-1,-3.397372246E0,8.925583839E0
6.814684130E-1,-2.825157940E-1,-3.394978046E0,9.018958092E0
6.834523330E-1,-2.849099934E-1,-3.373430252E0,9.059659004E0
6.854664830E-1,-2.896983922E-1,-3.371036053E0,9.074024200E0
6.874499420E-1,-3.112462163E-1,-3.363853455E0,9.047688484E0
6.894637850E-1,-3.351882398E-1,-3.349488258E0,8.983044624E0
6.914471670E-1,-3.591302633E-1,-3.335123062E0,8.966285706E0
6.934622400E-1,-3.998316824E-1,-3.330334663E0,8.951920509E0
6.954450060E-1,-4.046200812E-1,-3.323152065E0,9.014169693E0
6.974600790E-1,-3.974374831E-1,-3.335123062E0,9.064447403E0
6.994433830E-1,-3.902548850E-1,-3.383007050E0,9.150638580E0
7.014569960E-1,-3.639186621E-1,-3.402160645E0,9.184157372E0
7.034716840E-1,-3.543418646E-1,-3.397372246E0,9.186552048E0
7.054554500E-1,-3.208230138E-1,-3.409343243E0,9.143456459E0
7.074692930E-1,-3.160346150E-1,-3.433285236E0,9.131484985E0
7.094541360E-1,-3.160346150E-1,-3.459621429E0,9.119514465E0
7.114683630E-1,-3.423708379E-1,-3.450044632E0,9.071630478E0
7.134519760E-1,-3.567360640E-1,-3.438073635E0,9.042900085E0
7.154652030E-1,-3.758896589E-1,-3.442862034E0,8.973467827E0
7.174489690E-1,-4.094084799E-1,-3.459621429E0,8.908824921E0
7.194630430E-1,-4.070142806E-1,-3.447650433E0,8.894459724E0
7.214461930E-1,-4.237737060E-1,-3.423708439E0,8.781931877E0
7.234608820E-1,-4.118026793E-1,-3.414131641E0,8.750806808E0
7.254442640E-1,-4.141969085E-1,-3.418920040E0,8.724471092E0
7.274587210E-1,-4.501099288E-1,-3.402160645E0,8.650250435E0
7.294719490E-1,-4.932055473E-1,-3.385401249E0,8.583212852E0
7.314577920E-1,-5.386953950E-1,-3.368641853E0,8.532935143E0
7.334710960E-1,-6.177040339E-1,-3.339911461E0,8.458714485E0
7.354534770E-1,-6.440402865E-1,-3.311181068E0,8.432378769E0
7.374688590E-1,-6.248866320E-1,-3.313575268E0,8.427590370E0
7.394517010E-1,-5.698199868E-1,-3.327940464E0,8.401253700E0
7.414661600E-1,-5.003881454E-1,-3.344699860E0,8.350975990E0
7.434495410E-1,-4.692635238E-1,-3.347094059E0,8.319850922E0
7.454633830E-1,-3.950432837E-1,-3.335123062E0,8.262390137E0
7.474473800E-1,-3.615244627E-1,-3.332728863E0,8.240841866E0
7.494630700E-1,-2.801215947E-1,-3.351882458E0,8.212111473E0
7.514458350E-1,-2.106897533E-1,-3.356670856E0,8.243236542E0
7.534596780E-1,-1.771709323E-1,-3.373430252E0,8.283937454E0
7.554732140E-1,-1.125274822E-1,-3.385401249E0,8.346187592E0
7.574575170E-1,-7.422025502E-2,-3.385401249E0,8.372523308E0
7.594710530E-1,-6.224924326E-2,-3.383007050E0,8.377311707E0
7.614549730E-1,-5.027823523E-2,-3.378218651E0,8.370129585E0
7.634691230E-1,-6.703764945E-2,-3.366247654E0,8.389283180E0
7.654535040E-1,-8.379705995E-2,-3.359065056E0,8.398859978E0
7.674673470E-1,-1.125274822E-1,-3.351882458E0,8.432378769E0
7.694500360E-1,-1.388636976E-1,-3.342305660E0,8.470685959E0
7.714645710E-1,-1.532289088E-1,-3.342305660E0,8.489839554E0
7.734494140E-1,-1.987187415E-1,-3.342305660E0,8.520963669E0
7.754627180E-1,-2.466027737E-1,-3.330334663E0,8.528146744E0
7.774457920E-1,-2.681505978E-1,-3.327940464E0,8.535328865E0
7.794605580E-1,-3.160346150E-1,-3.315969467E0,8.537723541E0
7.814441700E-1,-3.471592367E-1,-3.296815634E0,8.532935143E0
7.834583970E-1,-3.878606856E-1,-3.296815634E0,8.520963669E0
7.854725480E-1,-4.333505034E-1,-3.284844637E0,8.520963669E0
7.874561600E-1,-4.405331016E-1,-3.280056238E0,8.513781548E0
7.894715410E-1,-4.620809257E-1,-3.260902643E0,8.513781548E0
7.914543840E-1,-4.740519226E-1,-3.280056238E0,8.506598473E0
7.934679190E-1,-4.812345505E-1,-3.277662039E0,8.494627953E0
7.954516080E-1,-4.788403511E-1,-3.244143248E0,8.468291283E0
7.974657590E-1,-4.908113480E-1,-3.241749048E0,8.451532364E0
7.994487550E-1,-4.836287498E-1,-3.248931646E0,8.439560890E0
8.014632910E-1,-4.596867263E-1,-3.260902643E0,8.401253700E0
8.034466720E-1,-4.692635238E-1,-3.248931646E0,8.391676903E0
8.054617450E-1,-4.740519226E-1,-3.256114244E0,8.389283180E0
8.074448190E-1,-4.548983276E-1,-3.270479441E0,8.384494781E0
8.094586620E-1,-4.620809257E-1,-3.301604033E0,8.377311707E0
8.114728120E-1,-4.740519226E-1,-3.301604033E0,8.370129585E0
8.134567320E-1,-4.836287498E-1,-3.294421434E0,8.372523308E0
8.154706520E-1,-5.027823448E-1,-3.289633036E0,8.358158112E0
8.174548790E-1,-5.243301988E-1,-3.306392431E0,8.322244644E0
8.194687220E-1,-5.458779931E-1,-3.306392431E0,8.291120529E0
8.214533350E-1,-5.578489900E-1,-3.294421434E0,8.276755333E0
8.234668690E-1,-5.865794420E-1,-3.289633036E0,8.248024940E0
8.254502510E-1,-6.057330370E-1,-3.292027235E0,8.238448143E0
8.274641710E-1,-6.272808313E-1,-3.299209833E0,8.240841866E0
8.294493210E-1,-6.512228847E-1,-3.296815634E0,8.233659744E0
8.314626250E-1,-6.703764796E-1,-3.320757866E0,8.228871346E0
8.334462380E-1,-6.847416759E-1,-3.337517262E0,8.233659744E0
8.354600800E-1,-7.230489254E-1,-3.354276657E0,8.219294548E0
8.374435380E-1,-7.350199223E-1,-3.366247654E0,8.228871346E0
8.394576890E-1,-7.469909191E-1,-3.371036053E0,8.233659744E0
8.414720700E-1,-7.709329724E-1,-3.392583847E0,8.262390137E0
8.434561440E-1,-7.852981687E-1,-3.426102638E0,8.274360657E0
8.454693720E-1,-8.236053586E-1,-3.433285236E0,8.293514252E0
8.474530600E-1,-8.451532125E-1,-3.445256233E0,8.315062523E0
8.494669030E-1,-8.619126081E-1,-3.445256233E0,8.324639320E0
8.514533620E-1,-8.858546019E-1,-3.454833031E0,8.339004517E0
8.534662040E-1,-9.002198577E-1,-3.466804028E0,8.341399193E0
8.554483550E-1,-9.074024558E-1,-3.457227230E0,8.348581314E0
8.574631980E-1,-8.882488012E-1,-3.445256233E0,8.362946510E0
8.594468860E-1,-8.882488012E-1,-3.447650433E0,8.374917984E0
8.614606520E-1,-8.882488012E-1,-3.445256233E0,8.377311707E0
8.634452650E-1,-8.930372596E-1,-3.442862034E0,8.386888504E0
8.654581840E-1,-9.026140571E-1,-3.435679436E0,8.410830498E0
8.674726420E-1,-9.074024558E-1,-3.438073635E0,8.413225174E0
8.694572550E-1,-8.834604025E-1,-3.442862034E0,8.432378769E0
8.714714040E-1,-8.643068075E-1,-3.435679436E0,8.444349289E0
8.734548630E-1,-8.643068075E-1,-3.442862034E0,8.456320763E0
8.754686290E-1,-8.595184088E-1,-3.466804028E0,8.465897560E0
8.774520100E-1,-8.667010069E-1,-3.464409828E0,8.480262756E0
8.794668530E-1,-8.810662031E-1,-3.462015629E0,8.504204750E0
8.814493120E-1,-8.882488012E-1,-3.466804028E0,8.494627953E0
8.834640000E-1,-8.906430602E-1,-3.462015629E0,8.487444878E0
8.854476890E-1,-9.241618514E-1,-3.469198227E0,8.494627953E0
8.874615320E-1,-9.528923035E-1,-3.485957623E0,8.506598473E0
8.894449900E-1,-9.624691010E-1,-3.500322819E0,8.501810074E0
8.914588330E-1,-9.911994934E-1,-3.514688015E0,8.470685959E0
8.934729070E-1,-1.012747288E0,-3.536235809E0,8.444349289E0
8.954575180E-1,-1.019929886E0,-3.550601006E0,8.432378769E0
8.974719770E-1,-1.036689281E0,-3.562572241E0,8.425195694E0
8.994551280E-1,-1.053448796E0,-3.564966440E0,8.403648376E0
9.014695850E-1,-1.043871999E0,-3.564966440E0,8.408436775E0
9.034528900E-1,-1.036689281E0,-3.581725836E0,8.403648376E0
9.054671180E-1,-1.063025594E0,-3.598485231E0,8.408436775E0
9.074504980E-1,-1.074996591E0,-3.612850428E0,8.420407295E0
9.094658030E-1,-1.101332784E0,-3.622427225E0,8.437167168E0
9.114498770E-1,-1.115697980E0,-3.620033026E0,8.439560890E0
9.134636420E-1,-1.146822572E0,-3.622427225E0,8.446743965E0
9.154467930E-1,-1.170764685E0,-3.643975019E0,8.470685959E0
9.174605590E-1,-1.189918280E0,-3.651157618E0,8.499416351E0
9.194445550E-1,-1.235408068E0,-3.651157618E0,8.549694061E0
9.214581680E-1,-1.278503656E0,-3.658340216E0,8.619126320E0
9.234729340E-1,-1.302445769E0,-3.660734415E0,8.647856712E0
9.254563150E-1,-1.347935557E0,-3.691859007E0,8.695740700E0
9.274706960E-1,-1.412579060E0,-3.708618402E0,8.746018410E0
9.294537700E-1,-1.450886250E0,-3.722983599E0,8.774748802E0
9.314697660E-1,-1.522712231E0,-3.756502390E0,8.805873871E0
9.334528400E-1,-1.580173135E0,-3.763684988E0,8.810662270E0
9.354658370E-1,-1.616086125E0,-3.780444384E0,8.813055992E0
9.374501410E-1,-1.685518026E0,-3.840299606E0,8.820239067E0
9.394639840E-1,-1.726219416E0,-3.871424198E0,8.844181061E0
9.414473660E-1,-1.805228114E0,-3.892971992E0,8.865729332E0
9.434620540E-1,-1.869871497E0,-3.938461781E0,8.904036522E0
9.454448200E-1,-1.903390408E0,-3.943250179E0,8.899248123E0
9.474595860E-1,-1.982398987E0,-3.945644379E0,8.865729332E0
9.494741210E-1,-2.044648170E0,-3.950432777E0,8.858546257E0
9.514575020E-1,-2.059013367E0,-3.960009575E0,8.872911453E0
9.534722690E-1,-2.092532396E0,-3.979163170E0,8.916007042E0
9.554552650E-1,-2.104503393E0,-3.998316765E0,8.999804497E0
9.574691850E-1,-2.114080191E0,-4.022258759E0,9.040505409E0
9.594528740E-1,-2.114080191E0,-4.053383350E0,9.074024200E0
9.614666390E-1,-2.087743998E0,-4.084507942E0,9.090784073E0
9.634503290E-1,-2.092532396E0,-4.091690540E0,9.083600998E0
9.654651720E-1,-2.068590164E0,-4.108449936E0,9.047688484E0
9.674490910E-1,-2.059013367E0,-4.161122322E0,9.023746490E0
9.694620880E-1,-2.035071373E0,-4.177882195E0,9.011775017E0
9.714451620E-1,-1.996764183E0,-4.197035789E0,9.009381294E0
9.734605420E-1,-1.994369984E0,-4.225766182E0,9.026140213E0
9.754439240E-1,-1.958456993E0,-4.235342979E0,9.018958092E0
9.774583060E-1,-1.905784607E0,-4.254496574E0,8.973467827E0
9.794725320E-1,-1.884236693E0,-4.278438568E0,8.956708908E0
9.814559140E-1,-1.862688899E0,-4.302380562E0,8.951920509E0
9.834702960E-1,-1.819593310E0,-4.328716755E0,8.925583839E0
9.854536760E-1,-1.805228114E0,-4.338293552E0,8.904036522E0
9.874679040E-1,-1.754949808E0,-4.362235546E0,8.868123055E0
9.894524400E-1,-1.704671621E0,-4.374206543E0,8.825027466E0
9.914666660E-1,-1.678335428E0,-4.369418144E0,8.808267593E0
9.934493560E-1,-1.628057122E0,-4.381389141E0,8.741230011E0
9.954638140E-1,-1.572990537E0,-4.395754337E0,8.686163902E0
9.974472720E-1,-1.534683347E0,-4.393360138E0,8.647856712E0
9.994611150E-1,-1.458068848E0,-4.390965939E0,8.599972725E0
1.001445112E0,-1.391031146E0,-4.386177540E0,8.561665535E0
1.003458954E0,-1.352723956E0,-4.378994942E0,8.549694061E0
1.005472797E0,-1.285686255E0,-4.347870350E0,8.513781548E0
1.007457025E0,-1.254561663E0,-4.311957359E0,8.501810074E0
1.009470559E0,-1.199495077E0,-4.299986362E0,8.494627953E0
1.011455556E0,-1.137245774E0,-4.264073372E0,8.473079681E0
1.013469400E0,-1.125274777E0,-4.252102375E0,8.461109161E0
1.015451780E0,-1.086967587E0,-4.240131378E0,8.446743965E0
1.017466931E0,-1.039083481E0,-4.216189384E0,8.449137688E0
1.019450005E0,-1.017535686E0,-4.216189384E0,8.458714485E0
1.021464463E0,-9.959878922E-1,-4.220977783E0,8.470685959E0
1.023448075E0,-9.720458984E-1,-4.211400986E0,8.482656479E0
1.025462533E0,-9.696516991E-1,-4.220977783E0,8.499416351E0
1.027445991E0,-9.768342972E-1,-4.273650169E0,8.528146744E0
1.029460065E0,-9.744400978E-1,-4.307168961E0,8.559270859E0
1.031444370E0,-9.696516991E-1,-4.326322556E0,8.583212852E0
1.033457596E0,-9.959878922E-1,-4.381389141E0,8.645462036E0
1.035471516E0,-1.012747288E0,-4.436455727E0,8.681375504E0
1.037455821E0,-1.031900883E0,-4.453215122E0,8.710105896E0
1.039469279E0,-1.067813993E0,-4.503493309E0,8.762778282E0
1.041453045E0,-1.086967587E0,-4.529829502E0,8.781931877E0
1.043467503E0,-1.125274777E0,-4.563348293E0,8.801085472E0
1.045451192E0,-1.192312479E0,-4.587290287E0,8.805873871E0
1.047465573E0,-1.225831270E0,-4.606443882E0,8.798690796E0
1.049448109E0,-1.268926859E0,-4.644751072E0,8.779537201E0
1.051462797E0,-1.326387763E0,-4.668693542E0,8.786720276E0
1.053446563E0,-1.350329757E0,-4.678270340E0,8.779537201E0
1.055460944E0,-1.388636947E0,-4.702212334E0,8.760383606E0
1.057444941E0,-1.450886250E0,-4.711789131E0,8.746018410E0
1.059458169E0,-1.472434044E0,-4.723760128E0,8.743624687E0
1.061472934E0,-1.482010841E0,-4.757278919E0,8.755595207E0
1.063457008E0,-1.472434044E0,-4.764461517E0,8.765172005E0
1.065471159E0,-1.484405041E0,-4.783615112E0,8.774748802E0
1.067454463E0,-1.467645645E0,-4.812345505E0,8.808267593E0
1.069469306E0,-1.441309452E0,-4.850652695E0,8.836998940E0
1.071452380E0,-1.417367458E0,-4.855441093E0,8.848969460E0
1.073467068E0,-1.422155857E0,-4.886565685E0,8.848969460E0
1.075449219E0,-1.410184860E0,-4.910507679E0,8.848969460E0
1.077464293E0,-1.398213744E0,-4.955997467E0,8.872911453E0
1.079447981E0,-1.364694953E0,-4.996698856E0,8.887276649E0
1.081461593E0,-1.352723956E0,-5.006275654E0,8.892065048E0
1.083445206E0,-1.355118155E0,-5.018246651E0,8.916007042E0
1.085459663E0,-1.376665950E0,-5.032611847E0,8.932766914E0
1.087443122E0,-1.376665950E0,-5.042188644E0,8.942343712E0
1.089456580E0,-1.359906554E0,-5.066130638E0,8.954314232E0
1.091472576E0,-1.331176162E0,-5.102043629E0,8.942343712E0
1.093455343E0,-1.309628367E0,-5.130774021E0,8.944737434E0
1.095468340E0,-1.264138460E0,-5.166687489E0,8.939949036E0
1.097452874E0,-1.177947283E0,-5.209783077E0,8.949525833E0
1.099466717E0,-1.137245774E0,-5.216965675E0,8.949525833E0
1.101450714E0,-1.077390790E0,-5.267243862E0,8.911218643E0
1.103464941E0,-1.034295082E0,-5.305551052E0,8.877699852E0
1.105448554E0,-9.696516991E-1,-5.315127850E0,8.858546257E0
1.107463012E0,-9.050082564E-1,-5.319916248E0,8.827422142E0
1.109446393E0,-8.714894056E-1,-5.312733650E0,8.803479195E0
1.111460851E0,-8.307880163E-1,-5.305551052E0,8.777143478E0
1.113445156E0,-7.972691655E-1,-5.291185856E0,8.767566681E0
1.115458767E0,-7.757213712E-1,-5.293580055E0,8.772355080E0
1.117472841E0,-7.445967197E-1,-5.307945251E0,8.772355080E0
1.119456607E0,-7.254431248E-1,-5.298368454E0,8.781931877E0
1.121470065E0,-7.182605267E-1,-5.298368454E0,8.767566681E0
1.123453754E0,-7.182605267E-1,-5.303156853E0,8.738836288E0
1.125467905E0,-7.422025204E-1,-5.334281445E0,8.714894295E0
1.127451901E0,-7.541735172E-1,-5.336675644E0,8.688557625E0
1.129465744E0,-7.541735172E-1,-5.339069843E0,8.626308441E0
1.131449126E0,-7.852981687E-1,-5.343858242E0,8.568847656E0
1.133463276E0,-8.020575643E-1,-5.355829239E0,8.552088737E0
1.135446965E0,-7.948749661E-1,-5.398924828E0,8.520963669E0
1.137461731E0,-7.900865674E-1,-5.439626217E0,8.516175270E0
1.139445112E0,-7.757213712E-1,-5.463568211E0,8.504204750E0
1.141458724E0,-7.685387731E-1,-5.494692802E0,8.504204750E0
1.143473491E0,-7.805097699E-1,-5.506663799E0,8.504204750E0
1.145457410E0,-7.781155705E-1,-5.554547787E0,8.516175270E0
1.147471330E0,-8.020575643E-1,-5.607220173E0,8.525752068E0
1.149455634E0,-7.948749661E-1,-5.623979568E0,8.532935143E0
1.151469784E0,-7.781155705E-1,-5.691017628E0,8.559270859E0
1.153453397E0,-8.116343617E-1,-5.743690014E0,8.588001251E0
1.155467009E0,-8.427590132E-1,-5.765237808E0,8.604761124E0
1.157449774E0,-9.097966552E-1,-5.825092793E0,8.633491516E0
1.159464848E0,-9.481038451E-1,-5.856217384E0,8.662221909E0
1.161448153E0,-9.840168953E-1,-5.863399982E0,8.657433510E0
1.163462610E0,-1.053448796E0,-5.882553577E0,8.662221909E0
1.165445992E0,-1.094150186E0,-5.887341976E0,8.700529099E0
1.167460220E0,-1.118092179E0,-5.894524574E0,8.717288017E0
1.169443601E0,-1.154005170E0,-5.916072369E0,8.760383606E0
1.171460136E0,-1.180341482E0,-5.925649166E0,8.786720276E0
1.173442671E0,-1.211466074E0,-5.947196960E0,8.834604263E0
1.175455206E0,-1.228225470E0,-5.973533154E0,8.882488251E0
1.177470664E0,-1.237802267E0,-5.968744755E0,8.882488251E0
1.179453431E0,-1.244984865E0,-5.966350555E0,8.880094528E0
1.181467811E0,-1.256955862E0,-5.985504150E0,8.896853447E0
1.183451501E0,-1.244984865E0,-6.011840343E0,8.899248123E0
1.185465344E0,-1.218648672E0,-6.045359135E0,8.884882927E0
1.187449032E0,-1.201889277E0,-6.059724331E0,8.841787338E0
1.189463798E0,-1.187524080E0,-6.071695328E0,8.805873871E0
1.191448411E0,-1.125274777E0,-6.071695328E0,8.743624687E0
1.193461022E0,-1.082179189E0,-6.078877926E0,8.686163902E0
1.195445019E0,-1.055842996E0,-6.093243122E0,8.669404030E0
1.197458631E0,-1.000776291E0,-6.081272125E0,8.650250435E0
1.199473320E0,-9.768342972E-1,-6.064512730E0,8.650250435E0
1.201456471E0,-9.504981041E-1,-6.052541733E0,8.669404030E0
1.203471468E0,-9.289502501E-1,-6.038176537E0,8.714894295E0
1.205453925E0,-9.169792533E-1,-6.035782337E0,8.748413086E0
1.207468384E0,-9.217676520E-1,-6.042964935E0,8.827422142E0
1.209451765E0,-9.600749016E-1,-6.054935932E0,8.848969460E0
1.211466838E0,-9.720458984E-1,-6.052541733E0,8.856152534E0
1.213450297E0,-1.003170490E0,-6.057330132E0,8.865729332E0
1.215464448E0,-1.065419793E0,-6.052541733E0,8.839392662E0
1.217448367E0,-1.091755986E0,-6.062118530E0,8.825027466E0
1.219462287E0,-1.142034173E0,-6.081272125E0,8.779537201E0
1.221445592E0,-1.185129881E0,-6.088454723E0,8.741230011E0
1.223460664E0,-1.209071875E0,-6.100425720E0,8.717288017E0
1.225443431E0,-1.254561663E0,-6.102819920E0,8.667010307E0
1.227457966E0,-1.304839969E0,-6.138733387E0,8.626308441E0
1.229472116E0,-1.338358760E0,-6.150704384E0,8.607154846E0
1.231456421E0,-1.376665950E0,-6.157886982E0,8.549694061E0
1.233470187E0,-1.431732655E0,-6.172252178E0,8.487444878E0
1.235453029E0,-1.448492050E0,-6.181828976E0,8.451532364E0
1.237467411E0,-1.486799240E0,-6.167463779E0,8.379706383E0
1.239450792E0,-1.496376038E0,-6.162675381E0,8.360552788E0
1.241465865E0,-1.517923832E0,-6.162675381E0,8.322244644E0
1.243449016E0,-1.544260144E0,-6.167463779E0,8.310274124E0
1.245462552E0,-1.546654344E0,-6.160281181E0,8.307879448E0
1.247446548E0,-1.537077546E0,-6.172252178E0,8.307879448E0
1.249460006E0,-1.565807939E0,-6.150704384E0,8.281543732E0
1.251446465E0,-1.563413739E0,-6.148310184E0,8.255207062E0
1.253459384E0,-1.544260144E0,-6.148310184E0,8.219294548E0
1.255441612E0,-1.546654344E0,-6.133944988E0,8.171410561E0
1.257456609E0,-1.532289028E0,-6.126761913E0,8.140285492E0
1.259470451E0,-1.517923832E0,-6.114790916E0,8.073247910E0
1.261453832E0,-1.517923832E0,-6.100425720E0,7.984662533E0
1.263468599E0,-1.505952835E0,-6.093243122E0,7.958326340E0
1.265451748E0,-1.486799240E0,-6.062118530E0,7.934384346E0
1.267466515E0,-1.470039845E0,-6.026205540E0,7.927201748E0
1.269450435E0,-1.412579060E0,-6.014234543E0,7.927201748E0
1.271464585E0,-1.369483352E0,-5.983109951E0,7.922413349E0
1.273447120E0,-1.357512355E0,-5.992686749E0,7.922413349E0
1.275461886E0,-1.328781962E0,-5.987898350E0,7.934384346E0
1.277445575E0,-1.292868972E0,-5.956773758E0,7.960720539E0
1.279459418E0,-1.278503656E0,-5.947196960E0,7.965508938E0
1.281443030E0,-1.240196466E0,-5.968744755E0,7.972691536E0
1.283457180E0,-1.223437071E0,-5.978321552E0,7.977479935E0
1.285471331E0,-1.225831270E0,-5.987898350E0,7.982268333E0
1.287455020E0,-1.223437071E0,-5.997475147E0,8.018181801E0
1.289468862E0,-1.223437071E0,-6.023811340E0,8.087613106E0
1.291453167E0,-1.233013868E0,-6.038176537E0,8.128314972E0
1.293467702E0,-1.247379065E0,-6.045359135E0,8.188169479E0
1.295450160E0,-1.307234168E0,-6.057330132E0,8.226476669E0
1.297464849E0,-1.338358760E0,-6.062118530E0,8.238448143E0
1.299448846E0,-1.398213744E0,-6.059724331E0,8.238448143E0
1.301462458E0,-1.429338455E0,-6.071695328E0,8.250418663E0
1.303446147E0,-1.498770237E0,-6.076483727E0,8.288725853E0
1.305461144E0,-1.601720929E0,-6.086060524E0,8.341399193E0
1.307444294E0,-1.647210717E0,-6.090848923E0,8.324639320E0
1.309458983E0,-1.754949808E0,-6.090848923E0,8.250418663E0
1.311473134E0,-1.845929503E0,-6.074089527E0,8.259995461E0
1.313456284E0,-1.884236693E0,-6.078877926E0,8.312667847E0
1.315470358E0,-1.968033791E0,-6.114790916E0,8.418013573E0
1.317453816E0,-2.027888775E0,-6.160281181E0,8.494627953E0
1.319468197E0,-2.054224968E0,-6.162675381E0,8.492233276E0
1.321451271E0,-2.097320795E0,-6.177040577E0,8.465897560E0
1.323466422E0,-2.092532396E0,-6.193799973E0,8.439560890E0
1.325449110E0,-2.080561161E0,-6.193799973E0,8.446743965E0
1.327463953E0,-2.027888775E0,-6.200982571E0,8.449137688E0
1.329446950E0,-1.953668594E0,-6.186617374E0,8.429984093E0
1.331463331E0,-1.917755604E0,-6.179434776E0,8.415618896E0
1.333446097E0,-1.845929503E0,-6.160281181E0,8.367734909E0
1.335458940E0,-1.805228114E0,-6.129156113E0,8.346187592E0
1.337474090E0,-1.716642618E0,-6.088454723E0,8.324639320E0
1.339456472E0,-1.632845521E0,-6.059724331E0,8.336610794E0
1.341471315E0,-1.570596337E0,-6.038176537E0,8.343792915E0
1.343454388E0,-1.460463047E0,-6.016628742E0,8.346187592E0
1.345470000E0,-1.371877551E0,-5.987898350E0,8.327033043E0
1.347452536E0,-1.309628367E0,-5.975927353E0,8.310274124E0
1.349467609E0,-1.197100878E0,-5.940014362E0,8.276755333E0
1.351451298E0,-1.122880578E0,-5.894524574E0,8.212111473E0
1.353464449E0,-1.091755986E0,-5.865794182E0,8.176198959E0
1.355448137E0,-1.039083481E0,-5.827486992E0,8.140285492E0
1.357462288E0,-9.959878922E-1,-5.813121796E0,8.106766701E0
1.359445131E0,-9.864110947E-1,-5.798756599E0,8.094796181E0
1.361460435E0,-9.911994934E-1,-5.758055210E0,8.049305916E0
1.363443586E0,-9.864110947E-1,-5.743690014E0,8.010998726E0
1.365457660E0,-9.888052940E-1,-5.734113216E0,7.989450932E0
1.367472117E0,-9.864110947E-1,-5.717353821E0,7.960720539E0
1.369455499E0,-9.911994934E-1,-5.714959621E0,7.948749542E0
1.371469342E0,-1.029506683E0,-5.700594425E0,7.920019150E0
1.373453030E0,-1.055842996E0,-5.676652431E0,7.903259754E0
1.375468104E0,-1.072602391E0,-5.676652431E0,7.893682957E0
1.377451563E0,-1.091755986E0,-5.671864033E0,7.891288757E0
1.379465636E0,-1.120486379E0,-5.655104637E0,7.891288757E0
1.381449094E0,-1.144428372E0,-5.664681435E0,7.898471355E0
1.383463553E0,-1.204283476E0,-5.679046631E0,7.905653954E0
1.385446933E0,-1.240196466E0,-5.688623428E0,7.939172745E0
1.387461007E0,-1.256955862E0,-5.695806026E0,7.960720539E0
1.389445004E0,-1.307234168E0,-5.714959621E0,7.987056732E0
1.391459231E0,-1.352723956E0,-5.693411827E0,8.020575523E0
1.393442536E0,-1.379060149E0,-5.695806026E0,8.027758598E0
1.395456456E0,-1.403002143E0,-5.722142220E0,8.051700592E0
1.397470913E0,-1.422155857E0,-5.724536419E0,8.082824707E0
1.399454295E0,-1.460463047E0,-5.722142220E0,8.082824707E0
1.401468445E0,-1.479616642E0,-5.707777023E0,8.070854187E0
1.403452134E0,-1.493981838E0,-5.710171223E0,8.075642586E0
1.405465977E0,-1.527500629E0,-5.700594425E0,8.078036308E0
1.407450282E0,-1.563413739E0,-5.702988625E0,8.078036308E0
1.409464124E0,-1.582567334E0,-5.695806026E0,8.090007782E0
1.411449890E0,-1.616086125E0,-5.693411827E0,8.109161377E0
1.413462502E0,-1.663970232E0,-5.686229229E0,8.130708694E0
1.415445268E0,-1.685518026E0,-5.688623428E0,8.140285492E0
1.417459803E0,-1.716642618E0,-5.681440830E0,8.147468567E0
1.419444416E0,-1.738190413E0,-5.667075634E0,8.145073891E0
1.421456720E0,-1.754949808E0,-5.664681435E0,8.142680168E0
1.423471717E0,-1.764526606E0,-5.664681435E0,8.133103371E0
1.425455790E0,-1.766920805E0,-5.664681435E0,8.113949776E0
1.427469017E0,-1.783680320E0,-5.662287235E0,8.104372978E0
1.429453630E0,-1.771709204E0,-5.655104637E0,8.106766701E0
1.431469318E0,-1.766920805E0,-5.655104637E0,8.099584579E0
1.433451161E0,-1.740584612E0,-5.647922039E0,8.097189903E0
1.435465312E0,-1.711854219E0,-5.631162167E0,8.097189903E0
1.437449000E0,-1.704671621E0,-5.626373768E0,8.092401505E0
1.439462536E0,-1.656787634E0,-5.604825974E0,8.099584579E0
1.441446456E0,-1.620874524E0,-5.583278179E0,8.090007782E0
1.443461529E0,-1.608903527E0,-5.571307182E0,8.080430984E0
1.445444680E0,-1.582567334E0,-5.578489780E0,8.118738174E0
1.447458215E0,-1.556231141E0,-5.571307182E0,8.154650688E0
1.449471750E0,-1.551442742E0,-5.554547787E0,8.169015884E0
1.451455670E0,-1.546654344E0,-5.554547787E0,8.169015884E0
1.453470744E0,-1.558625340E0,-5.564124584E0,8.166622162E0
1.455454124E0,-1.565807939E0,-5.576095581E0,8.166622162E0
1.457468044E0,-1.587355733E0,-5.571307182E0,8.176198959E0
1.459451734E0,-1.613691926E0,-5.554547787E0,8.204929352E0
1.461465499E0,-1.635239720E0,-5.559336185E0,8.219294548E0
1.463449573E0,-1.685518026E0,-5.566518784E0,8.248024940E0
1.465464031E0,-1.707065821E0,-5.568912983E0,8.243236542E0
1.467447335E0,-1.774103403E0,-5.578489780E0,8.238448143E0
1.469462486E0,-1.833958507E0,-5.578489780E0,8.240841866E0
1.471445483E0,-1.872265697E0,-5.573701382E0,8.228871346E0
1.473459710E0,-1.905784607E0,-5.566518784E0,8.228871346E0
1.475442784E0,-1.944091797E0,-5.566518784E0,8.233659744E0
1.477457550E0,-1.972822189E0,-5.556941986E0,8.221688271E0
1.479471623E0,-2.013523579E0,-5.566518784E0,8.192957878E0
1.481455081E0,-2.068590164E0,-5.564124584E0,8.166622162E0
1.483469232E0,-2.078166962E0,-5.564124584E0,8.164227486E0
1.485452536E0,-2.080561161E0,-5.571307182E0,8.173804283E0
1.487466379E0,-2.087743998E0,-5.583278179E0,8.178592682E0
1.489450145E0,-2.085349798E0,-5.576095581E0,8.169015884E0
1.491466141E0,-2.061407566E0,-5.571307182E0,8.176198959E0
1.493449754E0,-2.047042370E0,-5.578489780E0,8.180987358E0
1.495461751E0,-2.049436569E0,-5.585672379E0,8.183381081E0
1.497446362E0,-2.044648170E0,-5.588066578E0,8.183381081E0
1.499460282E0,-2.037465572E0,-5.592854977E0,8.190564156E0
1.501444510E0,-2.042253971E0,-5.566518784E0,8.178592682E0
1.503458967E0,-2.039859772E0,-5.561730385E0,8.195352554E0
1.505442041E0,-2.047042370E0,-5.571307182E0,8.204929352E0
1.507456192E0,-2.047042370E0,-5.554547787E0,8.231265068E0
1.509471342E0,-2.082955360E0,-5.561730385E0,8.231265068E0
1.511454724E0,-2.090138197E0,-5.561730385E0,8.240841866E0
1.513468874E0,-2.097320795E0,-5.559336185E0,8.267178535E0
1.515451640E0,-2.085349798E0,-5.547365189E0,8.274360657E0
1.517465406E0,-2.080561161E0,-5.554547787E0,8.276755333E0
1.519449480E0,-2.073378563E0,-5.561730385E0,8.276755333E0
1.521464168E0,-2.049436569E0,-5.564124584E0,8.305485725E0
1.523446934E0,-2.023100376E0,-5.564124584E0,8.312667847E0
1.525461162E0,-2.001552582E0,-5.568912983E0,8.312667847E0
1.527445158E0,-1.989581585E0,-5.559336185E0,8.276755333E0
1.529458617E0,-1.956062794E0,-5.564124584E0,8.257601738E0
1.531473075E0,-1.915361404E0,-5.552153587E0,8.262390137E0
1.533457379E0,-1.908178806E0,-5.554547787E0,8.274360657E0
1.535471530E0,-1.889025092E0,-5.544970989E0,8.271966934E0
1.537454681E0,-1.898601890E0,-5.506663799E0,8.250418663E0
1.539468831E0,-1.891419291E0,-5.497087002E0,8.236053467E0
1.541452443E0,-1.879448295E0,-5.453991413E0,8.212111473E0
1.543466594E0,-1.867477298E0,-5.437232018E0,8.154650688E0
1.545450051E0,-1.869871497E0,-5.420472622E0,8.125920296E0
1.547464125E0,-1.860294700E0,-5.384559631E0,8.085219383E0
1.549449122E0,-1.848323703E0,-5.379771233E0,8.049305916E0
1.551461734E0,-1.831564307E0,-5.370194435E0,7.996633530E0
1.553446577E0,-1.798045516E0,-5.348646641E0,7.912836552E0
1.555459805E0,-1.728613615E0,-5.341464043E0,7.934384346E0
1.557443801E0,-1.709460020E0,-5.334281445E0,7.953537941E0
1.559458567E0,-1.668758631E0,-5.329493046E0,7.939172745E0
1.561471872E0,-1.654393315E0,-5.341464043E0,7.879317760E0
1.563455252E0,-1.640028119E0,-5.334281445E0,7.857769966E0
1.565469711E0,-1.637633920E0,-5.310339451E0,7.855375767E0
1.567453631E0,-1.630451322E0,-5.315127850E0,7.860164165E0
1.569467242E0,-1.613691926E0,-5.310339451E0,7.929595947E0
1.571450855E0,-1.620874524E0,-5.327098846E0,7.999027729E0
1.573465928E0,-1.628057122E0,-5.346252441E0,8.003816605E0
1.575449617E0,-1.656787634E0,-5.339069843E0,7.960720539E0
1.577463152E0,-1.680729628E0,-5.346252441E0,7.970297337E0
1.579446918E0,-1.678335428E0,-5.339069843E0,7.996633530E0
1.581461068E0,-1.690306425E0,-5.336675644E0,8.061277390E0
1.583444681E0,-1.707065821E0,-5.355829239E0,8.104372978E0
1.585458908E0,-1.707065821E0,-5.348646641E0,8.111555099E0
1.587441981E0,-1.716642618E0,-5.322310448E0,8.133103371E0
1.589457594E0,-1.704671621E0,-5.315127850E0,8.128314972E0
1.591471514E0,-1.707065821E0,-5.298368454E0,8.111555099E0
1.593454510E0,-1.709460020E0,-5.286397457E0,8.101978302E0
1.595468738E0,-1.707065821E0,-5.269638062E0,8.118738174E0
1.597452350E0,-1.687912226E0,-5.264849663E0,8.130708694E0
1.599466269E0,-1.675941229E0,-5.248090267E0,8.154650688E0
1.601450805E0,-1.671152830E0,-5.233725071E0,8.171410561E0
1.603464648E0,-1.666364431E0,-5.236119270E0,8.185775757E0
1.605447798E0,-1.654393315E0,-5.250484467E0,8.209717751E0
1.607461641E0,-1.651999116E0,-5.255272865E0,8.221688271E0
1.609444945E0,-1.656787634E0,-5.257667065E0,8.236053467E0
1.611461326E0,-1.635239720E0,-5.257667065E0,8.264783859E0
1.613443092E0,-1.613691926E0,-5.257667065E0,8.271966934E0
1.615457551E0,-1.630451322E0,-5.228936672E0,8.279149055E0
1.617472008E0,-1.640028119E0,-5.216965675E0,8.372523308E0
1.619454467E0,-1.654393315E0,-5.216965675E0,8.418013573E0
1.621469849E0,-1.666364431E0,-5.200206280E0,8.501810074E0
1.623453306E0,-1.692700624E0,-5.140350819E0,8.552088737E0
1.625466842E0,-1.695094824E0,-5.102043629E0,8.568847656E0
1.627450762E0,-1.673547029E0,-5.042188644E0,8.604761124E0
1.629465296E0,-1.661576033E0,-5.001487255E0,8.611943245E0
1.631449832E0,-1.644816518E0,-4.932055473E0,8.631096840E0
1.633462752E0,-1.613691926E0,-4.860229492E0,8.676587105E0
1.635446132E0,-1.604115129E0,-4.814739704E0,8.712499619E0
1.637461206E0,-1.572990537E0,-4.745307922E0,8.801085472E0
1.639444588E0,-1.577778935E0,-4.675876141E0,8.930372238E0
1.641458430E0,-1.587355733E0,-4.642356873E0,9.004592896E0
1.643472889E0,-1.647210717E0,-4.577713490E0,9.136273384E0
1.645456039E0,-1.738190413E0,-4.513070107E0,9.282320023E0
1.647470189E0,-1.802833915E0,-4.472368717E0,9.358934402E0
1.649454109E0,-1.922544003E0,-4.414907932E0,9.512163162E0
1.651467722E0,-2.059013367E0,-4.364629745E0,9.706093788E0
1.653450795E0,-2.123656988E0,-4.340687752E0,9.806650162E0
1.655465561E0,-2.231395960E0,-4.331110954E0,9.991003990E0
1.657449250E0,-2.293645144E0,-4.319139957E0,1.013465595E1
1.659463631E0,-2.370259762E0,-4.314351559E0,1.017535686E1
1.661447089E0,-2.413355350E0,-4.316745758E0,1.021366405E1
1.663461548E0,-2.434903145E0,-4.328716755E0,1.022324085E1
1.665444621E0,-2.454056740E0,-4.371812344E0,1.025675964E1
1.667459618E0,-2.470816135E0,-4.412513733E0,1.028070164E1
1.669443923E0,-2.492363930E0,-4.424484730E0,1.030224991E1
1.671458072E0,-2.504334927E0,-4.477157116E0,1.037407589E1
1.673471685E0,-2.509123325E0,-4.551377296E0,1.044829655E1
1.675454759E0,-2.511517525E0,-4.584896088E0,1.047942066E1
1.677469139E0,-2.518700123E0,-4.663905144E0,1.049139214E1
1.679452598E0,-2.513911724E0,-4.716577530E0,1.043393135E1
1.681466979E0,-2.509123325E0,-4.745307922E0,1.038125896E1
1.683450052E0,-2.494758129E0,-4.774038315E0,1.026633644E1
1.685464588E0,-2.458845139E0,-4.833893299E0,1.016578007E1
1.687448200E0,-2.432508945E0,-4.855441093E0,1.012747288E1
1.689461812E0,-2.384624958E0,-4.893748283E0,1.005325317E1
1.691448193E0,-2.355894566E0,-4.927267075E0,9.981427193E0
1.693459575E0,-2.281674147E0,-4.951209068E0,9.921571732E0
1.695443956E0,-2.169146776E0,-4.994304657E0,9.809044838E0
1.697457799E0,-2.126051188E0,-5.023035049E0,9.761159897E0
1.699472257E0,-2.035071373E0,-5.073313236E0,9.662998199E0
1.701455869E0,-1.927332401E0,-5.133168221E0,9.593565941E0
1.703470635E0,-1.893813491E0,-5.157110691E0,9.552865028E0
1.705453786E0,-1.848323703E0,-5.204994678E0,9.490615845E0
1.707467628E0,-1.783680320E0,-5.267243862E0,9.437943459E0
1.709451317E0,-1.752555609E0,-5.303156853E0,9.399636269E0
1.711466699E0,-1.754949808E0,-5.348646641E0,9.315838814E0
1.713450079E0,-1.793257117E0,-5.382165432E0,9.224859238E0
1.715463615E0,-1.810016513E0,-5.406107426E0,9.169792175E0
1.717446689E0,-1.848323703E0,-5.473145008E0,9.085995674E0
1.719461993E0,-1.889025092E0,-5.509057999E0,9.042900085E0
1.721445143E0,-1.920149803E0,-5.521028996E0,9.030928612E0
1.723459294E0,-2.006340981E0,-5.561730385E0,8.968679428E0
1.725442983E0,-2.059013367E0,-5.600037575E0,8.932766914E0
1.727456749E0,-2.169146776E0,-5.607220173E0,8.846575737E0
1.729470592E0,-2.267308950E0,-5.640739441E0,8.760383606E0
1.731456203E0,-2.324769735E0,-5.645527840E0,8.726864815E0
1.733467816E0,-2.458845139E0,-5.667075634E0,8.662221909E0
1.735452736E0,-2.580949545E0,-5.679046631E0,8.599972725E0
1.737466578E0,-2.638410330E0,-5.683835030E0,8.588001251E0
1.739450267E0,-2.743755102E0,-5.707777023E0,8.568847656E0
1.741464187E0,-2.839523315E0,-5.738901615E0,8.571242332E0
1.743447491E0,-2.887407303E0,-5.746084213E0,8.559270859E0
1.745462334E0,-2.964021683E0,-5.781997204E0,8.520963669E0
1.747446254E0,-3.023876667E0,-5.813121796E0,8.492233276E0
1.749460404E0,-3.047818661E0,-5.832275391E0,8.492233276E0
1.751445093E0,-3.098097086E0,-5.858611584E0,8.520963669E0
1.753458244E0,-3.131615877E0,-5.913678169E0,8.532935143E0
1.755471856E0,-3.145981073E0,-5.932831764E0,8.540117264E0
1.757455160E0,-3.179499865E0,-5.947196960E0,8.568847656E0
1.759470004E0,-3.193865061E0,-5.978321552E0,8.578424454E0
1.761453384E0,-3.239354849E0,-5.978321552E0,8.619126320E0
1.763466920E0,-3.313575268E0,-5.992686749E0,8.650250435E0
1.765451147E0,-3.337517262E0,-5.992686749E0,8.652645111E0
1.767465682E0,-3.385401249E0,-5.997475147E0,8.633491516E0
1.769448448E0,-3.447650433E0,-6.004657745E0,8.573636055E0
1.771465983E0,-3.478775024E0,-6.011840343E0,8.542511940E0
1.773447441E0,-3.526659012E0,-6.011840343E0,8.446743965E0
1.775460746E0,-3.569754839E0,-6.009446144E0,8.341399193E0
1.777444743E0,-3.591302633E0,-6.002263546E0,8.291120529E0
1.779458508E0,-3.581725836E0,-5.968744755E0,8.214506149E0
1.781443197E0,-3.545812607E0,-5.940014362E0,8.125920296E0
1.783456733E0,-3.514688015E0,-5.937620163E0,8.092401505E0
1.785471113E0,-3.454833031E0,-5.959167957E0,8.037335396E0
1.787453957E0,-3.337517262E0,-5.954379559E0,8.022970200E0
1.789469260E0,-3.265691042E0,-5.951985359E0,8.020575523E0
1.791452334E0,-3.136404276E0,-5.935225964E0,7.977479935E0
1.793465870E0,-3.069366693E0,-5.930437565E0,7.955932140E0
1.795450251E0,-2.932897091E0,-5.935225964E0,7.927201748E0
1.797463786E0,-2.794033289E0,-5.932831764E0,7.876923561E0
1.799447090E0,-2.731784105E0,-5.932831764E0,7.852981567E0
1.801461933E0,-2.616862535E0,-5.923254967E0,7.833827972E0
1.803445622E0,-2.504334927E0,-5.911283970E0,7.812280178E0
1.805459465E0,-2.473210335E0,-5.911283970E0,7.809885979E0
1.807443077E0,-2.382230759E0,-5.916072369E0,7.781155586E0
1.809457227E0,-2.303221941E0,-5.906495571E0,7.754819393E0
1.811473532E0,-2.281674147E0,-5.908889771E0,7.742848396E0
1.813455067E0,-2.238578558E0,-5.913678169E0,7.694964409E0
1.815469525E0,-2.205059767E0,-5.889736176E0,7.630321026E0
1.817452676E0,-2.195482969E0,-5.877765179E0,7.603984833E0
1.819467672E0,-2.171540976E0,-5.861005783E0,7.520187378E0
1.821450746E0,-2.159569979E0,-5.834669590E0,7.422025204E0
1.823464974E0,-2.126051188E0,-5.817910194E0,7.376535416E0
1.825448970E0,-2.109291792E0,-5.810727596E0,7.292738438E0
1.827463428E0,-2.106897593E0,-5.801150799E0,7.249642849E0
1.829447117E0,-2.111685991E0,-5.786785603E0,7.156269073E0
1.831462421E0,-2.118868589E0,-5.770026207E0,7.053318024E0
1.833444572E0,-2.126051188E0,-5.755661011E0,7.005434036E0
1.835458723E0,-2.149993181E0,-5.731719017E0,6.902483463E0
1.837442411E0,-2.226607561E0,-5.707777023E0,6.777985096E0
1.839456024E0,-2.272097349E0,-5.702988625E0,6.730101109E0
1.841470713E0,-2.379836559E0,-5.700594425E0,6.665457726E0
1.843454709E0,-2.504334927E0,-5.681440830E0,6.672640324E0
1.845468014E0,-2.566584110E0,-5.681440830E0,6.708553314E0
1.847452241E0,-2.698265314E0,-5.693411827E0,6.797138691E0
1.849466160E0,-2.839523315E0,-5.717353821E0,6.859387875E0
1.851451311E0,-2.885013103E0,-5.717353821E0,6.866570473E0
1.853463924E0,-2.940079689E0,-5.746084213E0,6.868964672E0
1.855446458E0,-2.964021683E0,-5.781997204E0,6.876147270E0
1.857461840E0,-2.987963676E0,-5.793968201E0,6.933608055E0
1.859445452E0,-2.956839085E0,-5.844246387E0,7.029376030E0
1.861459371E0,-2.930502892E0,-5.870582581E0,7.084442616E0
1.863442984E0,-2.863465309E0,-5.928043365E0,7.184999466E0
1.865457211E0,-2.782062292E0,-5.990292549E0,7.271190643E0
1.867471669E0,-2.738966703E0,-6.028599739E0,7.304709435E0
1.869456281E0,-2.633621931E0,-6.062118530E0,7.343016624E0
1.871470432E0,-2.566584110E0,-6.078877926E0,7.388506413E0
1.873453120E0,-2.530671120E0,-6.090848923E0,7.422025204E0
1.875466733E0,-2.456450939E0,-6.107608318E0,7.467514992E0
1.877450038E0,-2.403778553E0,-6.124367714E0,7.529764175E0
1.879465495E0,-2.391807556E0,-6.121973515E0,7.565677166E0
1.881448492E0,-2.346317768E0,-6.124367714E0,7.630321026E0
1.883462412E0,-2.322375536E0,-6.131550789E0,7.687781811E0
1.885445793E0,-2.312798738E0,-6.133944988E0,7.716512203E0
1.887459944E0,-2.300827742E0,-6.102819920E0,7.757213593E0
1.889443556E0,-2.296039343E0,-6.088454723E0,7.790732384E0
1.891459937E0,-2.293645144E0,-6.090848923E0,7.879317760E0
1.893440857E0,-2.276885748E0,-6.081272125E0,7.965508938E0
1.895455854E0,-2.264914751E0,-6.078877926E0,8.018181801E0
1.897470004E0,-2.257732153E0,-6.076483727E0,8.101978302E0
1.899453385E0,-2.260126352E0,-6.093243122E0,8.123526573E0
1.901466998E0,-2.260126352E0,-6.081272125E0,8.128314972E0
1.903451609E0,-2.250549555E0,-6.095637321E0,8.140285492E0
1.905465760E0,-2.238578558E0,-6.093243122E0,8.164227486E0
1.907448526E0,-2.226607561E0,-6.095637321E0,8.185775757E0
1.909463522E0,-2.183511972E0,-6.119579315E0,8.233659744E0
1.911448135E0,-2.128445387E0,-6.124367714E0,8.341399193E0
1.913462055E0,-2.099714994E0,-6.121973515E0,8.377311707E0
1.915445666E0,-2.018311977E0,-6.145915985E0,8.415618896E0
1.917459201E0,-1.927332401E0,-6.172252178E0,8.446743965E0
1.919441968E0,-1.879448295E0,-6.167463779E0,8.453926086E0
1.921457041E0,-1.778891921E0,-6.169857979E0,8.480262756E0
1.923470884E0,-1.726219416E0,-6.148310184E0,8.489839554E0
1.925454650E0,-1.635239720E0,-6.119579315E0,8.511386871E0
1.927468415E0,-1.515529633E0,-6.088454723E0,8.504204750E0
1.929452181E0,-1.462857246E0,-6.074089527E0,8.487444878E0
1.931468717E0,-1.359906554E0,-6.021417141E0,8.425195694E0
1.933450559E0,-1.256955862E0,-5.968744755E0,8.358158112E0
1.935463787E0,-1.223437071E0,-5.930437565E0,8.329427719E0
1.937447784E0,-1.163581967E0,-5.851428986E0,8.295908928E0
1.939462241E0,-1.101332784E0,-5.770026207E0,8.300697327E0
1.941445392E0,-1.086967587E0,-5.729324818E0,8.303091049E0
1.943459851E0,-1.058237195E0,-5.657498837E0,8.334216118E0
1.945443847E0,-1.041477680E0,-5.590460777E0,8.394071579E0
1.947457921E0,-1.046266198E0,-5.552153587E0,8.441955566E0
1.949441610E0,-1.058237195E0,-5.492298603E0,8.516175270E0
1.951455760E0,-1.063025594E0,-5.420472622E0,8.614337921E0
1.953469911E0,-1.063025594E0,-5.372588634E0,8.659827232E0
1.955453600E0,-1.046266198E0,-5.307945251E0,8.789113998E0
1.957467442E0,-1.029506683E0,-5.279214859E0,8.875306129E0
1.959451132E0,-9.983820915E-1,-5.233725071E0,9.052476883E0
1.961465052E0,-9.959878922E-1,-5.176264286E0,9.138668060E0
1.963448971E0,-9.983820915E-1,-5.152322292E0,9.129091263E0
1.965463198E0,-9.816226959E-1,-5.073313236E0,9.069235802E0
1.967446272E0,-9.864110947E-1,-5.027823448E0,9.066842079E0
1.969460422E0,-9.888052940E-1,-5.013458252E0,9.085995674E0
1.971446265E0,-1.000776291E0,-4.970362663E0,9.174580574E0
1.973458186E0,-1.005564690E0,-4.946420670E0,9.248801231E0
1.975442566E0,-1.010353088E0,-4.932055473E0,9.289502144E0
1.977456025E0,-9.983820915E-1,-4.886565685E0,9.399636269E0
1.979470868E0,-1.005564690E0,-4.838681698E0,9.497797966E0
1.981454248E0,-1.005564690E0,-4.819528103E0,9.545681953E0
1.983468322E0,-1.005564690E0,-4.781220913E0,9.600749016E0
1.985452012E0,-1.003170490E0,-4.747702122E0,9.610325813E0
1.987465931E0,-1.015141487E0,-4.733336926E0,9.617507935E0
1.989450235E0,-1.027112484E0,-4.711789131E0,9.636661530E0
1.991464386E0,-1.034295082E0,-4.692635536E0,9.641449928E0
1.993447690E0,-1.036689281E0,-4.663905144E0,9.627084732E0
1.995461302E0,-1.024718285E0,-4.642356873E0,9.603142738E0
1.997444684E0,-1.007958889E0,-4.627991676E0,9.591172218E0
1.999459372E0,-9.600749016E-1,-4.594472885E0,9.572018623E0
2.001442523E0,-9.169792533E-1,-4.546588898E0,9.567230225E0
2.003456674E0,-8.930372596E-1,-4.510675907E0,9.562441826E0
2.005471439E0,-8.355764151E-1,-4.450820923E0,9.583989143E0
2.007455129E0,-7.805097699E-1,-4.386177540E0,9.610325813E0
2.009468972E0,-7.589619160E-1,-4.343081951E0,9.622296333E0
2.011455045E0,-7.062895298E-1,-4.271255970E0,9.639056206E0
2.013467426E0,-6.727706790E-1,-4.165910721E0,9.660603523E0
2.015449885E0,-6.631938815E-1,-4.127603531E0,9.670180321E0
2.017465265E0,-6.344634295E-1,-4.046200752E0,9.684545517E0
2.019448647E0,-6.368576288E-1,-3.974374771E0,9.701305389E0
2.021462490E0,-6.296750307E-1,-3.945644379E0,9.756371498E0
2.023446717E0,-6.584054828E-1,-3.864241600E0,9.768342972E0
2.025460637E0,-6.823474765E-1,-3.816357613E0,9.751583099E0
2.027444557E0,-7.254431248E-1,-3.756502390E0,9.708487511E0
2.029458169E0,-7.757213712E-1,-3.675099611E0,9.653421402E0
2.031443012E0,-7.924807668E-1,-3.636792421E0,9.629479408E0
2.033456547E0,-8.236053586E-1,-3.529053211E0,9.591172218E0
2.035470159E0,-8.547300100E-1,-3.445256233E0,9.548076630E0
2.037454694E0,-8.738836050E-1,-3.409343243E0,9.524134636E0
2.039468230E0,-8.858546019E-1,-3.337517262E0,9.464279175E0
2.041451687E0,-8.834604025E-1,-3.246537447E0,9.387664795E0
2.043466146E0,-8.810662031E-1,-3.203441858E0,9.342175484E0
2.045449220E0,-8.834604025E-1,-3.117250681E0,9.253589630E0
2.047463600E0,-8.762778044E-1,-3.019088268E0,9.220070839E0
2.049446751E0,-8.738836050E-1,-2.966415882E0,9.205705643E0
2.051463363E0,-8.834604025E-1,-2.877830505E0,9.179368973E0
2.053444590E0,-8.810662031E-1,-2.827552319E0,9.181763649E0
2.055459972E0,-8.906430602E-1,-2.722207308E0,9.181763649E0
2.057443661E0,-9.241618514E-1,-2.619256735E0,9.150638580E0
2.059456811E0,-9.528923035E-1,-2.573766708E0,9.119514465E0
2.061471039E0,-1.003170490E0,-2.480392933E0,9.081207275E0
2.063455266E0,-1.029506683E0,-2.396595955E0,9.021351814E0
2.065468801E0,-1.043871999E0,-2.351106167E0,8.995016098E0
2.067452875E0,-1.072602391E0,-2.262520552E0,8.947132111E0
2.069467641E0,-1.074996591E0,-2.197877169E0,8.892065048E0
2.071451637E0,-1.079784989E0,-2.161964178E0,8.870517731E0
2.073464480E0,-1.086967587E0,-2.094926596E0,8.839392662E0
2.075447862E0,-1.082179189E0,-2.054224968E0,8.805873871E0
2.077462627E0,-1.058237195E0,-2.018311977E0,8.781931877E0
2.079445778E0,-1.019929886E0,-1.953668594E0,8.719682693E0
2.081459852E0,-9.983820915E-1,-1.905784607E0,8.724471092E0
2.083444233E0,-9.888052940E-1,-1.872265697E0,8.719682693E0
2.085457153E0,-9.504981041E-1,-1.810016513E0,8.714894295E0
2.087471919E0,-9.313444495E-1,-1.783680320E0,8.674192429E0
2.089454992E0,-8.906430602E-1,-1.721431017E0,8.552088737E0
2.091471296E0,-8.858546019E-1,-1.651999116E0,8.420407295E0
2.093453755E0,-8.810662031E-1,-1.630451322E0,8.365341187E0
2.095466674E0,-8.978256583E-1,-1.568202138E0,8.283937454E0
2.097451286E0,-9.145850539E-1,-1.503558636E0,8.195352554E0
2.099465976E0,-9.193734527E-1,-1.474828243E0,8.137891769E0
2.101449356E0,-9.409212470E-1,-1.450886250E0,8.034940720E0
2.103463277E0,-9.840168953E-1,-1.414973259E0,7.931990147E0
2.105447197E0,-9.911994934E-1,-1.398213744E0,7.881711960E0
2.107460500E0,-9.959878922E-1,-1.355118155E0,7.802703381E0
2.109445728E0,-1.007958889E0,-1.321599364E0,7.752425194E0
2.111460110E0,-1.019929886E0,-1.304839969E0,7.728483200E0
2.113442875E0,-1.015141487E0,-1.285686255E0,7.671022415E0
2.115456180E0,-1.010353088E0,-1.266532660E0,7.608773232E0
2.117470561E0,-9.983820915E-1,-1.254561663E0,7.563282967E0
2.119454557E0,-9.911994934E-1,-1.233013868E0,7.474697590E0
2.121469093E0,-9.816226959E-1,-1.223437071E0,7.441178799E0
2.123452167E0,-9.457096457E-1,-1.189918280E0,7.338228226E0
2.125466624E0,-9.193734527E-1,-1.151610970E0,7.208941460E0
2.127449390E0,-9.050082564E-1,-1.142034173E0,7.161057472E0
2.129464080E0,-8.690952063E-1,-1.125274777E0,7.089231014E0
2.131450230E0,-8.283938169E-1,-1.106121182E0,7.120356083E0
2.133462611E0,-8.020575643E-1,-1.103726983E0,7.125144482E0
2.135444993E0,-7.613561153E-1,-1.122880578E0,7.091625214E0
2.137459758E0,-7.302315235E-1,-1.139639974E0,7.034164429E0
2.139443832E0,-7.206547260E-1,-1.146822572E0,7.022193432E0
2.141457983E0,-7.110779285E-1,-1.132457376E0,7.026981831E0
2.143441363E0,-7.374141216E-1,-1.163581967E0,7.050923824E0
2.145455130E0,-7.517793179E-1,-1.175553083E0,7.060500622E0
2.147469049E0,-7.709329724E-1,-1.221042871E0,7.050923824E0
2.149453661E0,-7.924807668E-1,-1.276109457E0,7.058106422E0
2.151468966E0,-8.451532125E-1,-1.309628367E0,7.113173485E0
2.153450809E0,-9.169792533E-1,-1.386242747E0,7.244854450E0
2.155464728E0,-9.481038451E-1,-1.419761658E0,7.314286232E0
2.157449033E0,-1.029506683E0,-1.486799240E0,7.412448406E0
2.159462798E0,-1.108515382E0,-1.553836942E0,7.505822182E0
2.161446487E0,-1.168370485E0,-1.580173135E0,7.548917770E0
2.163461023E0,-1.307234168E0,-1.613691926E0,7.666234016E0
2.165444404E0,-1.455674648E0,-1.666364431E0,7.781155586E0
2.167458477E0,-1.529894829E0,-1.704671621E0,7.841010571E0
2.169441628E0,-1.666364431E0,-1.776497602E0,7.987056732E0
2.171458240E0,-1.776497602E0,-1.841141105E0,8.145073891E0
2.173439390E0,-1.841141105E0,-1.896207690E0,8.216899872E0
2.175454157E0,-1.917755604E0,-1.994369984E0,8.295908928E0
2.177468691E0,-1.999158382E0,-2.090138197E0,8.343792915E0
2.179451457E0,-2.023100376E0,-2.138022184E0,8.348581314E0
2.181466147E0,-2.056619167E0,-2.272097349E0,8.358158112E0
2.183449835E0,-2.073378563E0,-2.331952572E0,8.370129585E0
2.185463447E0,-2.116474390E0,-2.477998734E0,8.453926086E0
2.187447367E0,-2.111685991E0,-2.638410330E0,8.571242332E0
2.189462210E0,-2.106897593E0,-2.710236311E0,8.633491516E0
2.191446514E0,-2.114080191E0,-2.877830505E0,8.762778282E0
2.193460281E0,-2.075772762E0,-3.028665066E0,8.808267593E0
2.195443123E0,-2.054224968E0,-3.110068083E0,8.825027466E0
2.197457197E0,-2.049436569E0,-3.265691042E0,8.825027466E0
2.199471348E0,-2.044648170E0,-3.394978046E0,8.808267593E0
2.201454728E0,-2.044648170E0,-3.457227230E0,8.805873871E0
2.203469264E0,-2.068590164E0,-3.591302633E0,8.848969460E0
2.205452645E0,-2.090138197E0,-3.667917013E0,8.908824921E0
2.207466410E0,-2.109291792E0,-3.713406801E0,8.942343712E0
2.209449792E0,-2.140416384E0,-3.809175014E0,8.973467827E0
2.211466481E0,-2.159569979E0,-3.854664803E0,8.935160637E0
2.213448631E0,-2.171540976E0,-3.873818398E0,8.889671326E0
2.215462167E0,-2.226607561E0,-3.885789394E0,8.781931877E0
2.217446394E0,-2.250549555E0,-3.895366192E0,8.736441612E0
2.219460852E0,-2.300827742E0,-3.861847401E0,8.698134422E0
2.221443926E0,-2.305616140E0,-3.852270603E0,8.688557625E0
2.223457846E0,-2.310404539E0,-3.866635799E0,8.702922821E0
2.225441534E0,-2.298433542E0,-3.871424198E0,8.719682693E0
2.227455685E0,-2.272097349E0,-3.845088005E0,8.693346024E0
2.229470374E0,-2.252943754E0,-3.840299606E0,8.674192429E0
2.231454371E0,-2.164358377E0,-3.830722809E0,8.595184326E0
2.233467983E0,-2.102109194E0,-3.811569214E0,8.492233276E0
2.235451980E0,-2.061407566E0,-3.806780815E0,8.446743965E0
2.237466361E0,-1.994369984E0,-3.770867586E0,8.358158112E0
2.239449742E0,-1.900996208E0,-3.756502390E0,8.295908928E0
2.241463893E0,-1.865083098E0,-3.770867586E0,8.271966934E0
2.243446966E0,-1.802833915E0,-3.770867586E0,8.221688271E0
2.245461732E0,-1.735796213E0,-3.770867586E0,8.171410561E0
2.247445806E0,-1.711854219E0,-3.761290789E0,8.152256966E0
2.249458648E0,-1.683123827E0,-3.768473387E0,8.164227486E0
2.251443645E0,-1.675941229E0,-3.775655985E0,8.180987358E0
2.253459258E0,-1.654393315E0,-3.794809580E0,8.221688271E0
2.255439869E0,-1.647210717E0,-3.813963413E0,8.255207062E0
2.257454097E0,-1.644816518E0,-3.835511208E0,8.271966934E0
2.259469401E0,-1.668758631E0,-3.859453201E0,8.286332130E0
2.261452551E0,-1.685518026E0,-3.924096584E0,8.307879448E0
2.263466702E0,-1.697489023E0,-3.960009575E0,8.339004517E0
2.265449776E0,-1.711854219E0,-4.031835556E0,8.410830498E0
2.267464464E0,-1.728613615E0,-4.110844135E0,8.475474358E0
2.269449461E0,-1.728613615E0,-4.163516521E0,8.501810074E0
2.271463228E0,-1.735796213E0,-4.283226967E0,8.530540466E0
2.273445685E0,-1.733402014E0,-4.412513733E0,8.559270859E0
2.275459836E0,-1.745373011E0,-4.472368717E0,8.566453934E0
2.277443602E0,-1.766920805E0,-4.599261284E0,8.564059258E0
2.279457983E0,-1.766920805E0,-4.716577530E0,8.571242332E0
2.281442288E0,-1.781286120E0,-4.778826714E0,8.580819130E0
2.283455900E0,-1.807622313E0,-4.915296078E0,8.643068314E0
2.285470281E0,-1.810016513E0,-4.953603268E0,8.690952301E0
2.287453970E0,-1.824381709E0,-5.061342239E0,8.757989883E0
2.289466967E0,-1.843535304E0,-5.178658485E0,8.791508675E0
2.291453040E0,-1.829170108E0,-5.236119270E0,8.801085472E0
2.293466345E0,-1.805228114E0,-5.324704647E0,8.808267593E0
2.295448418E0,-1.769315004E0,-5.394136429E0,8.796297073E0
2.297462645E0,-1.754949808E0,-5.432443619E0,8.801085472E0
2.299446565E0,-1.697489023E0,-5.480327606E0,8.805873871E0
2.301461101E0,-1.651999116E0,-5.532999992E0,8.786720276E0
2.303444712E0,-1.618480325E0,-5.544970989E0,8.777143478E0
2.305458632E0,-1.570596337E0,-5.566518784E0,8.738836288E0
2.307441937E0,-1.527500629E0,-5.576095581E0,8.698134422E0
2.309457318E0,-1.520318031E0,-5.583278179E0,8.667010307E0
2.311441007E0,-1.520318031E0,-5.604825974E0,8.576030731E0
2.313454619E0,-1.529894829E0,-5.623979568E0,8.544905663E0
2.315469615E0,-1.558625340E0,-5.619191170E0,8.499416351E0
2.317452458E0,-1.599326730E0,-5.597643375E0,8.468291283E0
2.319465994E0,-1.618480325E0,-5.612008572E0,8.444349289E0
2.321449605E0,-1.659181833E0,-5.628767967E0,8.374917984E0
2.323464448E0,-1.685518026E0,-5.659893036E0,8.283937454E0
2.325447138E0,-1.699883223E0,-5.662287235E0,8.224082947E0
2.327462288E0,-1.680729628E0,-5.640739441E0,8.101978302E0
2.329444977E0,-1.630451322E0,-5.657498837E0,8.030152321E0
2.331461589E0,-1.604115129E0,-5.669469833E0,8.022970200E0
2.333443816E0,-1.522712231E0,-5.707777023E0,8.037335396E0
2.335456659E0,-1.414973259E0,-5.741295815E0,7.994239330E0
2.337472118E0,-1.355118155E0,-5.743690014E0,7.967903137E0
2.339454575E0,-1.225831270E0,-5.774814606E0,7.924807549E0
2.341469957E0,-1.125274777E0,-5.784391403E0,7.876923561E0
2.343453339E0,-1.074996591E0,-5.798756599E0,7.857769966E0
2.345466873E0,-9.720458984E-1,-5.820304394E0,7.867346764E0
2.347451178E0,-9.217676520E-1,-5.829881191E0,7.881711960E0
2.349465636E0,-8.738836050E-1,-5.832275391E0,7.893682957E0
2.351449017E0,-8.259995580E-1,-5.863399982E0,7.874529362E0
2.353462552E0,-8.092401624E-1,-5.870582581E0,7.872135162E0
2.355446242E0,-7.900865674E-1,-5.889736176E0,7.872135162E0
2.357460315E0,-7.924807668E-1,-5.901707172E0,7.869740963E0
2.359444696E0,-7.972691655E-1,-5.920860767E0,7.869740963E0
2.361458155E0,-8.307880163E-1,-5.966350555E0,7.898471355E0
2.363442228E0,-8.906430602E-1,-6.014234543E0,7.903259754E0
2.365456071E0,-9.074024558E-1,-6.042964935E0,7.910442352E0
2.367470222E0,-9.576807022E-1,-6.088454723E0,7.977479935E0
2.369453218E0,-1.015141487E0,-6.138733387E0,8.073247910E0
2.371470522E0,-1.024718285E0,-6.169857979E0,8.090007782E0
2.373452596E0,-1.065419793E0,-6.220136166E0,8.099584579E0
2.375465823E0,-1.079784989E0,-6.296750546E0,8.238448143E0
2.377449512E0,-1.094150186E0,-6.344634533E0,8.312667847E0
2.379463663E0,-1.106121182E0,-6.390124321E0,8.331821442E0
2.381447352E0,-1.098938584E0,-6.404489517E0,8.324639320E0
2.383461579E0,-1.086967587E0,-6.452373505E0,8.372523308E0
2.385445807E0,-1.082179189E0,-6.505045891E0,8.350975990E0
2.387459726E0,-1.063025594E0,-6.509834290E0,8.274360657E0
2.389443108E0,-1.012747288E0,-6.488286495E0,8.068459511E0
2.391457874E0,-9.002198577E-1,-6.442796707E0,7.833827972E0
2.393440870E0,-8.188169599E-1,-6.418854713E0,7.738059998E0
2.395454790E0,-6.464344859E-1,-6.366182327E0,7.692570210E0
2.397468941E0,-4.596867263E-1,-6.325480938E0,7.793126583E0
2.399452629E0,-3.687070608E-1,-6.313509941E0,7.833827972E0
2.401466703E0,-1.915361285E-1,-6.275202751E0,7.821856976E0
2.403450162E0,-6.224924326E-2,-6.224924564E0,7.747636795E0
2.405464927E0,-1.197100803E-2,-6.217741966E0,7.735665798E0
2.407448616E0,6.943184882E-2,-6.234501362E0,7.759607792E0
2.409462152E0,9.097966552E-2,-6.232107162E0,7.747636795E0
2.411448225E0,1.125274822E-1,-6.217741966E0,7.716512203E0
2.413457760E0,1.053448766E-1,-6.236895561E0,7.625532627E0
2.415444219E0,9.337386489E-2,-6.251260757E0,7.599195957E0
2.417458369E0,5.506663769E-2,-6.282385349E0,7.608773232E0
2.419442366E0,7.182605099E-3,-6.320692539E0,7.620744228E0
2.421455593E0,-1.197100803E-2,-6.342240334E0,7.618350029E0
2.423470359E0,-4.548983276E-2,-6.394912720E0,7.644686222E0
2.425453740E0,-9.097966552E-2,-6.452373505E0,7.647080421E0
2.427468276E0,-9.337386489E-2,-6.466738701E0,7.651868820E0
2.429452887E0,-9.097966552E-2,-6.509834290E0,7.651868820E0
2.431466115E0,-8.619125932E-2,-6.567295074E0,7.651868820E0
2.433449420E0,-8.379705995E-2,-6.586448669E0,7.639897823E0
2.435463646E0,-4.788403213E-2,-6.631938934E0,7.632715225E0
2.437446643E0,2.394201700E-3,-6.655880928E0,7.647080421E0
2.439461487E0,3.830722719E-2,-6.663063526E0,7.656657219E0
2.441445098E0,1.484405100E-1,-6.689399719E0,7.661445618E0
2.443459556E0,2.035071403E-1,-6.689399719E0,7.659051418E0
2.445442323E0,3.160346150E-1,-6.682217121E0,7.656657219E0
2.447457396E0,4.501099288E-1,-6.679822922E0,7.661445618E0
2.449439931E0,5.027823448E-1,-6.677428722E0,7.663839817E0
2.451456543E0,6.105214357E-1,-6.663063526E0,7.673416615E0
2.453469155E0,6.991068721E-1,-6.677428722E0,7.675810814E0
2.455451613E0,7.374141216E-1,-6.665457726E0,7.682993412E0
2.457466995E0,7.565677166E-1,-6.655880928E0,7.699752808E0
2.459450683E0,7.972691655E-1,-6.651092529E0,7.711723804E0
2.461464219E0,8.164227605E-1,-6.648698330E0,7.721300602E0
2.463448216E0,8.499416113E-1,-6.631938934E0,7.726089001E0
2.465461981E0,8.595184088E-1,-6.615179062E0,7.714118004E0
2.467445670E0,8.667010069E-1,-6.619967937E0,7.706935406E0
2.469460744E0,8.571242094E-1,-6.629544735E0,7.733271599E0
2.471444202E0,8.619126081E-1,-6.651092529E0,7.800309181E0
2.473458353E0,8.690952063E-1,-6.660669327E0,7.826645374E0
2.475441350E0,8.810662031E-1,-6.684611320E0,7.829039574E0
2.477456192E0,8.906430602E-1,-6.708553314E0,7.829039574E0
2.479470266E0,9.074024558E-1,-6.722918510E0,7.841010571E0
2.481453340E0,9.074024558E-1,-6.756437302E0,7.903259754E0
2.483467490E0,9.097966552E-1,-6.777985096E0,7.934384346E0
2.485451179E0,9.193734527E-1,-6.821080685E0,7.982268333E0
2.487465714E0,9.050082564E-1,-6.845022678E0,8.015787125E0
2.489448710E0,8.906430602E-1,-6.861782074E0,8.025363922E0
2.491465707E0,8.451532125E-1,-6.847416878E0,8.063671112E0
2.493446320E0,7.924807668E-1,-6.828263283E0,8.099584579E0
2.495461008E0,7.757213712E-1,-6.830657482E0,8.104372978E0
2.497444467E0,7.230489254E-1,-6.813898087E0,8.101978302E0
2.499459464E0,7.110779285E-1,-6.777985096E0,8.066065788E0
2.501441921E0,7.206547260E-1,-6.766014099E0,8.025363922E0
2.503456764E0,7.876923680E-1,-6.715735912E0,7.833827972E0
2.505440146E0,8.307880163E-1,-6.641515732E0,7.486668587E0
2.507454603E0,9.265560508E-1,-6.588842869E0,7.283161640E0
2.509469370E0,1.007958889E0,-6.485892296E0,6.928819656E0
2.511453367E0,1.034295082E0,-6.438008308E0,6.852205276E0
2.513466824E0,1.027112484E0,-6.351817131E0,6.943184853E0
2.515450283E0,9.840168953E-1,-6.311115742E0,7.314286232E0
2.517464740E0,9.289502501E-1,-6.289567947E0,7.541735172E0
2.519448430E0,8.092401624E-1,-6.301538944E0,7.915230751E0
2.521461657E0,7.230489254E-1,-6.311115742E0,8.113949776E0
2.523445039E0,6.895300746E-1,-6.318298340E0,8.152256966E0
2.525459727E0,6.584054828E-1,-6.347028732E0,8.204929352E0
2.527443186E0,6.416460276E-1,-6.387730122E0,8.281543732E0
2.529457259E0,6.344634295E-1,-6.418854713E0,8.315062523E0
2.531443179E0,6.631938815E-1,-6.452373505E0,8.389283180E0
2.533456407E0,7.350199223E-1,-6.505045891E0,8.382100105E0
2.535469018E0,7.876923680E-1,-6.526593685E0,8.358158112E0
2.537453246E0,8.571242094E-1,-6.545747280E0,8.295908928E0
2.539467166E0,9.169792533E-1,-6.557718277E0,8.271966934E0
2.541450854E0,9.241618514E-1,-6.557718277E0,8.269572258E0
2.543464928E0,9.457096457E-1,-6.517016888E0,8.269572258E0
2.545448617E0,9.528923035E-1,-6.493074894E0,8.264783859E0
2.547462767E0,9.840168953E-1,-6.416460514E0,8.262390137E0
2.549447072E0,9.696516991E-1,-6.349422932E0,8.291120529E0
2.551461915E0,9.648633003E-1,-6.301538944E0,8.303091049E0
2.553444373E0,9.768342972E-1,-6.227318764E0,8.336610794E0
2.555458216E0,9.911994934E-1,-6.143521786E0,8.339004517E0
2.557441213E0,9.959878922E-1,-6.102819920E0,8.339004517E0
2.559455978E0,1.015141487E0,-6.026205540E0,8.317456245E0
2.561470206E0,1.077390790E0,-5.968744755E0,8.346187592E0
2.563454203E0,1.120486379E0,-5.959167957E0,8.372523308E0
2.565467968E0,1.201889277E0,-5.937620163E0,8.439560890E0
2.567451965E0,1.292868972E0,-5.899312973E0,8.518569946E0
2.569465193E0,1.335964561E0,-5.884947777E0,8.528146744E0
2.571451650E0,1.405396342E0,-5.856217384E0,8.528146744E0
2.573465186E0,1.431732655E0,-5.844246387E0,8.525752068E0
2.575447106E0,1.479616642E0,-5.834669590E0,8.511386871E0
2.577461487E0,1.537077546E0,-5.813121796E0,8.513781548E0
2.579445484E0,1.561019540E0,-5.798756599E0,8.525752068E0
2.581459096E0,1.604115129E0,-5.755661011E0,8.520963669E0
2.583443323E0,1.661576033E0,-5.707777023E0,8.487444878E0
2.585457243E0,1.685518026E0,-5.686229229E0,8.456320763E0
2.587440855E0,1.704671621E0,-5.607220173E0,8.415618896E0
2.589455928E0,1.723825216E0,-5.540182590E0,8.456320763E0
2.591469541E0,1.733402014E0,-5.494692802E0,8.480262756E0
2.593452615E0,1.747767210E0,-5.427655220E0,8.549694061E0
2.595466380E0,1.731007814E0,-5.382165432E0,8.611943245E0
2.597450146E0,1.733402014E0,-5.353435040E0,8.614337921E0
2.599464835E0,1.726219416E0,-5.317522049E0,8.621520042E0
2.601448216E0,1.692700624E0,-5.288791656E0,8.643068314E0
2.603462444E0,1.673547029E0,-5.267243862E0,8.664615631E0
2.605446133E0,1.628057122E0,-5.250484467E0,8.714894295E0
2.607459360E0,1.599326730E0,-5.216965675E0,8.760383606E0
2.609443972E0,1.553836942E0,-5.212177277E0,8.858546257E0
2.611459046E0,1.529894829E0,-5.207388878E0,8.927978516E0
2.613443042E0,1.520318031E0,-5.209783077E0,8.968679428E0
2.615455347E0,1.501164436E0,-5.204994678E0,8.987833023E0
2.617470421E0,1.458068848E0,-5.178658485E0,8.959102631E0
2.619454032E0,1.436521053E0,-5.154716492E0,8.937555313E0
2.621467952E0,1.393425345E0,-5.099649429E0,8.925583839E0
2.623451872E0,1.347935557E0,-5.061342239E0,8.999804497E0
2.625465714E0,1.314416766E0,-5.030217648E0,9.059659004E0
2.627449788E0,1.259350061E0,-4.967968464E0,9.150638580E0
2.629464247E0,1.187524080E0,-4.908113480E0,9.176975250E0
2.631447935E0,1.163581967E0,-4.862623692E0,9.172186852E0
2.633461394E0,1.089361787E0,-4.778826714E0,9.131484985E0
2.635445083E0,1.019929886E0,-4.675876141E0,9.143456459E0
2.637458694E0,9.935936928E-1,-4.635174274E0,9.162610054E0
2.639442691E0,9.361328483E-1,-4.532223701E0,9.236829758E0
2.641457381E0,9.265560508E-1,-4.484339714E0,9.263166428E0
2.643440223E0,8.930372596E-1,-4.388571739E0,9.234436035E0
2.645454605E0,8.595184088E-1,-4.261679173E0,9.138668060E0
2.647469063E0,8.523358107E-1,-4.192247391E0,9.095572472E0
2.649451521E0,8.714894056E-1,-4.079719543E0,9.028534889E0
2.651468518E0,8.906430602E-1,-3.969586372E0,9.047688484E0
2.653449130E0,9.026140571E-1,-3.916913986E0,9.066842079E0
2.655465126E0,9.121908545E-1,-3.837905407E0,9.109937668E0
2.657447892E0,9.337386489E-1,-3.737348795E0,9.090784073E0
2.659462043E0,9.600749016E-1,-3.691859007E0,9.050082207E0
2.661445655E0,9.864110947E-1,-3.608062029E0,8.944737434E0
2.663459882E0,1.007958889E0,-3.500322819E0,8.880094528E0
2.665443572E0,1.019929886E0,-3.452438831E0,8.887276649E0
2.667457952E0,1.043871999E0,-3.361459255E0,8.944737434E0
2.669441949E0,1.060631394E0,-3.287238836E0,9.035717010E0
2.671456177E0,1.084573388E0,-3.253720045E0,9.097966194E0
2.673470327E0,1.127668977E0,-3.184288263E0,9.143456459E0
2.675453324E0,1.142034173E0,-3.148375273E0,9.105149269E0
2.677467475E0,1.154005170E0,-3.043030262E0,8.942343712E0
2.679451548E0,1.192312479E0,-2.942473888E0,8.772355080E0
2.681465391E0,1.194706678E0,-2.899378300E0,8.719682693E0
2.683448696E0,1.209071875E0,-2.820369720E0,8.688557625E0
2.685462922E0,1.221042871E0,-2.712630510E0,8.628703117E0
2.687446535E0,1.230619669E0,-2.659958124E0,8.576030731E0
2.689460378E0,1.271321058E0,-2.600103140E0,8.499416351E0
2.691446605E0,1.280897856E0,-2.513911724E0,8.504204750E0
2.693459448E0,1.297657371E0,-2.477998734E0,8.540117264E0
2.695441676E0,1.374271750E0,-2.437297344E0,8.647856712E0
2.697456748E0,1.465251446E0,-2.432508945E0,8.734047890E0
2.699440438E0,1.525106430E0,-2.422932148E0,8.729259491E0
2.701454281E0,1.625662923E0,-2.432508945E0,8.655038834E0
2.703468123E0,1.757344007E0,-2.442085743E0,8.686163902E0
2.705451735E0,1.817199111E0,-2.449268341E0,8.772355080E0
2.707466194E0,1.896207690E0,-2.489969730E0,8.995016098E0
2.709450882E0,1.924938202E0,-2.509123325E0,9.054870605E0
2.711465879E0,1.948880196E0,-2.499546528E0,8.990227699E0
2.713448030E0,1.960851192E0,-2.430114746E0,8.844181061E0
2.715461642E0,1.936909199E0,-2.367865562E0,8.817844391E0
2.717445331E0,1.853112102E0,-2.274491549E0,8.846575737E0
2.719459482E0,1.742978811E0,-2.197877169E0,8.882488251E0
2.721442862E0,1.678335428E0,-2.157175779E0,8.841787338E0
2.723457244E0,1.556231141E0,-2.061407566E0,8.645462036E0
2.725441318E0,1.400607944E0,-1.956062794E0,8.422801971E0
2.727454775E0,1.314416766E0,-1.924938202E0,8.355764389E0
2.729468926E0,1.161187768E0,-1.881842494E0,8.396465302E0
2.731454846E0,1.024718285E0,-1.865083098E0,8.580819130E0
2.733463073E0,9.696516991E-1,-1.865083098E0,8.659827232E0
2.735450532E0,8.834604025E-1,-1.912967205E0,8.734047890E0
2.737464990E0,8.786720037E-1,-1.944091797E0,8.793902397E0
2.739448063E0,9.097966552E-1,-1.977610588E0,8.813055992E0
2.741463060E0,9.672574997E-1,-2.061407566E0,8.858546257E0
2.743446519E0,9.840168953E-1,-2.109291792E0,8.863334656E0
2.745460284E0,1.015141487E0,-2.159569979E0,8.856152534E0
2.747443743E0,9.959878922E-1,-2.205059767E0,8.789113998E0
2.749459740E0,9.792284966E-1,-2.224213362E0,8.772355080E0
2.751442428E0,9.409212470E-1,-2.252943754E0,8.786720276E0
2.753456963E0,8.667010069E-1,-2.284068346E0,8.868123055E0
2.755439653E0,8.116343617E-1,-2.305616140E0,8.930372238E0
2.757453879E0,7.062895298E-1,-2.346317768E0,9.045293808E0
2.759467953E0,5.770025849E-1,-2.384624958E0,9.114726067E0
2.761451643E0,5.123591423E-1,-2.398990154E0,9.114726067E0
2.763466100E0,3.830722570E-1,-2.418143749E0,9.109937668E0
2.765448943E0,2.442085743E-1,-2.461239338E0,9.150638580E0
2.767463940E0,1.819593310E-1,-2.487575531E0,9.181763649E0
2.769446706E0,3.830722719E-2,-2.528276920E0,9.208099365E0
2.771462779E0,-3.351882473E-2,-2.561795712E0,9.212887764E0
2.773445546E0,-1.556231081E-1,-2.580949545E0,9.212887764E0
2.775458465E0,-2.992752194E-1,-2.621650934E0,9.212887764E0
2.777442769E0,-3.854664862E-1,-2.638410330E0,9.217676163E0
2.779456920E0,-5.530605912E-1,-2.679111719E0,9.232041359E0
2.781440916E0,-6.895300746E-1,-2.722207308E0,9.232041359E0
2.783455375E0,-7.398083210E-1,-2.753331900E0,9.220070839E0
2.785469141E0,-8.475474119E-1,-2.808398485E0,9.179368973E0
2.787452906E0,-9.528923035E-1,-2.875436306E0,9.133879662E0
2.789467057E0,-9.983820915E-1,-2.899378300E0,9.121908188E0
2.791451285E0,-1.039083481E0,-2.947262287E0,9.107542992E0
2.793464512E0,-1.029506683E0,-3.009511471E0,9.085995674E0
2.795448201E0,-1.034295082E0,-3.047818661E0,9.074024200E0
2.797462660E0,-1.019929886E0,-3.131615877E0,9.047688484E0
2.799446348E0,-9.720458984E-1,-3.191470861E0,9.047688484E0
2.801459960E0,-9.409212470E-1,-3.222595453E0,9.071630478E0
2.803443650E0,-8.906430602E-1,-3.303998232E0,9.112331390E0
2.805458107E0,-8.714894056E-1,-3.335123062E0,9.117119789E0
2.807441181E0,-7.996633649E-1,-3.402160645E0,9.133879662E0
2.809455332E0,-7.517793179E-1,-3.459621429E0,9.157821655E0
2.811471251E0,-7.469909191E-1,-3.490746021E0,9.174580574E0
2.813454633E0,-7.398083210E-1,-3.552995205E0,9.188945770E0
2.815467245E0,-7.422025204E-1,-3.603273630E0,9.176975250E0
2.817451626E0,-7.565677166E-1,-3.620033026E0,9.153033257E0
2.819465777E0,-7.876923680E-1,-3.641580820E0,9.117119789E0
2.821448235E0,-8.116343617E-1,-3.663128614E0,9.093177795E0
2.823462923E0,-8.188169599E-1,-3.667917013E0,9.083600998E0
2.825447228E0,-8.451532125E-1,-3.684676409E0,9.064447403E0
2.827461148E0,-8.283938169E-1,-3.701435804E0,9.018958092E0
2.829445067E0,-8.212111592E-1,-3.715801001E0,9.002198219E0
2.831459833E0,-7.924807668E-1,-3.711012602E0,8.966285706E0
2.833442600E0,-7.661445141E-1,-3.766079187E0,8.980650902E0
2.835456442E0,-7.182605267E-1,-3.785232782E0,9.002198219E0
2.837440439E0,-6.703764796E-1,-3.828328609E0,9.021351814E0
2.839454590E0,-6.296750307E-1,-3.857059002E0,9.035717010E0
2.841469047E0,-5.410895944E-1,-3.933673382E0,8.992621422E0
2.843452737E0,-4.908113480E-1,-3.993528366E0,8.944737434E0
2.845466580E0,-4.692635238E-1,-4.022258759E0,8.925583839E0
2.847450037E0,-4.429273009E-1,-4.094084740E0,8.911218643E0
2.849464188E0,-4.668693244E-1,-4.153939724E0,8.916007042E0
2.851449416E0,-4.836287498E-1,-4.177882195E0,8.923190117E0
2.853462643E0,-4.979939461E-1,-4.252102375E0,8.935160637E0
2.855445024E0,-5.339069963E-1,-4.304774761E0,8.916007042E0
2.857459483E0,-5.482721925E-1,-4.331110954E0,8.911218643E0
2.859443787E0,-6.248866320E-1,-4.400542736E0,8.935160637E0
2.861457707E0,-6.847416759E-1,-4.465186119E0,8.990227699E0
2.863441088E0,-7.254431248E-1,-4.505887508E0,9.035717010E0
2.865455469E0,-7.685387731E-1,-4.587290287E0,9.071630478E0
2.867469697E0,-8.092401624E-1,-4.663905144E0,9.097966194E0
2.869453386E0,-8.714894056E-1,-4.702212334E0,9.100360870E0
2.871468690E0,-9.313444495E-1,-4.793191910E0,9.076418877E0
2.873451148E0,-9.600749016E-1,-4.836287498E0,9.071630478E0
2.875465606E0,-1.022324085E0,-4.910507679E0,9.090784073E0
2.877448987E0,-1.070208192E0,-5.030217648E0,9.109937668E0
2.879462907E0,-1.108515382E0,-5.073313236E0,9.100360870E0
2.881446597E0,-1.139639974E0,-5.149928093E0,9.042900085E0
2.883460977E0,-1.170764685E0,-5.228936672E0,8.932766914E0
2.885444359E0,-1.187524080E0,-5.255272865E0,8.870517731E0
2.887458818E0,-1.218648672E0,-5.300762653E0,8.702922821E0
2.889441660E0,-1.280897856E0,-5.334281445E0,8.518569946E0
2.891458503E0,-1.297657371E0,-5.341464043E0,8.437167168E0
2.893439500E0,-1.340752959E0,-5.334281445E0,8.317456245E0
2.895454573E0,-1.383848548E0,-5.327098846E0,8.252813339E0
2.897468339E0,-1.395819545E0,-5.319916248E0,8.228871346E0
2.899452336E0,-1.391031146E0,-5.312733650E0,8.204929352E0
2.901466255E0,-1.379060149E0,-5.303156853E0,8.178592682E0
2.903450175E0,-1.340752959E0,-5.293580055E0,8.159439087E0
2.905464094E0,-1.261744261E0,-5.307945251E0,8.130708694E0
2.907448091E0,-1.216254473E0,-5.312733650E0,8.133103371E0
2.909461858E0,-1.101332784E0,-5.327098846E0,8.137891769E0
2.911446238E0,-9.959878922E-1,-5.329493046E0,8.113949776E0
2.913458851E0,-9.361328483E-1,-5.327098846E0,8.094796181E0
2.915443078E0,-8.403648138E-1,-5.324704647E0,8.056488991E0
2.917457844E0,-7.829039693E-1,-5.353435040E0,8.018181801E0
2.919440687E0,-7.661445141E-1,-5.370194435E0,8.003816605E0
2.921455145E0,-7.206547260E-1,-5.389348030E0,7.936778545E0
2.923469603E0,-7.086837292E-1,-5.386953831E0,7.876923561E0
2.925452907E0,-6.943184733E-1,-5.391742229E0,7.869740963E0
2.927467135E0,-6.895300746E-1,-5.382165432E0,7.905653954E0
2.929449900E0,-6.967126727E-1,-5.410895824E0,7.951143742E0
2.931466513E0,-6.895300746E-1,-5.420472622E0,7.982268333E0
2.933448971E0,-6.847416759E-1,-5.434837818E0,8.054094315E0
2.935462506E0,-6.703764796E-1,-5.458779812E0,8.090007782E0
2.937446118E0,-6.512228847E-1,-5.482721806E0,8.147468567E0
2.939460269E0,-6.751648784E-1,-5.513846397E0,8.212111473E0
2.941444342E0,-6.727706790E-1,-5.528211594E0,8.250418663E0
2.943458416E0,-6.607996821E-1,-5.571307182E0,8.324639320E0
2.945441567E0,-6.775590777E-1,-5.607220173E0,8.362946510E0
2.947456563E0,-6.775590777E-1,-5.609614372E0,8.377311707E0
2.949440868E0,-6.655880809E-1,-5.643133640E0,8.360552788E0
2.951454403E0,-6.607996821E-1,-5.645527840E0,8.331821442E0
2.953467630E0,-6.631938815E-1,-5.640739441E0,8.315062523E0
2.955451088E0,-6.584054828E-1,-5.671864033E0,8.315062523E0
2.957465855E0,-6.368576288E-1,-5.686229229E0,8.348581314E0
2.959449235E0,-6.248866320E-1,-5.683835030E0,8.377311707E0
2.961463001E0,-6.033388376E-1,-5.695806026E0,8.434772491E0
2.963446768E0,-5.913678408E-1,-5.693411827E0,8.465897560E0
2.965461764E0,-5.410895944E-1,-5.695806026E0,8.456320763E0
2.967444914E0,-4.908113480E-1,-5.698200226E0,8.422801971E0
2.969458758E0,-4.572925270E-1,-5.686229229E0,8.418013573E0
2.971444292E0,-4.189853072E-1,-5.659893036E0,8.425195694E0
2.973453751E0,-3.806780577E-1,-5.662287235E0,8.420407295E0
2.975471363E0,-3.639186621E-1,-5.667075634E0,8.422801971E0
2.977454667E0,-3.280056417E-1,-5.650316238E0,8.437167168E0
2.979468587E0,-2.849099934E-1,-5.657498837E0,8.420407295E0
2.981452199E0,-2.537853718E-1,-5.659893036E0,8.382100105E0
2.983466964E0,-2.059013397E-1,-5.645527840E0,8.281543732E0
2.985450423E0,-1.747767180E-1,-5.657498837E0,8.161833763E0
2.987464266E0,-1.675941199E-1,-5.647922039E0,8.121131897E0
2.989449724E0,-1.221042871E-1,-5.619191170E0,8.080430984E0
2.991463336E0,-8.858546615E-2,-5.633556366E0,8.082824707E0
2.993446333E0,-6.464344263E-2,-5.638344765E0,8.085219383E0
2.995460175E0,-2.633621916E-2,-5.657498837E0,8.078036308E0
2.997443634E0,-1.675941236E-2,-5.693411827E0,8.087613106E0
2.999457785E0,7.182605099E-3,-5.717353821E0,8.082824707E0
3.001441165E0,2.633621916E-2,-5.755661011E0,8.039729118E0
3.003455547E0,3.112462163E-2,-5.765237808E0,8.006210327E0
3.005469698E0,4.309562966E-2,-5.801150799E0,7.984662533E0
3.007453463E0,3.351882473E-2,-5.865794182E0,7.994239330E0
3.009467614E0,3.351882473E-2,-5.884947777E0,7.996633530E0
3.011451842E0,4.070143029E-2,-5.942408562E0,8.027758598E0
3.013465453E0,5.027823523E-2,-5.992686749E0,8.056488991E0
3.015448450E0,5.746084079E-2,-6.023811340E0,8.078036308E0
3.017463293E0,6.224924326E-2,-6.059724331E0,8.111555099E0
3.019446366E0,8.140286058E-2,-6.078877926E0,8.121131897E0
3.021460825E0,8.140286058E-2,-6.071695328E0,8.113949776E0
3.023444206E0,6.224924326E-2,-6.093243122E0,8.090007782E0
3.025459587E0,5.506663769E-2,-6.112396717E0,8.085219383E0
3.027442276E0,5.985504389E-2,-6.114790916E0,8.082824707E0
3.029456196E0,4.788403213E-2,-6.131550789E0,8.092401505E0
3.031441346E0,4.309562966E-2,-6.141127586E0,8.092401505E0
3.033454574E0,6.224924326E-2,-6.153098583E0,8.068459511E0
3.035468725E0,8.140286058E-2,-6.160281181E0,8.046912193E0
3.037452105E0,7.661445439E-2,-6.162675381E0,8.034940720E0
3.039466564E0,8.858546615E-2,-6.179434776E0,8.006210327E0
3.041449715E0,1.197100878E-1,-6.196194172E0,7.951143742E0
3.043464711E0,1.484405100E-1,-6.196194172E0,7.924807549E0
3.045447862E0,1.604115069E-1,-6.198588371E0,7.908048153E0
3.047462320E0,1.963245422E-1,-6.236895561E0,7.896077156E0
3.049445316E0,2.202665508E-1,-6.260837555E0,7.893682957E0
3.051461313E0,2.466027737E-1,-6.289567947E0,7.886500359E0
3.053444772E0,2.944868207E-1,-6.311115742E0,7.855375767E0
3.055457075E0,3.327940404E-1,-6.330269337E0,7.852981567E0
3.057440765E0,3.543418646E-1,-6.361393929E0,7.855375767E0
3.059455146E0,3.734954596E-1,-6.402095318E0,7.862558365E0
3.061469912E0,3.902548850E-1,-6.411672115E0,7.876923561E0
3.063453370E0,4.118026793E-1,-6.435614109E0,7.891288757E0
3.065467213E0,4.070142806E-1,-6.466738701E0,7.888894558E0
3.067450286E0,3.998316824E-1,-6.471527100E0,7.869740963E0
3.069465591E0,4.046200812E-1,-6.500257492E0,7.848193169E0
3.071449588E0,4.189853072E-1,-6.514622688E0,7.829039574E0
3.073463507E0,4.357447028E-1,-6.521805286E0,7.788338184E0
3.075446889E0,4.668693244E-1,-6.540958881E0,7.805097580E0
3.077460347E0,4.788403511E-1,-6.545747280E0,7.805097580E0
3.079444112E0,5.291185975E-1,-6.564900875E0,7.797914982E0
3.081458494E0,5.650315881E-1,-6.574477673E0,7.788338184E0
3.083442260E0,5.889736414E-1,-6.579266071E0,7.781155586E0
3.085456102E0,6.392518282E-1,-6.622362137E0,7.788338184E0
3.087440099E0,6.727706790E-1,-6.634333134E0,7.766790390E0
3.089453635E0,6.871358752E-1,-6.646304131E0,7.754819393E0
3.091469939E0,7.302315235E-1,-6.663063526E0,7.740454197E0
3.093453320E0,7.876923680E-1,-6.660669327E0,7.718906403E0
3.095465548E0,7.948749661E-1,-6.660669327E0,7.697358608E0
3.097450159E0,8.044517636E-1,-6.643909931E0,7.668628216E0
3.099464079E0,8.116343617E-1,-6.639121532E0,7.644686222E0
3.101447076E0,8.403648138E-1,-6.607996464E0,7.613561630E0
3.103461534E0,8.451532125E-1,-6.600813866E0,7.601590633E0
3.105444993E0,8.355764151E-1,-6.600813866E0,7.601590633E0
3.107459143E0,8.379706144E-1,-6.581660271E0,7.613561630E0
3.109444062E0,8.667010069E-1,-6.564900875E0,7.587224960E0
3.111458444E0,8.738836050E-1,-6.550535679E0,7.556100368E0
3.113441595E0,8.882488012E-1,-6.512228489E0,7.508216381E0
3.115454206E0,9.241618514E-1,-6.490680695E0,7.489062786E0
3.117469280E0,9.481038451E-1,-6.473921299E0,7.481880188E0
3.119452970E0,1.003170490E0,-6.452373505E0,7.467514992E0
3.121467042E0,1.034295082E0,-6.416460514E0,7.503427982E0
3.123450424E0,1.063025594E0,-6.416460514E0,7.532158375E0
3.125464960E0,1.125274777E0,-6.423643112E0,7.599195957E0
3.127448340E0,1.146822572E0,-6.428431511E0,7.678205013E0
3.129461799E0,1.199495077E0,-6.442796707E0,7.704541206E0
3.131448026E0,1.259350061E0,-6.471527100E0,7.711723804E0
3.133457253E0,1.292868972E0,-6.483498096E0,7.694964409E0
3.135444558E0,1.335964561E0,-6.488286495E0,7.668628216E0
3.137458170E0,1.376665950E0,-6.502651691E0,7.656657219E0
3.139441859E0,1.405396342E0,-6.507440090E0,7.642292023E0
3.141456317E0,1.448492050E0,-6.509834290E0,7.623138428E0
3.143439930E0,1.458068848E0,-6.509834290E0,7.599195957E0
3.145454156E0,1.465251446E0,-6.497863293E0,7.587224960E0
3.147467615E0,1.484405041E0,-6.457161903E0,7.536946774E0
3.149451304E0,1.496376038E0,-6.447585106E0,7.477091789E0
3.151466146E0,1.493981838E0,-6.430825710E0,7.450755596E0
3.153449220E0,1.501164436E0,-6.375759125E0,7.400477409E0
3.155463371E0,1.501164436E0,-6.368576527E0,7.369352818E0
3.157446983E0,1.503558636E0,-6.349422932E0,7.371747017E0
3.159460903E0,1.503558636E0,-6.301538944E0,7.386112213E0
3.161444592E0,1.513135433E0,-6.296750546E0,7.386112213E0
3.163459049E0,1.556231141E0,-6.296750546E0,7.426813602E0
3.165442970E0,1.604115129E0,-6.275202751E0,7.450755596E0
3.167457120E0,1.611297727E0,-6.260837555E0,7.455543995E0
3.169440193E0,1.656787634E0,-6.244078159E0,7.445967197E0
3.171456575E0,1.685518026E0,-6.234501362E0,7.467514992E0
3.173438726E0,1.704671621E0,-6.234501362E0,7.484274387E0
3.175451645E0,1.733402014E0,-6.217741966E0,7.515398979E0
3.177466411E0,1.762132406E0,-6.220136166E0,7.558494568E0
3.179450100E0,1.759738207E0,-6.215347767E0,7.572859764E0
3.181464558E0,1.754949808E0,-6.212953568E0,7.613561630E0
3.183447632E0,1.769315004E0,-6.241683960E0,7.678205013E0
3.185462321E0,1.778891921E0,-6.241683960E0,7.718906403E0
3.187446010E0,1.790862918E0,-6.268020153E0,7.793126583E0
3.189459853E0,1.764526606E0,-6.291962147E0,7.893682957E0
3.191444773E0,1.747767210E0,-6.303933144E0,7.931990147E0
3.193458307E0,1.716642618E0,-6.335057735E0,7.975085735E0
3.195441689E0,1.687912226E0,-6.327875137E0,7.984662533E0
3.197455532E0,1.620874524E0,-6.342240334E0,8.003816605E0
3.199469067E0,1.553836942E0,-6.347028732E0,8.068459511E0
3.201453140E0,1.508347034E0,-6.351817131E0,8.101978302E0
3.203466984E0,1.426944256E0,-6.399701118E0,8.147468567E0
3.205450595E0,1.333570361E0,-6.449979305E0,8.176198959E0
3.207464746E0,1.312022567E0,-6.452373505E0,8.166622162E0
3.209448743E0,1.261744261E0,-6.447585106E0,8.085219383E0
3.211464431E0,1.201889277E0,-6.421248913E0,7.991845131E0
3.213446351E0,1.189918280E0,-6.404489517E0,7.970297337E0
3.215460810E0,1.161187768E0,-6.370970726E0,7.984662533E0
3.217445037E0,1.146822572E0,-6.342240334E0,8.032546997E0
3.219458264E0,1.151610970E0,-6.320692539E0,8.056488991E0
3.221442031E0,1.173158884E0,-6.287173748E0,8.078036308E0
3.223456488E0,1.182735682E0,-6.246472359E0,8.082824707E0
3.225440716E0,1.189918280E0,-6.227318764E0,8.094796181E0
3.227454636E0,1.209071875E0,-6.198588371E0,8.123526573E0
3.229469632E0,1.221042871E0,-6.157886982E0,8.121131897E0
3.231453091E0,1.280897856E0,-6.131550789E0,8.087613106E0
3.233466549E0,1.328781962E0,-6.098031521E0,8.037335396E0
3.235450314E0,1.347935557E0,-6.076483727E0,8.001421928E0
3.237464081E0,1.379060149E0,-6.038176537E0,7.936778545E0
3.239447847E0,1.381454349E0,-5.992686749E0,7.910442352E0
3.241462304E0,1.381454349E0,-5.980715752E0,7.908048153E0
3.243445378E0,1.362300754E0,-5.947196960E0,7.908048153E0
3.245459529E0,1.376665950E0,-5.901707172E0,7.917624950E0
3.247443217E0,1.381454349E0,-5.875370979E0,7.929595947E0
3.249456984E0,1.403002143E0,-5.829881191E0,7.967903137E0
3.251442596E0,1.412579060E0,-5.781997204E0,7.989450932E0
3.253455746E0,1.414973259E0,-5.748478413E0,7.996633530E0
3.255438281E0,1.431732655E0,-5.691017628E0,8.054094315E0
3.257453048E0,1.438915253E0,-5.652710438E0,8.106766701E0
3.259466582E0,1.436521053E0,-5.633556366E0,8.145073891E0
3.261450887E0,1.441309452E0,-5.600037575E0,8.195352554E0
3.263465652E0,1.446097851E0,-5.585672379E0,8.221688271E0
3.265449341E0,1.458068848E0,-5.568912983E0,8.271966934E0
3.267462800E0,1.486799240E0,-5.549759388E0,8.300697327E0
3.269447181E0,1.501164436E0,-5.530605793E0,8.310274124E0
3.271461870E0,1.501164436E0,-5.509057999E0,8.315062523E0
3.273444405E0,1.510741234E0,-5.494692802E0,8.295908928E0
3.275458478E0,1.508347034E0,-5.468356609E0,8.295908928E0
3.277441937E0,1.503558636E0,-5.442020416E0,8.291120529E0
3.279456088E0,1.496376038E0,-5.384559631E0,8.315062523E0
3.281439700E0,1.510741234E0,-5.367800236E0,8.329427719E0
3.283453850E0,1.539471745E0,-5.315127850E0,8.348581314E0
3.285468308E0,1.589749932E0,-5.279214859E0,8.336610794E0
3.287451766E0,1.618480325E0,-5.245696068E0,8.324639320E0
3.289465301E0,1.685518026E0,-5.161899090E0,8.310274124E0
3.291451683E0,1.723825216E0,-5.106832027E0,8.348581314E0
3.293464294E0,1.795651317E0,-5.078101635E0,8.382100105E0
3.295447061E0,1.824381709E0,-5.003881454E0,8.432378769E0
3.297461904E0,1.841141105E0,-4.960785866E0,8.429984093E0
3.299445284E0,1.879448295E0,-4.888959885E0,8.437167168E0
3.301459666E0,1.920149803E0,-4.831499100E0,8.463502884E0
3.303442740E0,1.927332401E0,-4.800374508E0,8.480262756E0
3.305456890E0,1.932120800E0,-4.726154327E0,8.494627953E0
3.307440887E0,1.948880196E0,-4.659116745E0,8.482656479E0
3.309455653E0,1.953668594E0,-4.618414879E0,8.485051155E0
3.311439418E0,1.977610588E0,-4.565742493E0,8.489839554E0
3.313452877E0,2.030282974E0,-4.508281708E0,8.473079681E0
3.315467412E0,2.047042370E0,-4.486733913E0,8.465897560E0
3.317450177E0,2.099714994E0,-4.443638325E0,8.441955566E0
3.319464867E0,2.140416384E0,-4.393360138E0,8.367734909E0
3.321448633E0,2.157175779E0,-4.378994942E0,8.324639320E0
3.323462475E0,2.209848166E0,-4.338293552E0,8.274360657E0
3.325446395E0,2.221819162E0,-4.299986362E0,8.262390137E0
3.327460238E0,2.264914751E0,-4.271255970E0,8.195352554E0
3.329443004E0,2.276885748E0,-4.201824188E0,8.197746277E0
3.331459385E0,2.272097349E0,-4.163516521E0,8.228871346E0
3.333442152E0,2.260126352E0,-4.096478939E0,8.317456245E0
3.335455686E0,2.245761156E0,-4.017470360E0,8.362946510E0
3.337439606E0,2.236184359E0,-3.986345768E0,8.372523308E0
3.339453834E0,2.202665567E0,-3.909731388E0,8.446743965E0
3.341467984E0,2.221819162E0,-3.845088005E0,8.513781548E0
3.343451365E0,2.248155355E0,-3.821146011E0,8.518569946E0
3.345465747E0,2.272097349E0,-3.766079187E0,8.494627953E0
3.347449435E0,2.293645144E0,-3.718195200E0,8.492233276E0
3.349464201E0,2.296039343E0,-3.713406801E0,8.511386871E0
3.351448275E0,2.305616140E0,-3.691859007E0,8.508993149E0
3.353461810E0,2.274491549E0,-3.670311213E0,8.437167168E0
3.355445191E0,2.243366957E0,-3.641580820E0,8.370129585E0
3.357459035E0,2.169146776E0,-3.567360640E0,8.243236542E0
3.359442954E0,2.109291792E0,-3.526659012E0,8.214506149E0
3.361456182E0,1.994369984E0,-3.447650433E0,8.264783859E0
3.363440179E0,1.898601890E0,-3.380612850E0,8.453926086E0
3.365454328E0,1.850717902E0,-3.344699860E0,8.573636055E0
3.367468556E0,1.776497602E0,-3.268085241E0,8.760383606E0
3.369452169E0,1.738190413E0,-3.208230257E0,8.760383606E0
3.371468472E0,1.723825216E0,-3.165134668E0,8.712499619E0
3.373449700E0,1.721431017E0,-3.047818661E0,8.671798706E0
3.375464466E0,1.738190413E0,-2.985569477E0,8.765172005E0
3.377448462E0,1.754949808E0,-2.964021683E0,8.836998940E0
3.379462690E0,1.781286120E0,-2.935291290E0,8.968679428E0
3.381445995E0,1.838746905E0,-2.916137695E0,9.016563416E0
3.383460452E0,1.850717902E0,-2.892195702E0,9.011775017E0
3.385443218E0,1.869871497E0,-2.868253708E0,9.045293808E0
3.387458062E0,1.862688899E0,-2.858676910E0,9.121908188E0
3.389442596E0,1.848323703E0,-2.853888512E0,9.169792175E0
3.391456439E0,1.843535304E0,-2.839523315E0,9.255983353E0
3.393439282E0,1.826775908E0,-2.837129116E0,9.294290543E0
3.395452817E0,1.762132406E0,-2.853888512E0,9.361329079E0
3.397467275E0,1.702277422E0,-2.880224705E0,9.488221169E0
3.399450888E0,1.663970232E0,-2.889801502E0,9.569623947E0
3.401465345E0,1.608903527E0,-2.949656487E0,9.713275909E0
3.403449342E0,1.565807939E0,-3.004723072E0,9.763554573E0
3.405463493E0,1.534683347E0,-3.035847664E0,9.742006302E0
3.407446874E0,1.477222443E0,-3.090914488E0,9.710882187E0
3.409459871E0,1.398213744E0,-3.153163671E0,9.739612579E0
3.411446329E0,1.345541358E0,-3.174711466E0,9.775525093E0
3.413458941E0,1.230619669E0,-3.215412855E0,9.801861763E0
3.415441630E0,1.094150186E0,-3.215412855E0,9.746794701E0
3.417457396E0,1.017535686E0,-3.201047659E0,9.686940193E0
3.419440392E0,8.690952063E-1,-3.157952070E0,9.540893555E0
3.421454851E0,7.852981687E-1,-3.090914488E0,9.457097054E0
3.423468771E0,6.416460276E-1,-3.062183857E0,9.437943459E0
3.425452075E0,5.147533417E-1,-2.980781078E0,9.373299599E0
3.427465995E0,4.501099288E-1,-2.944868088E0,9.344569206E0
3.429450530E0,3.663128614E-1,-2.923320293E0,9.282320023E0
3.431464757E0,3.256114423E-1,-2.894589901E0,9.246406555E0
3.433448369E0,3.136404157E-1,-2.887407303E0,9.241618156E0
3.435461674E0,3.016694188E-1,-2.920926094E0,9.246406555E0
3.437445055E0,3.064578176E-1,-2.966415882E0,9.253589630E0
3.439460052E0,3.184288144E-1,-2.985569477E0,9.265560150E0
3.441443126E0,3.256114423E-1,-3.047818661E0,9.265560150E0
3.443457660E0,3.447650373E-1,-3.105279684E0,9.260771751E0
3.445440965E0,3.280056417E-1,-3.122039080E0,9.251194954E0
3.447455193E0,2.777273953E-1,-3.205836058E0,9.220070839E0
3.449469265E0,1.915361285E-1,-3.258508444E0,9.186552048E0
3.451455186E0,1.364694983E-1,-3.289633036E0,9.174580574E0
3.453463798E0,2.873042040E-2,-3.347094059E0,9.181763649E0
3.455451486E0,-4.309562966E-2,-3.394978046E0,9.176975250E0
3.457464945E0,-1.747767180E-1,-3.404554844E0,9.167398453E0
3.459448634E0,-3.016694188E-1,-3.426102638E0,9.102754593E0
3.461462784E0,-3.663128614E-1,-3.428496838E0,9.047688484E0
3.463446166E0,-5.003881454E-1,-3.447650433E0,8.918401718E0
3.465460701E0,-6.153098345E-1,-3.464409828E0,8.856152534E0
3.467443774E0,-6.631938815E-1,-3.466804028E0,8.846575737E0
3.469459694E0,-7.565677166E-1,-3.485957623E0,8.839392662E0
3.471442460E0,-8.259995580E-1,-3.529053211E0,8.805873871E0
3.473455995E0,-8.547300100E-1,-3.541024208E0,8.781931877E0
3.475439761E0,-8.762778044E-1,-3.567360640E0,8.734047890E0
3.477454143E0,-9.002198577E-1,-3.603273630E0,8.722076416E0
3.479467754E0,-8.930372596E-1,-3.617638826E0,8.710105896E0
3.481452059E0,-8.571242094E-1,-3.672705412E0,8.712499619E0
3.483466133E0,-8.451532125E-1,-3.746925592E0,8.734047890E0
3.485449590E0,-8.355764151E-1,-3.778050184E0,8.741230011E0
3.487463664E0,-8.068459630E-1,-3.816357613E0,8.724471092E0
3.489447046E0,-7.924807668E-1,-3.847482204E0,8.707711220E0
3.491462811E0,-7.733271718E-1,-3.861847401E0,8.712499619E0
3.493445808E0,-7.685387731E-1,-3.921702385E0,8.772355080E0
3.495459113E0,-7.709329724E-1,-3.938461781E0,8.822632790E0
3.497442801E0,-7.829039693E-1,-3.955221176E0,8.896853447E0
3.499457183E0,-7.876923680E-1,-3.993528366E0,8.949525833E0
3.501440333E0,-7.876923680E-1,-4.012681961E0,8.963891029E0
3.503454791E0,-7.948749661E-1,-4.050989151E0,8.987833023E0
3.505468557E0,-7.757213712E-1,-4.101267338E0,8.999804497E0
3.507453170E0,-7.733271718E-1,-4.120420933E0,9.004592896E0
3.509466781E0,-7.541735172E-1,-4.161122322E0,9.050082207E0
3.511451701E0,-6.967126727E-1,-4.209006786E0,9.107542992E0
3.513465160E0,-6.584054828E-1,-4.235342979E0,9.131484985E0
3.515447694E0,-5.841852427E-1,-4.276044369E0,9.160215378E0
3.517462691E0,-4.955997467E-1,-4.297592163E0,9.143456459E0
3.519445765E0,-4.572925270E-1,-4.311957359E0,9.131484985E0
3.521460299E0,-3.687070608E-1,-4.328716755E0,9.095572472E0
3.523444220E0,-3.208230138E-1,-4.328716755E0,9.083600998E0
3.525457755E0,-2.489969730E-1,-4.333505154E0,9.069235802E0
3.527442059E0,-1.867477298E-1,-4.359841347E0,9.066842079E0
3.529455671E0,-1.460463107E-1,-4.378994942E0,9.066842079E0
3.531440899E0,-8.140286058E-2,-4.412513733E0,9.114726067E0
3.533453818E0,1.436521020E-2,-4.458003521E0,9.169792175E0
3.535467277E0,4.548983276E-2,-4.479551315E0,9.181763649E0
3.537451350E0,1.173158810E-1,-4.541800499E0,9.172186852E0
3.539465500E0,1.867477298E-1,-4.596867085E0,9.133879662E0
3.541448882E0,2.250549644E-1,-4.613626480E0,9.109937668E0
3.543463340E0,2.825157940E-1,-4.683058739E0,9.085995674E0
3.545446644E0,3.160346150E-1,-4.759673119E0,9.057265282E0
3.547461410E0,3.232172430E-1,-4.788403511E0,9.033323288E0
3.549444561E0,3.208230138E-1,-4.838681698E0,8.975862503E0
3.551459557E0,2.920926213E-1,-4.922478676E0,8.901641846E0
3.553442939E0,2.825157940E-1,-4.946420670E0,8.851364136E0
3.555456782E0,2.130839527E-1,-4.970362663E0,8.750806808E0
3.557440855E0,1.723825186E-1,-4.996698856E0,8.683769226E0
3.559454929E0,5.985504389E-2,-5.051765442E0,8.559270859E0
3.561468772E0,-3.830722719E-2,-5.056553841E0,8.489839554E0
3.563452537E0,-9.097966552E-2,-5.066130638E0,8.485051155E0
3.565466688E0,-1.819593310E-1,-5.094861031E0,8.456320763E0
3.567449993E0,-2.705447972E-1,-5.128379822E0,8.401253700E0
3.569464143E0,-2.992752194E-1,-5.137956619E0,8.370129585E0
3.571449370E0,-3.375824392E-1,-5.145139217E0,8.322244644E0
3.573462983E0,-3.639186621E-1,-5.137956619E0,8.305485725E0
3.575445133E0,-3.782838583E-1,-5.133168221E0,8.307879448E0
3.577460207E0,-3.974374831E-1,-5.121197224E0,8.336610794E0
3.579443588E0,-3.926490843E-1,-5.142745018E0,8.355764389E0
3.581456815E0,-3.830722570E-1,-5.147533417E0,8.353369713E0
3.583441120E0,-3.854664862E-1,-5.145139217E0,8.336610794E0
3.585455271E0,-3.854664862E-1,-5.159504890E0,8.312667847E0
3.587439497E0,-3.782838583E-1,-5.171475887E0,8.305485725E0
3.589453033E0,-3.806780577E-1,-5.197812080E0,8.288725853E0
3.591468414E0,-3.806780577E-1,-5.219359875E0,8.276755333E0
3.593451487E0,-4.022258818E-1,-5.243301868E0,8.233659744E0
3.595465638E0,-4.189853072E-1,-5.269638062E0,8.188169479E0
3.597448174E0,-4.213795066E-1,-5.288791656E0,8.183381081E0
3.599463170E0,-4.309563041E-1,-5.317522049E0,8.176198959E0
3.601446628E0,-4.405331016E-1,-5.331887245E0,8.185775757E0
3.603460471E0,-4.429273009E-1,-5.346252441E0,8.192957878E0
3.605444083E0,-4.213795066E-1,-5.377377033E0,8.176198959E0
3.607459234E0,-4.070142806E-1,-5.413290024E0,8.145073891E0
3.609441615E0,-3.878606856E-1,-5.422866821E0,8.118738174E0
3.611458304E0,-3.351882398E-1,-5.456385612E0,8.082824707E0
3.613439224E0,-2.944868207E-1,-5.475539207E0,8.051700592E0
3.615454298E0,-2.753331959E-1,-5.485116005E0,8.046912193E0
3.617468755E0,-2.370259613E-1,-5.497087002E0,8.051700592E0
3.619452137E0,-2.082955539E-1,-5.511452198E0,8.044517517E0
3.621465902E0,-1.795651317E-1,-5.513846397E0,8.022970200E0
3.623449976E0,-1.699883193E-1,-5.521028996E0,7.987056732E0
3.625464434E0,-1.651999205E-1,-5.521028996E0,7.967903137E0
3.627447431E0,-1.532289088E-1,-5.525817394E0,7.931990147E0
3.629462504E0,-1.316810995E-1,-5.525817394E0,7.927201748E0
3.631445963E0,-1.149216816E-1,-5.523423195E0,7.929595947E0
3.633459420E0,-9.097966552E-2,-5.525817394E0,7.960720539E0
3.635442879E0,-5.746084079E-2,-5.540182590E0,8.008605003E0
3.637457261E0,-3.830722719E-2,-5.547365189E0,8.030152321E0
3.639440719E0,-1.197100803E-2,-5.564124584E0,8.121131897E0
3.641455100E0,1.915361360E-2,-5.612008572E0,8.185775757E0
3.643469635E0,3.351882473E-2,-5.628767967E0,8.212111473E0
3.645452324E0,5.267243832E-2,-5.650316238E0,8.250418663E0
3.647467167E0,7.900865376E-2,-5.681440830E0,8.240841866E0
3.649450241E0,9.816227108E-2,-5.691017628E0,8.233659744E0
3.651466237E0,1.125274822E-1,-5.726930618E0,8.224082947E0
3.653449234E0,1.268926859E-1,-5.753266811E0,8.214506149E0
3.655461846E0,1.436520964E-1,-5.760449409E0,8.195352554E0
3.657446457E0,1.340752989E-1,-5.779603004E0,8.209717751E0
3.659460378E0,1.268926859E-1,-5.793968201E0,8.212111473E0
3.661444298E0,1.125274822E-1,-5.825092793E0,8.219294548E0
3.663458217E0,1.005564705E-1,-5.861005783E0,8.200140953E0
3.665441906E0,9.337386489E-2,-5.865794182E0,8.180987358E0
3.667455749E0,7.661445439E-2,-5.868188381E0,8.142680168E0
3.669440361E0,8.619125932E-2,-5.899312973E0,8.145073891E0
3.671454511E0,8.140286058E-2,-5.913678169E0,8.140285492E0
3.673467970E0,8.619125932E-2,-5.925649166E0,8.116343498E0
3.675451427E0,1.125274822E-1,-5.956773758E0,8.092401505E0
3.677465578E0,1.316810995E-1,-5.971138954E0,8.073247910E0
3.679449268E0,1.699883193E-1,-5.983109951E0,8.066065788E0
3.681463341E0,2.130839527E-1,-5.995080948E0,8.082824707E0
3.683447338E0,2.346317619E-1,-6.011840343E0,8.082824707E0
3.685461258E0,2.681505978E-1,-6.035782337E0,8.034940720E0
3.687444869E0,2.944868207E-1,-6.038176537E0,7.994239330E0
3.689459020E0,3.591302633E-1,-6.019022942E0,7.924807549E0
3.691444325E0,4.118026793E-1,-6.016628742E0,7.867346764E0
3.693454167E0,4.501099288E-1,-6.007051945E0,7.833827972E0
3.695471625E0,5.363011956E-1,-6.004657745E0,7.807491779E0
3.697454699E0,6.081272364E-1,-6.002263546E0,7.776367188E0
3.699469464E0,6.512228847E-1,-6.004657745E0,7.750030994E0
3.701452000E0,7.422025204E-1,-6.009446144E0,7.697358608E0
3.703467305E0,8.283938169E-1,-6.023811340E0,7.615955830E0
3.705450378E0,8.882488012E-1,-6.014234543E0,7.580042362E0
3.707464221E0,9.720458984E-1,-6.021417141E0,7.522581577E0
3.709448218E0,1.041477680E0,-6.042964935E0,7.498639584E0
3.711463368E0,1.070208192E0,-6.054935932E0,7.491456985E0
3.713447288E0,1.106121182E0,-6.088454723E0,7.477091789E0
3.715460285E0,1.142034173E0,-6.105214119E0,7.462726593E0
3.717443973E0,1.161187768E0,-6.110002518E0,7.438784599E0
3.719458124E0,1.192312479E0,-6.124367714E0,7.402871609E0
3.721440890E0,1.213860273E0,-6.141127586E0,7.414842606E0
3.723455578E0,1.247379065E0,-6.145915985E0,7.436390400E0
3.725439268E0,1.259350061E0,-6.167463779E0,7.467514992E0
3.727453495E0,1.259350061E0,-6.177040577E0,7.477091789E0
3.729467261E0,1.273715258E0,-6.191405773E0,7.501033783E0
3.731453488E0,1.261744261E0,-6.198588371E0,7.558494568E0
3.733465409E0,1.256955862E0,-6.203376770E0,7.584830761E0
3.735448558E0,1.237802267E0,-6.222530365E0,7.630321026E0
3.737463248E0,1.187524080E0,-6.244078159E0,7.680599213E0
3.739446399E0,1.173158884E0,-6.253654957E0,7.690176010E0
3.741460856E0,1.134851575E0,-6.241683960E0,7.702147007E0
3.743444776E0,1.074996591E0,-6.253654957E0,7.730877399E0
3.745458389E0,1.046266198E0,-6.256049156E0,7.742848396E0
3.747442077E0,9.552865028E-1,-6.294356346E0,7.764396191E0
3.749457151E0,9.265560508E-1,-6.313509941E0,7.757213593E0
3.751441763E0,8.882488012E-1,-6.330269337E0,7.759607792E0
3.753454682E0,8.451532125E-1,-6.373364925E0,7.738059998E0
3.755469064E0,8.307880163E-1,-6.390124321E0,7.730877399E0
3.757452830E0,8.259995580E-1,-6.392518520E0,7.723694801E0
3.759466672E0,8.164227605E-1,-6.421248913E0,7.745242596E0
3.761450285E0,8.068459630E-1,-6.440402508E0,7.762001991E0
3.763463589E0,8.331822157E-1,-6.461950302E0,7.807491779E0
3.765447893E0,8.523358107E-1,-6.488286495E0,7.845798969E0
3.767462044E0,8.523358107E-1,-6.483498096E0,7.855375767E0
3.769445964E0,8.643068075E-1,-6.502651691E0,7.862558365E0
3.771461422E0,9.002198577E-1,-6.490680695E0,7.855375767E0
3.773443803E0,9.169792533E-1,-6.488286495E0,7.831433773E0
3.775456492E0,9.313444495E-1,-6.471527100E0,7.750030994E0
3.777441642E0,9.241618514E-1,-6.445190907E0,7.714118004E0
3.779455485E0,9.145850539E-1,-6.435614109E0,7.706935406E0
3.781438329E0,8.954314590E-1,-6.397306919E0,7.699752808E0
3.783453402E0,8.858546019E-1,-6.370970726E0,7.690176010E0
3.785467783E0,8.619126081E-1,-6.356605530E0,7.656657219E0
3.787450857E0,8.379706144E-1,-6.337451935E0,7.613561630E0
3.789465084E0,8.427590132E-1,-6.327875137E0,7.601590633E0
3.791449927E0,8.547300100E-1,-6.323086739E0,7.563282967E0
3.793462924E0,8.834604025E-1,-6.289567947E0,7.592013359E0
3.795446843E0,9.121908545E-1,-6.291962147E0,7.603984833E0
3.797460763E0,9.816226959E-1,-6.294356346E0,7.620744228E0
3.799444683E0,1.036689281E0,-6.289567947E0,7.627926826E0
3.801459218E0,1.070208192E0,-6.299144745E0,7.613561630E0
3.803442215E0,1.113303781E0,-6.306327343E0,7.596801758E0
3.805455827E0,1.139639974E0,-6.315904140E0,7.553706169E0
3.807440054E0,1.158793569E0,-6.306327343E0,7.532158375E0
3.809453282E0,1.149216771E0,-6.284779549E0,7.486668587E0
3.811469894E0,1.139639974E0,-6.241683960E0,7.455543995E0
3.813452352E0,1.122880578E0,-6.246472359E0,7.460332394E0
3.815465349E0,1.055842996E0,-6.241683960E0,7.477091789E0
3.817449961E0,1.043871999E0,-6.239289761E0,7.481880188E0
3.819464342E0,1.003170490E0,-6.241683960E0,7.493851185E0
3.821447493E0,9.552865028E-1,-6.246472359E0,7.491456985E0
3.823461259E0,9.361328483E-1,-6.244078159E0,7.491456985E0
3.825445870E0,9.433154464E-1,-6.229712963E0,7.489062786E0
3.827459406E0,9.648633003E-1,-6.239289761E0,7.520187378E0
3.829444326E0,9.720458984E-1,-6.248866558E0,7.541735172E0
3.831458552E0,1.003170490E0,-6.246472359E0,7.587224960E0
3.833440934E0,1.048660398E0,-6.265625954E0,7.642292023E0
3.835455085E0,1.053448796E0,-6.263231754E0,7.656657219E0
3.837437927E0,1.089361787E0,-6.277596951E0,7.682993412E0
3.839452924E0,1.132457376E0,-6.258443356E0,7.709329605E0
3.841466767E0,1.154005170E0,-6.268020153E0,7.721300602E0
3.843450456E0,1.189918280E0,-6.279991150E0,7.747636795E0
3.845464683E0,1.204283476E0,-6.275202751E0,7.783549786E0
3.847448065E0,1.197100878E0,-6.272808552E0,7.805097580E0
3.849462215E0,1.209071875E0,-6.265625954E0,7.850587368E0
3.851447366E0,1.211466074E0,-6.272808552E0,7.855375767E0
3.853456593E0,1.225831270E0,-6.272808552E0,7.857769966E0
3.855443666E0,1.264138460E0,-6.277596951E0,7.841010571E0
3.857458202E0,1.273715258E0,-6.260837555E0,7.838616371E0
3.859442199E0,1.300051570E0,-6.244078159E0,7.845798969E0
3.861455656E0,1.335964561E0,-6.224924564E0,7.838616371E0
3.863440346E0,1.338358760E0,-6.220136166E0,7.838616371E0
3.865453266E0,1.367089152E0,-6.217741966E0,7.845798969E0
3.867468031E0,1.374271750E0,-6.203376770E0,7.848193169E0
3.869451720E0,1.383848548E0,-6.193799973E0,7.855375767E0
3.871466179E0,1.393425345E0,-6.200982571E0,7.888894558E0
3.873449867E0,1.414973259E0,-6.172252178E0,7.908048153E0
3.875464018E0,1.424550056E0,-6.181828976E0,7.927201748E0
3.877447400E0,1.431732655E0,-6.200982571E0,7.970297337E0
3.879461857E0,1.434126854E0,-6.200982571E0,7.989450932E0
3.881444623E0,1.467645645E0,-6.193799973E0,7.987056732E0
3.883459313E0,1.486799240E0,-6.177040577E0,7.975085735E0
3.885442693E0,1.491587639E0,-6.179434776E0,7.972691536E0
3.887457229E0,1.498770237E0,-6.169857979E0,7.943961143E0
3.889439687E0,1.498770237E0,-6.136339188E0,7.905653954E0
3.891456299E0,1.503558636E0,-6.131550789E0,7.898471355E0
3.893439065E0,1.508347034E0,-6.129156113E0,7.879317760E0
3.895451908E0,1.513135433E0,-6.093243122E0,7.862558365E0
3.897466750E0,1.510741234E0,-6.064512730E0,7.864952564E0
3.899450132E0,1.534683347E0,-6.040570736E0,7.903259754E0
3.901464590E0,1.584961534E0,-6.057330132E0,7.939172745E0
3.903448202E0,1.594538331E0,-6.047753334E0,7.936778545E0
3.905462430E0,1.628057122E0,-6.023811340E0,7.927201748E0
3.907445427E0,1.709460020E0,-5.987898350E0,7.903259754E0
3.909460192E0,1.735796213E0,-5.978321552E0,7.869740963E0
3.911445112E0,1.786074519E0,-5.944802761E0,7.824251175E0
3.913458417E0,1.810016513E0,-5.899312973E0,7.805097580E0
3.915441720E0,1.841141105E0,-5.877765179E0,7.797914982E0
3.917455564E0,1.860294700E0,-5.844246387E0,7.790732384E0
3.919439561E0,1.853112102E0,-5.820304394E0,7.778761387E0
3.921453403E0,1.877054095E0,-5.765237808E0,7.766790390E0
3.923466938E0,1.881842494E0,-5.736507416E0,7.781155586E0
3.925450935E0,1.886630893E0,-5.707777023E0,7.778761387E0
3.927465162E0,1.886630893E0,-5.664681435E0,7.778761387E0
3.929448851E0,1.865083098E0,-5.623979568E0,7.781155586E0
3.931464771E0,1.865083098E0,-5.607220173E0,7.802703381E0
3.933446306E0,1.857900500E0,-5.583278179E0,7.841010571E0
3.935460457E0,1.860294700E0,-5.549759388E0,7.888894558E0
3.937444838E0,1.862688899E0,-5.532999992E0,7.922413349E0
3.939460142E0,1.869871497E0,-5.509057999E0,8.006210327E0
3.941442370E0,1.874659896E0,-5.485116005E0,8.061277390E0
3.943456444E0,1.879448295E0,-5.477933407E0,8.073247910E0
3.945440209E0,1.884236693E0,-5.465962410E0,8.085219383E0
3.947454360E0,1.881842494E0,-5.432443619E0,8.082824707E0
3.949469434E0,1.877054095E0,-5.420472622E0,8.090007782E0
3.951453353E0,1.874659896E0,-5.391742229E0,8.178592682E0
3.953466350E0,1.857900500E0,-5.386953831E0,8.238448143E0
3.955449654E0,1.843535304E0,-5.370194435E0,8.355764389E0
3.957464189E0,1.838746905E0,-5.358223438E0,8.437167168E0
3.959447571E0,1.829170108E0,-5.367800236E0,8.449137688E0
3.961461721E0,1.805228114E0,-5.358223438E0,8.449137688E0
3.963445640E0,1.764526606E0,-5.363011837E0,8.439560890E0
3.965460099E0,1.735796213E0,-5.363011837E0,8.441955566E0
3.967443173E0,1.709460020E0,-5.365406036E0,8.470685959E0
3.969457092E0,1.680729628E0,-5.363011837E0,8.523358345E0
3.971443474E0,1.680729628E0,-5.353435040E0,8.547300339E0
3.973456471E0,1.678335428E0,-5.341464043E0,8.578424454E0
3.975438005E0,1.673547029E0,-5.348646641E0,8.580819130E0
3.977453079E0,1.678335428E0,-5.353435040E0,8.590395927E0
3.979467229E0,1.673547029E0,-5.329493046E0,8.619126320E0
3.981450918E0,1.673547029E0,-5.310339451E0,8.626308441E0
3.983464761E0,1.680729628E0,-5.269638062E0,8.640673637E0
3.985448989E0,1.692700624E0,-5.248090267E0,8.614337921E0
3.987463216E0,1.704671621E0,-5.219359875E0,8.609549522E0
3.989446290E0,1.733402014E0,-5.157110691E0,8.602366447E0
3.991461363E0,1.764526606E0,-5.114014626E0,8.602366447E0
3.993444129E0,1.776497602E0,-5.085284233E0,8.604761124E0
3.995458203E0,1.798045516E0,-5.013458252E0,8.599972725E0
3.997442277E0,1.810016513E0,-4.944026470E0,8.571242332E0
3.999456119E0,1.814804912E0,-4.910507679E0,8.547300339E0
4.001439193E0,1.824381709E0,-4.829104900E0,8.523358345E0
4.003453881E0,1.853112102E0,-4.738125324E0,8.489839554E0
4.005467801E0,1.860294700E0,-4.704606533E0,8.482656479E0
4.007451491E0,1.850717902E0,-4.623203278E0,8.504204750E0
4.009465871E0,1.872265697E0,-4.541800499E0,8.549694061E0
4.011452330E0,1.881842494E0,-4.501099110E0,8.568847656E0
4.013464019E0,1.932120800E0,-4.436455727E0,8.604761124E0
4.015446554E0,1.946485996E0,-4.405331135E0,8.609549522E0
4.017461858E0,1.980004787E0,-4.338293552E0,8.602366447E0
4.019445240E0,2.011129379E0,-4.290409565E0,8.590395927E0
4.021459390E0,2.025494576E0,-4.264073372E0,8.595184326E0
4.023443387E0,2.030282974E0,-4.218583584E0,8.616731644E0
4.025457538E0,2.059013367E0,-4.163516521E0,8.640673637E0
4.027440611E0,2.061407566E0,-4.151545525E0,8.635885239E0
4.029455684E0,2.049436569E0,-4.115632534E0,8.614337921E0
4.031440605E0,2.027888775E0,-4.086902142E0,8.614337921E0
4.033452908E0,2.011129379E0,-4.072536945E0,8.640673637E0
4.035466521E0,1.984793186E0,-4.055777550E0,8.724471092E0
4.037450748E0,1.932120800E0,-4.029441357E0,8.827422142E0
4.039465206E0,1.908178806E0,-4.007893562E0,8.887276649E0
4.041447972E0,1.845929503E0,-3.971980572E0,8.959102631E0
4.043462123E0,1.805228114E0,-3.928884983E0,8.963891029E0
4.045445888E0,1.714248419E0,-3.914519787E0,8.961497307E0
4.047460578E0,1.625662923E0,-3.885789394E0,8.942343712E0
4.049443652E0,1.584961534E0,-3.871424198E0,8.918401718E0
4.051458801E0,1.462857246E0,-3.823540211E0,8.882488251E0
4.053441875E0,1.386242747E0,-3.780444384E0,8.892065048E0
4.055454795E0,1.350329757E0,-3.780444384E0,8.951920509E0
4.057439638E0,1.321599364E0,-3.780444384E0,9.109937668E0
4.059453865E0,1.312022567E0,-3.770867586E0,9.215282440E0
4.061467708E0,1.309628367E0,-3.773261786E0,9.239224434E0
4.063451628E0,1.314416766E0,-3.761290789E0,9.246406555E0
4.065465855E0,1.307234168E0,-3.718195200E0,9.234436035E0
4.067449237E0,1.292868972E0,-3.699041605E0,9.222464561E0
4.069464002E0,1.259350061E0,-3.643975019E0,9.224859238E0
4.071448230E0,1.211466074E0,-3.608062029E0,9.239224434E0
4.073461150E0,1.189918280E0,-3.588908434E0,9.248801231E0
4.075444838E0,1.165976286E0,-3.526659012E0,9.282320023E0
4.077458682E0,1.154005170E0,-3.481169224E0,9.287108421E0
4.079442679E0,1.142034173E0,-3.462015629E0,9.270348549E0
4.081456521E0,1.103726983E0,-3.394978046E0,9.270348549E0
4.083440902E0,1.089361787E0,-3.356670856E0,9.284713745E0
4.085454976E0,1.089361787E0,-3.282450438E0,9.303867340E0
4.087438126E0,1.058237195E0,-3.217807055E0,9.291896820E0
4.089452200E0,1.048660398E0,-3.196259260E0,9.267954826E0
4.091468582E0,1.003170490E0,-3.148375273E0,9.239224434E0
4.093446424E0,9.528923035E-1,-3.086126089E0,9.260771751E0
4.095465113E0,9.265560508E-1,-3.057395458E0,9.287108421E0
4.097448495E0,8.547300100E-1,-3.023876667E0,9.378087997E0
4.099461721E0,7.757213712E-1,-2.968810081E0,9.385271072E0
4.101445488E0,7.398083210E-1,-2.947262287E0,9.363722801E0
4.103459562E0,6.440402865E-1,-2.925714493E0,9.327810287E0
4.105443327E0,5.650315881E-1,-2.896984100E0,9.344569206E0
4.107457709E0,5.243301988E-1,-2.877830505E0,9.370905876E0
