"Time (s)","Linear Acceleration x (m/s^2)","Linear Acceleration y (m/s^2)","Linear Acceleration z (m/s^2)"
1.545344600E-2,4.795789719E-4,1.920223236E-2,-5.405807495E-2
2.345012400E-2,-1.412075162E-1,2.844285965E-2,-7.312011719E-2
3.144641900E-2,-2.180008739E-1,-2.483439445E-2,-1.221685410E-1
3.947102100E-2,-1.740927845E-1,-1.319456100E-2,-1.567354202E-1
4.746662300E-2,-1.053975523E-1,8.938312531E-3,-1.895713806E-1
5.546261000E-2,-1.908788085E-2,3.927683830E-2,-1.595401764E-1
6.345805800E-2,4.314889014E-2,6.009030342E-2,-1.693353653E-1
7.145519800E-2,9.940314293E-2,1.020624638E-1,-1.453580856E-1
7.944880100E-2,1.257060170E-1,1.377761364E-1,-1.476297379E-1
8.747578800E-2,1.444487125E-1,1.428461075E-1,-6.042671204E-2
9.547123500E-2,9.835094213E-2,1.123456955E-1,-3.195095062E-2
1.034662990E-1,4.020822048E-2,8.603858948E-2,-7.762813568E-2
1.114632090E-1,-4.209569842E-2,-9.074211121E-4,-7.550239563E-3
1.194573490E-1,-1.177927181E-1,-4.532217979E-2,1.783466339E-2
1.274530280E-1,-1.857620478E-1,-6.536245346E-2,2.164840698E-3
1.354487080E-1,-1.885470748E-1,-9.374952316E-2,2.250671387E-3
1.434446170E-1,-1.453654319E-1,-1.002068520E-1,6.382465363E-2
1.514720650E-1,-1.009684652E-1,-1.346364021E-1,8.329677582E-2
1.594664370E-1,-9.729568660E-2,-1.522524357E-1,4.475975037E-2
1.674611920E-1,-8.081167936E-2,-1.458158493E-1,6.760501862E-2
1.754535640E-1,-3.967219591E-2,-1.815471649E-1,1.337575912E-1
1.834535510E-1,-6.778922677E-2,-1.465010643E-1,-8.018112183E-2
1.914491520E-1,-3.228238225E-2,-1.747481823E-1,2.220373154E-1
1.994744470E-1,-1.648187935E-1,-1.253435612E-1,2.004842758E-1
2.074710490E-1,-1.731273830E-1,-1.522827148E-1,1.226024628E-1
2.154663430E-1,-8.664873242E-2,-7.164597511E-2,1.730461121E-1
2.234607920E-1,-3.584128618E-2,-5.273079872E-2,1.667404175E-1
2.314580090E-1,-5.455830693E-2,-7.784914970E-2,1.044321060E-1
2.394524570E-1,-1.134567559E-1,-9.210252762E-2,1.093940735E-1
2.474482130E-1,-9.930849075E-2,-6.747841835E-2,1.116104126E-1
2.554428930E-1,-7.178792357E-2,-8.607578278E-2,1.277866364E-1
2.634702630E-1,-3.782951832E-2,-1.343514919E-1,1.320390701E-1
2.714663270E-1,2.161264420E-4,-1.147398949E-1,9.689521790E-2
2.794610060E-1,-1.312610507E-2,-1.089107990E-1,4.575634003E-2
2.874567620E-1,-9.395837784E-3,-1.143174171E-1,4.874134064E-2
2.954526720E-1,-1.625537872E-3,-1.318922043E-1,3.715896606E-2
3.034481200E-1,8.060872555E-3,-1.177482605E-1,4.965209961E-2
3.114745680E-1,2.420291305E-2,-8.417272568E-2,7.470512390E-2
3.194695550E-1,4.948326945E-2,-4.351687431E-2,5.900287628E-2
3.274646950E-1,2.773165703E-3,2.371287346E-2,6.014537811E-2
3.354606050E-1,-2.916970849E-2,9.583282471E-2,1.212034225E-1
3.434566690E-1,-4.114940763E-2,9.848189354E-2,1.439752579E-1
3.514525780E-1,-5.732631683E-2,1.223690510E-1,1.690511703E-1
3.594480260E-1,-3.275400400E-2,1.267817020E-1,1.868286133E-1
3.674737830E-1,-3.260734677E-2,9.252071381E-2,1.709270477E-1
3.754695380E-1,-5.441108346E-2,4.360270500E-2,2.147531509E-1
3.834649100E-1,-6.018516421E-2,3.016400337E-2,2.033138275E-1
3.914615120E-1,-4.520922899E-2,1.421809196E-2,1.750364304E-1
3.994558830E-1,-4.044446349E-2,7.662773132E-3,2.208786011E-1
4.074521770E-1,-2.432283759E-2,1.291155815E-2,2.211380005E-1
4.154470110E-1,5.362898111E-3,-2.750277519E-2,2.572059631E-1
4.234739970E-1,-1.308318973E-2,-2.982282639E-2,2.692403793E-1
4.314693680E-1,-1.439407468E-2,2.475476265E-2,2.451591492E-1
4.394641240E-1,-7.749587297E-3,5.951976776E-2,2.448043823E-1
4.474601870E-1,9.183675051E-3,4.576635361E-2,2.514209747E-1
4.554555590E-1,1.219859719E-2,4.351067543E-2,2.626667023E-1
4.634517770E-1,-3.268787265E-2,2.418375015E-2,2.211208344E-1
4.714477630E-1,-1.041211784E-1,1.674628258E-2,2.154483795E-1
4.794732880E-1,-1.304692924E-1,-1.951742172E-2,2.264795303E-1
4.874680450E-1,-1.522506773E-1,-4.153895378E-2,2.302732468E-1
4.954634920E-1,-1.454457641E-1,-6.360864639E-2,2.436180115E-1
5.034600180E-1,-1.098857820E-1,-5.238866806E-2,2.664546967E-1
5.114569280E-1,-8.158048987E-2,-6.075215340E-2,2.268762589E-1
5.194508370E-1,-9.139183164E-2,-7.197833061E-2,2.086772919E-1
5.274467470E-1,-5.803963542E-2,-8.626794815E-2,1.471328735E-1
5.354726570E-1,-5.721002817E-3,-9.866523743E-2,1.380643845E-1
5.434683350E-1,3.888225555E-2,-9.002447128E-2,9.286689758E-2
5.514648610E-1,7.103446126E-2,-7.701826096E-2,8.100605011E-2
5.594593090E-1,7.922631502E-2,-4.262900352E-2,6.190395355E-2
5.674544490E-1,8.490258455E-2,-5.985498428E-3,4.441261292E-3
5.754498210E-1,5.966165662E-2,1.903295517E-2,-2.893352509E-2
5.834463460E-1,6.578055024E-2,4.681611061E-2,-5.496883392E-2
5.914731020E-1,1.054830253E-1,5.846810341E-2,-1.118850708E-1
5.994684730E-1,1.426673234E-1,3.486037254E-2,-1.302528381E-1
6.074638450E-1,1.483434737E-1,4.548954964E-2,-2.058277130E-1
6.154589850E-1,1.706171632E-1,3.547286987E-2,-3.026208878E-1
6.234548950E-1,2.022111714E-1,4.572582245E-2,-3.726720810E-1
6.314512660E-1,2.115834653E-1,7.666444778E-2,-4.733085632E-1
6.394456370E-1,1.789460182E-1,6.388497353E-2,-4.871578217E-1
6.474721630E-1,1.659744680E-1,1.033856869E-1,-6.272449493E-1
6.554666110E-1,2.295654565E-1,6.092882156E-2,-4.243917465E-1
6.634634430E-1,1.896301508E-1,7.203292847E-2,-4.320335388E-1
6.714595070E-1,1.281674206E-1,4.829072952E-2,-3.555784225E-1
6.794542630E-1,1.300492585E-1,6.818580627E-2,-2.382564545E-1
6.874499420E-1,1.053487957E-1,1.092321873E-1,-1.138896942E-1
6.954450060E-1,7.502734661E-4,1.572523117E-1,-1.451339722E-1
7.034716840E-1,4.314315319E-2,9.007358551E-2,2.958106995E-2
7.114683630E-1,5.038923025E-2,4.377484322E-2,-8.311367035E-2
7.194630430E-1,-1.512324810E-2,5.269813538E-2,-2.578277588E-1
7.274587210E-1,-5.379217863E-2,1.053738594E-1,-4.990959167E-1
7.354534770E-1,-2.398044169E-1,2.044606209E-1,-7.135076523E-1
7.434495410E-1,-5.582028627E-2,1.779468060E-1,-8.220052719E-1
7.514458350E-1,2.104471326E-1,1.789436340E-1,-8.941841125E-1
7.594710530E-1,3.623859584E-1,1.648249626E-1,-7.552108765E-1
7.674673470E-1,3.108002841E-1,2.090573311E-1,-6.951007843E-1
7.754627180E-1,1.721939743E-1,2.446460724E-1,-5.940523148E-1
7.834583970E-1,2.551260591E-2,2.932441235E-1,-5.955581665E-1
7.914543840E-1,-6.479635835E-2,3.265707493E-1,-6.035680771E-1
7.994487550E-1,-7.573708892E-2,3.758878708E-1,-6.634445190E-1
8.074448190E-1,-4.479819536E-2,3.743393421E-1,-7.104215622E-1
8.154706520E-1,-8.652651310E-2,3.772556782E-1,-7.276020050E-1
8.234668690E-1,-1.613041759E-1,4.016847610E-1,-8.274202347E-1
8.314626250E-1,-2.339722812E-1,3.975002766E-1,-8.350400925E-1
8.394576890E-1,-2.983762920E-1,3.760976791E-1,-8.177556992E-1
8.474530600E-1,-3.847326338E-1,3.321995735E-1,-7.231473923E-1
8.554483550E-1,-4.368284345E-1,3.516101837E-1,-6.759243011E-1
8.634452650E-1,-4.141730368E-1,3.979732990E-1,-6.236085892E-1
8.714714040E-1,-3.786241412E-1,4.371137619E-1,-5.520935059E-1
8.794668530E-1,-3.894660473E-1,4.423575401E-1,-4.782552719E-1
8.874615320E-1,-4.545879662E-1,4.493343830E-1,-4.619884491E-1
8.954575180E-1,-5.115956068E-1,4.151778221E-1,-5.222053528E-1
9.034528900E-1,-5.136305690E-1,4.143443108E-1,-5.366096497E-1
9.114498770E-1,-5.722811222E-1,4.067108631E-1,-4.857082367E-1
9.194445550E-1,-6.665102839E-1,4.062001705E-1,-3.601093292E-1
9.274706960E-1,-8.116534352E-1,3.783400059E-1,-1.481399536E-1
9.354658370E-1,-9.759185910E-1,3.341882229E-1,-6.559085846E-2
9.434620540E-1,-1.181631804E0,2.016057968E-1,4.082298279E-2
9.514575020E-1,-1.313381433E0,2.035355568E-1,2.535152435E-2
9.594528740E-1,-1.301627636E0,1.301712990E-1,2.418003082E-1
9.674490910E-1,-1.173874855E0,3.966712952E-2,2.067012787E-1
9.754439240E-1,-9.988041520E-1,-1.934242249E-2,2.169809341E-1
9.834702960E-1,-7.876141071E-1,-9.779930115E-2,1.389608383E-1
9.914666660E-1,-5.798945427E-1,-1.225156784E-1,3.742790222E-2
9.994611150E-1,-3.015104532E-1,-1.256918907E-1,-1.544656754E-1
1.007457025E0,-4.887473583E-2,-2.585554123E-2,-2.358121872E-1
1.015451780E0,1.591222286E-1,6.858682632E-2,-2.740697861E-1
1.023448075E0,3.055171967E-1,1.232604980E-1,-2.207298279E-1
1.031444370E0,3.356453180E-1,3.581953049E-2,-1.023092270E-1
1.039469279E0,2.638601065E-1,-1.138648987E-1,9.512615204E-2
1.047465573E0,1.311401129E-1,-1.895375252E-1,1.488380432E-1
1.055460944E0,-7.728457451E-3,-2.573623657E-1,1.286525726E-1
1.063457008E0,-6.930732727E-2,-2.902712822E-1,1.522026062E-1
1.071452380E0,4.843831062E-3,-3.508687019E-1,2.549867630E-1
1.079447981E0,7.351565361E-2,-4.608550072E-1,3.124265671E-1
1.087443122E0,7.628870010E-2,-4.754729271E-1,3.863859177E-1
1.095468340E0,2.038218975E-1,-5.703620911E-1,4.024276733E-1
1.103464941E0,4.480884075E-1,-6.808571815E-1,3.580083847E-1
1.111460851E0,6.618938446E-1,-6.528911591E-1,2.744941711E-1
1.119456607E0,7.744809389E-1,-6.179146767E-1,2.958269119E-1
1.127451901E0,7.524995804E-1,-6.291375160E-1,2.186450958E-1
1.135446965E0,7.180182338E-1,-6.638112068E-1,6.754779816E-2
1.143473491E0,7.378157973E-1,-7.425298691E-1,6.808567047E-2
1.151469784E0,7.445470691E-1,-8.959584236E-1,1.414747238E-1
1.159464848E0,5.783898234E-1,-1.028665543E0,2.637128830E-1
1.167460220E0,4.126826525E-1,-1.033691883E0,3.387775421E-1
1.175455206E0,3.092453480E-1,-1.079964161E0,5.242853165E-1
1.183451501E0,3.014248610E-1,-1.087006569E0,5.610818863E-1
1.191448411E0,4.325407743E-1,-1.117082596E0,4.252471924E-1
1.199473320E0,5.956517458E-1,-1.081304073E0,3.517379761E-1
1.207468384E0,6.697115302E-1,-1.033359528E0,5.484466553E-1
1.215464448E0,5.499602556E-1,-1.019739628E0,5.791368484E-1
1.223460664E0,4.356092215E-1,-1.047768593E0,4.749536514E-1
1.231456421E0,3.009644747E-1,-1.088024139E0,3.245840073E-1
1.239450792E0,2.131073475E-1,-1.076906204E0,1.518373489E-1
1.247446548E0,2.000385523E-1,-1.070309639E0,1.150169373E-1
1.255441612E0,2.107712030E-1,-1.014451981E0,-6.158828735E-3
1.263468599E0,2.624386549E-1,-9.526233673E-1,-2.036104202E-1
1.271464585E0,4.009215832E-1,-8.169083595E-1,-2.229170799E-1
1.279459418E0,4.864933491E-1,-7.519783974E-1,-1.625208855E-1
1.287455020E0,5.312900543E-1,-7.716584206E-1,-9.243774414E-2
1.295450160E0,4.354884624E-1,-8.021206856E-1,1.322765350E-1
1.303446147E0,2.321425676E-1,-7.942399979E-1,2.096033096E-1
1.311473134E0,-1.248173714E-1,-7.669587135E-1,1.951007843E-1
1.319468197E0,-3.394566774E-1,-8.341403008E-1,4.401111603E-1
1.327463953E0,-3.180849552E-1,-8.538541794E-1,4.082927704E-1
1.335458940E0,-1.016948223E-1,-7.648344040E-1,3.154706955E-1
1.343454388E0,2.334281206E-1,-6.356711388E-1,3.245658875E-1
1.351451298E0,5.567897558E-1,-4.964427948E-1,1.990089417E-1
1.359445131E0,6.758346558E-1,-3.821864128E-1,9.054183960E-2
1.367472117E0,6.574887037E-1,-2.809381485E-1,-3.386306763E-2
1.375468104E0,5.539735556E-1,-2.199711800E-1,-9.063148499E-2
1.383463553E0,4.068188667E-1,-2.023620605E-1,-6.809520721E-2
1.391459231E0,2.450770140E-1,-1.981263161E-1,5.695438385E-2
1.399454295E0,1.254791021E-1,-2.102475166E-1,1.283164024E-1
1.407450282E0,1.294207573E-2,-1.770920753E-1,1.313419342E-1
1.415445268E0,-1.166684628E-1,-1.515135765E-1,1.999130249E-1
1.423471717E0,-2.021281719E-1,-1.187438965E-1,1.976213455E-1
1.431469318E0,-2.111468315E-1,-1.016144753E-1,1.680836678E-1
1.439462536E0,-1.078970432E-1,-4.455852509E-2,1.714859009E-1
1.447458215E0,-1.411139965E-2,-4.889965057E-3,2.295475006E-1
1.455454124E0,-2.969253063E-2,-4.278659821E-3,2.441477776E-1
1.463449573E0,-1.537806988E-1,9.834766388E-3,3.278951645E-1
1.471445483E0,-3.424422741E-1,5.783557892E-3,3.105769157E-1
1.479471623E0,-4.821240902E-1,1.428890228E-2,2.759008408E-1
1.487466379E0,-5.511696339E-1,-3.049850464E-3,2.621302605E-1
1.495461751E0,-5.051009655E-1,-7.880210876E-3,2.667121887E-1
1.503458967E0,-4.867666960E-1,1.175642014E-2,2.773652077E-1
1.511454724E0,-5.283036232E-1,5.677700043E-3,3.202972412E-1
1.519449480E0,-5.035198927E-1,-1.667022705E-3,3.526387215E-1
1.527445158E0,-4.132527113E-1,-7.719039917E-3,3.480019569E-1
1.535471530E0,-3.076584339E-1,-2.478599548E-3,3.378348351E-1
1.543466594E0,-2.804116011E-1,9.546804428E-2,2.148241997E-1
1.551461734E0,-2.352678776E-1,1.525468826E-1,5.172586441E-2
1.559458567E0,-6.006693840E-2,1.838316917E-1,-9.773731232E-3
1.567453631E0,-6.359696388E-3,1.896409988E-1,-9.157991409E-2
1.575449617E0,-1.488423347E-2,1.579923630E-1,7.302761078E-3
1.583444681E0,-4.452037811E-2,1.334500313E-1,1.498684883E-1
1.591471514E0,-2.194213867E-2,1.825652122E-1,1.560468674E-1
1.599466269E0,3.244268894E-2,2.239937782E-1,1.980113983E-1
1.607461641E0,7.892966270E-2,2.073364258E-1,2.634115219E-1
1.615457551E0,1.201961040E-1,2.230615616E-1,3.179092407E-1
1.623453306E0,7.248187065E-2,2.985758781E-1,5.851197243E-1
1.631449832E0,1.293371916E-1,4.891395569E-1,6.540417671E-1
1.639444588E0,2.010260820E-1,7.213802338E-1,9.381346703E-1
1.647470189E0,-2.043926716E-2,8.962140083E-1,1.348205566E0
1.655465561E0,-4.430236816E-1,1.005919456E0,1.960548401E0
1.663461548E0,-6.366230249E-1,9.770474434E-1,2.174300194E0
1.671458072E0,-6.922121048E-1,8.016595840E-1,2.310534477E0
1.679452598E0,-6.845939159E-1,5.414352417E-1,2.360686302E0
1.687448200E0,-5.836454630E-1,3.864254951E-1,2.048182487E0
1.695443956E0,-2.985450029E-1,2.319874763E-1,1.724670410E0
1.703470635E0,5.936622620E-4,5.088710785E-2,1.462230682E0
1.711466699E0,1.654549837E-1,-1.623001099E-1,1.217429161E0
1.719461993E0,5.944728851E-2,-3.477816582E-1,9.351825714E-1
1.727456749E0,-1.905733347E-1,-4.740686417E-1,7.283000946E-1
1.735452736E0,-5.706045628E-1,-5.773687363E-1,4.696722031E-1
1.743447491E0,-8.444087505E-1,-6.788511276E-1,4.155797958E-1
1.751445093E0,-1.023030281E0,-8.279905319E-1,3.626956940E-1
1.759470004E0,-1.090039730E0,-9.859018326E-1,4.040708542E-1
1.767465682E0,-1.258176327E0,-1.044731140E0,4.410781860E-1
1.775460746E0,-1.425396204E0,-1.097605228E0,1.288518906E-1
1.783456733E0,-1.358509541E0,-1.066510677E0,-1.412839890E-1
1.791452334E0,-9.718260765E-1,-1.102876186E0,-2.768144608E-1
1.799447090E0,-5.620253086E-1,-1.135103703E0,-4.201278687E-1
1.807443077E0,-2.098309994E-1,-1.146927357E0,-5.077724457E-1
1.815469525E0,-3.079533577E-2,-1.141214371E0,-6.699509621E-1
1.823464974E0,5.126023293E-2,-1.079415798E0,-9.286661148E-1
1.831462421E0,6.376910210E-2,-1.027401924E0,-1.248126984E0
1.839456024E0,-8.108043671E-2,-9.386057854E-1,-1.556664944E0
1.847452241E0,-4.943542480E-1,-8.926811218E-1,-1.465194225E0
1.855446458E0,-7.421193123E-1,-9.351429939E-1,-1.354377747E0
1.863442984E0,-6.250245571E-1,-1.030343533E0,-1.010871887E0
1.871470432E0,-3.221628666E-1,-1.127529621E0,-7.734246254E-1
1.879465495E0,-1.559658051E-1,-1.117263317E0,-5.660061836E-1
1.887459944E0,-8.624649048E-2,-1.047055721E0,-3.486652374E-1
1.895455854E0,-8.041381836E-2,-9.775080681E-1,-6.725978851E-2
1.903451609E0,-1.009600163E-1,-9.553079605E-1,7.017612457E-2
1.911448135E0,-1.558184624E-2,-9.524769783E-1,2.817621231E-1
1.919441968E0,1.956609488E-1,-9.710817337E-1,4.002361298E-1
1.927468415E0,5.208263397E-1,-8.729462624E-1,4.529867172E-1
1.935463787E0,7.749755383E-1,-6.986756325E-1,2.792472839E-1
1.943459851E0,9.038505554E-1,-4.113645554E-1,2.844533920E-1
1.951455760E0,8.641743660E-1,-1.645307541E-1,5.625448227E-1
1.959451132E0,8.933037519E-1,2.454757690E-2,9.937877655E-1
1.967446272E0,8.663202524E-1,2.259984016E-1,9.962072372E-1
1.975442566E0,8.008267879E-1,3.120884895E-1,1.203157425E0
1.983468322E0,7.635852098E-1,4.471569061E-1,1.494914055E0
1.991464386E0,6.940592527E-1,5.146903992E-1,1.513293266E0
1.999459372E0,7.303463221E-1,5.876932144E-1,1.419839859E0
2.007455129E0,8.755585551E-1,7.664065361E-1,1.432385445E0
2.015449885E0,9.613102078E-1,9.905743599E-1,1.464350700E0
2.023446717E0,9.365610480E-1,1.214159489E0,1.532062531E0
2.031443012E0,7.752605081E-1,1.395463228E0,1.359716415E0
2.039468230E0,6.558486223E-1,1.641191483E0,1.157293320E0
2.047463600E0,6.376864910E-1,1.896738052E0,8.706417084E-1
2.055459972E0,5.917012095E-1,2.120475531E0,7.840576172E-1
2.063455266E0,4.171634912E-1,2.359838486E0,5.683126450E-1
2.071451637E0,3.281011581E-1,2.493871927E0,3.551540375E-1
2.079445778E0,3.472101688E-1,2.589619160E0,1.371507645E-1
2.087471919E0,3.971170783E-1,2.657097816E0,3.213977814E-2
2.095466674E0,3.931493163E-1,2.786010742E0,-4.077024460E-1
2.103463277E0,2.713929415E-1,2.873467445E0,-7.974781990E-1
2.111460110E0,2.023885250E-1,2.941388130E0,-1.026279449E0
2.119454557E0,1.979898214E-1,2.998449564E0,-1.291768551E0
2.127449390E0,2.473887801E-1,3.090924263E0,-1.609600067E0
2.135444993E0,3.496338129E-1,3.117844105E0,-1.680623055E0
2.143441363E0,3.282927275E-1,3.091093540E0,-1.720187664E0
2.151468966E0,1.728456020E-1,2.964227676E0,-1.654278755E0
2.159462798E0,-1.393085122E-1,2.743113041E0,-1.255869865E0
2.167458477E0,-6.106715202E-1,2.618076563E0,-9.133753777E-1
2.175454157E0,-1.050175786E0,2.355313301E0,-4.504022598E-1
2.183449835E0,-1.259988785E0,2.044203758E0,-3.681793213E-1
2.191446514E0,-1.358653307E0,1.523715973E0,3.202152252E-2
2.199471348E0,-1.351905107E0,1.029570103E0,8.394145966E-2
2.207466410E0,-1.480484724E0,7.312872410E-1,2.234172821E-1
2.215462167E0,-1.651414871E0,5.678372383E-1,6.386184692E-2
2.223457846E0,-1.768056631E0,5.813374519E-1,-2.013778687E-2
2.231454371E0,-1.635534286E0,6.028943062E-1,-1.360111237E-1
2.239449742E0,-1.374467969E0,6.616203785E-1,-4.432754517E-1
2.247445806E0,-1.182142019E0,6.435501575E-1,-5.934371948E-1
2.255439869E0,-1.110394359E0,5.788717270E-1,-4.960908890E-1
2.263466702E0,-1.150622606E0,4.211149216E-1,-4.175405502E-1
2.271463228E0,-1.174391270E0,8.496761322E-2,-2.315416336E-1
2.279457983E0,-1.186632872E0,-3.614850044E-1,-1.961307526E-1
2.287453970E0,-1.217567682E0,-7.180781364E-1,-1.345348358E-2
2.295448418E0,-1.126667261E0,-1.058858871E0,2.345466614E-2
2.303444712E0,-9.320706129E-1,-1.210672855E0,7.132530212E-3
2.311441007E0,-7.856201530E-1,-1.262165070E0,-1.859264374E-1
2.319465994E0,-8.315841556E-1,-1.251561642E0,-3.042325974E-1
2.327462288E0,-8.416062593E-1,-1.254417419E0,-6.287965775E-1
2.335456659E0,-5.242641568E-1,-1.320614338E0,-7.140669823E-1
2.343453339E0,-1.377259493E-1,-1.335336208E0,-8.238086700E-1
2.351449017E0,1.474131346E-1,-1.350231171E0,-7.773003578E-1
2.359444696E0,2.009368539E-1,-1.352768898E0,-7.503809929E-1
2.367470222E0,5.669558048E-2,-1.462612629E0,-6.098957062E-1
2.375465823E0,-5.650186539E-2,-1.615427017E0,-3.177480698E-1
2.383461579E0,-6.087422371E-2,-1.720083714E0,-1.552524567E-1
2.391457874E0,1.240224242E-1,-1.657963753E0,-6.648006439E-1
2.399452629E0,6.452913284E-1,-1.473338127E0,-6.346397400E-1
2.407448616E0,1.060947299E0,-1.336019516E0,-6.779370308E-1
2.415444219E0,1.052201986E0,-1.290406227E0,-8.056216240E-1
2.423470359E0,8.767415285E-1,-1.369487286E0,-7.257962227E-1
2.431466115E0,7.999664545E-1,-1.477324486E0,-6.834363937E-1
2.439461487E0,8.890365958E-1,-1.509177685E0,-6.429882050E-1
2.447457396E0,1.262638092E0,-1.462907314E0,-6.025714874E-1
2.455451613E0,1.507435799E0,-1.386878967E0,-5.458617210E-1
2.463448216E0,1.574256063E0,-1.293900967E0,-4.684891701E-1
2.471444202E0,1.539988637E0,-1.257088184E0,-3.615112305E-1
2.479470266E0,1.539273977E0,-1.277121067E0,-2.900662422E-1
2.487465714E0,1.492581844E0,-1.353930950E0,-8.810520172E-2
2.495461008E0,1.322081804E0,-1.300690651E0,2.406692505E-2
2.503456764E0,1.294296741E0,-1.149385452E0,-2.240552902E-1
2.511453367E0,1.493963718E0,-8.255071640E-1,-1.176426888E0
2.519448430E0,1.226408362E0,-6.453781128E-1,-8.503246307E-2
2.527443186E0,1.022734046E0,-6.968832016E-1,3.041114807E-1
2.535469018E0,1.133842468E0,-8.070464134E-1,3.996815681E-1
2.543464928E0,1.254836082E0,-7.727284431E-1,3.274073601E-1
2.551461915E0,1.233711600E0,-5.358271599E-1,3.749971390E-1
2.559455978E0,1.241328955E0,-2.419095039E-1,4.015765190E-1
2.567451965E0,1.477322936E0,-9.989166260E-2,6.126804352E-1
2.575447106E0,1.624385357E0,-2.429723740E-2,6.127157211E-1
2.583443323E0,1.767176867E0,1.099805832E-1,5.935907364E-1
2.591469541E0,1.799798727E0,3.274579048E-1,5.892205238E-1
2.599464835E0,1.755073667E0,5.054554939E-1,7.308611870E-1
2.607459360E0,1.594197392E0,6.027679443E-1,8.672809601E-1
2.615455347E0,1.467413425E0,6.075692177E-1,1.089519978E0
2.623451872E0,1.288572788E0,7.404179573E-1,1.093702316E0
2.631447935E0,1.081503868E0,9.239888191E-1,1.255194664E0
2.639442691E0,8.328083754E-1,1.233591557E0,1.304926395E0
2.647469063E0,7.250225544E-1,1.545165539E0,1.143448353E0
2.655465126E0,7.561888099E-1,1.862383366E0,1.131669521E0
2.663459882E0,8.130252361E-1,2.150641441E0,8.676671982E-1
2.671456177E0,8.413163424E-1,2.336627722E0,1.044443130E0
2.679451548E0,8.880859613E-1,2.570634842E0,6.678209305E-1
2.687446535E0,8.523511887E-1,2.757474661E0,4.103260040E-1
2.695441676E0,9.247348905E-1,2.888528347E0,4.256982803E-1
2.703468123E0,1.234560490E0,2.796475887E0,4.124364853E-1
2.711465879E0,1.347193599E0,2.650768757E0,6.666097641E-1
2.719459482E0,1.063430190E0,2.865851641E0,5.118694305E-1
2.727454775E0,5.706394911E-1,3.065873623E0,-5.309963226E-2
2.735450532E0,9.212523699E-2,3.012425423E0,2.910223007E-1
2.743446519E0,1.582342386E-1,2.754202127E0,3.877878189E-1
2.751442428E0,8.946633339E-2,2.553401232E0,2.811651230E-1
2.759467953E0,-2.935616374E-1,2.362013340E0,5.776338577E-1
2.767463940E0,-7.011926770E-1,2.196502209E0,6.114749908E-1
2.775458465E0,-1.187835455E0,1.997575045E0,6.080284119E-1
2.783455375E0,-1.626229286E0,1.799439669E0,5.796470642E-1
2.791451285E0,-1.916747332E0,1.540265083E0,4.321641922E-1
2.799446348E0,-1.837967992E0,1.233350039E0,3.389844894E-1
2.807441181E0,-1.652750850E0,9.610962868E-1,3.929061890E-1
2.815467245E0,-1.580617189E0,6.992352009E-1,4.045257568E-1
2.823462923E0,-1.638548374E0,5.776503086E-1,2.816934586E-1
2.831459833E0,-1.586952806E0,4.834029675E-1,1.375780106E-1
2.839454590E0,-1.390262246E0,2.913050652E-1,1.823015213E-1
2.847450037E0,-1.163307190E0,1.513767242E-2,3.621292114E-2
2.855445024E0,-1.205057859E0,-2.275190353E-1,2.241802216E-2
2.863441088E0,-1.335711837E0,-4.539766312E-1,1.261720657E-1
2.871468690E0,-1.468866348E0,-7.586369514E-1,1.543207169E-1
2.879462907E0,-1.572416425E0,-1.045438290E0,1.711158752E-1
2.887458818E0,-1.609985352E0,-1.268400192E0,-2.277717590E-1
2.895454573E0,-1.698159218E0,-1.278526306E0,-6.735887527E-1
2.903450175E0,-1.575675011E0,-1.218631268E0,-7.573986053E-1
2.911446238E0,-1.156639338E0,-1.219279289E0,-7.883377075E-1
2.919440687E0,-8.620338440E-1,-1.215885639E0,-8.789138794E-1
2.927467135E0,-7.321552634E-1,-1.178126812E0,-9.540662766E-1
2.935462506E0,-6.677371264E-1,-1.201505661E0,-7.443571091E-1
2.943458416E0,-6.171120405E-1,-1.257326126E0,-4.820652008E-1
2.951454403E0,-5.825708508E-1,-1.276264191E0,-4.473466873E-1
2.959449235E0,-5.168008804E-1,-1.261278152E0,-3.748140335E-1
2.967444914E0,-3.577085137E-1,-1.225255966E0,-3.033332825E-1
2.975471363E0,-2.112547308E-1,-1.146016121E0,-2.781801224E-1
2.983466964E0,-3.856441379E-2,-1.077638626E0,-3.946752548E-1
2.991463336E0,9.039740264E-2,-1.017400742E0,-5.675773621E-1
2.999457785E0,1.946699768E-1,-1.051853657E0,-5.408830643E-1
3.007453463E0,2.272376418E-1,-1.149750710E0,-6.017947197E-1
3.015448450E0,2.560221255E-1,-1.257574558E0,-4.901571274E-1
3.023444206E0,2.642073631E-1,-1.278379440E0,-4.508752823E-1
3.031441346E0,2.465044260E-1,-1.279370308E0,-4.218406677E-1
3.039466564E0,2.905420065E-1,-1.271564007E0,-4.815692902E-1
3.047462320E0,3.932014704E-1,-1.282964706E0,-5.650224686E-1
3.055457075E0,5.199180841E-1,-1.329981804E0,-5.810270309E-1
3.063453370E0,5.855682492E-1,-1.389607430E0,-5.157327652E-1
3.071449588E0,5.785012245E-1,-1.423439503E0,-5.509834290E-1
3.079444112E0,6.746739149E-1,-1.429086208E0,-5.550856590E-1
3.087440099E0,8.043746352E-1,-1.454589844E0,-5.592718124E-1
3.095465548E0,9.110766649E-1,-1.436937332E0,-6.014075279E-1
3.103461534E0,9.439271688E-1,-1.332390785E0,-6.691012383E-1
3.111458444E0,9.531779289E-1,-1.236106873E0,-6.853175163E-1
3.119452970E0,1.059651494E0,-1.089883327E0,-7.428989410E-1
3.127448340E0,1.177363873E0,-1.019071579E0,-5.015435219E-1
3.135444558E0,1.336092949E0,-1.034038544E0,-4.813141823E-1
3.143439930E0,1.423142910E0,-1.011464119E0,-5.209708214E-1
3.151466146E0,1.419768929E0,-8.875303268E-1,-6.385436058E-1
3.159460903E0,1.387117982E0,-7.124886513E-1,-6.711416245E-1
3.167457120E0,1.450198770E0,-6.264314651E-1,-5.692858696E-1
3.175451645E0,1.524976969E0,-5.392327309E-1,-4.771904945E-1
3.183447632E0,1.512837648E0,-5.222015381E-1,-2.837128639E-1
3.191444773E0,1.445392370E0,-5.490355492E-1,-2.750873566E-3
3.199469067E0,1.209850073E0,-5.627231598E-1,1.568303108E-1
3.207464746E0,9.341260791E-1,-6.442375183E-1,2.740216255E-1
3.215460810E0,7.559782267E-1,-5.419478416E-1,1.088337898E-1
3.223456488E0,7.557861209E-1,-3.991045952E-1,2.217564583E-1
3.231453091E0,8.344783187E-1,-2.684631348E-1,2.393455505E-1
3.239447847E0,9.132483006E-1,-1.152548790E-1,7.418298721E-2
3.247443217E0,8.885942698E-1,1.503086090E-2,1.045942307E-1
3.255438281E0,9.109145999E-1,2.097001076E-1,2.386822701E-1
3.263465652E0,8.945715427E-1,3.218307495E-1,4.135122299E-1
3.271461870E0,9.175442457E-1,4.006237984E-1,5.108685493E-1
3.279456088E0,8.791250587E-1,5.226974487E-1,5.116209984E-1
3.287451766E0,9.654574394E-1,6.544423103E-1,5.187239647E-1
3.295447061E0,1.131643772E0,8.833856583E-1,6.201705933E-1
3.303442740E0,1.189831734E0,1.067683697E0,6.577067375E-1
3.311439418E0,1.190611601E0,1.275730133E0,6.522240639E-1
3.319464867E0,1.297553778E0,1.413675785E0,5.103616714E-1
3.327460238E0,1.357750177E0,1.493630409E0,3.141384125E-1
3.335455686E0,1.266312361E0,1.696165562E0,4.531154633E-1
3.343451365E0,1.192246079E0,1.834035397E0,5.766329765E-1
3.351448275E0,1.171608686E0,1.901861906E0,5.343637466E-1
3.359442954E0,9.012563229E-1,2.007654667E0,2.093563080E-1
3.367468556E0,5.006122589E-1,2.202566385E0,7.220706940E-1
3.375464466E0,4.013727903E-1,2.418210506E0,6.916055679E-1
3.383460452E0,4.562029839E-1,2.439253807E0,8.999710083E-1
3.391456439E0,3.936669827E-1,2.410559654E0,1.100929260E0
3.399450888E0,1.627225876E-1,2.266692162E0,1.364307404E0
3.407446874E0,-6.821453571E-2,1.959439039E0,1.447956085E0
3.415441630E0,-4.834301472E-1,1.722053766E0,1.421949387E0
3.423468771E0,-9.520128965E-1,1.764239311E0,1.051270485E0
3.431464757E0,-1.266481638E0,1.823888779E0,7.982358932E-1
3.439460052E0,-1.257333994E0,1.630716801E0,7.580766678E-1
3.447455193E0,-1.271336436E0,1.314779520E0,6.564950943E-1
3.455451486E0,-1.555586934E0,1.038042545E0,5.612277985E-1
3.463446166E0,-1.966467738E0,9.090652466E-1,2.558364868E-1
3.471442460E0,-2.236433983E0,7.633399963E-1,1.020574570E-1
3.479467754E0,-2.242356777E0,6.213357449E-1,-2.950668335E-2
3.487463664E0,-2.093765974E0,3.787484169E-1,-4.566669464E-2
3.495459113E0,-1.996032238E0,2.198243141E-1,2.614593506E-2
3.503454791E0,-1.958088398E0,7.521533966E-2,1.678695679E-1
3.511451701E0,-1.798522234E0,-1.106023788E-1,2.667579651E-1
3.519445765E0,-1.499214649E0,-2.367324829E-1,2.727422714E-1
3.527442059E0,-1.172014475E0,-3.023157120E-1,1.935043335E-1
3.535467277E0,-8.907979131E-1,-4.340548515E-1,2.976369858E-1
3.543463340E0,-6.128734350E-1,-6.439175606E-1,1.947631836E-1
3.551459557E0,-5.647530556E-1,-8.830866814E-1,6.726264954E-3
3.559454929E0,-7.534797192E-1,-1.004672050E0,-3.362283707E-1
3.567449993E0,-1.030754924E0,-1.065506935E0,-4.917507172E-1
3.575445133E0,-1.077179909E0,-1.046607494E0,-5.792999268E-1
3.583441120E0,-1.021604657E0,-1.028536320E0,-5.414133072E-1
3.591468414E0,-9.572671652E-1,-1.066638470E0,-5.885047913E-1
3.599463170E0,-9.529789090E-1,-1.123014450E0,-6.727542877E-1
3.607459234E0,-8.803941011E-1,-1.171934128E0,-6.842641830E-1
3.615454298E0,-7.059387565E-1,-1.191852093E0,-7.594966888E-1
3.623449976E0,-5.633532405E-1,-1.173123360E0,-7.942504883E-1
3.631445963E0,-4.742671549E-1,-1.120026112E0,-8.254804611E-1
3.639440719E0,-3.384249508E-1,-1.104209423E0,-6.065807343E-1
3.647467167E0,-2.161058635E-1,-1.163757801E0,-4.582290649E-1
3.655461846E0,-1.254182309E-1,-1.187526703E0,-4.756555557E-1
3.663458217E0,-1.472659111E-1,-1.234903812E0,-4.432458878E-1
3.671454511E0,-1.491599679E-1,-1.235934258E0,-4.757423401E-1
3.679449268E0,-4.731127620E-2,-1.254842758E0,-5.226860046E-1
3.687444869E0,8.664938807E-2,-1.260013580E0,-5.670895576E-1
3.695471625E0,3.336223364E-1,-1.175081730E0,-7.250628471E-1
3.703467305E0,6.250910759E-1,-1.140053272E0,-8.856892586E-1
3.711463368E0,8.591065407E-1,-1.113717079E0,-9.767293930E-1
3.719458124E0,9.668077826E-1,-1.122612476E0,-1.029326916E0
3.727453495E0,1.014384985E0,-1.114117146E0,-9.179773331E-1
3.735448558E0,9.714466333E-1,-1.100625038E0,-7.282395363E-1
3.743444776E0,7.889987826E-1,-1.076695442E0,-5.930447578E-1
3.751441763E0,5.876412392E-1,-1.102241039E0,-5.318188667E-1
3.759466672E0,5.061761141E-1,-1.145135403E0,-5.153117180E-1
3.767462044E0,5.357702971E-1,-1.163641453E0,-3.768353462E-1
3.775456492E0,6.080280542E-1,-1.110839367E0,-4.553866386E-1
3.783453402E0,5.547142625E-1,-9.708485603E-1,-4.890308380E-1
3.791449927E0,5.155672431E-1,-8.834013939E-1,-5.893354416E-1
3.799444683E0,6.877954006E-1,-8.110055923E-1,-4.982051849E-1
3.807440054E0,7.967280149E-1,-7.888441086E-1,-5.670199394E-1
3.815465349E0,6.785098314E-1,-6.844196320E-1,-5.941419601E-1
3.821447493E0,5.632665157E-1,-6.495122910E-1,-5.515985489E-1
3.823461259E0,5.441128612E-1,-6.471180916E-1,-5.515985489E-1
3.831458552E0,5.961729288E-1,-6.107292175E-1,-4.279565811E-1
3.839452924E0,7.083756328E-1,-5.861883163E-1,-2.791671753E-1
3.847448065E0,7.536225915E-1,-5.672020912E-1,-1.585550308E-1
3.855443666E0,7.994484901E-1,-5.417642593E-1,-9.968709946E-2
3.863440346E0,8.503403664E-1,-4.565615654E-1,-8.056449890E-2
3.871466179E0,8.811655045E-1,-4.120402336E-1,-1.022720337E-2
3.879461857E0,8.987119794E-1,-3.897647858E-1,1.082410812E-1
3.887457229E0,9.412413836E-1,-3.387827873E-1,7.896804810E-2
3.895451908E0,9.348684549E-1,-2.441382408E-1,1.246452332E-2
3.903448202E0,9.965830445E-1,-1.828193665E-1,9.998130798E-2
3.911445112E0,1.165534735E0,-6.582260132E-2,-2.560615540E-4
3.919439561E0,1.204980969E0,7.130384445E-2,-3.400230408E-2
3.927465162E0,1.205399990E0,2.374844551E-1,-2.320957184E-2
3.935460457E0,1.142277956E0,3.601269722E-1,9.607219696E-2
3.943456444E0,1.122733831E0,4.356541634E-1,2.868971825E-1
3.951453353E0,1.078418016E0,5.207700729E-1,3.953680992E-1
3.959447571E0,9.946224093E-1,5.387115479E-1,6.653699875E-1
3.967443173E0,8.381022811E-1,5.303301811E-1,6.827840805E-1
3.975438005E0,7.667180300E-1,5.323715210E-1,7.858414650E-1
3.983464761E0,7.383396626E-1,5.929279327E-1,8.360204697E-1
3.991461363E0,7.845377326E-1,7.264628410E-1,7.857918739E-1
3.999456119E0,7.942839861E-1,9.034709930E-1,7.161712646E-1
4.007451491E0,7.869806290E-1,1.158719540E0,6.551141739E-1
4.015446554E0,8.380447626E-1,1.338426590E0,7.386541367E-1
4.023443387E0,8.753829002E-1,1.480445385E0,7.200441360E-1
4.031440605E0,8.253282309E-1,1.560645103E0,6.878347397E-1
4.039465206E0,6.601619720E-1,1.582701206E0,9.274969101E-1
4.047460578E0,3.370033503E-1,1.642622471E0,9.456930161E-1
4.055454795E0,2.847206593E-2,1.680661440E0,9.145450592E-1
4.063451628E0,-3.221178055E-2,1.629890203E0,1.166050911E0
4.071448230E0,-1.545754671E-1,1.709803820E0,1.113670349E0
4.079442679E0,-2.397094965E-1,1.779319763E0,1.097859383E0
4.087438126E0,-3.371822834E-1,1.941984415E0,1.069991112E0
4.095465113E0,-4.814128280E-1,2.015321732E0,1.013320923E0
4.103459562E0,-7.716616988E-1,2.055518627E0,9.999361038E-1
4.111455548E0,-9.979115129E-1,2.048916817E0,1.015357971E0
4.119451227E0,-1.030909061E0,1.935029030E0,8.955678940E-1
4.127446906E0,-9.568594098E-1,1.828722954E0,8.817930222E-1
4.135441431E0,-1.015694141E0,1.733884335E0,9.150705338E-1
4.143437649E0,-1.234127998E0,1.639159203E0,9.163579941E-1
4.151464174E0,-1.469987035E0,1.456105232E0,1.032834053E0
4.159460160E0,-1.542296171E0,1.192260504E0,1.048402786E0
4.167455224E0,-1.600224257E0,9.244828224E-1,9.562311172E-1
4.175451134E0,-1.653162241E0,8.092160225E-1,8.561868668E-1
4.183446505E0,-1.733810544E0,7.058787346E-1,6.466121674E-1
4.191442569E0,-1.767248154E0,6.511235237E-1,4.414663315E-1
4.199468094E0,-1.633953094E0,5.985541344E-1,2.307300568E-1
4.207464311E0,-1.433496714E0,5.032138824E-1,-1.049509048E-1
4.215459067E0,-1.231278300E0,3.760292530E-1,-3.806161880E-1
4.223455054E0,-1.048910379E0,1.558959484E-1,-5.530643463E-1
4.231451348E0,-8.270890117E-1,-6.745958328E-2,-6.449356079E-1
4.239446104E0,-6.316606998E-1,-3.310472965E-1,-7.434434891E-1
4.247441245E0,-6.212754846E-1,-6.072599888E-1,-7.324609756E-1
4.255436923E0,-7.192971706E-1,-8.920199871E-1,-6.584577560E-1
4.263463372E0,-7.560932040E-1,-1.194039583E0,-6.507120132E-1
4.271460282E0,-7.121127248E-1,-1.395576715E0,-5.724973679E-1
4.279454960E0,-7.248877883E-1,-1.570115089E0,-5.118217468E-1
4.287450332E0,-7.943260670E-1,-1.658025026E0,-3.440675735E-1
4.295445165E0,-9.370194674E-1,-1.724703312E0,-5.838871002E-1
4.303441459E0,-1.053934336E0,-1.702497005E0,-8.893394470E-1
4.311467600E0,-9.706170559E-1,-1.671464920E0,-9.660186768E-1
4.319462587E0,-6.313413382E-1,-1.614766121E0,-9.653329849E-1
4.327458957E0,-3.752361238E-1,-1.581118107E0,-9.616994858E-1
4.335454560E0,-2.158174366E-1,-1.578716278E0,-9.556789398E-1
4.343449393E0,-1.579428464E-1,-1.520679951E0,-1.032029629E0
4.351445687E0,-8.657701313E-2,-1.516934872E0,-1.083024979E0
4.359441366E0,1.896888018E-3,-1.498180389E0,-1.022570133E0
4.367466275E0,7.198385894E-2,-1.476113796E0,-8.840341568E-1
4.375462185E0,9.010741115E-2,-1.510066986E0,-7.197661400E-1
4.383458172E0,5.559869111E-2,-1.481247425E0,-6.454348564E-1
4.391455081E0,-3.562614322E-2,-1.454546928E0,-6.469802856E-1
4.399448915E0,5.226951838E-2,-1.368549347E0,-6.829133034E-1
4.407445286E0,2.206190228E-1,-1.279541492E0,-7.118821144E-1
4.415440272E0,5.474699736E-1,-1.286709785E0,-6.195888519E-1
4.423466182E0,7.644668221E-1,-1.319614410E0,-4.859662056E-1
4.431463939E0,8.840254545E-1,-1.299518108E0,-4.789190292E-1
4.439458386E0,9.121968746E-1,-1.206860542E0,-4.211850166E-1
4.447453758E0,1.080964088E0,-1.228175640E0,-2.185163498E-1
4.455448899E0,1.364825130E0,-1.315299988E0,-1.129150391E-2
4.463444885E0,1.490110517E0,-1.294295788E0,-3.805065155E-2
4.471441487E0,1.434793949E0,-1.104142666E0,-2.175407410E-1
4.479466628E0,1.386541843E0,-8.329901695E-1,-3.563504219E-1
4.487461383E0,1.495735168E0,-5.959935188E-1,-5.151743889E-1
4.495457370E0,1.633879066E0,-5.146470070E-1,-5.545926094E-1
4.503453357E0,1.645242929E0,-4.739365578E-1,-6.324267387E-1
4.511449959E0,1.535175920E0,-4.795756340E-1,-5.673475266E-1
4.519444407E0,1.353095770E0,-5.116558075E-1,-4.132828712E-1
4.527440471E0,1.197621107E0,-5.431008339E-1,-2.433824539E-1
4.535465688E0,1.033044100E0,-5.069971085E-1,-1.703429222E-1
4.543461983E0,8.678310513E-1,-3.265256882E-1,-1.557054520E-1
4.551457970E0,8.230212927E-1,-2.033224106E-1,1.567506790E-2
4.559452725E0,8.278489113E-1,-1.692976952E-1,1.350159645E-1
4.567448635E0,9.163793921E-1,-2.063245773E-1,3.810729980E-1
4.575442853E0,1.070021152E0,-1.703057289E-1,3.975610733E-1
4.583439685E0,1.207902431E0,-6.028556824E-2,2.907004356E-1
4.591466441E0,1.136008024E0,1.140346527E-1,3.594741821E-1
4.599461197E0,1.096188188E0,1.385283470E-1,6.097769737E-1
4.607456876E0,1.149141550E0,1.281433105E-1,7.134518623E-1
4.615451709E0,1.233705401E0,1.889066696E-1,6.974201202E-1
4.623447696E0,1.233017564E0,3.162107468E-1,5.452580452E-1
4.631444605E0,1.108259916E0,4.093866348E-1,4.628434181E-1
4.639439054E0,7.909342051E-1,4.783415794E-1,3.928318024E-1
4.647465117E0,6.380693913E-1,5.260443687E-1,3.403830528E-1
4.655460873E0,5.904146433E-1,4.768142700E-1,4.138092995E-1
4.663455937E0,6.318911314E-1,4.238729477E-1,5.294399261E-1
4.671453078E0,5.195786953E-1,5.053200722E-1,6.438007355E-1
4.679448756E0,3.199150562E-1,7.887268066E-1,5.976729393E-1
4.687443281E0,2.687137127E-1,8.979244232E-1,5.535311699E-1
4.695438576E0,3.183236122E-1,9.358968735E-1,5.138111115E-1
4.703464793E0,3.182932138E-1,1.017002583E0,5.978288651E-1
4.711461703E0,3.354812860E-1,1.107330322E0,6.713438034E-1
4.719456152E0,3.386807442E-1,1.239369392E0,6.308183670E-1
4.727452061E0,3.350570202E-1,1.388447285E0,6.195564270E-1
4.735446817E0,3.378130198E-1,1.549101114E0,5.752429962E-1
4.743443188E0,3.679770231E-1,1.642454386E0,5.796871185E-1
4.751438790E0,3.640491962E-1,1.675468445E0,5.290460587E-1
4.759464392E0,3.032871485E-1,1.739208698E0,5.852394104E-1
4.767460071E0,1.086909771E-1,1.886363745E0,4.477844238E-1
4.775455365E0,-1.639645100E-1,2.122758389E0,2.330636978E-1
4.783451122E0,-3.177689314E-1,2.396864891E0,2.000646591E-1
4.791448261E0,-4.212112427E-1,2.535675287E0,2.671298981E-1
4.799442787E0,-6.566326022E-1,2.494679689E0,3.974905014E-1
4.807438389E0,-9.746484756E-1,2.314280033E0,6.084423065E-1
4.815465452E0,-1.199404478E0,1.874604940E0,1.193303108E0
4.823460516E0,-1.277034521E0,1.279173613E0,1.377952576E0
4.831456196E0,-1.551488876E0,9.717578888E-1,1.403498650E0
4.839450720E0,-2.031871796E0,9.426727295E-1,1.136725426E0
4.847446630E0,-2.283574581E0,9.489030838E-1,9.151840210E-1
4.855442309E0,-2.289079189E0,8.795480728E-1,7.308740616E-1
4.863438603E0,-2.159006357E0,7.162809372E-1,4.590654373E-1
4.871465359E0,-2.148581028E0,5.520372391E-1,1.740942001E-1
4.879460193E0,-2.196407080E0,4.304559231E-1,-1.434984207E-1
4.887454948E0,-2.147689104E0,3.290929794E-1,-2.673177719E-1
4.895451166E0,-1.916600943E0,1.347181797E-1,-3.580274582E-1
4.903446306E0,-1.618612647E0,3.075599670E-5,-4.518365860E-1
4.911443216E0,-1.410181880E0,-1.259543896E-1,-5.064296722E-1
4.919437664E0,-1.244085312E0,-2.224752903E-1,-5.825405121E-1
4.927464036E0,-1.069506168E0,-3.117763996E-1,-7.120580673E-1
4.935459176E0,-7.770166397E-1,-4.134895802E-1,-8.379898071E-1
4.943455163E0,-5.527756810E-1,-5.351591110E-1,-9.152612686E-1
4.951451688E0,-2.275603712E-1,-8.632326126E-1,-4.508981705E-1
4.959446136E0,5.762100220E-3,-1.291006804E0,-3.205976486E-1
4.967441892E0,-1.338500679E-1,-1.576590538E0,-5.649471283E-2
4.975436879E0,-3.461650908E-1,-1.739134550E0,-1.301746368E-1
4.983463019E0,-4.563861489E-1,-1.836333275E0,-1.087627411E-1
4.991460621E0,-4.708442688E-1,-1.982599258E0,-1.879081726E-1
4.999454377E0,-4.588470757E-1,-2.107115269E0,-2.148113251E-1
5.007450440E0,-4.938218594E-1,-2.154668331E0,-3.163414001E-1
5.015445120E0,-5.036990643E-1,-2.141451836E0,-3.965187073E-1
5.023441491E0,-5.012925267E-1,-2.054960251E0,-6.024713516E-1
5.031437708E0,-3.115173578E-1,-1.884140968E0,-8.485760689E-1
5.039463541E0,-4.038016126E-2,-1.716897488E0,-1.175179005E0
5.047458682E0,3.495035470E-1,-1.551726341E0,-1.334692478E0
5.055454668E0,6.110903025E-1,-1.458865643E0,-1.372663498E0
5.063450578E0,8.214527965E-1,-1.448258877E0,-1.198014259E0
5.071446335E0,9.280629158E-1,-1.520376205E0,-1.012030125E0
5.079441013E0,9.127526879E-1,-1.565411568E0,-9.167189598E-1
5.087436692E0,8.861540556E-1,-1.588757992E0,-7.223057747E-1
5.095462217E0,8.727421761E-1,-1.611144543E0,-5.998563766E-1
5.103458511E0,8.628344536E-1,-1.600721359E0,-4.476127625E-1
5.111455422E0,9.224851727E-1,-1.529857159E0,-2.353363037E-1
5.119449638E0,1.027098060E0,-1.437065125E0,-2.683486938E-1
5.127445625E0,1.245219469E0,-1.345318794E0,-3.986134529E-1
5.135441843E0,1.375127792E0,-1.280018806E0,-3.933205605E-1
5.143466752E0,1.517477036E0,-1.209001541E0,-4.553036690E-1
5.151462739E0,1.695838928E0,-1.150125504E0,-3.578233719E-1
5.159458419E0,1.901429176E0,-1.063242912E0,-2.999634743E-1
5.167453558E0,2.181083441E0,-9.978647232E-1,-1.487646103E-1
5.175448315E0,2.268486023E0,-9.356403351E-1,-5.332469940E-2
5.183444917E0,2.173138142E0,-8.428759575E-1,1.498794556E-2
5.191440826E0,2.042400360E0,-7.251820564E-1,2.492227554E-1
5.199466352E0,1.917831182E0,-5.779552460E-1,4.192075729E-1
5.207461800E0,1.704171658E0,-4.056978226E-1,5.752534866E-1
5.215457171E0,1.506209612E0,-1.608228683E-1,3.671264648E-1
5.223453081E0,1.547824383E0,1.260643005E-1,5.326623917E-1
5.231449068E0,1.771082520E0,4.351878166E-1,6.622858047E-1
5.239444823E0,1.987241268E0,7.270355225E-1,8.463983536E-1
5.247439887E0,1.952162623E0,1.036650658E0,6.420335770E-1
5.255465951E0,1.769621134E0,1.284718990E0,6.668167114E-1
5.263461014E0,1.456151962E0,1.511386871E0,4.561796188E-1
5.271458847E0,1.149876356E0,1.756246567E0,4.617366791E-1
5.279452757E0,8.450959921E-1,2.061621428E0,4.969072342E-1
5.287448666E0,6.400009394E-1,2.322259903E0,5.362834930E-1
5.295444653E0,3.931499720E-1,2.614040852E0,4.754009247E-1
5.303440025E0,6.213223934E-2,2.844464064E0,5.310382843E-1
5.311435780E0,-2.366299629E-1,2.924226761E0,4.579954147E-1
5.319461537E0,-5.321174860E-1,2.887769699E0,4.631805420E-1
5.327457293E0,-6.218200326E-1,2.639431238E0,6.417388916E-1
5.335452048E0,-4.551565647E-1,2.085746527E0,9.427661896E-1
5.343448881E0,-3.601959944E-1,1.713656425E0,7.629022598E-1
5.351444561E0,-5.411230922E-1,1.582599163E0,6.721010208E-1
5.359439623E0,-9.009743929E-1,1.532497406E0,3.699903488E-1
5.367466072E0,-1.034546137E0,1.443503857E0,6.173706055E-2
5.375461213E0,-1.086365223E0,1.211766243E0,-1.203851700E-1
5.383456814E0,-1.141791224E0,8.867397308E-1,-6.060028076E-2
5.391453109E0,-1.433992028E0,5.816290379E-1,-2.542114258E-2
5.399448173E0,-1.943785906E0,3.242690563E-1,-2.248439789E-1
5.407443928E0,-2.323272705E0,1.285562515E-1,-4.781761169E-1
5.415438300E0,-2.425062656E0,-1.219663620E-1,-7.151451111E-1
5.423465671E0,-2.186587095E0,-3.944420815E-1,-8.230056763E-1
5.431461658E0,-1.825244665E0,-6.513237953E-1,-8.495588303E-1
5.439455491E0,-1.635477781E0,-7.927765846E-1,-9.984922409E-1
5.447451785E0,-1.524163604E0,-8.769063950E-1,-1.050165653E0
5.455447156E0,-1.394850373E0,-1.040679932E0,-1.043467045E0
5.463442220E0,-1.203131557E0,-1.251979828E0,-8.370246887E-1
5.471439130E0,-9.139315486E-1,-1.587347984E0,-6.093082428E-1
5.479465039E0,-7.364989519E-1,-1.795921326E0,-5.411319733E-1
5.487460411E0,-6.460629702E-1,-1.834657192E0,-5.028553009E-1
5.495455166E0,-4.158190489E-1,-1.814750195E0,-4.872961044E-1
5.503451999E0,-3.363883495E-2,-1.861155987E0,-4.605665207E-1
5.511448371E0,4.546582103E-1,-2.021068573E0,-3.329038620E-1
5.519442434E0,7.792314887E-1,-2.130152225E0,-2.808218002E-1
5.527438498E0,9.479109049E-1,-2.237253189E0,-2.288169861E-1
5.535464869E0,1.033631086E0,-2.281479836E0,-1.207380295E-1
5.543459317E0,1.097419739E0,-2.297876835E0,-5.360698700E-2
5.551456227E0,1.069604158E0,-2.255265713E0,-1.724786758E-1
5.559451291E0,1.062848091E0,-2.194459915E0,-2.297964096E-1
5.567446354E0,1.118045092E0,-2.120840549E0,-4.819126129E-1
5.575441802E0,1.230532646E0,-2.004271984E0,-5.186624527E-1
5.583438097E0,1.246319294E0,-1.873847485E0,-4.599142075E-1
5.591465391E0,1.318256021E0,-1.689568520E0,-3.347759247E-1
5.599459532E0,1.496132612E0,-1.553616047E0,-2.231636047E-1
5.607455519E0,1.630511761E0,-1.325034618E0,-7.732486725E-2
5.615450351E0,1.612524033E0,-1.080003262E0,-2.863502502E-2
5.623445953E0,1.508074999E0,-7.448201180E-1,-4.242324829E-2
5.631443556E0,1.338653564E0,-4.128274918E-1,1.039953232E-1
5.639437696E0,1.300025463E0,-1.752057076E-1,1.423978806E-1
5.647464067E0,1.295401931E0,6.237030029E-2,2.444114685E-1
5.655458900E0,1.256027460E0,3.066515923E-1,2.327642441E-1
5.663455194E0,1.247249603E0,6.499204636E-1,2.793779373E-1
5.671451412E0,1.250320911E0,1.085554600E0,1.250677109E-1
5.679446168E0,1.202935696E0,1.524940014E0,-2.287578583E-2
5.695436680E0,8.064434528E-1,2.473602772E0,-1.630239487E-1
5.703463359E0,5.672293901E-1,2.753828764E0,-1.560487747E-1
5.711460037E0,3.504376411E-1,2.772927761E0,-1.334466934E-1
5.719454101E0,2.280008793E-2,2.608833075E0,1.119995117E-2
5.727450165E0,-1.937574744E-1,2.268326283E0,3.176507950E-1
5.735444920E0,-2.860341072E-1,2.015095472E0,2.547254562E-1
5.743441215E0,-4.308285713E-1,1.823718071E0,5.576810837E-1
5.751438125E0,-7.148157358E-1,1.632900715E0,4.962854385E-1
5.759462957E0,-1.186740756E0,1.421184301E0,3.870496750E-1
5.767458944E0,-1.747142076E0,1.237936258E0,1.785068512E-1
5.775454931E0,-2.161889553E0,1.100149155E0,-2.762413025E-2
5.783449456E0,-2.427145481E0,8.320410252E-1,-2.013072968E-1
5.791446597E0,-2.473808050E0,5.012292862E-1,-4.060583115E-1
5.799440507E0,-2.529686928E0,2.261433601E-1,-6.522779465E-1
5.807437031E0,-2.574774265E0,3.581047058E-4,-8.599109650E-1
5.815461942E0,-2.595588684E0,-1.674480438E-1,-8.903360367E-1
5.823458621E0,-2.507039070E0,-4.433827400E-1,-7.107353210E-1
5.831454838E0,-2.333865643E0,-6.976037025E-1,-4.742803574E-1
5.839449055E0,-1.978142977E0,-1.004098892E0,-1.069946289E-1
5.847444427E0,-1.551481009E0,-1.228338242E0,1.926641464E-1
5.855440644E0,-1.019462109E0,-1.486208439E0,6.146526337E-1
5.863436015E0,-4.652914107E-1,-1.758664608E0,8.964805603E-1
5.871462848E0,-6.014087796E-2,-1.967014790E0,8.747968674E-1
5.879458219E0,3.851816654E-1,-2.148280144E0,8.044624329E-1
5.887453822E0,8.121042252E-1,-2.217738152E0,7.392387390E-1
5.895448885E0,1.321632147E0,-2.240595818E0,5.228013992E-1
5.903444872E0,1.668621778E0,-2.123721123E0,4.562921524E-1
5.911441243E0,1.960583925E0,-1.908262253E0,1.668663025E-1
5.919436306E0,2.327624798E0,-1.582154751E0,4.606246948E-4
5.927462062E0,2.561453104E0,-1.197005272E0,-2.301445007E-1
5.935457203E0,2.540608168E0,-6.649336815E-1,-2.245187759E-1
5.943453497E0,2.347860336E0,-2.585577965E-1,4.985427856E-2
5.951450407E0,2.044825792E0,7.863330841E-2,1.138639450E-1
5.959444856E0,1.680716991E0,2.704567909E-1,3.398876190E-1
5.967439919E0,1.390043974E0,2.907066345E-1,4.872903824E-1
5.975435521E0,1.144359827E0,3.593277931E-1,4.938173294E-1
5.983461739E0,1.004730940E0,5.943346024E-1,2.693395615E-1
5.991457956E0,9.898689389E-1,9.996690750E-1,7.250499725E-2
5.999452481E0,1.045203924E0,1.495602131E0,-8.096027374E-2
6.007448160E0,1.025840044E0,1.786784410E0,-3.789567947E-1
6.015445070E0,7.020459175E-1,2.129183054E0,-1.215646744E0
6.023439518E0,3.148576617E-1,2.181792974E0,-3.618650436E-1
6.031436351E0,-4.978764057E-2,1.947621822E0,3.183269501E-2
6.039461030E0,-5.567007065E-1,1.722527266E0,-5.259037018E-2
6.047456401E0,-1.164361358E0,1.517220259E0,-7.195186615E-2
6.055452311E0,-1.543020964E0,1.339462757E0,-5.575799942E-1
6.063448374E0,-1.766676188E0,1.163600445E0,-8.730211258E-1
6.071444900E0,-1.862076879E0,8.983867168E-1,-8.417305946E-1
6.079438810E0,-1.955973864E0,6.210813522E-1,-8.730931282E-1
6.087435027E0,-2.169976234E0,2.691092491E-1,-9.521760941E-1
6.095461552E0,-2.401347637E0,-9.528636932E-2,-1.114449024E0
6.103456616E0,-2.457241535E0,-4.407973289E-1,-1.094059467E0
6.111453525E0,-2.189993382E0,-7.930879593E-1,-8.097534180E-1
6.119448204E0,-1.828896046E0,-1.124118805E0,-3.759584427E-1
6.127443038E0,-1.348999500E0,-1.455039978E0,1.865558624E-1
6.135438716E0,-9.808151722E-1,-1.697205067E0,5.245542526E-1
6.143434703E0,-5.823651552E-1,-1.780251503E0,4.784126282E-1
6.151460844E0,-2.834933996E-2,-1.785395145E0,2.402935028E-1
6.159455599E0,5.480175614E-1,-1.765993118E0,1.275396347E-1
6.167451817E0,1.233742476E0,-1.683300495E0,1.599826813E-1
6.175446958E0,1.701590419E0,-1.599731445E0,1.594543457E-3
6.183443559E0,1.908743858E0,-1.587480545E0,1.819438934E-1
6.191439469E0,1.811011076E0,-1.483654976E0,3.283004761E-1
6.199464763E0,1.573435068E0,-1.344009876E0,5.791034698E-1
6.207460750E0,1.269472480E0,-9.964594841E-1,5.741643906E-1
6.215455199E0,1.116709113E0,-6.954841614E-1,6.880970001E-1
6.223450877E0,1.051952243E0,-3.422217369E-1,7.994489670E-1
6.231447787E0,9.019145370E-1,2.176303864E-1,8.827056885E-1
6.239442466E0,7.892790437E-1,7.766425610E-1,7.423057556E-1
6.247438529E0,7.616159320E-1,1.305152655E0,5.503520966E-1
6.255465285E0,7.527242899E-1,1.647516966E0,3.177375793E-1
6.263460580E0,6.564390659E-1,1.864924908E0,3.036670685E-1
6.271456951E0,4.925253391E-1,1.914391994E0,1.240940094E-1
6.279451322E0,2.035144567E-1,2.009887934E0,-1.210470200E-1
6.287447002E0,1.521539688E-2,2.119529963E0,-5.070600510E-1
6.295441834E0,1.196046472E-1,2.141949177E0,-1.062944412E0
6.303437513E0,4.322577119E-1,2.161992073E0,-1.120254993E0
6.311434423E0,5.032238364E-1,2.049118996E0,-1.065304279E0
6.319459563E0,-2.227621078E-1,1.841839075E0,-8.279552460E-1
6.327455858E0,-1.496879458E0,1.488987207E0,-3.661251068E-1
6.335451230E0,-2.607333183E0,1.162826538E0,6.483078003E-3
6.343446600E0,-3.412710190E0,7.571470737E-1,6.951141357E-2
6.351442664E0,-3.489548683E0,4.116580486E-1,1.578903198E-2
6.359437420E0,-3.145981312E0,9.054470062E-2,-1.499042511E-1
6.367464099E0,-2.721370220E0,-1.297893524E-1,-5.177593231E-1
6.375458932E0,-2.345874071E0,-3.075346947E-1,-8.821973801E-1
6.383454611E0,-2.031358242E0,-4.967255592E-1,-9.725170135E-1
6.391451213E0,-1.548262000E0,-6.828355789E-1,-9.591083527E-1
6.399446277E0,-7.231724262E-1,-9.184436798E-1,-7.919893265E-1
6.407441879E0,1.352626383E-1,-1.163708687E0,-2.014150620E-1
6.415436942E0,1.231242657E0,-1.686522961E0,9.394636154E-1
6.423463775E0,1.957435608E0,-2.280350685E0,1.443700790E0
6.431459762E0,2.120604277E0,-2.619492531E0,1.638935089E0
6.439454825E0,2.077645540E0,-2.681200981E0,1.392801285E0
6.447450504E0,2.130495071E0,-2.557071209E0,1.180553436E0
6.455445184E0,2.202219009E0,-2.154610157E0,7.848215103E-1
6.463440939E0,2.240220547E0,-1.673613548E0,3.942422867E-1
6.479463375E0,2.215469599E0,-6.055312157E-1,5.620098114E-2
6.487458437E0,2.142822504E0,-3.114070892E-1,9.923267365E-2
6.495454732E0,1.791645646E0,-2.800989151E-2,2.185344696E-1
6.503450027E0,1.254018426E0,2.119507790E-1,2.721300125E-1
6.511446013E0,6.455252171E-1,4.565842152E-1,3.834486008E-1
6.519441461E0,2.045136094E-1,6.591730118E-1,3.556327820E-1
6.527436218E0,1.204704344E-1,8.566997051E-1,2.360515594E-1
6.535461665E0,4.498947859E-1,1.061457157E0,2.490053177E-1
6.543459191E0,7.509310246E-1,1.389010191E0,-7.980918884E-2
6.551455178E0,8.300841451E-1,1.818636656E0,-4.620132446E-1
6.559449702E0,6.932580471E-1,2.145798683E0,-9.134445190E-1
6.567445382E0,3.046017289E-1,2.167348385E0,-1.198064327E0
6.575439830E0,-1.698549092E-1,1.909263134E0,-1.276265144E0
6.583436047E0,-5.836647749E-1,1.414353132E0,-8.402776718E-1
6.591462880E0,-4.331344962E-1,6.358275414E-1,-6.309289932E-1
6.599458251E0,-4.391406775E-1,1.087472439E-1,-8.580493927E-1
6.607453315E0,-1.926651716E0,8.087515831E-2,-7.611904144E-1
6.615448917E0,-3.442614794E0,1.650409698E-1,-8.658399582E-1
6.623444672E0,-3.667884588E0,-1.088261604E-1,-5.877771378E-1
6.631441582E0,-2.919396877E0,-7.193474770E-1,2.101993561E-2
6.639436031E0,-2.326217413E0,-1.208021402E0,1.297788620E-1
6.647462402E0,-2.088461637E0,-1.495789289E0,5.920886993E-2
6.655456850E0,-1.952662468E0,-1.473520041E0,-1.206579208E-1
6.663453222E0,-1.541676521E0,-1.399867535E0,-2.088556290E-1
6.671449439E0,-6.539968848E-1,-1.431475639E0,-3.137140274E-1
6.679444503E0,2.439204603E-1,-1.546497345E0,-3.560333252E-1
6.687440182E0,1.227517128E0,-1.624908447E0,-2.841463089E-1
6.695434937E0,1.869567633E0,-1.584225655E0,-3.259611130E-1
6.703462309E0,2.305771112E0,-1.443373680E0,-2.668008804E-1
6.711458296E0,2.367135525E0,-1.316608906E0,-1.588277817E-1
6.719453128E0,2.279637814E0,-1.313315868E0,1.059312820E-1
6.727448500E0,2.206509829E0,-1.282148838E0,3.418569565E-1
6.735444179E0,2.139946938E0,-1.068197250E0,2.908992767E-1
6.743439780E0,1.938449025E0,-5.226230621E-1,5.014247894E-1
6.751436152E0,1.611193895E0,4.670572281E-2,6.004714966E-1
6.759461908E0,1.397374988E0,4.005947113E-1,7.557811737E-1
6.767456663E0,1.181114674E0,7.112319469E-1,8.475742340E-1
6.775452343E0,8.734916449E-1,9.213027954E-1,9.980621338E-1
6.783448330E0,4.192506075E-1,1.092739820E0,1.049132347E0
6.791445239E0,1.291762292E-1,1.183027029E0,1.001147270E0
6.799438841E0,-3.227028996E-2,1.295572758E0,9.358510971E-1
6.807435367E0,-1.997038275E-1,1.413031340E0,6.615743637E-1
6.815461276E0,-4.044403434E-1,1.513454676E0,3.865404129E-1
6.823456648E0,-6.928359866E-1,1.498555183E0,-6.532669067E-3
6.831453250E0,-8.598696589E-1,1.383711576E0,-4.141225815E-1
6.839448544E0,-9.833946228E-1,1.200585842E0,-8.439426422E-1
6.847443377E0,-1.080505013E0,1.001599073E0,-1.163802147E0
6.855438364E0,-1.161593676E0,8.333775997E-1,-1.336095333E0
6.863434658E0,-1.282435060E0,5.784318447E-1,-1.364441872E0
6.871461183E0,-1.292971611E0,2.884087563E-1,-1.204901695E0
6.879456247E0,-1.209751248E0,1.821422577E-2,-9.472074509E-1
6.887451310E0,-1.237380266E0,-3.070144653E-1,-9.029178619E-1
6.895446912E0,-1.256593466E0,-5.457267761E-1,-7.893981934E-1
6.903444130E0,-1.066110492E0,-8.743679523E-1,-4.411087036E-1
6.911439501E0,-8.346312046E-1,-1.060317039E0,-1.595010757E-1
6.919433949E0,-6.375593543E-1,-1.314749956E0,2.522277832E-2
6.927460090E0,-6.133376956E-1,-1.416105986E0,-5.140018463E-2
6.935455768E0,-5.358865261E-1,-1.524009705E0,3.497314453E-2
6.943451756E0,-2.963705659E-1,-1.682990074E0,1.605939865E-1
6.951447204E0,1.493522674E-1,-1.765642643E0,3.019266129E-1
6.959442882E0,8.393180966E-1,-1.839422703E0,2.478694916E-1
6.967438562E0,1.328921556E0,-1.806153297E0,1.899127960E-1
6.975464932E0,1.761062980E0,-1.681625843E0,1.742362976E-3
6.983460073E0,2.069272518E0,-1.495366573E0,-3.215789795E-3
6.991456906E0,2.369757891E0,-1.292497158E0,1.238708496E-1
6.999451123E0,2.564457178E0,-9.633679390E-1,7.867336273E-2
7.007446803E0,2.613110065E0,-6.523594856E-1,-1.069612503E-1
7.015441482E0,2.394231796E0,-3.466134071E-1,9.039878845E-2
7.023438391E0,2.092241526E0,-7.130098343E-2,2.102823257E-1
7.031434763E0,1.530764818E0,2.164320946E-1,3.817615509E-1
7.039459365E0,7.874007821E-1,5.542244911E-1,4.703998566E-1
7.047455043E0,1.978497505E-1,8.690869808E-1,5.905637741E-1
7.055450953E0,-3.744129837E-1,1.274705172E0,7.776212692E-1
7.063446633E0,-6.515479684E-1,1.585685968E0,7.630262375E-1
7.071442696E0,-7.886977792E-1,1.853910446E0,7.620067596E-1
7.079437990E0,-7.616371512E-1,2.005273104E0,5.808629990E-1
7.087433362E0,-8.153910637E-1,2.009002924E0,3.373098373E-1
7.095459271E0,-1.071084976E0,1.862552881E0,-2.366065979E-2
7.103455566E0,-1.320394397E0,1.654994011E0,-3.777408600E-1
7.111451245E0,-1.456282496E0,1.407280684E0,-8.022136688E-1
7.119446616E0,-1.404304862E0,1.237530470E0,-1.050311089E0
7.127441295E0,-1.230596304E0,1.004614115E0,-1.284964561E0
7.135436974E0,-1.254959822E0,7.647168636E-1,-1.384789944E0
7.143463422E0,-1.354821086E0,5.318758488E-1,-1.365459919E0
7.151459794E0,-1.395455837E0,1.252264977E-1,-1.101743221E0
7.159455088E0,-1.319587708E0,-2.799327374E-1,-8.794021606E-1
7.167450459E0,-1.264536619E0,-6.705582142E-1,-2.919187546E-1
7.175445215E0,-1.139481544E0,-9.557828903E-1,2.202024460E-1
7.183441510E0,-9.751454592E-1,-1.225279808E0,6.768302917E-1
7.191437265E0,-7.451240420E-1,-1.571546555E0,7.491388321E-1
7.199432637E0,-4.005383253E-1,-1.828000069E0,9.088687897E-1
7.207459008E0,8.936485648E-2,-2.109672070E0,1.002653122E0
7.215453841E0,4.787787795E-1,-2.286300182E0,9.738569260E-1
7.223450058E0,1.033244371E0,-2.342127323E0,7.648353577E-1
7.231445815E0,1.631524563E0,-2.257524490E0,5.196800232E-1
7.239441108E0,2.090668201E0,-2.058341503E0,1.895780563E-1
7.247436865E0,2.422118425E0,-1.763456345E0,2.960395813E-2
7.255462313E0,2.626476049E0,-1.535936832E0,4.685211182E-2
7.263458376E0,2.730112314E0,-1.289247990E0,-1.949024200E-2
7.271454979E0,2.752919197E0,-9.414501190E-1,-1.834201813E-2
7.279450273E0,2.571933985E0,-5.723285675E-1,1.385011673E-1
7.287445105E0,1.998336554E0,-1.257777214E-1,3.642129898E-1
7.295439862E0,1.495149374E0,2.445235252E-1,6.742658615E-1
7.303436464E0,9.181262851E-1,6.218655109E-1,7.595548630E-1
7.311463219E0,4.888975024E-1,1.035110712E0,6.655063629E-1
7.319458206E0,1.888796091E-1,1.277957916E0,3.390073776E-1
7.327453269E0,9.063889086E-2,1.433424711E0,-1.679449081E-1
7.335448641E0,4.696348310E-2,1.466920614E0,-4.608860016E-1
7.343445013E0,-8.385320008E-2,1.415929079E0,-6.703538895E-1
7.351440306E0,-3.858808279E-1,1.413817167E0,-1.057466507E0
7.359435755E0,-7.887737751E-1,1.459642649E0,-1.479296207E0
7.367462511E0,-8.359150887E-1,1.465300322E0,-1.822166920E0
7.375456651E0,-5.850963593E-1,1.417607546E0,-1.918095112E0
7.383452869E0,-2.405259609E-1,1.268362284E0,-1.977734089E0
7.391449856E0,-1.436310261E-1,1.116083622E0,-1.827178955E0
7.399444303E0,-2.442909777E-1,9.380710125E-1,-1.668008327E0
7.407439983E0,-4.327084124E-1,6.447625160E-1,-6.770277023E-1
7.415434431E0,-5.811282396E-1,1.348938942E-1,-5.515480042E-2
7.423461494E0,-1.037234426E0,-2.972097397E-1,2.466907501E-1
7.431458020E0,-1.488570333E0,-4.766469002E-1,4.261465073E-1
7.439452468E0,-1.677334428E0,-5.945940018E-1,4.438276291E-1
7.447449070E0,-1.583807588E0,-6.458654404E-1,4.880065918E-1
7.455443518E0,-1.351497173E0,-7.312216759E-1,5.144958496E-1
7.463439197E0,-1.156593442E0,-8.104791641E-1,4.812250137E-1
7.471435568E0,-9.462040663E-1,-9.495077133E-1,4.530076981E-1
7.479461094E0,-6.894799471E-1,-1.120802879E0,4.861412048E-1
7.487456388E0,-3.752167225E-1,-1.285090923E0,5.244531631E-1
7.493438840E0,9.459763765E-3,-1.396812916E0,6.791009903E-1
7.495451836E0,1.291698515E-1,-1.403995514E0,6.862840652E-1
7.503448054E0,5.977929831E-1,-1.397752285E0,7.625713348E-1
7.511444425E0,8.650186062E-1,-1.304138660E0,5.145139694E-1
7.519438873E0,9.164935946E-1,-1.144705296E0,1.616182327E-1
7.527435168E0,8.429101706E-1,-1.065756321E0,-1.271200180E-1
7.535461231E0,8.062709570E-1,-9.125790596E-1,-3.843183517E-1
7.543456294E0,9.045494795E-1,-8.028459549E-1,-1.108961105E-1
7.551453204E0,1.209155202E0,-7.332482338E-1,3.835020065E-1
7.559447422E0,1.585179567E0,-5.052142143E-1,4.797067642E-1
7.567443408E0,1.701433301E0,-2.199230194E-1,6.943435669E-1
7.575439088E0,1.375328302E0,2.534861565E-1,9.216127396E-1
7.583434459E0,9.736405611E-1,6.245090961E-1,1.216275215E0
7.591461830E0,5.616204739E-1,9.718322754E-1,1.456209183E0
7.599455971E0,1.981937587E-1,1.251420021E0,1.582409859E0
7.607451958E0,-3.939333558E-2,1.585825205E0,1.267136574E0
7.615446713E0,-1.925174892E-1,1.880481243E0,9.289045334E-1
7.623443854E0,-2.640870214E-1,2.003949881E0,6.602268219E-1
7.631438918E0,-3.790261149E-1,2.078420162E0,1.297645569E-1
7.639434058E0,-5.211042166E-1,2.031571865E0,-2.362165451E-1
7.647460429E0,-8.044940233E-1,1.884949446E0,-7.606458664E-1
7.655455878E0,-1.147351265E0,1.779808044E0,-1.367356777E0
7.663451172E0,-1.377563477E0,1.657317162E0,-1.805329323E0
7.671448082E0,-1.472867012E0,1.480315208E0,-2.073463440E0
7.679442607E0,-1.373417139E0,1.278720617E0,-2.159591675E0
7.687437978E0,-1.100999117E0,1.015993595E0,-2.145608425E0
7.695464657E0,-9.117821455E-1,7.130329609E-1,-2.142103672E0
7.703460105E0,-9.252882600E-1,4.029576778E-1,-1.936134815E0
7.711457015E0,-1.121885061E0,-3.623700142E-2,-9.681968689E-1
7.719451079E0,-1.407867312E0,-4.929783344E-1,-3.697013855E-1
7.727447372E0,-1.725262642E0,-8.289837837E-1,-9.957218170E-2
7.735441590E0,-1.888909578E0,-1.042664289E0,1.840438843E-1
7.743437885E0,-1.687132478E0,-1.155339479E0,6.240243912E-1
7.751434717E0,-1.254621506E0,-1.297068596E0,1.106326103E0
7.759460243E0,-1.002464294E0,-1.477482796E0,1.333768845E0
7.767455383E0,-6.845036149E-1,-1.656476736E0,1.270928383E0
7.775451600E0,-1.848490238E-1,-1.744709253E0,1.393453598E0
7.783446357E0,5.591702461E-1,-1.810163975E0,1.408726692E0
7.791443036E0,1.269318342E0,-1.840240955E0,1.464572906E0
7.799437791E0,1.740104198E0,-1.764059067E0,1.186460495E0
7.807432855E0,2.060811996E0,-1.477224112E0,6.773357391E-1
7.815458688E0,2.198061705E0,-1.135292530E0,6.569290161E-2
7.823454982E0,2.281492472E0,-8.201184273E-1,1.928901672E-2
7.831451507E0,2.456575394E0,-6.249220371E-1,-6.215095520E-3
7.839447187E0,2.525329590E0,-4.156324863E-1,-1.338958740E-2
7.847441404E0,2.179833174E0,-1.230621338E-1,-3.836250305E-2
7.855437621E0,1.443604469E0,2.050378323E-1,8.317947388E-2
7.863432993E0,5.465819240E-1,5.939023495E-1,2.874937057E-1
7.871460056E0,3.837311268E-2,8.782844543E-1,4.656419754E-1
7.879454581E0,-5.172848701E-2,1.090144634E0,7.243375778E-1
7.887449876E0,1.255414486E-1,1.207631111E0,6.197614670E-1
7.895445862E0,2.518918514E-1,1.314529419E0,6.733427048E-1
7.903441003E0,1.846404076E-1,1.446170568E0,5.783481598E-1
7.911437605E0,-2.226273417E-1,1.680712223E0,2.246398926E-1
7.919432053E0,-6.998746395E-1,1.876872182E0,-2.678718567E-1
7.927458501E0,-7.638537884E-1,1.986450911E0,-4.957714081E-1
7.935453565E0,-4.405089021E-1,2.010911465E0,-5.812759399E-1
7.943450167E0,-2.380537391E-1,1.964533448E0,-8.917303085E-1
7.951446462E0,-6.539722085E-1,1.931331754E0,-1.095882416E0
7.959440910E0,-1.429535151E0,1.743777752E0,-1.010283470E0
7.967437204E0,-1.789775848E0,1.325325727E0,-7.756977081E-1
7.975431960E0,-1.951480389E0,6.641952991E-1,-3.278131485E-1
7.983458101E0,-2.028265953E0,2.428770065E-3,-1.031980515E-1
7.991454702E0,-2.035869598E0,-3.308360577E-1,-1.651792526E-1
7.999449459E0,-2.158767700E0,-3.921937943E-1,-5.690603256E-1
8.007444830E0,-2.128855467E0,-4.664154053E-1,-4.261026382E-1
8.015441047E0,-1.642743230E0,-7.578680515E-1,-3.535680771E-1
8.023436803E0,-1.147783399E0,-1.102413654E0,-4.176359177E-1
8.031433098E0,-8.276908994E-1,-1.398145914E0,-2.324628830E-1
8.039458315E0,-5.237857103E-1,-1.757748365E0,8.539104462E-2
8.047453686E0,-2.543497086E-1,-1.998849154E0,1.644954681E-1
8.055448443E0,1.038902402E-1,-2.154906273E0,2.469520569E-1
8.063445044E0,5.063098073E-1,-2.169024229E0,2.506046295E-1
8.071441262E0,9.758197665E-1,-2.105206728E0,1.780090332E-1
8.079435787E0,1.408035517E0,-2.056719542E0,1.066627502E-1
8.087461619E0,1.774661064E0,-2.098595142E0,8.743762970E-2
8.095457299E0,2.064536095E0,-2.196143627E0,2.033462524E-1
8.103452977E0,2.189218044E0,-2.234125137E0,4.097919464E-1
8.111449503E0,2.142482996E0,-2.080167532E0,2.904338837E-1
8.119444336E0,2.070674419E0,-1.747331619E0,1.052217484E-1
8.127440245E0,2.050239325E0,-1.430844069E0,1.441612244E-1
8.135435386E0,1.997003078E0,-1.117287397E0,1.728162766E-1
8.143461834E0,1.874642134E0,-8.926777840E-1,2.700490952E-1
8.151458666E0,1.623472333E0,-6.643681526E-1,3.826990128E-1
8.159452577E0,1.395760775E0,-4.763212204E-1,7.584104538E-1
8.167448564E0,1.126657486E0,-3.244543076E-1,9.084453583E-1
8.175444242E0,9.856024384E-1,-2.795433998E-2,9.339094162E-1
8.183439921E0,9.902005196E-1,4.364020824E-1,8.089656830E-1
8.191435601E0,9.756935835E-1,1.233151436E0,5.097990036E-1
8.199461433E0,9.585484266E-1,2.080056667E0,2.145557404E-1
8.207457727E0,9.030604959E-1,2.944276094E0,1.759815216E-2
8.215452099E0,7.766302824E-1,3.465183258E0,-2.408161163E-1
8.223448777E0,5.508527160E-1,3.514188290E0,-2.850456238E-1
8.231444764E0,5.337351561E-2,3.180057049E0,-4.405202866E-1
8.239439521E0,-3.720246255E-1,2.702412605E0,-6.999940872E-1
8.247435122E0,-7.558537722E-1,2.210326672E0,-9.950456619E-1
8.255461648E0,-1.142199755E0,1.801346302E0,-1.062956810E0
8.263456635E0,-1.578151464E0,1.436400414E0,-1.134957314E0
8.271453621E0,-2.061497927E0,1.037188768E0,-9.860668182E-1
8.279448377E0,-2.377448320E0,6.354625225E-1,-7.600164413E-1
8.287443672E0,-2.677908659E0,1.948711872E-1,-6.254653931E-1
8.295438504E0,-2.825645924E0,-1.620092392E-1,-8.425035477E-1
8.303434414E0,-2.856136084E0,-4.825184345E-1,-1.272966385E0
8.311461478E0,-2.646867990E0,-6.757187843E-1,-1.420780182E0
8.319456310E0,-2.238530159E0,-7.816293240E-1,-1.362795353E0
8.327452528E0,-1.663580060E0,-9.363842010E-1,-1.257305622E0
8.335446746E0,-1.265388966E0,-1.063379765E0,-8.932723999E-1
8.343442962E0,-8.558283448E-1,-1.313071251E0,-8.509635925E-2
8.351439565E0,-3.866035342E-1,-1.672305584E0,4.785547256E-1
8.359434013E0,6.028741598E-2,-1.985567093E0,7.769956589E-1
8.367460461E0,5.666561127E-1,-2.363191605E0,1.214420319E0
8.375455602E0,9.193533063E-1,-2.593621492E0,1.633792877E0
8.383452512E0,1.399195433E0,-2.715085983E0,1.568888664E0
8.391447882E0,1.861327052E0,-2.709604025E0,1.511163712E0
8.399443177E0,2.246408224E0,-2.606292486E0,1.274459839E0
8.407438856E0,2.345429420E0,-2.248775959E0,1.017076492E0
8.415465304E0,2.459787607E0,-1.719860554E0,5.620279312E-1
8.423459829E0,2.666448832E0,-1.006887913E0,3.078413010E-1
8.431456123E0,2.722230434E0,-2.806057930E-1,3.244400024E-2
8.439451187E0,2.478611708E0,4.483032227E-1,-4.816818237E-2
8.447446790E0,1.940179586E0,9.921870232E-1,9.393215179E-2
8.455441929E0,1.386699915E0,1.284176826E0,3.003072739E-1
8.463437916E0,8.105348349E-1,1.497016430E0,3.033456802E-1
8.471434211E0,5.638286471E-1,1.681816101E0,1.707553864E-1
8.479459966E0,5.182327032E-1,1.883173347E0,1.521110535E-3
8.487455415E0,5.179829597E-1,2.124224186E0,-2.104377747E-1
8.495451094E0,3.703165650E-1,2.258153439E0,-2.961721420E-1
8.503446388E0,2.565208077E-2,2.313020945E0,-5.868530273E-1
8.511442683E0,-2.574081123E-1,2.268574476E0,-8.480281830E-1
8.519437516E0,-5.907044411E-1,2.120062828E0,-1.121118546E0
8.527433502E0,-1.012110233E0,1.937883377E0,-1.402624130E0
8.535458720E0,-1.550695419E0,1.552619100E0,-1.389253139E0
8.543455014E0,-1.985207915E0,9.953420162E-1,-1.069343567E0
8.551451308E0,-2.198317766E0,4.076392651E-1,-7.710542679E-1
8.559446295E0,-2.546841145E0,-1.955590248E-1,-6.650629044E-1
8.567442051E0,-2.829957962E0,-5.499327183E-1,-8.770942688E-1
8.575436730E0,-3.023727894E0,-6.847088337E-1,-1.151900291E0
8.583433101E0,-2.882380009E0,-7.402162552E-1,-1.402483940E0
8.591460088E0,-2.480932236E0,-7.842392921E-1,-1.415477753E0
8.599455151E0,-1.909161091E0,-1.024080038E0,-1.053826332E0
8.607449908E0,-1.534081101E0,-1.241241455E0,-4.747447968E-1
8.615445279E0,-1.285145283E0,-1.434370041E0,2.107620239E-2
8.623440650E0,-9.419988394E-1,-1.593415737E0,2.590980530E-1
8.631438560E0,-4.225646257E-1,-1.820463896E0,6.549711227E-1
8.639432932E0,9.711539745E-2,-1.999073505E0,1.096479416E0
8.647458456E0,5.835771561E-1,-2.143136740E0,1.520304680E0
8.655453905E0,1.224447608E0,-2.254664183E0,1.708773613E0
8.663450199E0,1.750019193E0,-2.204936743E0,1.823133469E0
8.671446416E0,2.251965046E0,-1.994338512E0,1.652436256E0
8.679440634E0,2.674512863E0,-1.653699636E0,1.353569031E0
8.687556924E0,3.053505421E0,-1.321095943E0,1.135471344E0
8.695552549E0,3.272790670E0,-8.915822506E-1,9.168624878E-1
8.703579635E0,3.288327217E0,-3.432569504E-1,8.323116302E-1
8.711575413E0,3.242744923E0,3.589220047E-1,6.094131470E-1
8.719570422E0,3.062116623E0,9.598252773E-1,5.526332855E-1
8.727565277E0,2.588285208E0,1.437424898E0,3.909635544E-1
8.735561594E0,1.867940187E0,1.738188744E0,8.876323700E-2
8.743557218E0,1.353308201E0,1.853608012E0,-7.574081421E-2
8.751553918E0,9.161661863E-1,1.851585150E0,-1.470527649E-1
8.759579158E0,5.880240202E-1,1.708621621E0,-1.875934601E-1
8.767574552E0,9.768231213E-2,1.656104684E0,-5.464677811E-1
8.775569330E0,-4.683302045E-1,1.710760593E0,-9.944114685E-1
8.783565647E0,-8.964543343E-1,1.664504766E0,-1.312272549E0
8.791562502E0,-1.323614359E0,1.399224281E0,-1.507194996E0
8.799557665E0,-1.670247197E0,9.452891350E-1,-1.367613316E0
8.815579144E0,-2.354310751E0,-1.844153404E-1,-1.099921227E0
8.823574614E0,-2.636657000E0,-5.153925419E-1,-1.190654755E0
8.831570931E0,-2.718466759E0,-7.566373348E-1,-1.208096504E0
8.839565709E0,-2.654853582E0,-8.735363483E-1,-1.187722206E0
8.847561641E0,-2.480184555E0,-1.079732180E0,-1.282061100E0
8.855556419E0,-2.219342947E0,-1.244238138E0,-1.219807148E0
8.863552428E0,-1.780347228E0,-1.464064360E0,-1.139219284E0
8.871579283E0,-1.355042934E0,-1.699647427E0,-4.829120636E-1
8.879573754E0,-1.077983618E0,-1.851098061E0,-2.757186890E-1
8.887569994E0,-8.037048578E-1,-1.970167637E0,-1.652460098E-1
8.895565386E0,-4.281762838E-1,-2.026662827E0,-8.485317230E-2
8.903561395E0,7.259482145E-2,-2.080881834E0,1.065225601E-1
8.911557405E0,4.296326637E-1,-2.141519070E0,2.896127701E-1
8.919552183E0,8.658477664E-1,-2.212369442E0,4.877357483E-1
8.927578346E0,1.393470287E0,-2.261043072E0,4.502267838E-1
8.935572893E0,1.883015275E0,-2.204238415E0,5.386524200E-1
8.943569441E0,2.344819546E0,-2.054720402E0,4.619903564E-1
8.951565834E0,2.696107626E0,-1.793947220E0,3.889722824E-1
8.959561766E0,3.113097191E0,-1.327626705E0,2.661933899E-1
8.967556620E0,3.448503494E0,-7.101068497E-1,2.171564102E-1
8.975582783E0,3.487185001E0,-1.528577805E-1,1.922655106E-1
8.983578177E0,3.158326149E0,4.315888882E-1,3.274602890E-1
8.991574724E0,2.642627001E0,7.143387794E-1,5.352001190E-1
8.999569810E0,1.945992708E0,8.736326694E-1,5.633726120E-1
9.007565281E0,1.432389259E0,1.057643414E0,5.337800980E-1
9.015560290E0,1.188389421E0,1.277877569E0,4.554929733E-1
9.023555761E0,1.021728754E0,1.496507645E0,2.801322937E-2
9.031553308E0,7.634205222E-1,1.654818058E0,-1.218261719E-1
9.039577931E0,3.267266154E-1,1.839071751E0,-2.531518936E-1
9.047573556E0,-7.838653028E-2,2.039031029E0,-4.725589752E-1
9.055569026E0,-5.065171123E-1,2.153740406E0,-8.348360062E-1
9.063564728E0,-7.951090336E-1,2.020871878E0,-8.530683517E-1
9.071561044E0,-1.023943305E0,1.684441805E0,-6.430091858E-1
9.079556438E0,-1.371127725E0,1.249417543E0,-4.788570404E-1
9.087551139E0,-1.671120524E0,8.195898533E-1,-3.996038437E-1
9.095577071E0,-1.912572742E0,3.431153297E-1,-3.101196289E-1
9.103573388E0,-2.141193151E0,-1.607441902E-2,-3.631343842E-1
9.111569935E0,-2.241687536E0,-1.570131779E-1,-6.675977707E-1
9.119565098E0,-2.309107780E0,-2.256703377E-1,-1.074032784E0
9.127560722E0,-2.203873873E0,-2.671592236E-1,-1.371601105E0
9.135557116E0,-1.865504742E0,-5.181274414E-1,-8.163404465E-1
9.143581971E0,-1.527459741E0,-9.436140060E-1,-2.583665848E-1
9.151578595E0,-1.356043816E0,-1.254279613E0,-1.493024826E-1
9.159573373E0,-1.386643529E0,-1.328734636E0,-6.925678253E-2
9.167569075E0,-1.223895311E0,-1.251522064E0,-1.840686798E-2
9.175564161E0,-7.108356953E-1,-1.201218367E0,7.890701294E-2
9.183559938E0,-1.870887280E-1,-1.295746088E0,2.655935287E-1
9.191557101E0,3.516184688E-1,-1.371508360E0,1.921453476E-1
9.199551341E0,7.352250814E-1,-1.299834251E0,1.033782959E-2
9.207577734E0,1.040318012E0,-1.246237040E0,7.453155518E-2
9.215572589E0,1.337184668E0,-1.292762280E0,2.950925827E-1
9.223569137E0,1.560335875E0,-1.384482384E0,4.607133865E-1
9.231564915E0,1.828855515E0,-1.256504059E0,7.762737274E-1
9.239559924E0,2.057021141E0,-8.369250298E-1,1.035080910E0
9.247555395E0,2.334538460E0,-4.101166725E-1,1.163118362E0
9.255580942E0,2.338521719E0,1.313872337E-1,1.247672081E0
9.263578104E0,2.118256092E0,5.684356689E-1,1.351730347E0
9.271573882E0,1.788296223E0,9.469559193E-1,1.513972282E0
9.279568584E0,1.675422907E0,8.731706142E-1,1.888588905E0
9.287564054E0,1.534131050E0,8.766524792E-1,1.472004890E0
9.295559371E0,1.090800047E0,1.326540709E0,1.326717377E0
9.303555072E0,5.100907087E-1,1.807821989E0,9.909038544E-1
9.311551774E0,-1.278287768E-1,2.233333349E0,6.903686523E-1
9.319577013E0,-4.333961606E-1,2.328693867E0,2.774066925E-1
9.327572715E0,-6.381185055E-1,2.295836449E0,-1.286134720E-1
9.335568338E0,-7.783288956E-1,2.156771183E0,-6.858940125E-1
9.343564347E0,-9.329255223E-1,2.015418053E0,-8.997964859E-1
9.351560741E0,-1.046467781E0,1.758303046E0,-1.058663368E0
9.359554827E0,-1.083204508E0,1.558736086E0,-1.214478493E0
9.367581066E0,-9.257678390E-1,1.336300373E0,-1.194652081E0
9.375576460E0,-7.670972943E-1,1.155170202E0,-1.182689190E0
9.383572392E0,-5.880009532E-1,9.206962585E-1,-1.036343575E0
9.391568709E0,-6.259158850E-1,6.402826309E-1,-1.024363518E0
9.399563872E0,-7.455918789E-1,4.441850185E-1,-1.007911682E0
9.407559572E0,-7.340669632E-1,2.404630184E-1,-7.483816147E-1
9.415554350E0,-6.852061749E-1,1.142354012E-1,-5.716009140E-1
9.423581129E0,-5.607045293E-1,-2.462983131E-2,-5.538024902E-1
9.431577445E0,-4.815036058E-1,-1.268382072E-1,-5.362834930E-1
9.439572839E0,-4.618492126E-1,-2.354683876E-1,-4.662342072E-1
9.447567848E0,-4.371981025E-1,-4.336245060E-1,-3.792142868E-1
9.455564242E0,-3.478332758E-1,-6.637318134E-1,-1.123485565E-1
9.463559020E0,-2.536334395E-1,-1.022928476E0,-1.983261108E-2
9.471555337E0,-1.569818258E-1,-1.519581079E0,9.975872040E-1
9.479580498E0,2.330538034E-1,-2.609998226E0,2.281992912E0
9.487575969E0,8.367532492E-2,-3.200870991E0,2.299101830E0
9.495571286E0,-4.209073782E-1,-2.742372513E0,2.079814911E0
9.503567679E0,-5.238178372E-1,-1.732566833E0,1.672816277E0
9.511563688E0,3.373062611E-2,-1.221083164E0,1.234755516E0
9.519558467E0,9.382097125E-1,-1.108350515E0,9.366083145E-1
9.527555014E0,1.756614208E0,-1.118519545E0,7.454576492E-1
9.535579946E0,2.177586317E0,-9.352602959E-1,5.227298737E-1
9.543576263E0,2.180619001E0,-5.115573406E-1,1.542348862E-1
9.551572655E0,1.801832557E0,-2.622079849E-2,-8.973217010E-2
9.559567972E0,1.322745323E0,4.327993393E-1,-2.658319473E-1
9.567563135E0,1.024843216E0,5.705790520E-1,-1.694002151E-1
9.575557913E0,8.833144307E-1,5.031147003E-1,-3.546714783E-3
9.583554461E0,8.119588494E-1,4.656066895E-1,6.512928009E-2
9.591582239E0,6.107112169E-1,5.595788956E-1,2.078657150E-1
9.599576710E0,3.901309967E-1,8.777904510E-1,-1.217746735E-1
9.607571719E0,3.584611118E-1,1.067695379E0,-2.005815506E-1
9.615566881E0,5.499768257E-1,1.129427910E0,-5.760450363E-1
9.623562813E0,6.824923754E-1,1.121358633E0,-1.190729618E0
9.631559437E0,5.371587276E-1,1.080276012E0,-1.571300983E0
9.639554523E0,2.141940594E-1,1.013424873E0,-1.708124161E0
9.647580147E0,-1.295744777E-1,9.107141495E-1,-1.584852219E0
9.655575156E0,-4.193376303E-1,6.737647057E-1,-1.246012688E0
9.663571550E0,-7.480022311E-1,4.346957207E-1,-1.006382942E0
9.671567867E0,-1.166365385E0,1.928544044E-1,-8.904523849E-1
9.679562260E0,-1.482644558E0,-2.629113197E-2,-7.598285675E-1
9.687558654E0,-1.594377995E0,-1.292560101E-1,-5.570278168E-1
9.695585124E0,-1.496957541E0,-2.265837193E-1,-2.461700439E-1
9.703580517E0,-1.248247981E0,-3.118591309E-1,-4.292392731E-2
9.711576449E0,-9.755730033E-1,-4.590780735E-1,8.404445648E-2
9.719571612E0,-7.199862599E-1,-6.881532669E-1,1.427402496E-1
9.727566621E0,-4.930130839E-1,-8.994622231E-1,3.039798737E-1
9.735562015E0,-2.741881013E-1,-1.101128340E0,2.882738113E-1
9.743557178E0,-1.703170538E-1,-1.191423178E0,4.109716415E-1
9.751555264E0,-5.461281538E-2,-1.259441137E0,5.950794220E-1
9.759579657E0,8.509790897E-2,-1.219218254E0,4.382352829E-1
9.767575896E0,2.101185322E-1,-1.156384468E0,4.528017044E-1
9.775570982E0,2.947032750E-1,-1.145978451E0,6.214876175E-1
9.783566145E0,3.628711104E-1,-1.167880058E0,7.592763901E-1
9.791563077E0,5.671471953E-1,-1.168526173E0,9.446020126E-1
9.799557778E0,8.839114904E-1,-1.119878769E0,9.450931549E-1
9.807553787E0,1.286172628E0,-9.613385201E-1,8.666963577E-1
9.815578796E0,1.637515783E0,-7.027001381E-1,7.574701309E-1
9.823574728E0,1.725136757E0,-4.200582504E-1,6.129817963E-1
9.831572584E0,1.600221038E0,-3.742837906E-2,5.465898514E-1
9.839566130E0,1.408145189E0,2.292666435E-1,4.576148987E-1
9.847561908E0,9.578094482E-1,5.801706314E-1,4.869060516E-1
9.855557840E0,3.754394650E-1,8.604815006E-1,4.853181839E-1
9.863553234E0,-1.537007093E-2,1.033154964E0,4.283676147E-1
9.871580320E0,-3.253418803E-1,1.136220932E0,4.212074280E-1
9.879575714E0,-4.357018471E-1,1.115179062E0,2.722826004E-1
9.887571723E0,-4.638835192E-1,1.190469265E0,-1.456737518E-1
9.895566193E0,-4.132265449E-1,1.267139673E0,-6.243791580E-1
9.903562202E0,-3.472603559E-1,1.260705709E0,-1.098645210E0
9.911558826E0,-5.184300542E-1,1.222756863E0,-1.640102863E0
9.919553681E0,-7.192954421E-1,1.149511337E0,-2.037491798E0
9.927579228E0,-7.370787263E-1,1.016389608E0,-2.257506371E0
9.935575237E0,-6.212837696E-1,8.146295547E-1,-2.064772129E0
9.943570323E0,-6.290954947E-1,4.532454014E-1,-1.509098053E0
9.951567486E0,-1.024402857E0,5.007982254E-2,-1.041415215E0
9.959561726E0,-1.472512722E0,-2.903676033E-1,-7.625141144E-1
9.967557427E0,-1.952334285E0,-5.893344879E-1,-6.333837509E-1
9.975552205E0,-2.188652515E0,-7.462685108E-1,-4.873390198E-1
9.983579213E0,-2.235252619E0,-8.194155693E-1,-4.982500076E-1
9.991575222E0,-2.087956190E0,-8.219280243E-1,-5.769519806E-1
9.999571001E0,-1.715110540E0,-8.498623371E-1,-5.966739655E-1
1.000756632E1,-1.244857073E0,-9.075319767E-1,-4.879846573E-1
1.001556171E1,-8.391485214E-1,-1.014013290E0,-3.015279770E-1
1.002355772E1,-3.850879073E-1,-1.212116718E0,-1.599225998E-1
1.003155373E1,-9.785401821E-2,-1.319647312E0,1.686162949E-1
1.003957958E1,1.583523154E-1,-1.485444546E0,5.760211945E-1
1.004757467E1,4.469602108E-1,-1.505379677E0,5.987873077E-1
1.005557006E1,7.651836276E-1,-1.441682339E0,7.355298996E-1
1.006356584E1,1.010937095E0,-1.285243988E0,6.289644241E-1
1.007156247E1,1.175657511E0,-1.203678608E0,6.942577362E-1
1.007955748E1,1.438082576E0,-1.107480526E0,8.523931503E-1
1.008758364E1,1.789204359E0,-9.419226646E-1,9.167118073E-1
1.009557972E1,2.116157055E0,-7.170848846E-1,7.994384766E-1
1.010357443E1,2.167723417E0,-4.086561203E-1,8.361673355E-1
1.011156990E1,1.954846263E0,-1.136002541E-1,9.476718903E-1
1.011956583E1,1.699063063E0,1.822185516E-1,1.105255127E0
1.012756130E1,1.451742053E0,4.101855755E-1,1.163194656E0
1.013555692E1,1.221449614E0,5.939843655E-1,1.178565025E0
1.014355270E1,1.002351403E0,8.128886223E-1,1.016877174E0
1.015157979E1,7.810409069E-1,1.046056509E0,8.116102219E-1
1.015957387E1,6.286273003E-1,1.445648432E0,4.440460205E-1
1.016757026E1,6.953397989E-1,1.778242350E0,1.642112732E-1
1.017556474E1,7.231371999E-1,2.019364834E0,-1.802310944E-1
1.018356075E1,5.086820126E-1,1.898642063E0,-4.108810425E-1
1.019155822E1,4.820787907E-2,1.670974255E0,-7.929153442E-1
1.019958261E1,-2.904225588E-1,1.460807562E0,-1.182766914E0
1.020757823E1,-2.656854987E-1,1.302023172E0,-1.635131836E0
1.021557393E1,-8.249741793E-2,1.046634436E0,-1.730312824E0
1.022356971E1,-1.995083690E-1,8.489022255E-1,-1.700164795E0
1.023156626E1,-6.036363840E-1,5.585823059E-1,-1.102443695E0
1.023956104E1,-1.200230479E0,2.180907726E-1,-6.745376587E-1
1.024755643E1,-1.740665436E0,-1.598563194E-1,-4.744167328E-1
1.025558229E1,-2.250743866E0,-5.432331562E-1,-4.030714035E-1
1.026357830E1,-2.422327995E0,-7.253901958E-1,-4.492092133E-1
1.027157592E1,-2.294711113E0,-8.593869209E-1,-2.234163284E-1
1.027956970E1,-1.936444998E0,-9.843714237E-1,-2.327556610E-1
1.028756578E1,-1.599564791E0,-1.072855711E0,-1.231002808E-2
1.029556018E1,-1.131745219E0,-1.200910330E0,1.265344620E-1
1.030355619E1,-7.277758121E-1,-1.313413620E0,5.897140503E-2
1.031158273E1,-1.953799725E-1,-1.486737490E0,6.770038605E-2
1.031957782E1,2.016067505E-1,-1.612886906E0,1.658716202E-1
1.032757406E1,6.228410602E-1,-1.710484982E0,5.644474030E-1
1.033556976E1,8.361282945E-1,-1.660789013E0,4.495506287E-1
1.034356546E1,8.795299530E-1,-1.613007069E0,5.902862549E-1
1.035156147E1,1.167536974E0,-1.634229183E0,7.230968475E-1
1.035955663E1,1.734791756E0,-1.550823212E0,8.693590164E-1
1.036758187E1,2.377026320E0,-1.402953625E0,8.211460114E-1
1.037557757E1,2.610858440E0,-1.043384552E0,6.534700394E-1
1.038357474E1,2.401872158E0,-7.368617058E-1,6.975803375E-1
1.039157044E1,2.108100891E0,-3.668761253E-1,5.592794418E-1
1.039956491E1,1.704844594E0,-5.637311935E-2,3.900413513E-1
1.040756069E1,1.026680470E0,3.944609165E-1,1.778755188E-1
1.041555631E1,5.624808073E-1,7.877945900E-1,1.253871918E-1
1.042358224E1,5.049845576E-1,1.236588478E0,2.721023560E-2
1.043157879E1,6.335231066E-1,1.546432018E0,-7.125568390E-2
1.043957326E1,5.480149984E-1,1.776814222E0,-2.749767303E-1
1.044756988E1,3.013109565E-1,1.915824652E0,-2.814073563E-1
1.045556382E1,7.500702143E-2,1.969697475E0,-1.818170547E-1
1.046356006E1,-3.061921597E-1,1.983870745E0,-4.263277054E-1
1.047155614E1,-4.713144898E-1,1.884169340E0,-7.657871246E-1
1.047958223E1,-3.220639229E-1,1.812884569E0,-1.033401966E0
1.048757762E1,-1.042095423E-1,1.702803612E0,-1.180628300E0
1.049557271E1,-9.734213352E-2,1.507399559E0,-1.227120876E0
1.050356972E1,-3.241088986E-1,1.345509768E0,-1.340786457E0
1.051156534E1,-6.567146778E-1,1.032228708E0,-1.000559807E0
1.051956020E1,-1.120742083E0,6.968362331E-1,-7.487201691E-1
1.052755590E1,-1.548206329E0,2.343237400E-1,-4.602670670E-1
1.053558106E1,-1.854535341E0,-1.606082916E-1,-4.793586731E-1
1.054357745E1,-2.139258862E0,-4.870231152E-1,-4.592294693E-1
1.055157377E1,-2.259382486E0,-7.433841228E-1,-1.444520950E-1
1.055956886E1,-2.144046307E0,-1.067139864E0,2.389268875E-1
1.056756417E1,-1.870845556E0,-1.370387793E0,3.838748932E-1
1.057556049E1,-1.655788779E0,-1.542904377E0,3.905506134E-1
1.058355504E1,-1.205740333E0,-1.615745544E0,3.490447998E-1
1.059158266E1,-5.168850422E-1,-1.609134912E0,3.128633499E-1
1.059957805E1,2.562023401E-1,-1.611239195E0,4.764442444E-1
1.060757283E1,8.386042118E-1,-1.594219685E0,4.828281403E-1
1.061556769E1,1.151524544E0,-1.532691479E0,2.096014023E-1
1.062356424E1,1.455509901E0,-1.468843460E0,1.206741333E-1
1.063156063E1,1.747064590E0,-1.359320641E0,2.235116959E-1
1.063955502E1,2.225439787E0,-1.138306618E0,2.881002426E-1
1.064758118E1,2.522830486E0,-9.131741524E-1,1.877956390E-1
1.065557688E1,2.461925030E0,-7.848925591E-1,6.294069290E-1
1.066357259E1,2.106192350E0,-6.876130104E-1,9.535083771E-1
1.067156952E1,1.756080627E0,-4.742641449E-1,1.069385529E0
1.067956437E1,1.435339928E0,-1.795201302E-1,1.132629395E0
1.068755969E1,1.366546154E0,2.050089836E-1,1.169251442E0
1.069555478E1,1.474554896E0,7.086906433E-1,1.288965225E0
1.070358125E1,1.554083586E0,1.161611080E0,1.311720848E0
1.071157856E1,1.496915460E0,1.374907255E0,1.602173805E0
1.071957234E1,1.404876828E0,1.491150141E0,1.129642487E0
1.072756774E1,1.219788909E0,1.813237429E0,6.496486664E-1
1.073556444E1,7.070286274E-1,2.440104723E0,-3.784818649E-1
1.074355952E1,2.162630558E-1,2.683524132E0,-5.268688202E-1
1.075155553E1,-2.247035503E-2,2.384985924E0,-8.842058182E-1
1.075958139E1,-4.380834103E-2,1.995135784E0,-1.493780136E0
1.076757701E1,3.838646412E-2,1.681298256E0,-1.577273846E0
1.077557156E1,-1.376556754E-1,1.434647083E0,-1.604261398E0
1.078356757E1,-5.681505799E-1,1.263051510E0,-1.560075760E0
1.079156473E1,-1.117330074E0,9.990968704E-1,-1.459812164E0
1.079955889E1,-1.542531252E0,6.638653278E-1,-1.107003212E0
1.080755559E1,-1.858585358E0,2.398498058E-1,-6.968908310E-1
1.081558053E1,-2.148354053E0,-3.242912292E-1,-3.533573151E-1
1.082357653E1,-2.203851700E0,-6.828706264E-1,-3.475055695E-1
1.083157316E1,-2.022698402E0,-8.136775494E-1,-4.948272705E-1
1.083956755E1,-1.656680942E0,-8.645896912E-1,-3.629188538E-1
1.084756387E1,-1.238680005E0,-9.988963604E-1,2.423238754E-1
1.085555865E1,-9.686700106E-1,-1.340481281E0,6.075162888E-1
1.086355412E1,-8.375877142E-1,-1.623539925E0,8.797330856E-1
1.087158174E1,-6.419737339E-1,-1.772208214E0,8.751535416E-1
1.087957567E1,-3.435037136E-1,-1.740822315E0,9.184904099E-1
1.088757199E1,1.360902786E-1,-1.612588882E0,8.308849335E-1
1.089556769E1,5.844361186E-1,-1.596828938E0,9.167442322E-1
1.090356362E1,9.620178938E-1,-1.551962852E0,9.872474670E-1
1.091155909E1,1.480658054E0,-1.335824251E0,8.760128021E-1
1.091955449E1,1.753220797E0,-1.137079477E0,8.518047333E-1
1.092758065E1,1.789067626E0,-9.311416149E-1,7.954664230E-1
1.093557574E1,1.663170457E0,-6.166238785E-1,7.532644272E-1
1.094357136E1,1.489571452E0,-3.292546272E-1,7.373933792E-1
1.095156837E1,1.178801894E0,3.707695007E-2,6.639909744E-1
1.095956346E1,1.031682253E0,3.673999310E-1,6.475658417E-1
1.096755823E1,9.008551836E-1,8.342032433E-1,5.293245316E-1
1.097555386E1,8.394169807E-1,1.262657642E0,3.801069260E-1
1.098358033E1,8.569908738E-1,1.533136845E0,2.773122787E-1
1.099157726E1,1.049783230E0,1.558445692E0,-3.911647797E-1
1.099957173E1,9.356490374E-1,1.608697891E0,-6.580314636E-1
1.100756743E1,2.566726804E-1,1.807727098E0,-1.326321125E0
1.101556282E1,-3.816313744E-1,1.833585620E0,-1.485665798E0
1.102355799E1,-6.875740290E-1,1.592257619E0,-1.574150562E0
1.103155515E1,-7.554993629E-1,1.322098732E0,-1.327565670E0
1.103958039E1,-7.125353813E-1,1.118385077E0,-1.140629768E0
1.104757617E1,-6.877286434E-1,9.709131718E-1,-1.196124554E0
1.105557033E1,-8.122965097E-1,8.993215561E-1,-1.328915119E0
1.106356696E1,-1.098914981E0,8.094208241E-1,-1.518439293E0
1.107156443E1,-1.491729379E0,6.338202953E-1,-1.451069832E0
1.107955836E1,-1.812651396E0,3.118441105E-1,-1.273032665E0
1.108755460E1,-1.742774010E0,-3.651165962E-2,-1.017660141E0
1.109557984E1,-1.519620538E0,-1.913251877E-1,-7.683496475E-1
1.110357554E1,-1.289203525E0,-3.812489510E-1,-2.179784775E-1
1.111157216E1,-1.013929009E0,-6.525716782E-1,4.495639801E-1
1.111956694E1,-7.143256664E-1,-1.141877651E0,1.234764099E0
1.112756203E1,-5.200705528E-1,-1.674004793E0,1.754639626E0
1.113555842E1,-3.972207308E-1,-1.979991198E0,2.224097252E0
1.114355435E1,-2.043212652E-1,-1.962365627E0,1.838190079E0
1.115158082E1,8.924865723E-2,-1.643274784E0,1.617429733E0
1.115957629E1,5.007865429E-1,-1.327625275E0,1.620290756E0
1.116757130E1,8.324503899E-1,-1.216007948E0,1.379132271E0
1.117556646E1,1.270282745E0,-1.043795824E0,1.201164246E0
1.118356247E1,1.703455567E0,-6.913220882E-1,1.151270866E0
1.119155840E1,1.802548170E0,-2.007780075E-1,9.067478180E-1
1.119958457E1,1.624252319E0,3.234450817E-1,8.611822128E-1
1.120757965E1,1.334769964E0,6.761066914E-1,7.995290756E-1
1.121557512E1,9.251827002E-1,9.304358959E-1,8.221321106E-1
1.122357113E1,5.850561857E-1,9.991018772E-1,7.727794647E-1
1.123156768E1,3.092292547E-1,1.161931515E0,7.800168991E-1
1.123956161E1,6.997799873E-2,1.386981249E0,3.922348022E-1
1.124755731E1,-6.845903397E-2,1.525184870E0,8.009052277E-2
1.125558340E1,-4.434728622E-2,1.548907161E0,-2.458620071E-1
1.126357949E1,1.399016380E-2,1.439879417E0,-3.675365448E-1
1.127157550E1,-9.967827797E-2,1.443933368E0,-1.011364937E0
1.127957081E1,-2.691172361E-1,1.493551493E0,-1.471776009E0
1.128756628E1,-2.893911600E-1,1.511485100E0,-2.295829296E0
1.129556168E1,-3.673398495E-1,1.416861176E0,-2.351638794E0
1.130355791E1,-5.482592583E-1,1.169302106E0,-1.876799583E0
1.131155369E1,-1.011274457E0,8.590748310E-1,-1.589990139E0
1.131957924E1,-1.469434142E0,4.970979691E-1,-1.185134888E0
1.132757517E1,-1.618090034E0,1.803464890E-1,-1.103389740E0
1.133556995E1,-1.677926540E0,-9.268665314E-2,-1.105420113E0
1.134356596E1,-1.690456748E0,-2.411704063E-1,-1.018760681E0
1.135156266E1,-1.653861642E0,-3.480734825E-1,-9.386167526E-1
1.135955713E1,-1.495329499E0,-4.221999645E-1,-6.751070023E-1
1.136758414E1,-1.008834362E0,-5.394055843E-1,-4.095935822E-1
1.137557923E1,-3.022505045E-1,-7.727749348E-1,-1.967620850E-1
1.138357493E1,3.403541446E-1,-9.709582329E-1,1.244163513E-1
1.139157101E1,1.054200649E0,-1.203511953E0,6.642236710E-1
1.139956671E1,1.655061245E0,-1.388000250E0,1.452824593E0
1.140756149E1,2.053141832E0,-1.461959600E0,1.536756516E0
1.141555650E1,1.767636061E0,-1.386645317E0,1.368655205E0
1.142358366E1,1.190808654E0,-1.189020157E0,1.390054703E0
1.143157967E1,6.358842850E-1,-9.845614433E-1,1.161275864E0
1.143957414E1,4.466890693E-1,-7.468297482E-1,1.036963463E0
1.144757038E1,3.570683002E-1,-3.642108440E-1,1.112597466E0
1.145556516E1,1.811065674E-1,1.218090057E-1,9.953393936E-1
1.146356148E1,-8.383679390E-2,4.561975002E-1,9.821214676E-1
1.147155810E1,-4.385924339E-1,7.366707325E-1,1.089399338E0
1.147958373E1,-5.894020796E-1,8.962621689E-1,1.314320564E0
1.148757850E1,-6.856012344E-1,1.031314373E0,1.314175606E0
1.149557413E1,-7.683349848E-1,1.158795834E0,1.062592506E0
1.150357052E1,-7.947406769E-1,1.407068729E0,7.107696533E-1
1.151156684E1,-7.205147743E-1,1.565567613E0,2.896337509E-1
1.151956039E1,-6.347775459E-1,1.594074726E0,-1.025686264E-1
1.152755701E1,-7.194433212E-1,1.513317347E0,-4.101819992E-1
1.153558348E1,-8.841983080E-1,1.421889186E0,-6.538009644E-1
1.154357826E1,-9.850357771E-1,1.274277568E0,-9.948148727E-1
1.155157458E1,-9.952391386E-1,1.068762779E0,-1.242014885E0
1.155956997E1,-1.003589272E0,8.561029434E-1,-1.379222870E0
1.156756536E1,-1.016601920E0,6.315708160E-1,-1.446397305E0
1.157556076E1,-9.843569994E-1,4.723687172E-1,-1.571606159E0
1.158355700E1,-8.359029293E-1,2.692170143E-1,-1.595125675E0
1.159158347E1,-6.867594719E-1,-2.576613426E-2,-1.428771019E0
1.159957801E1,-4.132789373E-1,-2.639422417E-1,-1.307502747E0
1.160757425E1,-1.295893192E-1,-5.427088737E-1,-9.558601379E-1
1.161556965E1,8.856403828E-2,-7.454941273E-1,-7.497243881E-1
1.162356481E1,3.847765923E-1,-9.263486862E-1,-4.034099579E-1
1.163156174E1,7.173362374E-1,-1.044486523E0,1.101102829E-1
1.163955614E1,1.146198750E0,-1.373913527E0,1.028364182E0
1.164758230E1,1.467267990E0,-1.764639616E0,1.731097221E0
1.165557777E1,1.479358912E0,-2.098283291E0,1.978032112E0
1.166357378E1,1.210459113E0,-2.117372036E0,1.774401665E0
1.167157094E1,1.010899782E0,-1.813780546E0,1.449017525E0
1.167956487E1,1.231254816E0,-1.250229836E0,1.117671967E0
1.168756057E1,1.606753826E0,-6.193330288E-1,6.735658646E-1
1.169555566E1,1.838175297E0,-2.056086063E-1,5.428762436E-1
1.170358267E1,1.672510624E0,1.687345505E-1,4.858322144E-1
1.171157845E1,1.201767206E0,3.518478870E-1,5.118122101E-1
1.171957323E1,3.997206688E-1,4.385008812E-1,4.556550980E-1
1.172756923E1,-2.794048786E-1,3.852074146E-1,4.998407364E-1
1.173556393E1,-8.064420223E-1,3.167796135E-1,3.908262253E-1
1.174356087E1,-1.049414635E0,3.469243050E-1,1.427364349E-1
1.175155664E1,-1.145365000E0,5.105109215E-1,-1.945610046E-1
1.175958181E1,-1.249117374E0,7.994856834E-1,-7.757053375E-1
1.176757782E1,-1.198211670E0,9.599981308E-1,-1.127603531E0
1.177557413E1,-1.160703182E0,1.027488828E0,-1.676274776E0
1.178356891E1,-1.252473474E0,1.006936908E0,-1.934326172E0
1.179156530E1,-1.055466294E0,7.850270271E-1,-1.595832348E0
1.179956062E1,2.717304230E-2,6.215031147E-1,-2.486011505E0
1.180755571E1,1.673820019E-1,7.527737617E-1,-3.034578323E0
1.181558072E1,-1.140768170E0,7.589886189E-1,-2.485555172E0
1.182357765E1,-2.001212597E0,3.086419106E-1,-1.492917538E0
1.183157450E1,-1.495122313E0,-5.923144817E-1,-4.222822189E-1
1.183956844E1,-7.437063456E-1,-1.223912001E0,4.303054810E-1
1.184756444E1,-7.041445971E-1,-1.355503082E0,7.328433990E-1
1.185556014E1,-1.012846828E0,-1.328633785E0,1.381916046E0
1.186355638E1,-9.951415062E-1,-1.406420946E0,1.561957359E0
1.187158201E1,-5.143777132E-1,-1.671833515E0,1.593331337E0
1.187957740E1,3.048149347E-1,-1.841599226E0,1.627402306E0
1.188757310E1,1.086798310E0,-1.776299000E0,1.302169800E0
1.189556780E1,1.800362349E0,-1.437722921E0,8.192338943E-1
1.190356481E1,2.094191790E0,-1.040761709E0,5.612239838E-1
1.191156105E1,2.043217421E0,-6.092221737E-1,5.194854736E-1
1.191955560E1,1.998606205E0,-3.366131783E-1,6.847372055E-1
1.192758169E1,1.969929457E0,-5.354738235E-2,7.023925781E-1
1.193557677E1,1.584184170E0,2.146797180E-1,8.382472992E-1
1.194357309E1,8.284206390E-1,4.360935688E-1,9.319753647E-1
1.195156940E1,-9.389626980E-2,6.799907684E-1,8.736524582E-1
1.195956365E1,-5.570545197E-1,8.034830093E-1,8.016233444E-1
1.196756058E1,-7.514009476E-1,9.205491543E-1,3.885612488E-1
1.197555505E1,-7.704515457E-1,1.051435232E0,3.468799591E-2
1.198358213E1,-8.246996403E-1,1.131629586E0,-2.874059677E-1
1.199157814E1,-1.097165465E0,1.125710130E0,-6.914215088E-1
1.199957284E1,-1.403284311E0,1.103693247E0,-1.172854424E0
1.200756801E1,-1.532522440E0,1.061338663E0,-1.722105503E0
1.201556463E1,-1.346435666E0,9.222811460E-1,-2.031195164E0
1.202355941E1,-9.269682169E-1,7.125585079E-1,-2.190519333E0
1.203155565E1,-6.155551672E-1,5.247490406E-1,-2.290227413E0
1.203958181E1,-6.386350393E-1,4.380116463E-1,-2.242090225E0
1.204757697E1,-7.884997129E-1,3.423368931E-1,-1.949295998E0
1.205557237E1,-8.098241091E-1,1.662926674E-1,-1.577237606E0
1.206356830E1,-5.086636543E-1,-2.132892609E-1,-1.145290375E0
1.207156431E1,-1.271311045E-1,-6.696760654E-1,-9.498920441E-1
1.207955970E1,7.323026657E-2,-9.580159187E-1,-5.342931747E-1
1.208758556E1,1.069408655E-1,-1.213841677E0,-5.660343170E-2
1.209558157E1,9.976279736E-2,-1.396680355E0,7.146224976E-1
1.210357734E1,2.463769913E-2,-1.618363619E0,1.123106956E0
1.211157274E1,-2.103269100E-2,-1.921473026E0,1.345029831E0
1.211956752E1,1.538851261E-1,-2.192799330E0,1.482390404E0
1.212756414E1,6.591626406E-1,-2.266754389E0,1.305156708E0
1.213555861E1,1.202445030E0,-2.036856651E0,1.005475044E0
1.215158163E1,1.195245743E0,-1.054214478E0,7.150049210E-1
1.215957618E1,1.259412050E0,-7.873702049E-1,8.814258575E-1
1.216757242E1,1.546015739E0,-6.177034378E-1,1.085556984E0
1.217556719E1,1.641414285E0,-3.500564098E-1,1.306364059E0
1.218356412E1,1.441580772E0,-6.492137909E-2,1.613489151E0
1.219156013E1,9.696432352E-1,2.329664230E-1,1.758928299E0
1.219958514E1,2.570499182E-1,5.815334320E-1,1.546675682E0
1.220758077E1,-1.486266851E-1,9.564731121E-1,1.323495865E0
1.221557593E1,-3.408738375E-1,1.148947001E0,6.989231110E-1
1.222357194E1,-4.762536287E-1,1.305640578E0,1.807146072E-1
1.223156756E1,-5.804994106E-1,1.385193825E0,-1.751222610E-1
1.223956296E1,-8.123612404E-1,1.374991059E0,-3.973741531E-1
1.224755874E1,-1.219451427E0,1.391503930E0,-8.797340393E-1
1.225558490E1,-1.525380373E0,1.357801318E0,-1.307552338E0
1.226358029E1,-1.371607065E0,1.219576955E0,-1.740050793E0
1.227157745E1,-1.050010443E0,9.457067251E-1,-2.024808407E0
1.227957169E1,-7.083511353E-1,6.696796417E-1,-2.199533939E0
1.228756740E1,-5.255386829E-1,4.839639664E-1,-2.110012054E0
1.229556217E1,-3.045355082E-1,1.996691227E-1,-1.742464066E0
1.230355841E1,-7.499396801E-2,-4.489636421E-2,-1.571363449E0
1.231158619E1,8.430624008E-2,-1.993811131E-1,-1.359179497E0
1.231958097E1,2.188708782E-1,-4.177994728E-1,-9.595088959E-1
1.232757606E1,2.940220833E-1,-6.282465458E-1,-6.248645782E-1
1.233557083E1,3.470461369E-1,-1.006958246E0,1.446390152E-1
1.234356715E1,2.546591759E-1,-1.392598391E0,5.190763474E-1
1.235156431E1,-1.240789890E-2,-1.641569138E0,1.232150078E0
1.235955794E1,-9.838819504E-2,-1.939245939E0,1.332468033E0
1.236758402E1,1.473604441E-1,-2.100393057E0,1.099674225E0
1.237558003E1,6.700270176E-1,-2.038262129E0,1.021384239E0
1.238357550E1,1.003456831E0,-1.781503916E0,7.887496948E-1
1.239157274E1,1.245005369E0,-1.444667578E0,6.204309464E-1
1.239956660E1,1.424603462E0,-1.250162840E0,5.387229919E-1
1.240756291E1,1.699474096E0,-1.053141594E0,3.819742203E-1
1.241555700E1,1.952581406E0,-7.454588413E-1,3.926095963E-1
1.242358439E1,1.954330683E0,-4.919331074E-1,4.558334351E-1
1.243158079E1,1.580049515E0,-2.080547810E-1,4.449052811E-1
1.243957580E1,1.164839149E0,1.948738098E-2,6.760520935E-1
1.244757157E1,6.356742382E-1,3.506941795E-1,6.941347122E-1
1.245556658E1,8.908295631E-2,8.146331310E-1,5.078840256E-1
1.246356175E1,-3.809840679E-1,1.260871887E0,3.510169983E-1
1.247155891E1,-6.864869595E-1,1.618412614E0,2.680187225E-1
1.247958384E1,-7.627804279E-1,1.724049807E0,2.722654343E-1
1.248757985E1,-8.936039209E-1,1.760697007E0,2.533435822E-2
1.249557586E1,-1.151955843E0,1.708623528E0,-2.951869965E-1
1.250357125E1,-1.373740792E0,1.579167128E0,-6.258811951E-1
1.251156726E1,-1.516192913E0,1.360501409E0,-1.053583145E0
1.251956296E1,-1.591571093E0,1.175181627E0,-1.383678436E0
1.252755782E1,-1.598116636E0,9.352753162E-1,-1.599513054E0
1.253558359E1,-1.577394009E0,7.826037407E-1,-1.883747578E0
1.254357960E1,-1.442519188E0,6.280572414E-1,-2.014939785E0
1.255157684E1,-1.333313465E0,3.584864140E-1,-1.795616627E0
1.255957101E1,-1.276034355E0,8.167815208E-2,-1.650846481E0
1.256756648E1,-1.325024366E0,-1.729440689E-1,-1.494779110E0
1.257556248E1,-1.307764530E0,-3.653397560E-1,-1.257541180E0
1.258355757E1,-1.156690121E0,-6.133317947E-1,-6.477594376E-1
1.259158435E1,-1.019798040E0,-9.325604439E-1,7.573318481E-2
1.259957997E1,-8.986127377E-1,-1.188349962E0,6.223554611E-1
1.260757567E1,-4.924380779E-1,-1.485853672E0,1.200885773E0
1.261557022E1,1.046714783E-1,-1.697232723E0,1.271066666E0
1.262356677E1,9.288409948E-1,-1.824169397E0,1.144593239E0
1.263156286E1,1.734950304E0,-1.736068249E0,7.832021713E-1
1.263955756E1,2.129052162E0,-1.420137882E0,4.210920334E-1
1.264758341E1,2.318345070E0,-1.065969944E0,4.223527908E-1
1.265557857E1,2.348597765E0,-8.984951973E-1,4.874811172E-1
1.266357428E1,2.448366165E0,-8.633813858E-1,5.517730713E-1
1.267157121E1,2.394918442E0,-8.140754700E-1,7.543096542E-1
1.267956560E1,2.029254675E0,-6.911032200E-1,9.276056290E-1
1.268756169E1,1.336167693E0,-5.331664085E-1,1.168490410E0
1.269555670E1,7.888936996E-1,-4.900379181E-1,1.343670845E0
1.270358317E1,5.246708393E-1,-4.162337780E-1,1.740695000E0
1.271157925E1,4.678024054E-1,-2.065298557E-1,1.578092575E0
1.271957434E1,3.604104519E-1,3.104226589E-1,1.328698158E0
1.272757035E1,2.159712315E-1,1.104230881E0,9.740056992E-1
1.273556536E1,1.140639782E-1,1.806916952E0,5.956907272E-1
1.274356206E1,2.252554893E-2,2.329390764E0,3.136606216E-1
1.275155837E1,-1.149494648E-1,2.343197346E0,2.347831726E-1
1.275958331E1,-3.051395416E-1,2.011452675E0,-2.202882767E-1
1.276757924E1,-6.390726566E-1,1.767645717E0,-9.345474243E-1
1.277557378E1,-1.111042738E0,1.602908969E0,-1.122047424E0
1.278356949E1,-1.327726364E0,1.382974029E0,-1.358535290E0
1.279156665E1,-1.251077175E0,1.143625021E0,-1.454609871E0
1.279956174E1,-1.058879852E0,8.691966534E-1,-1.467878342E0
1.280755682E1,-9.379036427E-1,6.374616623E-1,-1.510206223E0
1.281558398E1,-8.706302643E-1,4.160232544E-1,-1.584879398E0
1.282357876E1,-8.099689484E-1,2.398524284E-1,-1.709175587E0
1.283157538E1,-8.568458557E-1,9.829640388E-2,-1.397620201E0
1.283957009E1,-1.016871691E0,-3.604102135E-2,-1.110554695E0
1.284756556E1,-1.067062140E0,-2.805378437E-1,-8.861808777E-1
1.285555995E1,-9.646267891E-1,-6.439242363E-1,-5.578756332E-1
1.286355758E1,-8.425085545E-1,-8.710393906E-1,-1.003761292E-1
1.287158343E1,-6.797411442E-1,-1.015717268E0,2.477550507E-1
1.287957913E1,-4.118907452E-1,-1.244493961E0,6.669960022E-1
1.288757383E1,3.584218025E-2,-1.477844954E0,9.632320404E-1
1.289556923E1,6.315507889E-1,-1.695831776E0,1.152174950E0
1.290356585E1,9.608637094E-1,-1.672427654E0,1.000990868E0
1.291156163E1,9.461721182E-1,-1.638283730E0,1.152210236E0
1.291955725E1,9.224015474E-1,-1.783321619E0,1.364095688E0
1.292758288E1,1.101638794E0,-1.826643944E0,1.476373672E0
1.293557796E1,1.519023895E0,-1.686065197E0,1.534569740E0
1.294357459E1,1.720435262E0,-1.427000761E0,1.344998360E0
1.295157029E1,1.424268484E0,-1.070278168E0,1.306242943E0
1.295956507E1,9.043495655E-1,-7.359137535E-1,1.253312111E0
1.296756077E1,7.317521572E-1,-5.239462852E-1,1.248501778E0
1.297558693E1,7.893989086E-1,-1.916906834E-1,1.063681602E0
1.298358294E1,9.004186392E-1,1.474778652E-1,8.677129745E-1
1.299157856E1,8.773345947E-1,6.317398548E-1,5.589256287E-1
1.299957373E1,7.507730722E-1,9.307763577E-1,2.417755127E-1
1.300756912E1,6.109805107E-1,1.161830783E0,-7.460403442E-2
1.301556444E1,4.429155588E-1,1.458949327E0,-5.586795807E-1
1.302356052E1,1.732678413E-1,1.659797192E0,-5.536031723E-1
1.303155738E1,-7.133865356E-2,1.816534519E0,-8.832578659E-1
1.303958300E1,2.682447433E-2,1.755874991E0,-1.066858292E0
1.304757770E1,1.513500214E-1,1.533992767E0,-1.362592220E0
1.305557440E1,1.037428379E-1,1.280877352E0,-1.560061455E0
1.306356972E1,-6.472826004E-2,1.142392755E0,-1.626786709E0
1.307156642E1,-3.582100868E-1,1.028729439E0,-1.721590996E0
1.307956020E1,-5.243806839E-1,9.568790197E-1,-1.685040951E0
1.308755682E1,-5.109264851E-1,7.814083099E-1,-1.714772224E0
1.309558153E1,-4.795327187E-1,5.700652599E-1,-1.748570919E0
1.310357754E1,-5.508260727E-1,4.136283398E-1,-1.614266396E0
1.311157470E1,-6.429333687E-1,1.636927128E-1,-1.360078812E0
1.311956863E1,-6.818118095E-1,-7.467651367E-2,-8.883781433E-1
1.312756495E1,-6.445273161E-1,-5.047094822E-1,-2.693243027E-1
1.313555965E1,-5.378494263E-1,-8.902766705E-1,1.802988052E-1
1.314358589E1,-2.971092463E-1,-1.342677593E0,6.828708649E-1
1.315158305E1,-8.070075512E-2,-1.740802288E0,1.278304100E0
1.315957790E1,1.518505812E-1,-1.923127413E0,1.682685852E0
1.316757330E1,5.296508074E-1,-2.025446415E0,1.855484009E0
1.317556862E1,9.449643493E-1,-1.927071810E0,1.685049057E0
1.318356524E1,1.486352086E0,-1.614888668E0,1.356860161E0
1.319156132E1,1.723531365E0,-1.071111202E0,1.003793716E0
1.319958626E1,1.509522200E0,-5.669767857E-1,6.821241379E-1
1.320758188E1,9.783331156E-1,-1.975100040E-1,1.010278702E0
1.321557666E1,6.435303688E-1,-5.351758003E-2,1.145456314E0
1.322357274E1,3.401633501E-1,9.068584442E-2,1.353436470E0
1.323156937E1,-5.260658264E-2,3.418242931E-1,1.207645416E0
1.323956438E1,-7.052035332E-1,6.841089725E-1,1.002068520E0
1.324755985E1,-1.063192248E0,9.114551544E-1,8.797235489E-1
1.325555455E1,-1.012435913E0,1.153824568E0,6.787471771E-1
1.326358171E1,-6.872181892E-1,1.349406958E0,5.627212524E-1
1.327157834E1,-3.609290123E-1,1.428614974E0,5.559949875E-1
1.327957273E1,-4.001071453E-1,1.514363527E0,1.742362976E-1
1.328756843E1,-7.010965347E-1,1.568853259E0,-3.825654984E-1
1.329556506E1,-1.045744181E0,1.536398292E0,-6.777105331E-1
1.330355983E1,-1.190496922E0,1.468514800E0,-1.144515038E0
1.331155592E1,-1.231536150E0,1.391729951E0,-1.639368534E0
1.331958201E1,-1.236378193E0,1.303434253E0,-1.898862839E0
1.332757717E1,-1.227865934E0,1.120425940E0,-1.879153252E0
1.333557225E1,-1.254854202E0,8.515645266E-1,-1.776023865E0
1.334356849E1,-1.272497177E0,5.934963226E-1,-1.684086323E0
1.335156450E1,-1.346745253E0,3.831851482E-1,-1.654323578E0
1.335955967E1,-1.402279139E0,1.158618927E-1,-1.569627285E0
1.336758552E1,-1.474542141E0,-7.564592361E-2,-1.480426311E0
1.337558084E1,-1.411161423E0,-2.205684185E-1,-1.379199028E0
1.338357723E1,-1.103127718E0,-4.079110622E-1,-1.085541725E0
1.339157378E1,-6.608704329E-1,-6.107115746E-1,-5.145854950E-1
1.339956832E1,1.161491871E-2,-8.707911968E-1,1.782760620E-1
1.340756395E1,5.947171450E-1,-1.043370485E0,4.675455093E-1
1.341555904E1,1.259301901E0,-1.188021421E0,7.858581543E-1
1.342358551E1,1.738875747E0,-1.361572027E0,9.149618149E-1
1.343158252E1,2.022756338E0,-1.506044626E0,1.220759392E0
1.343957660E1,1.888538361E0,-1.519454718E0,1.635649681E0
1.344757261E1,1.635486364E0,-1.426996708E0,1.677761078E0
1.345556800E1,1.425122619E0,-1.147818089E0,1.757580757E0
1.346356370E1,1.350310564E0,-8.533158302E-1,1.437926292E0
1.347156010E1,1.082014561E0,-4.906041622E-1,1.143741608E0
1.347958564E1,6.116415262E-1,-9.666490555E-2,8.782119751E-1
1.348758096E1,2.275724411E-1,2.706699371E-1,7.201232910E-1
1.349557605E1,-1.026536226E-1,6.427915096E-1,6.440963745E-1
1.350357183E1,-2.627830505E-1,8.765614033E-1,5.881843567E-1
1.351156868E1,-5.460309982E-1,1.115713120E0,3.277244568E-1
1.351956354E1,-8.845951557E-1,1.338677168E0,-5.226993561E-2
1.352755924E1,-1.165180206E0,1.355586171E0,-2.683858871E-1
1.353558540E1,-1.174929380E0,1.211691380E0,-5.165538788E-1
1.354358141E1,-1.118583202E0,1.035347104E0,-8.739528656E-1
1.355157734E1,-1.107714176E0,9.423520565E-1,-1.272987843E0
1.355957220E1,-9.829978943E-1,9.287997484E-1,-1.440011501E0
1.356756728E1,-7.170376778E-1,8.631989956E-1,-1.562683582E0
1.357556268E1,-5.648345947E-1,6.624919176E-1,-1.648312092E0
1.358355838E1,-5.943684578E-1,4.529266357E-1,-1.679970741E0
1.359158569E1,-7.524583340E-1,2.743053436E-1,-1.930675983E0
1.359958109E1,-9.158043861E-1,9.708666801E-2,-1.986101627E0
1.360757594E1,-1.008462310E0,-1.750054359E-1,-1.762779713E0
1.361557187E1,-9.506359100E-1,-4.836170673E-1,-1.430869579E0
1.362356765E1,-6.907559633E-1,-8.240864277E-1,-9.733066559E-1
1.363156451E1,-2.591892481E-1,-1.202341795E0,-5.235834122E-1
1.363955875E1,2.520692348E-1,-1.512371540E0,1.422138214E-1
1.364758491E1,8.497386575E-1,-1.837597847E0,8.693351746E-1
1.365558000E1,1.369930029E0,-1.993168592E0,1.285961151E0
1.366357624E1,1.875218868E0,-2.201557398E0,1.517508507E0
1.367157263E1,2.278546333E0,-2.256795168E0,1.505299568E0
1.367956641E1,2.822960138E0,-2.233353853E0,1.554800987E0
1.368756303E1,3.566051245E0,-2.025956869E0,1.085339546E0
1.369558950E1,3.859214783E0,-1.718952656E0,4.217500687E-1
1.370358520E1,3.467465162E0,-1.430513382E0,-1.063480377E-1
1.371158098E1,2.702479601E0,-1.369995594E0,-2.490415573E-1
1.371957630E1,2.296454906E0,-1.480339766E0,-2.794599533E-1
1.372757115E1,1.931698561E0,-1.587971926E0,-5.520839691E-1
1.373556624E1,1.571193099E0,-1.602226734E0,-7.701263428E-1
1.374356248E1,1.002322674E0,-1.578850985E0,-9.474258423E-1
1.375155887E1,5.787138343E-1,-1.519280195E0,-1.230958939E0
1.375958504E1,3.151313066E-1,-1.367943764E0,-1.480169296E0
1.376758035E1,3.490666747E-1,-1.042505503E0,-1.732478142E0
1.377557582E1,4.039528966E-1,-6.016647816E-1,-1.833686829E0
1.378357114E1,5.202249885E-1,-4.181814194E-2,-1.969427586E0
1.379156807E1,6.550756693E-1,3.478269577E-1,-2.102925301E0
1.379956231E1,7.970561385E-1,5.263152122E-1,-2.222622871E0
1.380755793E1,6.925164461E-1,5.761907101E-1,-2.321484566E0
1.381558410E1,4.126552939E-1,6.089515686E-1,-2.333106518E0
1.382357988E1,1.025007367E-1,6.376638412E-1,-2.386830330E0
1.383157588E1,-6.205165386E-2,6.450829506E-1,-2.288476467E0
1.383957159E1,-1.749311686E-1,5.986402035E-1,-2.287642956E0
1.384756629E1,-3.371284008E-1,6.035361290E-1,-2.434616566E0
1.385556168E1,-6.940389872E-1,6.333820820E-1,-2.557099819E0
1.386355769E1,-1.083410621E0,5.885763168E-1,-2.594712734E0
1.387158516E1,-1.339177847E0,4.805357456E-1,-2.372914314E0
1.387957955E1,-1.657028556E0,3.097717762E-1,-2.357092857E0
1.388757525E1,-1.849122405E0,1.277265549E-1,-2.030722618E0
1.389557034E1,-1.857236385E0,-2.262501717E-1,-1.541272163E0
1.390356635E1,-1.964707375E0,-3.816480637E-1,-1.497292042E0
1.391156367E1,-2.153325796E0,-3.169908524E-1,-1.405398369E0
1.391955690E1,-2.542026281E0,-6.583070755E-2,-1.406308174E0
1.392758399E1,-2.853331566E0,1.875300407E-1,-1.228967667E0
1.393557900E1,-3.018804789E0,3.162961006E-1,-8.091697693E-1
1.394357501E1,-2.989734173E0,3.610129356E-1,-3.262405396E-1
1.395157109E1,-2.902758598E0,4.451966286E-1,-1.929664612E-2
1.395956641E1,-2.557444334E0,4.355540276E-1,5.215396881E-1
1.396756188E1,-2.256055593E0,5.342173576E-1,8.089170456E-1
1.397555689E1,-2.071056366E0,7.308783531E-1,1.129785538E0
1.398358398E1,-1.890089989E0,8.593113422E-1,1.228314400E0
1.399157968E1,-1.635902166E0,9.262440205E-1,1.226639748E0
1.399957484E1,-1.329533815E0,1.014515638E0,1.390291214E0
1.400757023E1,-1.110635996E0,1.101082325E0,1.479421616E0
1.401556709E1,-8.580741882E-1,1.256732941E0,1.442487717E0
1.402356218E1,-6.175098419E-1,1.290941715E0,1.548788071E0
1.403155788E1,-3.730330467E-1,1.178473473E0,1.510717392E0
1.403958319E1,-1.304676533E-1,9.296448231E-1,1.560513496E0
1.404757882E1,6.194233894E-2,6.294879913E-1,1.850073814E0
1.405557429E1,-3.488540649E-3,3.430633545E-1,2.367385864E0
1.406357060E1,-2.830765247E-1,2.971158028E-1,2.611856461E0
1.407156692E1,-5.626151562E-1,2.811894417E-1,2.873610497E0
1.407956131E1,-5.796084404E-1,2.319598198E-1,3.047982216E0
1.408755732E1,-4.887304306E-1,1.612105370E-1,3.068117142E0
1.409558287E1,-3.229069710E-1,4.702901840E-2,2.919612885E0
1.410357919E1,-1.998126507E-1,-2.882385254E-2,2.703111649E0
1.411157458E1,-4.929924011E-2,-9.662342072E-2,2.528672218E0
1.411957005E1,8.539199829E-2,-1.634659767E-1,2.235037804E0
1.412756575E1,2.827193737E-1,-2.013406754E-1,1.867634773E0
1.413556084E1,4.824934006E-1,-3.362598419E-1,1.459495544E0
1.414355739E1,6.992192268E-1,-5.313835144E-1,1.110874176E0
1.415158424E1,9.211616516E-1,-7.815814018E-1,8.570823669E-1
1.415957840E1,8.988122940E-1,-9.075164795E-1,7.217407227E-1
1.416757464E1,7.692320347E-1,-8.803873062E-1,6.940460205E-1
1.417556973E1,7.090899944E-1,-8.446578979E-1,7.583408356E-1
1.418356605E1,8.708772659E-1,-8.417358398E-1,6.906127930E-1
1.419156213E1,1.146947145E0,-8.184881210E-1,6.165046692E-1
1.419958706E1,1.325995684E0,-7.477407455E-1,4.988040924E-1
1.420758299E1,1.423253536E0,-5.398402214E-1,2.466020584E-1
1.421557808E1,1.365824223E0,-3.364586830E-1,-4.045677185E-2
1.422357409E1,1.381449461E0,-1.768088341E-1,-3.335080147E-1
1.423157079E1,1.464592099E0,-1.026334763E-1,-5.729899406E-1
1.423956557E1,1.537041187E0,-1.082048416E-1,-6.519398689E-1
1.424756127E1,1.493316650E0,-1.384530067E-1,-7.482566833E-1
1.425558774E1,1.375968575E0,-9.151458740E-2,-8.066687584E-1
1.426358313E1,1.238935947E0,1.066880226E-1,-9.012174606E-1
1.427157907E1,1.166327000E0,4.385290146E-1,-9.470572472E-1
1.427957423E1,1.150204897E0,7.290749550E-1,-1.068359852E0
1.428756954E1,1.094106913E0,1.037097931E0,-1.153765678E0
1.429556440E1,1.025210500E0,1.306923151E0,-1.316157818E0
1.430356095E1,9.737340212E-1,1.644193888E0,-1.304433823E0
1.431158803E1,8.311589956E-1,1.906473160E0,-1.276707649E0
1.431958227E1,4.897952080E-1,2.138792753E0,-1.276254177E0
1.432757790E1,1.330437660E-1,2.225859880E0,-1.181407928E0
1.433557360E1,-1.778469086E-1,2.265770674E0,-1.124931335E0
1.434356930E1,-5.902521610E-1,2.292040110E0,-9.164948463E-1
1.435156631E1,-9.470949173E-1,2.309109449E0,-7.394022942E-1
1.435956163E1,-1.288630724E0,2.364715338E0,-4.100751877E-1
1.436758663E1,-1.522880554E0,2.401301146E0,-2.474865913E-1
1.437558141E1,-1.755451202E0,2.419020414E0,-1.630077362E-1
1.438357765E1,-1.947518110E0,2.276859760E0,1.137495041E-2
1.439157466E1,-2.034125328E0,2.041001081E0,1.300873756E-1
1.439956944E1,-2.098722458E0,1.733577490E0,-1.559495926E-1
1.440756445E1,-2.053003073E0,1.499238968E0,-4.217681885E-1
1.441556146E1,-1.825906277E0,1.242663383E0,-6.162676811E-1
1.442358662E1,-1.587486267E0,1.057076454E0,-4.953751564E-1
1.443158324E1,-1.625636101E0,9.301657677E-1,-4.976286888E-1
1.443957833E1,-1.679290771E0,6.622428894E-1,-3.386802673E-1
1.444757257E1,-1.567259550E0,3.760251999E-1,-8.123779297E-2
1.445556858E1,-1.478456974E0,1.354808807E-1,2.211189270E-1
1.446356451E1,-1.495689154E0,-7.252836227E-2,3.168520927E-1
1.447156152E1,-1.500907660E0,-2.253184319E-1,3.437299728E-1
1.447958638E1,-1.436910152E0,-4.418506622E-1,3.205904961E-1
1.448758246E1,-1.316535473E0,-5.582895279E-1,3.681693077E-1
1.449557778E1,-1.230197668E0,-6.235818863E-1,5.470495224E-1
1.450357356E1,-1.205840588E0,-5.909080505E-1,5.911488533E-1
1.451156949E1,-1.273985386E0,-5.919146538E-1,7.045145035E-1
1.451956457E1,-1.266169548E0,-6.441841125E-1,6.956958771E-1
1.452755997E1,-1.098470926E0,-7.679948807E-1,7.349476814E-1
1.453558551E1,-6.614332199E-1,-9.975309372E-1,9.459767342E-1
1.454358160E1,-2.500596046E-1,-1.111070633E0,9.591302872E-1
1.455157853E1,4.862761497E-2,-1.142556667E0,5.018014908E-1
1.455957300E1,2.872002125E-1,-1.338049889E0,4.386391640E-1
1.456756893E1,2.391815186E-3,-1.036758900E0,1.045651436E-1
1.457556410E1,-3.721227646E-1,-9.027132988E-1,3.548603058E-1
1.458356034E1,-4.075293541E-1,-1.239768028E0,7.963566780E-1
1.459158773E1,-5.435454845E-1,-1.974135876E0,7.143111229E-1
1.459958159E1,-8.301889896E-1,-2.366456032E0,1.153359890E0
1.460757698E1,-1.239655495E0,-1.908327579E0,1.032358646E0
1.461557183E1,-1.265065193E0,-1.032244205E0,7.998652458E-1
1.462356869E1,-1.057551622E0,-2.501096725E-1,2.500734329E-1
1.463156470E1,-5.753369331E-1,1.096253395E-1,1.842274666E-1
1.463956009E1,-1.298532486E-1,3.852462769E-2,2.556962967E-1
1.464758602E1,1.371836662E-1,-1.132049561E-1,1.005454063E-1
1.465558072E1,2.697288990E-1,-1.138954163E-1,1.328506470E-1
1.466357673E1,6.880688667E-1,5.063581467E-2,1.214199066E-1
1.467157366E1,1.122998714E0,2.106695175E-1,5.024623871E-2
1.467956875E1,9.959473610E-1,2.440319061E-1,-2.420325279E-1
1.468756476E1,4.427011013E-1,3.323841095E-2,-2.828488350E-1
1.469555892E1,-2.811145782E-2,-1.558198929E-1,-3.442654610E-1
1.470358609E1,-1.759345531E-1,-4.075937271E-1,-4.063310623E-1
1.471158179E1,-4.230928421E-2,-5.292720795E-1,-3.489193916E-1
1.471957687E1,1.806132793E-1,-4.814047813E-1,-2.530918121E-1
1.472757319E1,4.569063187E-1,-4.784326553E-1,-2.677979469E-1
1.473556797E1,6.962018013E-1,-5.155344009E-1,-2.154908180E-1
1.474356452E1,9.224047661E-1,-6.128640175E-1,-4.216356277E-1
1.475155998E1,9.991760254E-1,-1.071893215E0,6.047282219E-1
1.475958546E1,5.446245670E-1,-1.477885246E0,-6.182017326E-1
1.476758147E1,-5.115256310E-1,-1.336345673E0,-4.232282639E-1
1.477557655E1,-2.670173645E-1,-9.917283058E-1,5.422163010E-2
1.478357294E1,3.825826645E-1,-1.090934753E0,7.799911499E-2
1.479156957E1,-8.730340004E-2,-9.984812737E-1,-3.900618553E-1
1.479956312E1,-9.625930786E-1,-8.491992950E-1,-4.838919640E-1
1.480755912E1,-1.173253536E0,-7.244262695E-1,-5.595383644E-1
1.481558490E1,-1.035747051E0,-7.937884331E-1,-6.671328545E-1
1.482358068E1,-7.959198952E-1,-1.008842945E0,-7.089200020E-1
1.483157700E1,-6.779165268E-1,-1.145959854E0,-5.266661644E-1
1.483957208E1,-6.103992462E-1,-1.196848869E0,-2.910122871E-1
1.484756832E1,-6.331810951E-1,-1.048219204E0,-3.438348770E-1
1.485556310E1,-6.732187271E-1,-8.514800072E-1,-3.363690376E-1
1.486355888E1,-6.318106651E-1,-6.278877258E-1,-6.384134293E-2
1.487158627E1,-6.493978500E-1,-3.408274651E-1,9.733724594E-2
1.487958105E1,-6.374526024E-1,-1.080145836E-1,2.871360779E-1
1.488757614E1,-5.068998337E-1,1.128249168E-1,4.181013107E-1
1.489557207E1,-4.468011856E-1,3.355655670E-1,5.082020760E-1
1.490356808E1,-4.253125191E-1,6.068482399E-1,3.692226410E-1
1.491156416E1,-3.036956787E-1,8.413214684E-1,4.251337051E-2
1.491955894E1,-5.482244492E-2,1.117917061E0,-3.749790192E-1
1.492758449E1,4.096031189E-3,1.232466698E0,-4.089598656E-1
1.493558042E1,-2.473521233E-1,1.081169128E0,1.622052193E-1
1.494357705E1,-4.354562759E-1,1.056034565E0,-2.589082718E-2
1.495157244E1,-2.152314186E-1,1.036384583E0,2.005481720E-2
1.495956699E1,-6.087141037E-1,1.127087116E0,1.018104553E-1
1.496756323E1,-1.150421619E0,9.993910789E-1,6.468267441E-1
1.497558977E1,-7.501554489E-1,5.743932724E-1,9.527764320E-1
1.498358517E1,1.147422791E-1,5.433778763E-1,4.955224991E-1
1.499158148E1,4.810829163E-1,7.196645737E-1,6.887388229E-2
1.499957588E1,3.643960953E-1,8.877706528E-1,-2.762527466E-1
1.500757158E1,1.287674904E-1,7.430753708E-1,-4.307947159E-1
1.501556705E1,1.349210739E-2,3.218464851E-1,-5.635786057E-1
1.502356267E1,3.521394730E-2,-1.723146439E-2,-6.056776047E-1
1.503155999E1,-2.086839676E-1,-2.911133766E-1,-3.666896820E-1
1.503958431E1,-5.883927345E-1,-1.731858253E-1,-9.284543991E-2
1.504757970E1,-8.669557571E-1,1.544189453E-2,1.161937714E-1
1.505557479E1,-8.453602791E-1,7.577037811E-2,1.523203850E-1
1.506357141E1,-6.467647552E-1,-6.465625763E-2,9.560585022E-3
1.507156742E1,-4.842481613E-1,-9.385776520E-2,-3.423213959E-3
1.507956274E1,-5.253653526E-1,3.924655914E-2,3.256464005E-2
1.508755851E1,-4.558763504E-1,1.018180847E-1,-4.108715057E-2
1.509558375E1,2.197203636E-1,2.811713219E-1,-4.066500664E-1
1.510357976E1,6.857526302E-1,4.209208488E-1,-3.829236031E-1
1.511157723E1,9.381916523E-1,4.147958755E-1,-5.055966377E-1
1.511957116E1,1.098850250E0,3.345208168E-1,-4.486851692E-1
1.512756687E1,9.499323368E-1,4.456844330E-1,-4.108366966E-1
1.513556318E1,5.963439941E-1,4.796228409E-1,-5.163941383E-1
1.514355827E1,4.063358307E-1,4.650974274E-1,-6.116337776E-1
1.515158597E1,2.038578987E-1,4.797196388E-1,-6.576662064E-1
1.515958006E1,1.465272903E-2,4.645113945E-1,-5.818338394E-1
1.516757576E1,8.077478409E-2,3.676781654E-1,-5.336203575E-1
1.517557053E1,2.908749580E-1,2.865343094E-1,-5.606813431E-1
1.518356693E1,4.482874870E-1,2.399578094E-1,-4.535508156E-1
1.519156355E1,5.714745522E-1,9.006786346E-2,-3.109412193E-1
1.519955741E1,5.844902992E-1,-1.686263084E-1,-6.406879425E-2
1.520758449E1,5.619382858E-1,-5.052213669E-1,6.643152237E-2
1.521558012E1,3.311376572E-1,-7.712965012E-1,3.317708969E-1
1.522357582E1,-4.477977753E-3,-7.781529427E-1,4.020795822E-1
1.523157221E1,-4.436702728E-1,-6.492204666E-1,4.188771248E-1
1.523956668E1,-7.273592949E-1,-5.428094864E-1,3.820495605E-1
1.524756200E1,-7.457642555E-1,-4.612722397E-1,9.462738037E-2
1.525558762E1,-6.622948647E-1,-3.973345757E-1,-1.083445549E-1
1.526358448E1,-5.425629616E-1,-3.238811493E-1,-1.143999100E-1
1.527158087E1,-3.359489441E-1,-2.219495773E-1,-2.875804901E-2
1.527957504E1,-1.068940163E-1,-1.738181114E-1,2.580885887E-1
1.528757074E1,2.570152283E-3,-1.327552795E-1,3.277683258E-1
1.529556551E1,-9.942197800E-2,-2.145323753E-1,4.276490211E-1
1.530356245E1,-1.320848465E-1,-3.708157539E-1,4.176750183E-1
1.531158915E1,-6.390571594E-2,-4.674143791E-1,3.416600227E-1
1.531958270E1,-4.979133606E-3,-3.085422516E-1,2.637424469E-1
1.532757909E1,1.634163857E-1,-9.156322479E-2,3.097486496E-2
1.533557479E1,3.343081474E-1,7.688331604E-2,-2.328100204E-1
1.534357072E1,6.180768013E-1,2.571029663E-1,-4.648833275E-1
1.535156704E1,8.462696075E-1,3.243255615E-1,-5.445508957E-1
1.535956182E1,9.041328430E-1,2.478337288E-1,-5.505914688E-1
1.536758798E1,8.444385529E-1,7.986783981E-2,-3.923468590E-1
1.537558306E1,7.272181511E-1,-5.852985382E-2,-1.494703293E-1
1.538357915E1,5.408124924E-1,-1.660475731E-1,2.471299171E-1
1.539157539E1,3.974070549E-1,-1.710300446E-1,3.734560013E-1
1.539957078E1,4.447636604E-1,-1.895351410E-1,3.259940147E-1
1.540756595E1,4.832983017E-1,-2.440042496E-1,1.891469955E-1
1.541556072E1,3.798370361E-1,-2.724761963E-1,-3.219413757E-2
1.542358804E1,3.962655067E-1,-2.522320747E-1,-5.188775063E-1
1.543158436E1,4.529900551E-1,-1.617035866E-1,-4.670538902E-1
1.543957860E1,6.411161423E-1,-4.235610962E-1,7.779645920E-2
1.544757399E1,4.062304497E-1,-5.934829712E-1,1.962742805E-1
1.545557115E1,3.572788239E-1,-6.332201958E-1,-2.240748405E-1
1.546356562E1,2.479739189E-1,-7.569508553E-1,-2.427382469E-1
1.547156163E1,-2.179765701E-2,-8.517150879E-1,8.641815186E-2
1.547958726E1,-3.671526909E-1,-8.117890358E-1,-1.864862442E-2
1.548758319E1,-5.653872490E-1,-6.318249702E-1,7.456588745E-2
1.549557835E1,-7.786679268E-1,-3.914527893E-1,1.866121292E-1
1.550357467E1,-8.366456032E-1,-2.384066582E-1,3.953928947E-1
1.551157060E1,-6.979537010E-1,-6.500339508E-2,5.193805695E-1
1.551956515E1,-5.585398674E-1,1.625661850E-1,5.825591087E-1
1.552756147E1,-5.567679405E-1,2.935075760E-1,5.081739426E-1
1.553558670E1,-4.783167839E-1,2.371349335E-1,5.130314827E-1
1.554358302E1,-5.171580315E-1,1.670670509E-1,4.787507057E-1
1.555157865E1,-7.153253555E-1,1.096773148E-2,4.828886986E-1
1.555957412E1,-6.224155426E-1,-2.466197014E-1,2.598462105E-1
1.556756982E1,-3.823595047E-1,-3.037528992E-1,-1.714754105E-2
1.557556490E1,-2.982854843E-2,-2.503156662E-2,-4.958682060E-1
1.558356176E1,3.497748375E-1,1.481862068E-1,-5.652704239E-1
1.559158761E1,6.940741539E-1,2.478694916E-1,-7.916474342E-1
1.559958331E1,9.731531143E-1,2.824072838E-1,-1.136560917E0
1.560757809E1,1.212387800E0,3.687000275E-1,-1.278474331E0
1.561557418E1,1.329602003E0,4.398427010E-1,-1.209014893E0
1.562357042E1,1.333052635E0,5.196647644E-1,-1.212756634E0
1.563156643E1,1.257103205E0,6.155738831E-1,-1.303690910E0
1.563956059E1,1.074131727E0,7.527513504E-1,-1.182945728E0
1.564758683E1,8.765306473E-1,8.739066124E-1,-1.222326756E0
1.565558222E1,7.251811028E-1,7.436895370E-1,-9.734535217E-1
1.566357846E1,5.277032852E-1,5.249519348E-1,-7.199311256E-1
1.567157509E1,6.564569473E-2,2.250471115E-1,-3.399147987E-1
1.567956871E1,-2.853698730E-1,1.502575874E-1,-3.251018524E-1
1.568756564E1,-3.050875664E-1,7.973003387E-2,-3.079962730E-1
1.569559119E1,-1.075243950E-1,-1.156382561E-1,-4.779577255E-2
1.570358682E1,2.849197388E-2,-2.629666328E-1,8.941173553E-2
1.571158321E1,1.482009888E-3,-3.979401588E-1,3.689689636E-1
1.571957791E1,-1.697349548E-2,-2.987279892E-1,4.464473724E-1
1.572757338E1,1.664304733E-2,-5.171585083E-1,1.556304455E0
1.573556908E1,-2.047745228E0,-2.376848698E0,5.676391125E0
1.574356440E1,-3.517905712E0,-2.249943256E0,2.206758022E0
1.575156110E1,-1.658215523E0,-9.978652000E-1,1.170358181E0
1.575958665E1,7.808828354E-2,2.019953728E-1,4.237737656E-1
1.576758227E1,1.129624128E0,6.754512787E-1,-2.025456429E-1
1.577557797E1,1.424825191E0,5.986227989E-1,-1.162199020E0
1.578357367E1,8.465118408E-1,4.860625267E-1,-9.707612991E-1
1.579156976E1,1.166839600E-1,4.192237854E-1,-5.521764755E-1
1.579956508E1,-2.345685959E-1,2.360954285E-1,1.222167015E-1
1.580756024E1,-5.206489563E-1,-9.476375580E-2,4.456920624E-1
1.581558609E1,-6.626734734E-1,-2.430024147E-1,3.982768059E-1
1.582358233E1,-5.523838997E-1,-2.604537010E-1,2.781057358E-1
1.583157842E1,-2.626595497E-1,-2.297306061E-1,1.383376122E-1
1.583957320E1,-4.126071930E-2,-2.313704491E-1,-4.966926575E-2
1.584756974E1,8.499240875E-2,-1.430697441E-1,-1.567745209E-1
1.585556460E1,1.232681274E-1,-1.763486862E-2,-1.663746834E-1
1.586355992E1,1.283550262E-1,7.982778549E-2,-1.246514320E-1
1.587158739E1,4.323863983E-2,9.406375885E-2,-1.703553200E-1
1.587958186E1,-1.220068932E-1,7.263040543E-2,-6.166601181E-2
1.588757694E1,-3.711743355E-1,8.156490326E-2,-4.555654526E-2
1.589557257E1,-5.568804741E-1,1.031341553E-1,-3.831911087E-2
1.590356827E1,-6.640734673E-1,1.293454170E-1,-2.116870880E-2
1.591156582E1,-6.288714409E-1,1.344585419E-1,-1.304640770E-1
1.591956029E1,-4.705615044E-1,1.009907722E-1,-2.273387909E-1
1.592758591E1,-2.050690651E-1,2.387666702E-2,-3.219327927E-1
1.593558246E1,3.340196609E-2,2.459049225E-3,-3.884787560E-1
1.594357793E1,2.482733727E-1,-3.728342056E-2,-3.702898026E-1
1.595157386E1,3.520560265E-1,-6.541156769E-2,-2.534742355E-1
1.595956872E1,3.642745018E-1,-1.476206779E-1,-1.257367134E-1
1.596756403E1,3.140773773E-1,-1.937808990E-1,-8.652782440E-2
1.597555973E1,3.558702469E-1,-2.159786224E-1,-3.936767578E-2
1.598358628E1,2.863159180E-1,-1.933150291E-1,6.065225601E-2
1.599158229E1,1.151914597E-1,-1.022257805E-1,7.356166840E-3
1.599957676E1,2.953624725E-2,-6.700849533E-2,-3.124380112E-2
1.600757277E1,-7.170057297E-2,-6.072044373E-3,-3.136110306E-2
1.601556839E1,-2.728328705E-1,2.577495575E-2,2.367401123E-2
1.602356471E1,-3.580927849E-1,1.416826248E-2,-9.588718414E-3
1.603156072E1,-3.439259529E-1,-1.951169968E-2,-1.140308380E-2
1.603958627E1,-2.955904007E-1,-7.026100159E-2,-3.703355789E-2
1.604758135E1,-2.066745758E-1,-4.216766357E-2,-2.940797806E-2
1.605557621E1,-7.328081131E-2,-1.184368134E-2,6.113147736E-2
1.606357252E1,-1.286506653E-2,-5.784511566E-3,1.433377266E-1
1.607156976E1,-4.340171814E-2,-2.904367447E-2,2.321186066E-1
1.607956385E1,-1.325206757E-1,-6.017684937E-2,3.186497688E-1
1.608755901E1,-1.954312325E-1,-9.656858444E-2,4.325957298E-1
1.609558579E1,-1.243271828E-1,-5.140972137E-2,5.243859291E-1
1.610358203E1,1.522455215E-1,4.322099686E-2,4.827847481E-1
1.611157781E1,7.845225334E-1,-1.597595215E-2,5.621099472E-1
1.611957251E1,1.436603785E0,-2.616362572E-1,6.914792061E-1
1.612756821E1,1.655896187E0,-4.297251701E-1,8.062367439E-1
1.613556306E1,1.146920204E0,-4.225029945E-1,5.430545807E-1
1.614359007E1,3.841893673E-1,-5.929861069E-1,1.023193359E0
