"Time (s)","Acceleration x (m/s^2)","Acceleration y (m/s^2)","Acceleration z (m/s^2)"
4.461992000E-3,-2.104503393E0,-9.840168953E-1,9.600749016E0
6.531694000E-3,-2.164358377E0,-9.792284966E-1,9.603142738E0
8.607697000E-3,-2.257732153E0,-9.768342972E-1,9.607931137E0
1.062162400E-2,-2.303221941E0,-9.888052940E-1,9.610325813E0
1.263485900E-2,-2.312798738E0,-9.888052940E-1,9.619902611E0
1.462009400E-2,-2.279279947E0,-9.768342972E-1,9.622296333E0
1.663363600E-2,-2.195482969E0,-9.648633003E-1,9.610325813E0
1.861694700E-2,-2.159569979E0,-9.696516991E-1,9.598354340E0
2.063148900E-2,-2.082955360E0,-9.816226959E-1,9.579200745E0
2.261426300E-2,-1.999158382E0,-9.696516991E-1,9.560047150E0
2.462903500E-2,-1.984793186E0,-9.672574997E-1,9.548076630E0
2.661203900E-2,-1.991975784E0,-9.552865028E-1,9.536105156E0
2.862650400E-2,-2.025494576E0,-9.624691010E-1,9.531316757E0
3.060935500E-2,-2.039859772E0,-9.504981041E-1,9.536105156E0
3.262412700E-2,-2.063801765E0,-9.193734527E-1,9.540893555E0
3.460720800E-2,-2.078166962E0,-9.026140571E-1,9.533711433E0
3.662221200E-2,-2.130839586E0,-9.097966552E-1,9.533711433E0
3.863698500E-2,-2.157175779E0,-9.217676520E-1,9.552865028E0
4.062044900E-2,-2.159569979E0,-9.241618514E-1,9.548076630E0
4.263430000E-2,-2.159569979E0,-9.145850539E-1,9.540893555E0
4.461822700E-2,-2.135627985E0,-9.433154464E-1,9.543288231E0
4.663184600E-2,-2.133233786E0,-9.600749016E-1,9.543288231E0
4.861515700E-2,-2.130839586E0,-9.624691010E-1,9.543288231E0
5.062962200E-2,-2.130839586E0,-9.768342972E-1,9.548076630E0
5.261308800E-2,-2.133233786E0,-9.768342972E-1,9.540893555E0
5.462847600E-2,-2.154781580E0,-9.696516991E-1,9.533711433E0
5.661148000E-2,-2.190694571E0,-9.624691010E-1,9.528923035E0
5.862625300E-2,-2.209848166E0,-9.696516991E-1,9.521739960E0
6.060902600E-2,-2.238578558E0,-9.672574997E-1,9.516951561E0
6.262264500E-2,-2.248155355E0,-9.576807022E-1,9.531316757E0
6.463680200E-2,-2.264914751E0,-9.504981041E-1,9.538499832E0
6.662049900E-2,-2.284068346E0,-9.528923035E-1,9.538499832E0
6.863550300E-2,-2.288856745E0,-9.792284966E-1,9.543288231E0
7.061927500E-2,-2.279279947E0,-9.888052940E-1,9.548076630E0
7.263274000E-2,-2.257732153E0,-9.911994934E-1,9.548076630E0
7.461682100E-2,-2.250549555E0,-9.840168953E-1,9.550470352E0
7.663005600E-2,-2.233790159E0,-9.816226959E-1,9.572018623E0
7.861282800E-2,-2.231395960E0,-9.792284966E-1,9.572018623E0
8.062629400E-2,-2.231395960E0,-9.888052940E-1,9.567230225E0
8.261275900E-2,-2.233790159E0,-9.959878922E-1,9.560047150E0
8.462660900E-2,-2.221819162E0,-9.792284966E-1,9.567230225E0
8.660999700E-2,-2.209848166E0,-9.696516991E-1,9.560047150E0
8.862423200E-2,-2.202665567E0,-9.648633003E-1,9.560047150E0
9.060792800E-2,-2.224213362E0,-9.696516991E-1,9.555258751E0
9.262170100E-2,-2.233790159E0,-9.552865028E-1,9.562441826E0
9.463685800E-2,-2.250549555E0,-9.481038451E-1,9.552865028E0
9.661963200E-2,-2.267308950E0,-9.457096457E-1,9.548076630E0
9.863402000E-2,-2.264914751E0,-9.552865028E-1,9.543288231E0
1.006177160E-1,-2.250549555E0,-9.576807022E-1,9.533711433E0
1.026315660E-1,-2.257732153E0,-9.528923035E-1,9.528923035E0
1.046155700E-1,-2.274491549E0,-9.552865028E-1,9.526528358E0
1.066298040E-1,-2.274491549E0,-9.624691010E-1,9.538499832E0
1.086128850E-1,-2.284068346E0,-9.672574997E-1,9.548076630E0
1.106273500E-1,-2.298433542E0,-9.481038451E-1,9.560047150E0
1.126112770E-1,-2.300827742E0,-9.433154464E-1,9.555258751E0
1.146245890E-1,-2.312798738E0,-9.457096457E-1,9.548076630E0
1.166088990E-1,-2.346317768E0,-9.361328483E-1,9.557653427E0
1.186245960E-1,-2.363077164E0,-9.385270476E-1,9.564835548E0
1.206064460E-1,-2.363077164E0,-9.528923035E-1,9.560047150E0
1.226215270E-1,-2.372653961E0,-9.600749016E-1,9.567230225E0
1.246346840E-1,-2.370259762E0,-9.648633003E-1,9.576807022E0
1.266184570E-1,-2.365471363E0,-9.552865028E-1,9.564835548E0
1.286323070E-1,-2.353500366E0,-9.576807022E-1,9.576807022E0
1.306166190E-1,-2.358288765E0,-9.600749016E-1,9.574412346E0
1.326303910E-1,-2.331952572E0,-9.552865028E-1,9.576807022E0
1.346153950E-1,-2.319981337E0,-9.720458984E-1,9.576807022E0
1.366283220E-1,-2.315192938E0,-9.744400978E-1,9.583989143E0
1.386129410E-1,-2.296039343E0,-9.720458984E-1,9.586383820E0
1.406264830E-1,-2.274491549E0,-9.792284966E-1,9.581595421E0
1.426097950E-1,-2.276885748E0,-9.888052940E-1,9.576807022E0
1.446243370E-1,-2.233790159E0,-9.864110947E-1,9.567230225E0
1.466071100E-1,-2.195482969E0,-9.864110947E-1,9.560047150E0
1.486221900E-1,-2.183511972E0,-9.840168953E-1,9.550470352E0
1.506362710E-1,-2.166752577E0,-9.840168953E-1,9.531316757E0
1.526199670E-1,-2.135627985E0,-9.840168953E-1,9.524134636E0
1.546329710E-1,-2.126051188E0,-9.792284966E-1,9.531316757E0
1.566181280E-1,-2.106897593E0,-9.624691010E-1,9.543288231E0
1.586329020E-1,-2.082955360E0,-9.768342972E-1,9.548076630E0
1.606145210E-1,-2.070984364E0,-9.792284966E-1,9.548076630E0
1.626289100E-1,-2.039859772E0,-9.816226959E-1,9.557653427E0
1.646129130E-1,-2.039859772E0,-9.792284966E-1,9.574412346E0
1.666271470E-1,-2.047042370E0,-9.840168953E-1,9.576807022E0
1.686111510E-1,-2.049436569E0,-9.935936928E-1,9.579200745E0
1.706250000E-1,-2.037465572E0,-9.983820915E-1,9.572018623E0
1.726093120E-1,-2.039859772E0,-1.005564690E0,9.564835548E0
1.746240850E-1,-2.025494576E0,-9.935936928E-1,9.562441826E0
1.766064740E-1,-2.023100376E0,-9.888052940E-1,9.543288231E0
1.786212460E-1,-2.008735180E0,-9.935936928E-1,9.538499832E0
1.806348660E-1,-2.006340981E0,-9.864110947E-1,9.540893555E0
1.826191000E-1,-2.001552582E0,-9.888052940E-1,9.545681953E0
1.846320270E-1,-1.989581585E0,-9.959878922E-1,9.533711433E0
1.866161070E-1,-1.994369984E0,-1.007958889E0,9.540893555E0
1.886308040E-1,-1.982398987E0,-1.015141487E0,9.540893555E0
1.906138850E-1,-1.980004787E0,-1.022324085E0,9.538499832E0
1.926278120E-1,-1.996764183E0,-1.022324085E0,9.545681953E0
1.946111220E-1,-1.991975784E0,-1.036689281E0,9.538499832E0
1.966256650E-1,-2.011129379E0,-1.034295082E0,9.528923035E0
1.986105150E-1,-2.023100376E0,-1.024718285E0,9.524134636E0
2.006238270E-1,-2.051830769E0,-1.015141487E0,9.538499832E0
2.026074450E-1,-2.042253971E0,-1.017535686E0,9.567230225E0
2.046216800E-1,-2.051830769E0,-1.024718285E0,9.579200745E0
2.066364530E-1,-2.066195965E0,-1.041477680E0,9.600749016E0
2.086197650E-1,-2.082955360E0,-1.043871999E0,9.627084732E0
2.106342290E-1,-2.080561161E0,-1.048660398E0,9.627084732E0
2.126173870E-1,-2.082955360E0,-1.043871999E0,9.617507935E0
2.146321600E-1,-2.123656988E0,-1.051054597E0,9.612719536E0
2.165315480E-1,-2.130839586E0,-1.058237195E0,9.615114212E0
2.186182440E-1,-2.154781580E0,-1.034295082E0,9.607931137E0
2.207007870E-1,-2.164358377E0,-1.027112484E0,9.610325813E0
2.226268680E-1,-2.173935175E0,-1.012747288E0,9.605537415E0
2.246109480E-1,-2.188300371E0,-1.027112484E0,9.588777542E0
2.266251060E-1,-2.197877169E0,-1.007958889E0,9.581595421E0
2.286087250E-1,-2.212242365E0,-9.959878922E-1,9.583989143E0
2.306222670E-1,-2.233790159E0,-1.007958889E0,9.579200745E0
2.326368090E-1,-2.240972757E0,-1.000776291E0,9.567230225E0
2.346198900E-1,-2.245761156E0,-1.003170490E0,9.557653427E0
2.366352020E-1,-2.264914751E0,-9.911994934E-1,9.533711433E0
2.386195900E-1,-2.276885748E0,-9.840168953E-1,9.524134636E0
2.406325160E-1,-2.272097349E0,-9.888052940E-1,9.516951561E0
2.426165200E-1,-2.291250944E0,-9.720458984E-1,9.507374763E0
2.446306010E-1,-2.281674147E0,-9.648633003E-1,9.514557838E0
2.466134510E-1,-2.281674147E0,-9.552865028E-1,9.516951561E0
2.486284540E-1,-2.291250944E0,-9.457096457E-1,9.509769440E0
2.506118430E-1,-2.288856745E0,-9.457096457E-1,9.512163162E0
2.526263850E-1,-2.293645144E0,-9.409212470E-1,9.507374763E0
2.546103890E-1,-2.303221941E0,-9.504981041E-1,9.512163162E0
2.566242390E-1,-2.305616140E0,-9.409212470E-1,9.516951561E0
2.586079350E-1,-2.286462545E0,-9.313444495E-1,9.524134636E0
2.606220160E-1,-2.250549555E0,-9.481038451E-1,9.526528358E0
2.626361740E-1,-2.240972757E0,-9.696516991E-1,9.538499832E0
2.646190230E-1,-2.212242365E0,-9.768342972E-1,9.552865028E0
2.666331810E-1,-2.197877169E0,-9.792284966E-1,9.560047150E0
2.686165690E-1,-2.185906172E0,-1.005564690E0,9.564835548E0
2.706315730E-1,-2.159569979E0,-1.027112484E0,9.581595421E0
2.726150380E-1,-2.154781580E0,-1.027112484E0,9.588777542E0
2.746260420E-1,-2.109291792E0,-1.034295082E0,9.600749016E0
2.766125840E-1,-2.092532396E0,-1.051054597E0,9.598354340E0
2.786285870E-1,-2.097320795E0,-1.051054597E0,9.600749016E0
2.806104370E-1,-2.082955360E0,-1.048660398E0,9.617507935E0
2.826251340E-1,-2.054224968E0,-1.048660398E0,9.612719536E0
2.846085220E-1,-2.027888775E0,-1.058237195E0,9.607931137E0
2.866232950E-1,-1.999158382E0,-1.065419793E0,9.595960617E0
2.886369140E-1,-1.989581585E0,-1.086967587E0,9.576807022E0
2.906206100E-1,-1.991975784E0,-1.089361787E0,9.572018623E0
2.926349990E-1,-1.980004787E0,-1.079784989E0,9.567230225E0
2.946186940E-1,-1.975216389E0,-1.067813993E0,9.567230225E0
2.966323140E-1,-1.963245392E0,-1.072602391E0,9.572018623E0
2.986163180E-1,-1.968033791E0,-1.089361787E0,9.562441826E0
3.006301680E-1,-1.989581585E0,-1.096544385E0,9.560047150E0
3.026141710E-1,-2.001552582E0,-1.089361787E0,9.548076630E0
3.046277130E-1,-1.989581585E0,-1.091755986E0,9.552865028E0
3.066111020E-1,-1.989581585E0,-1.079784989E0,9.562441826E0
3.086254910E-1,-2.003946781E0,-1.072602391E0,9.567230225E0
3.106092630E-1,-2.027888775E0,-1.077390790E0,9.564835548E0
3.126231130E-1,-2.047042370E0,-1.086967587E0,9.562441826E0
3.146369630E-1,-2.085349798E0,-1.082179189E0,9.552865028E0
3.166211980E-1,-2.138022184E0,-1.072602391E0,9.562441826E0
3.186342010E-1,-2.152387381E0,-1.074996591E0,9.564835548E0
3.206200510E-1,-2.152387381E0,-1.074996591E0,9.564835548E0
3.226342090E-1,-2.154781580E0,-1.098938584E0,9.562441826E0
3.246169040E-1,-2.169146776E0,-1.091755986E0,9.557653427E0
3.266310620E-1,-2.197877169E0,-1.079784989E0,9.579200745E0
3.286156810E-1,-2.205059767E0,-1.067813993E0,9.588777542E0
3.306295320E-1,-2.226607561E0,-1.074996591E0,9.588777542E0
3.326129960E-1,-2.226607561E0,-1.074996591E0,9.583989143E0
3.346277690E-1,-2.219424963E0,-1.070208192E0,9.583989143E0
3.366099270E-1,-2.212242365E0,-1.067813993E0,9.591172218E0
3.386249310E-1,-2.212242365E0,-1.072602391E0,9.588777542E0
3.406090110E-1,-2.214636564E0,-1.074996591E0,9.586383820E0
3.426224770E-1,-2.217030764E0,-1.089361787E0,9.598354340E0
3.446363270E-1,-2.214636564E0,-1.089361787E0,9.600749016E0
3.466206390E-1,-2.212242365E0,-1.082179189E0,9.612719536E0
3.486342570E-1,-2.217030764E0,-1.084573388E0,9.627084732E0
3.506184920E-1,-2.188300371E0,-1.070208192E0,9.615114212E0
3.526321110E-1,-2.176329374E0,-1.067813993E0,9.612719536E0
3.546151150E-1,-2.152387381E0,-1.079784989E0,9.643844604E0
3.566293490E-1,-2.145204782E0,-1.077390790E0,9.648633003E0
3.586151220E-1,-2.142810583E0,-1.070208192E0,9.643844604E0
3.606281260E-1,-2.130839586E0,-1.086967587E0,9.629479408E0
3.626111300E-1,-2.130839586E0,-1.063025594E0,9.629479408E0
3.646253640E-1,-2.135627985E0,-1.070208192E0,9.624691010E0
3.666087530E-1,-2.128445387E0,-1.065419793E0,9.607931137E0
3.686238330E-1,-2.121262789E0,-1.065419793E0,9.617507935E0
3.706071450E-1,-2.121262789E0,-1.074996591E0,9.636661530E0
3.726216100E-1,-2.116474390E0,-1.086967587E0,9.627084732E0
3.746363830E-1,-2.116474390E0,-1.089361787E0,9.615114212E0
3.766191560E-1,-2.130839586E0,-1.094150186E0,9.605537415E0
3.786340060E-1,-2.114080191E0,-1.082179189E0,9.627084732E0
3.806173940E-1,-2.123656988E0,-1.084573388E0,9.634267807E0
3.826314750E-1,-2.130839586E0,-1.086967587E0,9.624691010E0
3.846143250E-1,-2.140416384E0,-1.084573388E0,9.605537415E0
3.866290200E-1,-2.147598982E0,-1.086967587E0,9.591172218E0
3.886121010E-1,-2.149993181E0,-1.082179189E0,9.579200745E0
3.906274900E-1,-2.161964178E0,-1.065419793E0,9.576807022E0
3.926103400E-1,-2.161964178E0,-1.067813993E0,9.572018623E0
3.946238050E-1,-2.176329374E0,-1.065419793E0,9.572018623E0
3.966085010E-1,-2.178723574E0,-1.060631394E0,9.574412346E0
3.986244280E-1,-2.173935175E0,-1.063025594E0,9.574412346E0
4.006054320E-1,-2.181117773E0,-1.082179189E0,9.591172218E0
4.026205120E-1,-2.181117773E0,-1.079784989E0,9.595960617E0
4.046339770E-1,-2.185906172E0,-1.079784989E0,9.588777542E0
4.066176740E-1,-2.190694571E0,-1.072602391E0,9.579200745E0
4.086319090E-1,-2.188300371E0,-1.077390790E0,9.588777542E0
4.106161420E-1,-2.190694571E0,-1.070208192E0,9.588777542E0
4.126296850E-1,-2.157175779E0,-1.065419793E0,9.567230225E0
4.146143810E-1,-2.154781580E0,-1.060631394E0,9.569623947E0
4.166281540E-1,-2.145204782E0,-1.051054597E0,9.562441826E0
4.186122340E-1,-2.121262789E0,-1.036689281E0,9.572018623E0
4.206254690E-1,-2.116474390E0,-1.034295082E0,9.569623947E0
4.226094730E-1,-2.082955360E0,-1.034295082E0,9.579200745E0
4.246236310E-1,-2.068590164E0,-1.046266198E0,9.583989143E0
4.266066340E-1,-2.056619167E0,-1.055842996E0,9.588777542E0
4.286205610E-1,-2.015917778E0,-1.051054597E0,9.591172218E0
4.306353340E-1,-1.996764183E0,-1.043871999E0,9.588777542E0
4.326186450E-1,-1.982398987E0,-1.029506683E0,9.579200745E0
4.346298030E-1,-1.956062794E0,-1.053448796E0,9.569623947E0
4.366161910E-1,-1.936909199E0,-1.053448796E0,9.576807022E0
4.386321950E-1,-1.910573006E0,-1.039083481E0,9.591172218E0
4.406146600E-1,-1.865083098E0,-1.039083481E0,9.593565941E0
4.426291250E-1,-1.855506301E0,-1.039083481E0,9.595960617E0
4.446125910E-1,-1.824381709E0,-1.043871999E0,9.600749016E0
4.466258260E-1,-1.807622313E0,-1.051054597E0,9.595960617E0
4.486103670E-1,-1.793257117E0,-1.053448796E0,9.595960617E0
4.506248330E-1,-1.766920805E0,-1.046266198E0,9.593565941E0
4.526076830E-1,-1.733402014E0,-1.036689281E0,9.579200745E0
4.546236100E-1,-1.714248419E0,-1.039083481E0,9.562441826E0
4.566363050E-1,-1.687912226E0,-1.043871999E0,9.548076630E0
4.586208480E-1,-1.680729628E0,-1.043871999E0,9.538499832E0
4.606344670E-1,-1.673547029E0,-1.043871999E0,9.540893555E0
4.626178560E-1,-1.668758631E0,-1.051054597E0,9.548076630E0
4.646325510E-1,-1.668758631E0,-1.046266198E0,9.550470352E0
4.666150940E-1,-1.663970232E0,-1.039083481E0,9.548076630E0
4.686304050E-1,-1.673547029E0,-1.043871999E0,9.550470352E0
4.706134860E-1,-1.678335428E0,-1.043871999E0,9.540893555E0
4.726270280E-1,-1.685518026E0,-1.063025594E0,9.528923035E0
4.746113390E-1,-1.704671621E0,-1.055842996E0,9.538499832E0
4.766264970E-1,-1.711854219E0,-1.063025594E0,9.533711433E0
4.786108080E-1,-1.747767210E0,-1.051054597E0,9.526528358E0
4.806224270E-1,-1.747767210E0,-1.041477680E0,9.519346237E0
4.826375080E-1,-1.754949808E0,-1.063025594E0,9.526528358E0
4.846208970E-1,-1.783680320E0,-1.070208192E0,9.538499832E0
4.866356700E-1,-1.817199111E0,-1.077390790E0,9.560047150E0
4.886190580E-1,-1.829170108E0,-1.067813993E0,9.564835548E0
4.906323690E-1,-1.853112102E0,-1.067813993E0,9.572018623E0
4.926163730E-1,-1.872265697E0,-1.058237195E0,9.576807022E0
4.946314530E-1,-1.908178806E0,-1.060631394E0,9.574412346E0
4.966148420E-1,-1.922544003E0,-1.065419793E0,9.593565941E0
4.986292310E-1,-1.939303398E0,-1.070208192E0,9.603142738E0
5.006130040E-1,-1.960851192E0,-1.082179189E0,9.605537415E0
5.026265450E-1,-1.972822189E0,-1.091755986E0,9.600749016E0
5.046104720E-1,-1.984793186E0,-1.091755986E0,9.600749016E0
5.066240920E-1,-1.999158382E0,-1.060631394E0,9.600749016E0
5.086080190E-1,-2.015917778E0,-1.072602391E0,9.593565941E0
5.106216370E-1,-2.015917778E0,-1.091755986E0,9.591172218E0
5.126366410E-1,-2.015917778E0,-1.046266198E0,9.591172218E0
5.146188760E-1,-2.037465572E0,-1.043871999E0,9.605537415E0
5.166330340E-1,-2.039859772E0,-1.043871999E0,9.603142738E0
5.186194980E-1,-2.025494576E0,-1.046266198E0,9.600749016E0
5.206321180E-1,-2.032677174E0,-1.060631394E0,9.603142738E0
5.226157370E-1,-2.037465572E0,-1.060631394E0,9.595960617E0
5.246293570E-1,-2.027888775E0,-1.067813993E0,9.586383820E0
5.266138980E-1,-2.011129379E0,-1.067813993E0,9.593565941E0
5.286271330E-1,-2.015917778E0,-1.058237195E0,9.586383820E0
5.306112140E-1,-2.023100376E0,-1.036689281E0,9.576807022E0
5.326253720E-1,-2.011129379E0,-1.041477680E0,9.579200745E0
5.346096820E-1,-2.003946781E0,-1.041477680E0,9.579200745E0
5.366231480E-1,-1.999158382E0,-1.043871999E0,9.569623947E0
5.386376130E-1,-2.006340981E0,-1.034295082E0,9.572018623E0
5.406213090E-1,-2.018311977E0,-1.005564690E0,9.567230225E0
5.426351590E-1,-2.032677174E0,-1.015141487E0,9.555258751E0
5.446183170E-1,-2.039859772E0,-1.019929886E0,9.557653427E0
5.466333980E-1,-2.070984364E0,-1.015141487E0,9.564835548E0
5.486157850E-1,-2.075772762E0,-1.003170490E0,9.562441826E0
5.506312510E-1,-2.078166962E0,-1.005564690E0,9.569623947E0
5.526142550E-1,-2.090138197E0,-1.000776291E0,9.548076630E0
5.546275670E-1,-2.111685991E0,-9.935936928E-1,9.550470352E0
5.566109540E-1,-2.145204782E0,-9.720458984E-1,9.560047150E0
5.586244970E-1,-2.145204782E0,-9.768342972E-1,9.560047150E0
5.606093470E-1,-2.145204782E0,-9.768342972E-1,9.555258751E0
5.626245050E-1,-2.147598982E0,-9.816226959E-1,9.550470352E0
5.646078150E-1,-2.157175779E0,-9.792284966E-1,9.569623947E0
5.666214350E-1,-2.164358377E0,-9.624691010E-1,9.564835548E0
5.686359000E-1,-2.169146776E0,-9.624691010E-1,9.533711433E0
5.706199040E-1,-2.178723574E0,-9.504981041E-1,9.526528358E0
5.726336770E-1,-2.178723574E0,-9.552865028E-1,9.524134636E0
5.746189110E-1,-2.185906172E0,-9.720458984E-1,9.519346237E0
5.766321460E-1,-2.173935175E0,-9.648633003E-1,9.528923035E0
5.786162270E-1,-2.166752577E0,-9.624691010E-1,9.524134636E0
5.806296920E-1,-2.138022184E0,-9.792284966E-1,9.516951561E0
5.826134650E-1,-2.130839586E0,-9.672574997E-1,9.514557838E0
5.846269300E-1,-2.135627985E0,-9.624691010E-1,9.514557838E0
5.866107030E-1,-2.133233786E0,-9.720458984E-1,9.531316757E0
5.886251680E-1,-2.121262789E0,-9.983820915E-1,9.560047150E0
5.906081720E-1,-2.128445387E0,-9.911994934E-1,9.574412346E0
5.926233300E-1,-2.142810583E0,-9.840168953E-1,9.567230225E0
5.946364870E-1,-2.135627985E0,-1.003170490E0,9.572018623E0
5.966217980E-1,-2.138022184E0,-1.010353088E0,9.574412346E0
5.986355720E-1,-2.111685991E0,-1.005564690E0,9.574412346E0
6.006195760E-1,-2.099714994E0,-1.012747288E0,9.579200745E0
6.026331170E-1,-2.075772762E0,-1.022324085E0,9.586383820E0
6.046168140E-1,-2.085349798E0,-1.034295082E0,9.583989143E0
6.066303560E-1,-2.082955360E0,-1.031900883E0,9.583989143E0
6.086141290E-1,-2.059013367E0,-1.029506683E0,9.576807022E0
6.106288250E-1,-2.044648170E0,-1.031900883E0,9.564835548E0
6.126128290E-1,-2.039859772E0,-1.041477680E0,9.555258751E0
6.146264480E-1,-2.023100376E0,-1.055842996E0,9.562441826E0
6.166098370E-1,-2.006340981E0,-1.051054597E0,9.574412346E0
6.186249160E-1,-2.008735180E0,-1.039083481E0,9.572018623E0
6.206079200E-1,-1.999158382E0,-1.041477680E0,9.560047150E0
6.226215400E-1,-2.003946781E0,-1.043871999E0,9.552865028E0
6.246359280E-1,-2.003946781E0,-1.046266198E0,9.557653427E0
6.266190080E-1,-1.994369984E0,-1.048660398E0,9.562441826E0
6.286335510E-1,-1.987187386E0,-1.046266198E0,9.569623947E0
6.306177860E-1,-1.984793186E0,-1.048660398E0,9.567230225E0
6.326320200E-1,-1.975216389E0,-1.051054597E0,9.555258751E0
6.346150230E-1,-1.970427990E0,-1.058237195E0,9.557653427E0
6.366301040E-1,-1.958456993E0,-1.060631394E0,9.552865028E0
6.386147240E-1,-1.958456993E0,-1.058237195E0,9.531316757E0
6.406268050E-1,-1.953668594E0,-1.053448796E0,9.516951561E0
6.426114230E-1,-1.946485996E0,-1.043871999E0,9.516951561E0
6.446255040E-1,-1.936909199E0,-1.019929886E0,9.512163162E0
6.466086620E-1,-1.936909199E0,-1.010353088E0,9.519346237E0
6.486230490E-1,-1.929726601E0,-1.022324085E0,9.526528358E0
6.506372070E-1,-1.917755604E0,-1.024718285E0,9.536105156E0
6.526205960E-1,-1.924938202E0,-1.027112484E0,9.538499832E0
6.546351380E-1,-1.922544003E0,-1.036689281E0,9.545681953E0
6.566191410E-1,-1.929726601E0,-1.041477680E0,9.550470352E0
6.586335300E-1,-1.946485996E0,-1.036689281E0,9.557653427E0
6.606166110E-1,-1.927332401E0,-1.019929886E0,9.564835548E0
6.626299230E-1,-1.932120800E0,-1.015141487E0,9.572018623E0
6.646135410E-1,-1.944091797E0,-1.027112484E0,9.562441826E0
6.666270830E-1,-1.941697598E0,-1.027112484E0,9.548076630E0
6.686120110E-1,-1.939303398E0,-1.022324085E0,9.548076630E0
6.706262450E-1,-1.924938202E0,-1.017535686E0,9.557653427E0
6.726095560E-1,-1.912967205E0,-1.019929886E0,9.562441826E0
6.746209450E-1,-1.898601890E0,-1.017535686E0,9.560047150E0
6.766376410E-1,-1.881842494E0,-1.043871999E0,9.562441826E0
6.786225680E-1,-1.881842494E0,-1.039083481E0,9.574412346E0
6.806358020E-1,-1.881842494E0,-1.051054597E0,9.576807022E0
6.826197290E-1,-1.862688899E0,-1.063025594E0,9.564835548E0
6.846339640E-1,-1.826775908E0,-1.065419793E0,9.555258751E0
6.866166600E-1,-1.810016513E0,-1.063025594E0,9.560047150E0
6.886315090E-1,-1.802833915E0,-1.039083481E0,9.560047150E0
6.906151290E-1,-1.802833915E0,-1.036689281E0,9.567230225E0
6.926293630E-1,-1.786074519E0,-1.055842996E0,9.564835548E0
6.946139820E-1,-1.790862918E0,-1.046266198E0,9.574412346E0
6.966274470E-1,-1.781286120E0,-1.046266198E0,9.581595421E0
6.986120670E-1,-1.766920805E0,-1.079784989E0,9.574412346E0
7.006249940E-1,-1.745373011E0,-1.089361787E0,9.567230225E0
7.026090740E-1,-1.740584612E0,-1.098938584E0,9.574412346E0
7.046225390E-1,-1.735796213E0,-1.096544385E0,9.610325813E0
7.066361590E-1,-1.704671621E0,-1.098938584E0,9.651026726E0
7.086203930E-1,-1.711854219E0,-1.122880578E0,9.665391922E0
7.106348580E-1,-1.702277422E0,-1.165976286E0,9.703699112E0
7.126176310E-1,-1.699883223E0,-1.173158884E0,9.730035782E0
7.146327120E-1,-1.699883223E0,-1.182735682E0,9.739612579E0
7.166171010E-1,-1.680729628E0,-1.201889277E0,9.739612579E0
7.186321040E-1,-1.683123827E0,-1.206677675E0,9.701305389E0
7.206133380E-1,-1.685518026E0,-1.199495077E0,9.682151794E0
7.226284190E-1,-1.702277422E0,-1.165976286E0,9.641449928E0
7.246115770E-1,-1.707065821E0,-1.156399369E0,9.615114212E0
7.266257340E-1,-1.711854219E0,-1.142034173E0,9.564835548E0
7.286096610E-1,-1.742978811E0,-1.110909581E0,9.521739960E0
7.306229730E-1,-1.754949808E0,-1.096544385E0,9.514557838E0
7.326377460E-1,-1.742978811E0,-1.101332784E0,9.564835548E0
7.346223650E-1,-1.766920805E0,-1.139639974E0,9.646238327E0
7.366362150E-1,-1.774103403E0,-1.163581967E0,9.670180321E0
7.386205260E-1,-1.798045516E0,-1.199495077E0,9.651026726E0
7.406339920E-1,-1.853112102E0,-1.233013868E0,9.574412346E0
7.426173800E-1,-1.893813491E0,-1.233013868E0,9.516951561E0
7.446312300E-1,-1.939303398E0,-1.201889277E0,9.452308655E0
7.466143880E-1,-1.970427990E0,-1.146822572E0,9.461885452E0
7.486291600E-1,-1.980004787E0,-1.127668977E0,9.495404243E0
7.506125480E-1,-2.003946781E0,-1.094150186E0,9.564835548E0
7.526269370E-1,-2.013523579E0,-1.101332784E0,9.600749016E0
7.546100180E-1,-2.011129379E0,-1.098938584E0,9.610325813E0
7.566247900E-1,-2.015917778E0,-1.137245774E0,9.579200745E0
7.586094860E-1,-2.032677174E0,-1.144428372E0,9.548076630E0
7.606217210E-1,-2.063801765E0,-1.132457376E0,9.478644371E0
7.626364940E-1,-2.078166962E0,-1.106121182E0,9.435548782E0
7.646205740E-1,-2.087743998E0,-1.091755986E0,9.409213066E0
7.666337320E-1,-2.097320795E0,-1.046266198E0,9.385271072E0
7.686178130E-1,-2.090138197E0,-1.024718285E0,9.399636269E0
7.706319710E-1,-2.085349798E0,-1.019929886E0,9.404424667E0
7.726162050E-1,-2.090138197E0,-9.983820915E-1,9.411606789E0
7.746306700E-1,-2.087743998E0,-1.003170490E0,9.433155060E0
7.766138280E-1,-2.087743998E0,-1.017535686E0,9.447520256E0
7.786282940E-1,-2.111685991E0,-1.053448796E0,9.495404243E0
7.806116040E-1,-2.138022184E0,-1.089361787E0,9.531316757E0
7.826254550E-1,-2.154781580E0,-1.118092179E0,9.543288231E0
7.846092280E-1,-2.195482969E0,-1.187524080E0,9.586383820E0
7.866233860E-1,-2.209848166E0,-1.228225470E0,9.629479408E0
7.886374660E-1,-2.267308950E0,-1.254561663E0,9.651026726E0
7.906214700E-1,-2.317587137E0,-1.261744261E0,9.713275909E0
7.926353970E-1,-2.353500366E0,-1.273715258E0,9.746794701E0
7.946187070E-1,-2.430114746E0,-1.319205165E0,9.830592155E0
7.966331730E-1,-2.545036316E0,-1.335964561E0,9.921571732E0
7.986156390E-1,-2.545036316E0,-1.335964561E0,9.921571732E0
8.006311040E-1,-2.578555346E0,-1.338358760E0,9.911994934E0
8.026147990E-1,-2.628833532E0,-1.345541358E0,9.859322548E0
8.046285730E-1,-2.669534922E0,-1.345541358E0,9.825803757E0
8.066125770E-1,-2.717418909E0,-1.304839969E0,9.751583099E0
8.086264270E-1,-2.786850691E0,-1.259350061E0,9.703699112E0
8.106108140E-1,-2.803610086E0,-1.237802267E0,9.679757118E0
8.126242800E-1,-2.815581083E0,-1.189918280E0,9.612719536E0
8.146393610E-1,-2.825158119E0,-1.170764685E0,9.586383820E0
8.166230570E-1,-2.829946518E0,-1.156399369E0,9.569623947E0
8.186375220E-1,-2.813186884E0,-1.132457376E0,9.572018623E0
8.206203720E-1,-2.808398485E0,-1.130063176E0,9.569623947E0
8.226339140E-1,-2.791639090E0,-1.137245774E0,9.557653427E0
8.246176110E-1,-2.750937700E0,-1.125274777E0,9.533711433E0
8.266323060E-1,-2.734178305E0,-1.120486379E0,9.528923035E0
8.286163100E-1,-2.707842112E0,-1.108515382E0,9.485827446E0
8.306292370E-1,-2.657563925E0,-1.120486379E0,9.464279175E0
8.326138560E-1,-2.643198729E0,-1.120486379E0,9.457097054E0
8.346265520E-1,-2.609679937E0,-1.115697980E0,9.440337181E0
8.366120940E-1,-2.561795712E0,-1.086967587E0,9.437943459E0
8.386265600E-1,-2.545036316E0,-1.091755986E0,9.430760384E0
8.406096410E-1,-2.473210335E0,-1.091755986E0,9.416395187E0
8.426237210E-1,-2.408566952E0,-1.094150186E0,9.406818390E0
8.446376480E-1,-2.391807556E0,-1.096544385E0,9.416395187E0
8.466213440E-1,-2.336740971E0,-1.096544385E0,9.437943459E0
8.486354250E-1,-2.279279947E0,-1.086967587E0,9.449913979E0
8.506188130E-1,-2.250549555E0,-1.086967587E0,9.449913979E0
8.526329700E-1,-2.185906172E0,-1.082179189E0,9.442731857E0
8.546178970E-1,-2.169146776E0,-1.101332784E0,9.457097054E0
8.566315160E-1,-2.104503393E0,-1.125274777E0,9.483432770E0
8.586151350E-1,-2.049436569E0,-1.106121182E0,9.502586365E0
8.606296780E-1,-2.027888775E0,-1.120486379E0,9.507374763E0
8.626126820E-1,-1.984793186E0,-1.118092179E0,9.512163162E0
8.646269160E-1,-1.958456993E0,-1.137245774E0,9.514557838E0
8.666099200E-1,-1.939303398E0,-1.146822572E0,9.519346237E0
8.686243850E-1,-1.903390408E0,-1.149216771E0,9.536105156E0
8.706391580E-1,-1.862688899E0,-1.151610970E0,9.560047150E0
8.726223150E-1,-1.838746905E0,-1.154005170E0,9.567230225E0
8.746360880E-1,-1.807622313E0,-1.170764685E0,9.569623947E0
8.766204770E-1,-1.774103403E0,-1.177947283E0,9.581595421E0
8.786358660E-1,-1.757344007E0,-1.187524080E0,9.593565941E0
8.806174070E-1,-1.719036818E0,-1.209071875E0,9.648633003E0
8.826324110E-1,-1.673547029E0,-1.228225470E0,9.679757118E0
8.846158000E-1,-1.659181833E0,-1.244984865E0,9.686940193E0
8.866293420E-1,-1.644816518E0,-1.266532660E0,9.703699112E0
8.886131140E-1,-1.644816518E0,-1.259350061E0,9.691728592E0
8.906278110E-1,-1.644816518E0,-1.268926859E0,9.672574997E0
8.926108920E-1,-1.659181833E0,-1.271321058E0,9.670180321E0
8.946268960E-1,-1.666364431E0,-1.261744261E0,9.662998199E0
8.966093600E-1,-1.702277422E0,-1.240196466E0,9.674968719E0
8.986245180E-1,-1.735796213E0,-1.237802267E0,9.670180321E0
9.006377530E-1,-1.754949808E0,-1.233013868E0,9.660603523E0
9.026214480E-1,-1.769315004E0,-1.223437071E0,9.653421402E0
9.046349140E-1,-1.790862918E0,-1.218648672E0,9.619902611E0
9.066186870E-1,-1.810016513E0,-1.225831270E0,9.607931137E0
9.086327680E-1,-1.857900500E0,-1.228225470E0,9.593565941E0
9.106167710E-1,-1.867477298E0,-1.218648672E0,9.572018623E0
9.126312360E-1,-1.884236693E0,-1.204283476E0,9.567230225E0
9.146134710E-1,-1.898601890E0,-1.187524080E0,9.567230225E0
9.166281670E-1,-1.915361404E0,-1.192312479E0,9.550470352E0
9.186125550E-1,-1.956062794E0,-1.192312479E0,9.545681953E0
9.206270210E-1,-1.982398987E0,-1.192312479E0,9.543288231E0
9.226107170E-1,-1.991975784E0,-1.180341482E0,9.538499832E0
9.246241820E-1,-2.001552582E0,-1.149216771E0,9.524134636E0
9.266386470E-1,-2.018311977E0,-1.144428372E0,9.536105156E0
9.286223430E-1,-2.027888775E0,-1.146822572E0,9.540893555E0
9.306361940E-1,-2.025494576E0,-1.156399369E0,9.548076630E0
9.326196590E-1,-2.059013367E0,-1.154005170E0,9.540893555E0
9.346340470E-1,-2.054224968E0,-1.149216771E0,9.540893555E0
9.366175120E-1,-2.063801765E0,-1.132457376E0,9.533711433E0
9.386335160E-1,-2.061407566E0,-1.125274777E0,9.545681953E0
9.406159050E-1,-2.073378563E0,-1.118092179E0,9.550470352E0
9.426295230E-1,-2.087743998E0,-1.108515382E0,9.543288231E0
9.446137580E-1,-2.075772762E0,-1.103726983E0,9.552865028E0
9.466279160E-1,-2.075772762E0,-1.113303781E0,9.552865028E0
9.486110730E-1,-2.073378563E0,-1.086967587E0,9.540893555E0
9.506261540E-1,-2.075772762E0,-1.086967587E0,9.504981041E0
9.526089270E-1,-2.099714994E0,-1.079784989E0,9.490615845E0
9.546224690E-1,-2.109291792E0,-1.074996591E0,9.466673851E0
9.566381660E-1,-2.118868589E0,-1.082179189E0,9.466673851E0
9.586233990E-1,-2.133233786E0,-1.086967587E0,9.445125580E0
9.606347110E-1,-2.154781580E0,-1.086967587E0,9.452308655E0
9.626187150E-1,-2.171540976E0,-1.084573388E0,9.464279175E0
9.646329490E-1,-2.169146776E0,-1.082179189E0,9.473855972E0
9.666166450E-1,-2.185906172E0,-1.094150186E0,9.473855972E0
9.686313420E-1,-2.195482969E0,-1.086967587E0,9.466673851E0
9.706141150E-1,-2.195482969E0,-1.106121182E0,9.473855972E0
9.726283490E-1,-2.217030764E0,-1.103726983E0,9.490615845E0
9.746126600E-1,-2.224213362E0,-1.096544385E0,9.497797966E0
9.766261260E-1,-2.250549555E0,-1.072602391E0,9.485827446E0
9.786110530E-1,-2.293645144E0,-1.072602391E0,9.428366661E0
9.806246710E-1,-2.300827742E0,-1.070208192E0,9.418789864E0
9.826077520E-1,-2.322375536E0,-1.046266198E0,9.399636269E0
9.846224480E-1,-2.331952572E0,-1.053448796E0,9.380482674E0
9.866359910E-1,-2.365471363E0,-1.060631394E0,9.358934402E0
9.886196860E-1,-2.398990154E0,-1.086967587E0,9.382876396E0
9.906333060E-1,-2.430114746E0,-1.096544385E0,9.428366661E0
9.926176170E-1,-2.480392933E0,-1.103726983E0,9.495404243E0
9.946286210E-1,-2.521094322E0,-1.142034173E0,9.543288231E0
9.966147780E-1,-2.547430515E0,-1.168370485E0,9.557653427E0
9.986307820E-1,-2.602497339E0,-1.185129881E0,9.598354340E0
1.000613325E0,-2.659958124E0,-1.228225470E0,9.572018623E0
1.002627713E0,-2.681505919E0,-1.249773264E0,9.572018623E0
1.004611409E0,-2.729389906E0,-1.264138460E0,9.586383820E0
1.006624951E0,-2.774879694E0,-1.264138460E0,9.636661530E0
1.008608724E0,-2.796427488E0,-1.268926859E0,9.662998199E0
1.010622573E0,-2.844311714E0,-1.271321058E0,9.698910713E0
1.012636731E0,-2.885013103E0,-1.297657371E0,9.670180321E0
1.014621043E0,-2.892195702E0,-1.285686255E0,9.641449928E0
1.016635509E0,-2.894589901E0,-1.292868972E0,9.562441826E0
1.018618588E0,-2.887407303E0,-1.280897856E0,9.540893555E0
1.020633054E0,-2.889801502E0,-1.221042871E0,9.519346237E0
1.022616366E0,-2.896984100E0,-1.223437071E0,9.459490776E0
1.024630524E0,-2.889801502E0,-1.230619669E0,9.445125580E0
1.026613604E0,-2.863465309E0,-1.235408068E0,9.433155060E0
1.028628146E0,-2.829946518E0,-1.237802267E0,9.442731857E0
1.030611842E0,-2.817975283E0,-1.233013868E0,9.445125580E0
1.032625923E0,-2.782062292E0,-1.204283476E0,9.457097054E0
1.034609388E0,-2.734178305E0,-1.199495077E0,9.414001465E0
1.036623469E0,-2.621650934E0,-1.180341482E0,9.344569206E0
1.038636396E0,-2.621650934E0,-1.180341482E0,9.344569206E0
1.040620477E0,-2.600103140E0,-1.163581967E0,9.346963882E0
1.042637018E0,-2.573766708E0,-1.149216771E0,9.349357605E0
1.044619791E0,-2.521094322E0,-1.146822572E0,9.361329079E0
1.046633718E0,-2.482787132E0,-1.161187768E0,9.349357605E0
1.048617646E0,-2.477998734E0,-1.173158884E0,9.332598686E0
1.050632187E0,-2.439691544E0,-1.189918280E0,9.325415611E0
1.052614960E0,-2.415749550E0,-1.201889277E0,9.325415611E0
1.054630887E0,-2.375048161E0,-1.189918280E0,9.356540680E0
1.056612813E0,-2.370259762E0,-1.173158884E0,9.392453194E0
1.058628510E0,-2.372653961E0,-1.168370485E0,9.416395187E0
1.060610360E0,-2.360682964E0,-1.158793569E0,9.437943459E0
1.062625133E0,-2.348711967E0,-1.168370485E0,9.411606789E0
1.064608828E0,-2.336740971E0,-1.185129881E0,9.392453194E0
1.066622602E0,-2.315192938E0,-1.223437071E0,9.380482674E0
1.068637067E0,-2.324769735E0,-1.233013868E0,9.385271072E0
1.070620148E0,-2.322375536E0,-1.237802267E0,9.402029991E0
1.072634920E0,-2.319981337E0,-1.233013868E0,9.459490776E0
1.074618924E0,-2.324769735E0,-1.252167463E0,9.495404243E0
1.076632159E0,-2.324769735E0,-1.264138460E0,9.502586365E0
1.078616855E0,-2.324769735E0,-1.302445769E0,9.540893555E0
1.080630935E0,-2.329558372E0,-1.312022567E0,9.591172218E0
1.082614401E0,-2.346317768E0,-1.323993564E0,9.600749016E0
1.084627866E0,-2.336740971E0,-1.328781962E0,9.612719536E0
1.086611870E0,-2.331952572E0,-1.335964561E0,9.619902611E0
1.088626335E0,-2.329558372E0,-1.328781962E0,9.607931137E0
1.090609724E0,-2.372653961E0,-1.316810966E0,9.574412346E0
1.092623651E0,-2.384624958E0,-1.295263171E0,9.569623947E0
1.094639039E0,-2.391807556E0,-1.285686255E0,9.560047150E0
1.096621504E0,-2.389413357E0,-1.261744261E0,9.543288231E0
1.098636277E0,-2.398990154E0,-1.259350061E0,9.528923035E0
1.100620281E0,-2.389413357E0,-1.211466074E0,9.528923035E0
1.102633516E0,-2.365471363E0,-1.194706678E0,9.528923035E0
1.104617211E0,-2.363077164E0,-1.189918280E0,9.531316757E0
1.106631677E0,-2.351106167E0,-1.206677675E0,9.524134636E0
1.108615065E0,-2.341529369E0,-1.197100878E0,9.507374763E0
1.110629839E0,-2.329558372E0,-1.170764685E0,9.497797966E0
1.112612226E0,-2.315192938E0,-1.173158884E0,9.490615845E0
1.114627384E0,-2.298433542E0,-1.163581967E0,9.483432770E0
1.116610696E0,-2.279279947E0,-1.154005170E0,9.473855972E0
1.118626083E0,-2.267308950E0,-1.156399369E0,9.457097054E0
1.120608241E0,-2.260126352E0,-1.151610970E0,9.442731857E0
1.122622784E0,-2.224213362E0,-1.151610970E0,9.428366661E0
1.124636634E0,-2.185906172E0,-1.154005170E0,9.433155060E0
1.126620252E0,-2.183511972E0,-1.151610970E0,9.442731857E0
1.128634410E0,-2.157175779E0,-1.134851575E0,9.437943459E0
1.130618106E0,-2.121262789E0,-1.134851575E0,9.430760384E0
1.132632572E0,-2.109291792E0,-1.139639974E0,9.428366661E0
1.134616344E0,-2.114080191E0,-1.158793569E0,9.425971985E0
1.136630502E0,-2.087743998E0,-1.151610970E0,9.440337181E0
1.138614737E0,-2.087743998E0,-1.154005170E0,9.442731857E0
1.140627664E0,-2.082955360E0,-1.132457376E0,9.454702377E0
1.142612052E0,-2.080561161E0,-1.130063176E0,9.461885452E0
1.144625902E0,-2.087743998E0,-1.127668977E0,9.464279175E0
1.146609290E0,-2.087743998E0,-1.154005170E0,9.466673851E0
1.148623448E0,-2.094926596E0,-1.154005170E0,9.466673851E0
1.150637605E0,-2.109291792E0,-1.163581967E0,9.461885452E0
1.152621609E0,-2.114080191E0,-1.180341482E0,9.461885452E0
1.154632690E0,-2.116474390E0,-1.189918280E0,9.471462250E0
1.156619079E0,-2.128445387E0,-1.151610970E0,9.483432770E0
1.158634543E0,-2.147598982E0,-1.142034173E0,9.497797966E0
1.160617624E0,-2.147598982E0,-1.144428372E0,9.504981041E0
1.162631782E0,-2.138022184E0,-1.149216771E0,9.521739960E0
1.164615093E0,-2.133233786E0,-1.175553083E0,9.555258751E0
1.166629020E0,-2.135627985E0,-1.197100878E0,9.562441826E0
1.168612716E0,-2.145204782E0,-1.223437071E0,9.564835548E0
1.170627412E0,-2.142810583E0,-1.240196466E0,9.583989143E0
1.172610185E0,-2.152387381E0,-1.244984865E0,9.579200745E0
1.174625035E0,-2.169146776E0,-1.235408068E0,9.591172218E0
1.176608346E0,-2.176329374E0,-1.254561663E0,9.586383820E0
1.178622581E0,-2.197877169E0,-1.259350061E0,9.605537415E0
1.180636738E0,-2.171540976E0,-1.264138460E0,9.617507935E0
1.182620973E0,-2.157175779E0,-1.268926859E0,9.610325813E0
1.184634592E0,-2.169146776E0,-1.249773264E0,9.605537415E0
1.186618596E0,-2.152387381E0,-1.254561663E0,9.603142738E0
1.188632138E0,-2.142810583E0,-1.259350061E0,9.593565941E0
1.190616142E0,-2.130839586E0,-1.247379065E0,9.583989143E0
1.192630300E0,-2.104503393E0,-1.235408068E0,9.574412346E0
1.194613380E0,-2.099714994E0,-1.221042871E0,9.569623947E0
1.196628383E0,-2.106897593E0,-1.204283476E0,9.555258751E0
1.198613387E0,-2.094926596E0,-1.180341482E0,9.555258751E0
1.200625007E0,-2.097320795E0,-1.177947283E0,9.555258751E0
1.202639857E0,-2.102109194E0,-1.177947283E0,9.543288231E0
1.204623245E0,-2.106897593E0,-1.165976286E0,9.526528358E0
1.206637633E0,-2.114080191E0,-1.175553083E0,9.512163162E0
1.208621945E0,-2.114080191E0,-1.189918280E0,9.509769440E0
1.210634872E0,-2.128445387E0,-1.197100878E0,9.521739960E0
1.212619567E0,-2.147598982E0,-1.187524080E0,9.521739960E0
1.214634033E0,-2.140416384E0,-1.185129881E0,9.504981041E0
1.216617037E0,-2.152387381E0,-1.189918280E0,9.490615845E0
1.218631809E0,-2.159569979E0,-1.182735682E0,9.490615845E0
1.220615275E0,-2.195482969E0,-1.180341482E0,9.481039047E0
1.222629048E0,-2.209848166E0,-1.177947283E0,9.478644371E0
1.224612129E0,-2.243366957E0,-1.194706678E0,9.445125580E0
1.226626286E0,-2.276885748E0,-1.170764685E0,9.411606789E0
1.228610290E0,-2.298433542E0,-1.163581967E0,9.411606789E0
1.230624755E0,-2.346317768E0,-1.156399369E0,9.406818390E0
1.232638605E0,-2.406172752E0,-1.144428372E0,9.392453194E0
1.234622378E0,-2.444479942E0,-1.142034173E0,9.387664795E0
1.236635920E0,-2.487575531E0,-1.134851575E0,9.358934402E0
1.238621078E0,-2.523488522E0,-1.122880578E0,9.358934402E0
1.240634390E0,-2.530671120E0,-1.120486379E0,9.370905876E0
1.242618085E0,-2.571372509E0,-1.139639974E0,9.392453194E0
1.244633089E0,-2.595314741E0,-1.154005170E0,9.392453194E0
1.246615939E0,-2.643198729E0,-1.173158884E0,9.399636269E0
1.248629789E0,-2.705447912E0,-1.180341482E0,9.418789864E0
1.250613100E0,-2.726995707E0,-1.185129881E0,9.425971985E0
1.252628258E0,-2.770091295E0,-1.192312479E0,9.449913979E0
1.254612493E0,-2.782062292E0,-1.194706678E0,9.483432770E0
1.256625727E0,-2.801215887E0,-1.194706678E0,9.488221169E0
1.258610961E0,-2.808398485E0,-1.189918280E0,9.497797966E0
1.260623350E0,-2.806004286E0,-1.216254473E0,9.504981041E0
1.262637815E0,-2.791639090E0,-1.209071875E0,9.524134636E0
1.264620896E0,-2.743755102E0,-1.199495077E0,9.564835548E0
1.266636207E0,-2.683900118E0,-1.209071875E0,9.593565941E0
1.268618672E0,-2.652775526E0,-1.211466074E0,9.595960617E0
1.270633215E0,-2.595314741E0,-1.256955862E0,9.588777542E0
1.272616603E0,-2.547430515E0,-1.280897856E0,9.567230225E0
1.274630376E0,-2.530671120E0,-1.280897856E0,9.567230225E0
1.276614380E0,-2.389413357E0,-1.271321058E0,9.579200745E0
1.278627615E0,-2.355894566E0,-1.271321058E0,9.591172218E0
1.280610387E0,-2.322375536E0,-1.273715258E0,9.595960617E0
1.282626699E0,-2.288856745E0,-1.278503656E0,9.598354340E0
1.284610164E0,-2.260126352E0,-1.283292055E0,9.600749016E0
1.286624322E0,-2.217030764E0,-1.273715258E0,9.583989143E0
1.288638094E0,-2.171540976E0,-1.278503656E0,9.579200745E0
1.290621867E0,-2.138022184E0,-1.278503656E0,9.586383820E0
1.292636641E0,-2.094926596E0,-1.276109457E0,9.586383820E0
1.294619952E0,-2.063801765E0,-1.259350061E0,9.579200745E0
1.296633878E0,-2.049436569E0,-1.249773264E0,9.581595421E0
1.298619113E0,-2.003946781E0,-1.256955862E0,9.574412346E0
1.300632886E0,-1.951274395E0,-1.247379065E0,9.555258751E0
1.302615429E0,-1.936909199E0,-1.237802267E0,9.540893555E0
1.304629816E0,-1.915361404E0,-1.233013868E0,9.536105156E0
1.306613282E0,-1.898601890E0,-1.233013868E0,9.521739960E0
1.308627440E0,-1.898601890E0,-1.235408068E0,9.528923035E0
1.310611136E0,-1.869871497E0,-1.221042871E0,9.557653427E0
1.312625831E0,-1.855506301E0,-1.230619669E0,9.564835548E0
1.314608605E0,-1.853112102E0,-1.242590666E0,9.574412346E0
1.316622147E0,-1.865083098E0,-1.254561663E0,9.564835548E0
1.318638228E0,-1.862688899E0,-1.259350061E0,9.555258751E0
1.320621847E0,-1.872265697E0,-1.271321058E0,9.545681953E0
1.322635774E0,-1.879448295E0,-1.268926859E0,9.533711433E0
1.324619162E0,-1.879448295E0,-1.271321058E0,9.533711433E0
1.326633242E0,-1.893813491E0,-1.261744261E0,9.538499832E0
1.328616631E0,-1.900996208E0,-1.233013868E0,9.538499832E0
1.330630250E0,-1.910573006E0,-1.240196466E0,9.545681953E0
1.332614254E0,-1.924938202E0,-1.233013868E0,9.528923035E0
1.334628949E0,-1.953668594E0,-1.213860273E0,9.493009567E0
1.336611800E0,-1.960851192E0,-1.211466074E0,9.473855972E0
1.338627111E0,-1.977610588E0,-1.218648672E0,9.433155060E0
1.340610885E0,-1.984793186E0,-1.197100878E0,9.416395187E0
1.342624426E0,-2.001552582E0,-1.189918280E0,9.409213066E0
1.344637892E0,-2.027888775E0,-1.161187768E0,9.397241592E0
1.346621665E0,-2.049436569E0,-1.154005170E0,9.397241592E0
1.348636669E0,-2.090138197E0,-1.156399369E0,9.390059471E0
1.350620749E0,-2.145204782E0,-1.144428372E0,9.385271072E0
1.352634291E0,-2.176329374E0,-1.142034173E0,9.380482674E0
1.354617295E0,-2.257732153E0,-1.139639974E0,9.375694275E0
1.356633068E0,-2.322375536E0,-1.139639974E0,9.380482674E0
1.358617687E0,-2.353500366E0,-1.134851575E0,9.370905876E0
1.360628999E0,-2.434903145E0,-1.115697980E0,9.363722801E0
1.362613387E0,-2.492363930E0,-1.096544385E0,9.373299599E0
1.364627776E0,-2.511517525E0,-1.108515382E0,9.382876396E0
1.366611163E0,-2.564189911E0,-1.118092179E0,9.428366661E0
1.368625937E0,-2.600103140E0,-1.146822572E0,9.473855972E0
1.370609018E0,-2.614468336E0,-1.161187768E0,9.490615845E0
1.372622559E0,-2.638410330E0,-1.187524080E0,9.528923035E0
1.374638563E0,-2.643198729E0,-1.237802267E0,9.552865028E0
1.376620490E0,-2.655169725E0,-1.242590666E0,9.555258751E0
1.378636109E0,-2.645592928E0,-1.218648672E0,9.581595421E0
1.380619266E0,-2.640804529E0,-1.211466074E0,9.595960617E0
1.382633040E0,-2.607285738E0,-1.204283476E0,9.595960617E0
1.384616813E0,-2.576161146E0,-1.230619669E0,9.593565941E0
1.386630586E0,-2.549824715E0,-1.237802267E0,9.588777542E0
1.388614666E0,-2.499546528E0,-1.213860273E0,9.574412346E0
1.390628516E0,-2.432508945E0,-1.213860273E0,9.569623947E0
1.392612212E0,-2.396595955E0,-1.225831270E0,9.572018623E0
1.394622909E0,-2.331952572E0,-1.209071875E0,9.598354340E0
1.396640219E0,-2.272097349E0,-1.230619669E0,9.612719536E0
1.398625070E0,-2.240972757E0,-1.240196466E0,9.607931137E0
1.400639843E0,-2.152387381E0,-1.264138460E0,9.610325813E0
1.402622385E0,-2.104503393E0,-1.266532660E0,9.605537415E0
1.404635850E0,-2.080561161E0,-1.271321058E0,9.603142738E0
1.406619854E0,-2.044648170E0,-1.273715258E0,9.612719536E0
1.408633781E0,-2.039859772E0,-1.280897856E0,9.600749016E0
1.410618016E0,-1.977610588E0,-1.276109457E0,9.591172218E0
1.412631326E0,-1.958456993E0,-1.247379065E0,9.591172218E0
1.414616484E0,-1.956062794E0,-1.240196466E0,9.576807022E0
1.416629719E0,-1.939303398E0,-1.254561663E0,9.572018623E0
1.418614338E0,-1.922544003E0,-1.233013868E0,9.560047150E0
1.420628495E0,-1.908178806E0,-1.230619669E0,9.560047150E0
1.422610422E0,-1.886630893E0,-1.228225470E0,9.550470352E0
1.424625119E0,-1.879448295E0,-1.237802267E0,9.519346237E0
1.426638969E0,-1.879448295E0,-1.235408068E0,9.507374763E0
1.428623280E0,-1.900996208E0,-1.233013868E0,9.497797966E0
1.430637437E0,-1.929726601E0,-1.225831270E0,9.495404243E0
1.432620826E0,-1.941697598E0,-1.216254473E0,9.481039047E0
1.434634444E0,-1.960851192E0,-1.213860273E0,9.488221169E0
1.436619064E0,-1.982398987E0,-1.225831270E0,9.478644371E0
1.438634145E0,-1.989581585E0,-1.233013868E0,9.476250648E0
1.440615995E0,-2.008735180E0,-1.225831270E0,9.478644371E0
1.442630998E0,-2.013523579E0,-1.237802267E0,9.478644371E0
1.444614156E0,-2.037465572E0,-1.233013868E0,9.473855972E0
1.446628237E0,-2.056619167E0,-1.223437071E0,9.461885452E0
1.448611933E0,-2.068590164E0,-1.228225470E0,9.457097054E0
1.450625859E0,-2.092532396E0,-1.223437071E0,9.457097054E0
1.452610171E0,-2.121262789E0,-1.201889277E0,9.469067574E0
1.454624021E0,-2.140416384E0,-1.192312479E0,9.473855972E0
1.456638179E0,-2.161964178E0,-1.187524080E0,9.485827446E0
1.458622489E0,-2.183511972E0,-1.194706678E0,9.502586365E0
1.460636955E0,-2.197877169E0,-1.194706678E0,9.502586365E0
1.462619651E0,-2.231395960E0,-1.189918280E0,9.488221169E0
1.464633886E0,-2.260126352E0,-1.189918280E0,9.497797966E0
1.466617197E0,-2.279279947E0,-1.189918280E0,9.495404243E0
1.468631432E0,-2.303221941E0,-1.185129881E0,9.490615845E0
1.470615051E0,-2.319981337E0,-1.163581967E0,9.466673851E0
1.472629286E0,-2.363077164E0,-1.156399369E0,9.471462250E0
1.474612289E0,-2.415749550E0,-1.151610970E0,9.485827446E0
1.476627062E0,-2.434903145E0,-1.161187768E0,9.490615845E0
1.478611681E0,-2.463633537E0,-1.158793569E0,9.524134636E0
1.480625607E0,-2.494758129E0,-1.185129881E0,9.538499832E0
1.482608381E0,-2.523488522E0,-1.201889277E0,9.538499832E0
1.484623077E0,-2.552218914E0,-1.228225470E0,9.555258751E0
1.486636696E0,-2.592920542E0,-1.247379065E0,9.555258751E0
1.488620622E0,-2.607285738E0,-1.259350061E0,9.567230225E0
1.490634780E0,-2.633621931E0,-1.271321058E0,9.591172218E0
1.492618554E0,-2.638410330E0,-1.261744261E0,9.607931137E0
1.494633634E0,-2.659958124E0,-1.252167463E0,9.617507935E0
1.496615791E0,-2.671929121E0,-1.266532660E0,9.610325813E0
1.498631795E0,-2.667140722E0,-1.254561663E0,9.615114212E0
1.500614569E0,-2.655169725E0,-1.237802267E0,9.617507935E0
1.502627726E0,-2.626439333E0,-1.254561663E0,9.631873131E0
1.504611806E0,-2.609679937E0,-1.256955862E0,9.631873131E0
1.506625656E0,-2.571372509E0,-1.252167463E0,9.629479408E0
1.508609661E0,-2.518700123E0,-1.240196466E0,9.622296333E0
1.510624357E0,-2.497152328E0,-1.242590666E0,9.603142738E0
1.512637975E0,-2.451662540E0,-1.259350061E0,9.591172218E0
1.514621056E0,-2.401384354E0,-1.276109457E0,9.583989143E0
1.516635137E0,-2.269703150E0,-1.240196466E0,9.540893555E0
1.518617680E0,-2.269703150E0,-1.240196466E0,9.540893555E0
1.520634529E0,-2.240972757E0,-1.223437071E0,9.528923035E0
1.522617994E0,-2.214636564E0,-1.213860273E0,9.521739960E0
1.524631460E0,-2.164358377E0,-1.201889277E0,9.509769440E0
1.526615155E0,-2.114080191E0,-1.197100878E0,9.516951561E0
1.528629313E0,-2.099714994E0,-1.197100878E0,9.512163162E0
1.530613702E0,-2.078166962E0,-1.209071875E0,9.497797966E0
1.532626859E0,-2.059013367E0,-1.194706678E0,9.457097054E0
1.534611247E0,-2.049436569E0,-1.189918280E0,9.459490776E0
1.536625405E0,-2.047042370E0,-1.177947283E0,9.469067574E0
1.538640409E0,-2.051830769E0,-1.149216771E0,9.485827446E0
1.540622874E0,-2.068590164E0,-1.154005170E0,9.490615845E0
1.542636108E0,-2.094926596E0,-1.173158884E0,9.507374763E0
1.544620420E0,-2.104503393E0,-1.173158884E0,9.519346237E0
1.546634578E0,-2.130839586E0,-1.194706678E0,9.533711433E0
1.548617966E0,-2.157175779E0,-1.182735682E0,9.550470352E0
1.550632508E0,-2.157175779E0,-1.185129881E0,9.557653427E0
1.552615896E0,-2.178723574E0,-1.182735682E0,9.586383820E0
1.554629670E0,-2.205059767E0,-1.173158884E0,9.581595421E0
1.556613981E0,-2.212242365E0,-1.168370485E0,9.581595421E0
1.558629369E0,-2.229001760E0,-1.170764685E0,9.579200745E0
1.560611911E0,-2.229001760E0,-1.185129881E0,9.574412346E0
1.562625762E0,-2.224213362E0,-1.182735682E0,9.569623947E0
1.564609073E0,-2.243366957E0,-1.173158884E0,9.581595421E0
1.566624153E0,-2.243366957E0,-1.170764685E0,9.619902611E0
1.568637696E0,-2.240972757E0,-1.187524080E0,9.636661530E0
1.570622007E0,-2.219424963E0,-1.223437071E0,9.639056206E0
1.572635627E0,-2.212242365E0,-1.259350061E0,9.636661530E0
1.574620553E0,-2.212242365E0,-1.261744261E0,9.605537415E0
1.576633788E0,-2.209848166E0,-1.261744261E0,9.593565941E0
1.578617792E0,-2.202665567E0,-1.249773264E0,9.576807022E0
1.580631565E0,-2.193088770E0,-1.233013868E0,9.548076630E0
1.582615260E0,-2.173935175E0,-1.185129881E0,9.490615845E0
1.584629187E0,-2.166752577E0,-1.168370485E0,9.457097054E0
1.586612499E0,-2.116474390E0,-1.127668977E0,9.409213066E0
1.588627579E0,-2.099714994E0,-1.120486379E0,9.387664795E0
1.590610737E0,-2.097320795E0,-1.122880578E0,9.370905876E0
1.592624202E0,-2.078166962E0,-1.110909581E0,9.361329079E0
1.594639052E0,-2.061407566E0,-1.103726983E0,9.346963882E0
1.596622979E0,-2.049436569E0,-1.115697980E0,9.339780807E0
1.598638675E0,-2.051830769E0,-1.134851575E0,9.330204010E0
1.600619679E0,-2.063801765E0,-1.151610970E0,9.342175484E0
1.602635606E0,-2.087743998E0,-1.156399369E0,9.349357605E0
1.604617840E0,-2.123656988E0,-1.165976286E0,9.363722801E0
1.606631921E0,-2.147598982E0,-1.163581967E0,9.370905876E0
1.608616540E0,-2.200271368E0,-1.168370485E0,9.387664795E0
1.610630159E0,-2.245761156E0,-1.161187768E0,9.406818390E0
1.612613547E0,-2.267308950E0,-1.154005170E0,9.416395187E0
1.614629166E0,-2.300827742E0,-1.161187768E0,9.435548782E0
1.616612017E0,-2.319981337E0,-1.175553083E0,9.421183586E0
1.618626405E0,-2.336740971E0,-1.168370485E0,9.425971985E0
1.620609793E0,-2.348711967E0,-1.154005170E0,9.459490776E0
1.622623643E0,-2.358288765E0,-1.154005170E0,9.488221169E0
1.624638109E0,-2.367865562E0,-1.158793569E0,9.502586365E0
1.626620959E0,-2.372653961E0,-1.170764685E0,9.514557838E0
1.628635654E0,-2.370259762E0,-1.201889277E0,9.497797966E0
1.630619658E0,-2.379836559E0,-1.216254473E0,9.490615845E0
1.632632662E0,-2.401384354E0,-1.204283476E0,9.469067574E0
1.634616588E0,-2.401384354E0,-1.197100878E0,9.466673851E0
1.636631131E0,-2.401384354E0,-1.187524080E0,9.471462250E0
1.638615750E0,-2.410961151E0,-1.170764685E0,9.481039047E0
1.640629908E0,-2.413355350E0,-1.149216771E0,9.473855972E0
1.642613295E0,-2.391807556E0,-1.125274777E0,9.464279175E0
1.644628069E0,-2.367865562E0,-1.132457376E0,9.457097054E0
1.646610457E0,-2.360682964E0,-1.137245774E0,9.445125580E0
1.648624384E0,-2.339135170E0,-1.127668977E0,9.437943459E0
1.650638541E0,-2.298433542E0,-1.106121182E0,9.425971985E0
1.652622853E0,-2.281674147E0,-1.108515382E0,9.428366661E0
1.654637857E0,-2.243366957E0,-1.103726983E0,9.421183586E0
1.656620399E0,-2.240972757E0,-1.106121182E0,9.411606789E0
1.658635479E0,-2.238578558E0,-1.113303781E0,9.414001465E0
1.660618483E0,-2.209848166E0,-1.110909581E0,9.435548782E0
1.662632949E0,-2.188300371E0,-1.120486379E0,9.473855972E0
1.664616337E0,-2.181117773E0,-1.125274777E0,9.509769440E0
1.666630494E0,-2.159569979E0,-1.151610970E0,9.560047150E0
1.668613883E0,-2.138022184E0,-1.154005170E0,9.569623947E0
1.670628656E0,-2.130839586E0,-1.170764685E0,9.581595421E0
1.672611737E0,-2.123656988E0,-1.187524080E0,9.579200745E0
1.674625279E0,-2.123656988E0,-1.189918280E0,9.581595421E0
1.676641052E0,-2.118868589E0,-1.192312479E0,9.579200745E0
1.678625671E0,-2.109291792E0,-1.168370485E0,9.562441826E0
1.680636675E0,-2.102109194E0,-1.161187768E0,9.538499832E0
1.682621371E0,-2.063801765E0,-1.158793569E0,9.521739960E0
1.684634605E0,-2.054224968E0,-1.151610970E0,9.500192642E0
1.686618917E0,-2.032677174E0,-1.144428372E0,9.500192642E0
1.688633305E0,-2.013523579E0,-1.127668977E0,9.521739960E0
1.690617309E0,-2.011129379E0,-1.125274777E0,9.514557838E0
1.692630928E0,-2.006340981E0,-1.127668977E0,9.509769440E0
1.694616086E0,-1.972822189E0,-1.158793569E0,9.516951561E0
1.696629012E0,-1.946485996E0,-1.177947283E0,9.519346237E0
1.698613631E0,-1.944091797E0,-1.187524080E0,9.531316757E0
1.700627174E0,-1.972822189E0,-1.213860273E0,9.545681953E0
1.702610870E0,-1.970427990E0,-1.230619669E0,9.557653427E0
1.704624181E0,-1.980004787E0,-1.244984865E0,9.572018623E0
1.706638877E0,-1.980004787E0,-1.276109457E0,9.586383820E0
1.708622343E0,-1.972822189E0,-1.268926859E0,9.605537415E0
1.710636116E0,-1.946485996E0,-1.280897856E0,9.634267807E0
1.712620427E0,-1.922544003E0,-1.295263171E0,9.627084732E0
1.714630661E0,-1.910573006E0,-1.295263171E0,9.622296333E0
1.716617435E0,-1.910573006E0,-1.290474772E0,9.615114212E0
1.718632516E0,-1.891419291E0,-1.300051570E0,9.603142738E0
1.720615288E0,-1.893813491E0,-1.300051570E0,9.586383820E0
1.722629676E0,-1.898601890E0,-1.309628367E0,9.574412346E0
1.724614065E0,-1.896207690E0,-1.290474772E0,9.564835548E0
1.726627607E0,-1.900996208E0,-1.285686255E0,9.560047150E0
1.728611918E0,-1.920149803E0,-1.297657371E0,9.552865028E0
1.730625153E0,-1.951274395E0,-1.283292055E0,9.560047150E0
1.732640234E0,-1.970427990E0,-1.285686255E0,9.548076630E0
1.734623853E0,-2.003946781E0,-1.290474772E0,9.521739960E0
1.736637779E0,-2.020706177E0,-1.285686255E0,9.504981041E0
1.738621783E0,-2.075772762E0,-1.268926859E0,9.481039047E0
1.740635634E0,-2.138022184E0,-1.235408068E0,9.473855972E0
1.742618637E0,-2.164358377E0,-1.230619669E0,9.457097054E0
1.744633410E0,-2.226607561E0,-1.197100878E0,9.437943459E0
1.746616260E0,-2.293645144E0,-1.156399369E0,9.414001465E0
1.748630725E0,-2.305616140E0,-1.156399369E0,9.409213066E0
1.750614652E0,-2.346317768E0,-1.139639974E0,9.402029991E0
1.752628271E0,-2.398990154E0,-1.125274777E0,9.411606789E0
1.754611660E0,-2.391807556E0,-1.125274777E0,9.416395187E0
1.756626048E0,-2.475604534E0,-1.154005170E0,9.425971985E0
1.758608590E0,-2.475604534E0,-1.154005170E0,9.425971985E0
1.760624286E0,-2.494758129E0,-1.175553083E0,9.423578262E0
1.762638367E0,-2.540247917E0,-1.194706678E0,9.433155060E0
1.764622371E0,-2.578555346E0,-1.223437071E0,9.457097054E0
1.766636528E0,-2.592920542E0,-1.211466074E0,9.476250648E0
1.768619301E0,-2.619256735E0,-1.218648672E0,9.490615845E0
1.770634382E0,-2.626439333E0,-1.223437071E0,9.488221169E0
1.772617540E0,-2.669534922E0,-1.209071875E0,9.493009567E0
1.774632235E0,-2.715024710E0,-1.213860273E0,9.500192642E0
1.776615931E0,-2.726995707E0,-1.216254473E0,9.502586365E0
1.778630166E0,-2.755726099E0,-1.225831270E0,9.500192642E0
1.780613862E0,-2.784456491E0,-1.240196466E0,9.507374763E0
1.782628019E0,-2.796427488E0,-1.235408068E0,9.507374763E0
1.784611408E0,-2.827552319E0,-1.223437071E0,9.488221169E0
1.786625181E0,-2.841917515E0,-1.213860273E0,9.471462250E0
1.788639031E0,-2.851494312E0,-1.209071875E0,9.466673851E0
1.790623111E0,-2.875436306E0,-1.194706678E0,9.466673851E0
1.792636654E0,-2.887407303E0,-1.209071875E0,9.469067574E0
1.794620581E0,-2.896984100E0,-1.199495077E0,9.466673851E0
1.796634430E0,-2.913743496E0,-1.187524080E0,9.476250648E0
1.798620357E0,-2.916137695E0,-1.175553083E0,9.488221169E0
1.800633207E0,-2.930502892E0,-1.180341482E0,9.502586365E0
1.802616904E0,-2.944868088E0,-1.197100878E0,9.519346237E0
1.804630753E0,-2.959233284E0,-1.206677675E0,9.531316757E0
1.806614449E0,-2.980781078E0,-1.216254473E0,9.550470352E0
1.808628991E0,-2.968810081E0,-1.225831270E0,9.538499832E0
1.810612072E0,-2.964021683E0,-1.233013868E0,9.536105156E0
1.812626537E0,-2.966415882E0,-1.244984865E0,9.552865028E0
1.814611079E0,-2.949656487E0,-1.259350061E0,9.567230225E0
1.816623468E0,-2.932897091E0,-1.266532660E0,9.581595421E0
1.818639703E0,-2.889801502E0,-1.280897856E0,9.607931137E0
1.820622167E0,-2.834734917E0,-1.295263171E0,9.619902611E0
1.822635787E0,-2.801215887E0,-1.302445769E0,9.617507935E0
1.824619791E0,-2.736572504E0,-1.326387763E0,9.595960617E0
1.826633872E0,-2.683900118E0,-1.326387763E0,9.579200745E0
1.828617952E0,-2.645592928E0,-1.309628367E0,9.567230225E0
1.830631494E0,-2.561795712E0,-1.290474772E0,9.550470352E0
1.832615806E0,-2.530671120E0,-1.273715258E0,9.538499832E0
1.834628733E0,-2.458845139E0,-1.261744261E0,9.495404243E0
1.836613890E0,-2.398990154E0,-1.235408068E0,9.457097054E0
1.838629278E0,-2.367865562E0,-1.230619669E0,9.437943459E0
1.840610513E0,-2.319981337E0,-1.216254473E0,9.414001465E0
1.842625593E0,-2.298433542E0,-1.206677675E0,9.397241592E0
1.844639520E0,-2.288856745E0,-1.192312479E0,9.399636269E0
1.846623216E0,-2.274491549E0,-1.189918280E0,9.394847870E0
1.848637297E0,-2.250549555E0,-1.199495077E0,9.375694275E0
1.850620993E0,-2.238578558E0,-1.199495077E0,9.361329079E0
1.852634920E0,-2.236184359E0,-1.189918280E0,9.358934402E0
1.854620154E0,-2.238578558E0,-1.197100878E0,9.363722801E0
1.856633005E0,-2.240972757E0,-1.194706678E0,9.356540680E0
1.858617315E0,-2.269703150E0,-1.206677675E0,9.351752281E0
1.860630627E0,-2.303221941E0,-1.213860273E0,9.344569206E0
1.862614016E0,-2.308010340E0,-1.209071875E0,9.342175484E0
1.864628789E0,-2.319981337E0,-1.233013868E0,9.351752281E0
1.866611869E0,-2.346317768E0,-1.230619669E0,9.358934402E0
1.868626334E0,-2.403778553E0,-1.228225470E0,9.373299599E0
1.870610261E0,-2.415749550E0,-1.223437071E0,9.421183586E0
1.872623189E0,-2.425326347E0,-1.225831270E0,9.440337181E0
1.874634961E0,-2.454056740E0,-1.259350061E0,9.461885452E0
1.876621657E0,-2.475604534E0,-1.283292055E0,9.483432770E0
1.878637046E0,-2.494758129E0,-1.295263171E0,9.488221169E0
1.880620127E0,-2.511517525E0,-1.302445769E0,9.502586365E0
1.882634360E0,-2.523488522E0,-1.290474772E0,9.538499832E0
1.884617134E0,-2.530671120E0,-1.285686255E0,9.548076630E0
1.886631291E0,-2.535459518E0,-1.288080573E0,9.569623947E0
1.888614911E0,-2.545036316E0,-1.280897856E0,9.591172218E0
1.890629452E0,-2.545036316E0,-1.280897856E0,9.588777542E0
1.892613687E0,-2.525882721E0,-1.304839969E0,9.588777542E0
1.894628845E0,-2.511517525E0,-1.292868972E0,9.586383820E0
1.896611540E0,-2.511517525E0,-1.285686255E0,9.583989143E0
1.898625775E0,-2.509123325E0,-1.285686255E0,9.572018623E0
1.900639318E0,-2.485181332E0,-1.273715258E0,9.572018623E0
1.902623245E0,-2.427720547E0,-1.276109457E0,9.564835548E0
1.904637094E0,-2.401384354E0,-1.288080573E0,9.552865028E0
1.906621175E0,-2.394201756E0,-1.273715258E0,9.543288231E0
1.908634333E0,-2.353500366E0,-1.256955862E0,9.536105156E0
1.910618644E0,-2.293645144E0,-1.259350061E0,9.519346237E0
1.912633493E0,-2.269703150E0,-1.256955862E0,9.507374763E0
1.914615574E0,-2.219424963E0,-1.266532660E0,9.493009567E0
1.916631271E0,-2.176329374E0,-1.256955862E0,9.476250648E0
1.918615352E0,-2.164358377E0,-1.261744261E0,9.476250648E0
1.920627278E0,-2.121262789E0,-1.256955862E0,9.469067574E0
1.922612512E0,-2.094926596E0,-1.235408068E0,9.457097054E0
1.924626132E0,-2.073378563E0,-1.233013868E0,9.459490776E0
1.926610059E0,-2.047042370E0,-1.230619669E0,9.461885452E0
1.928623985E0,-2.037465572E0,-1.233013868E0,9.445125580E0
1.930637758E0,-2.015917778E0,-1.237802267E0,9.445125580E0
1.932621531E0,-1.984793186E0,-1.223437071E0,9.440337181E0
1.934637459E0,-1.972822189E0,-1.228225470E0,9.440337181E0
1.936619615E0,-1.960851192E0,-1.240196466E0,9.430760384E0
1.938634466E0,-1.948880196E0,-1.244984865E0,9.423578262E0
1.940618162E0,-1.936909199E0,-1.240196466E0,9.425971985E0
1.942631627E0,-1.936909199E0,-1.237802267E0,9.445125580E0
1.944614477E0,-1.929726601E0,-1.261744261E0,9.473855972E0
1.946629250E0,-1.934514999E0,-1.276109457E0,9.485827446E0
1.948613177E0,-1.920149803E0,-1.292868972E0,9.509769440E0
1.950627641E0,-1.932120800E0,-1.297657371E0,9.509769440E0
1.952610799E0,-1.941697598E0,-1.307234168E0,9.509769440E0
1.954621572E0,-1.941697598E0,-1.316810966E0,9.516951561E0
1.956638807E0,-1.948880196E0,-1.309628367E0,9.528923035E0
1.958623964E0,-1.958456993E0,-1.295263171E0,9.524134636E0
1.960637276E0,-1.965639591E0,-1.309628367E0,9.526528358E0
1.962620280E0,-1.984793186E0,-1.314416766E0,9.521739960E0
1.964634515E0,-2.003946781E0,-1.314416766E0,9.524134636E0
1.966618210E0,-2.013523579E0,-1.304839969E0,9.516951561E0
1.968632675E0,-2.030282974E0,-1.295263171E0,9.514557838E0
1.970616603E0,-2.061407566E0,-1.288080573E0,9.502586365E0
1.972629837E0,-2.087743998E0,-1.273715258E0,9.469067574E0
1.974615148E0,-2.118868589E0,-1.268926859E0,9.461885452E0
1.976628306E0,-2.157175779E0,-1.261744261E0,9.445125580E0
1.978613002E0,-2.185906172E0,-1.271321058E0,9.464279175E0
1.980625929E0,-2.214636564E0,-1.268926859E0,9.461885452E0
1.982640009E0,-2.267308950E0,-1.259350061E0,9.445125580E0
1.984623705E0,-2.334346771E0,-1.264138460E0,9.454702377E0
1.986638248E0,-2.363077164E0,-1.261744261E0,9.454702377E0
1.988621560E0,-2.410961151E0,-1.259350061E0,9.457097054E0
1.990635101E0,-2.458845139E0,-1.266532660E0,9.478644371E0
1.992619105E0,-2.480392933E0,-1.261744261E0,9.493009567E0
1.994633955E0,-2.554613113E0,-1.276109457E0,9.497797966E0
1.996617266E0,-2.671929121E0,-1.283292055E0,9.507374763E0
1.998630193E0,-2.671929121E0,-1.283292055E0,9.507374763E0
2.000614274E0,-2.688688517E0,-1.278503656E0,9.500192642E0
2.002629047E0,-2.717418909E0,-1.271321058E0,9.497797966E0
2.004612743E0,-2.750937700E0,-1.261744261E0,9.497797966E0
2.006626516E0,-2.767697096E0,-1.240196466E0,9.507374763E0
2.008610827E0,-2.786850691E0,-1.233013868E0,9.507374763E0
2.010624370E0,-2.784456491E0,-1.235408068E0,9.493009567E0
2.012639758E0,-2.806004286E0,-1.242590666E0,9.485827446E0
2.014622608E0,-2.815581083E0,-1.242590666E0,9.481039047E0
2.016637689E0,-2.779668093E0,-1.235408068E0,9.473855972E0
2.018621693E0,-2.758120298E0,-1.221042871E0,9.469067574E0
2.020635542E0,-2.741360903E0,-1.230619669E0,9.469067574E0
2.022618238E0,-2.698265314E0,-1.230619669E0,9.476250648E0
2.024633011E0,-2.659958124E0,-1.244984865E0,9.488221169E0
2.026615477E0,-2.628833532E0,-1.244984865E0,9.490615845E0
2.028629941E0,-2.571372509E0,-1.237802267E0,9.495404243E0
2.030613945E0,-2.552218914E0,-1.233013868E0,9.500192642E0
2.032627488E0,-2.516305923E0,-1.249773264E0,9.507374763E0
2.034610953E0,-2.468421936E0,-1.268926859E0,9.500192642E0
2.036625418E0,-2.454056740E0,-1.266532660E0,9.504981041E0
2.038640807E0,-2.408566952E0,-1.259350061E0,9.514557838E0
2.040623503E0,-2.355894566E0,-1.244984865E0,9.490615845E0
2.042637738E0,-2.322375536E0,-1.237802267E0,9.488221169E0
2.044622279E0,-2.296039343E0,-1.242590666E0,9.485827446E0
2.046635899E0,-2.264914751E0,-1.249773264E0,9.473855972E0
2.048619518E0,-2.248155355E0,-1.242590666E0,9.483432770E0
2.050633753E0,-2.238578558E0,-1.249773264E0,9.493009567E0
2.052617063E0,-2.224213362E0,-1.273715258E0,9.514557838E0
2.054631606E0,-2.214636564E0,-1.271321058E0,9.526528358E0
2.056614687E0,-2.209848166E0,-1.266532660E0,9.519346237E0
2.058630074E0,-2.214636564E0,-1.295263171E0,9.502586365E0
2.060613463E0,-2.219424963E0,-1.307234168E0,9.504981041E0
2.062626390E0,-2.214636564E0,-1.297657371E0,9.495404243E0
2.064640779E0,-2.214636564E0,-1.309628367E0,9.490615845E0
2.066624859E0,-2.205059767E0,-1.285686255E0,9.476250648E0
2.068640170E0,-2.209848166E0,-1.266532660E0,9.457097054E0
2.070622713E0,-2.224213362E0,-1.264138460E0,9.445125580E0
2.072636563E0,-2.214636564E0,-1.247379065E0,9.464279175E0
2.074620181E0,-2.212242365E0,-1.254561663E0,9.471462250E0
2.076634955E0,-2.207453966E0,-1.242590666E0,9.469067574E0
2.078619574E0,-2.205059767E0,-1.256955862E0,9.452308655E0
2.080631655E0,-2.209848166E0,-1.261744261E0,9.454702377E0
2.082615581E0,-2.205059767E0,-1.276109457E0,9.461885452E0
2.084629816E0,-2.217030764E0,-1.266532660E0,9.469067574E0
2.086613127E0,-2.212242365E0,-1.280897856E0,9.490615845E0
2.088627593E0,-2.209848166E0,-1.292868972E0,9.495404243E0
2.090610365E0,-2.224213362E0,-1.280897856E0,9.497797966E0
2.092625523E0,-2.221819162E0,-1.297657371E0,9.516951561E0
2.094640219E0,-2.245761156E0,-1.285686255E0,9.533711433E0
2.096623685E0,-2.245761156E0,-1.276109457E0,9.548076630E0
2.098638457E0,-2.248155355E0,-1.278503656E0,9.572018623E0
2.100621230E0,-2.255337954E0,-1.273715258E0,9.595960617E0
2.102635696E0,-2.262520552E0,-1.268926859E0,9.605537415E0
2.104619314E0,-2.264914751E0,-1.280897856E0,9.610325813E0
2.106633857E0,-2.279279947E0,-1.292868972E0,9.610325813E0
2.108616553E0,-2.293645144E0,-1.271321058E0,9.595960617E0
2.110631942E0,-2.312798738E0,-1.290474772E0,9.586383820E0
2.112614483E0,-2.322375536E0,-1.300051570E0,9.586383820E0
2.114627718E0,-2.341529369E0,-1.283292055E0,9.567230225E0
2.116612876E0,-2.341529369E0,-1.268926859E0,9.569623947E0
2.118628034E0,-2.355894566E0,-1.261744261E0,9.562441826E0
2.120611344E0,-2.363077164E0,-1.254561663E0,9.543288231E0
2.122624348E0,-2.363077164E0,-1.247379065E0,9.536105156E0
2.124639045E0,-2.339135170E0,-1.228225470E0,9.507374763E0
2.126621818E0,-2.351106167E0,-1.209071875E0,9.481039047E0
2.128636667E0,-2.370259762E0,-1.201889277E0,9.459490776E0
2.130620363E0,-2.363077164E0,-1.180341482E0,9.435548782E0
2.132633906E0,-2.358288765E0,-1.170764685E0,9.428366661E0
2.134618218E0,-2.336740971E0,-1.187524080E0,9.423578262E0
2.136632298E0,-2.351106167E0,-1.194706678E0,9.433155060E0
2.138616071E0,-2.355894566E0,-1.204283476E0,9.428366661E0
2.140630152E0,-2.353500366E0,-1.209071875E0,9.440337181E0
2.142613233E0,-2.377442360E0,-1.218648672E0,9.466673851E0
2.144628082E0,-2.377442360E0,-1.233013868E0,9.471462250E0
2.146612009E0,-2.372653961E0,-1.254561663E0,9.488221169E0
2.148625321E0,-2.398990154E0,-1.261744261E0,9.507374763E0
2.150639478E0,-2.420537949E0,-1.266532660E0,9.504981041E0
2.152623404E0,-2.415749550E0,-1.268926859E0,9.490615845E0
2.154637255E0,-2.415749550E0,-1.261744261E0,9.488221169E0
2.156621874E0,-2.410961151E0,-1.254561663E0,9.490615845E0
2.158636955E0,-2.401384354E0,-1.237802267E0,9.490615845E0
2.160618189E0,-2.389413357E0,-1.235408068E0,9.483432770E0
2.162633962E0,-2.379836559E0,-1.225831270E0,9.478644371E0
2.164617043E0,-2.353500366E0,-1.218648672E0,9.471462250E0
2.166631431E0,-2.343923569E0,-1.223437071E0,9.476250648E0
2.168614896E0,-2.327163935E0,-1.230619669E0,9.504981041E0
2.170628669E0,-2.303221941E0,-1.244984865E0,9.493009567E0
2.172611827E0,-2.286462545E0,-1.254561663E0,9.500192642E0
2.174627522E0,-2.272097349E0,-1.273715258E0,9.507374763E0
2.176610526E0,-2.240972757E0,-1.273715258E0,9.516951561E0
2.178625607E0,-2.226607561E0,-1.268926859E0,9.526528358E0
2.180638842E0,-2.209848166E0,-1.249773264E0,9.552865028E0
2.182621999E0,-2.221819162E0,-1.252167463E0,9.540893555E0
2.184636388E0,-2.217030764E0,-1.266532660E0,9.526528358E0
2.186619853E0,-2.200271368E0,-1.268926859E0,9.504981041E0
2.188634011E0,-2.207453966E0,-1.256955862E0,9.493009567E0
2.190618322E0,-2.212242365E0,-1.244984865E0,9.502586365E0
2.192631480E0,-2.219424963E0,-1.235408068E0,9.521739960E0
2.194614637E0,-2.209848166E0,-1.228225470E0,9.528923035E0
2.196629411E0,-2.195482969E0,-1.237802267E0,9.531316757E0
2.198614260E0,-2.202665567E0,-1.247379065E0,9.533711433E0
2.200628418E0,-2.217030764E0,-1.256955862E0,9.531316757E0
2.202611499E0,-2.217030764E0,-1.264138460E0,9.514557838E0
2.204625118E0,-2.233790159E0,-1.256955862E0,9.497797966E0
2.206639506E0,-2.240972757E0,-1.249773264E0,9.488221169E0
2.208623202E0,-2.269703150E0,-1.230619669E0,9.483432770E0
2.210637437E0,-2.276885748E0,-1.235408068E0,9.483432770E0
2.212620747E0,-2.276885748E0,-1.225831270E0,9.483432770E0
2.214635905E0,-2.298433542E0,-1.211466074E0,9.469067574E0
2.216618678E0,-2.317587137E0,-1.216254473E0,9.476250648E0
2.218633990E0,-2.327163935E0,-1.228225470E0,9.485827446E0
2.220617070E0,-2.353500366E0,-1.261744261E0,9.476250648E0
2.222631228E0,-2.367865562E0,-1.268926859E0,9.471462250E0
2.224615001E0,-2.372653961E0,-1.276109457E0,9.476250648E0
2.226629698E0,-2.377442360E0,-1.273715258E0,9.493009567E0
2.228611008E0,-2.375048161E0,-1.271321058E0,9.495404243E0
2.230626628E0,-2.387019157E0,-1.244984865E0,9.490615845E0
2.232640247E0,-2.379836559E0,-1.244984865E0,9.478644371E0
2.234623866E0,-2.384624958E0,-1.247379065E0,9.478644371E0
2.236638331E0,-2.394201756E0,-1.206677675E0,9.476250648E0
2.238621104E0,-2.387019157E0,-1.199495077E0,9.476250648E0
2.240633493E0,-2.387019157E0,-1.189918280E0,9.473855972E0
2.242620189E0,-2.384624958E0,-1.189918280E0,9.478644371E0
2.244633807E0,-2.367865562E0,-1.192312479E0,9.476250648E0
2.246617504E0,-2.363077164E0,-1.194706678E0,9.469067574E0
2.248631662E0,-2.353500366E0,-1.182735682E0,9.459490776E0
2.250615281E0,-2.346317768E0,-1.194706678E0,9.466673851E0
2.252629438E0,-2.339135170E0,-1.201889277E0,9.473855972E0
2.254613827E0,-2.329558372E0,-1.221042871E0,9.478644371E0
2.256627292E0,-2.327163935E0,-1.211466074E0,9.497797966E0
2.258611295E0,-2.319981337E0,-1.216254473E0,9.500192642E0
2.260625838E0,-2.327163935E0,-1.213860273E0,9.504981041E0
2.262639072E0,-2.324769735E0,-1.211466074E0,9.512163162E0
2.264622692E0,-2.315192938E0,-1.199495077E0,9.509769440E0
2.266637464E0,-2.291250944E0,-1.204283476E0,9.507374763E0
2.268620622E0,-2.293645144E0,-1.201889277E0,9.516951561E0
2.270635010E0,-2.298433542E0,-1.204283476E0,9.519346237E0
2.272618399E0,-2.284068346E0,-1.218648672E0,9.533711433E0
2.274632864E0,-2.272097349E0,-1.223437071E0,9.521739960E0
2.276616021E0,-2.267308950E0,-1.223437071E0,9.516951561E0
2.278632333E0,-2.262520552E0,-1.237802267E0,9.514557838E0
2.280614799E0,-2.245761156E0,-1.244984865E0,9.512163162E0
2.282628340E0,-2.257732153E0,-1.228225470E0,9.500192642E0
2.284612267E0,-2.255337954E0,-1.206677675E0,9.497797966E0
2.286625579E0,-2.252943754E0,-1.204283476E0,9.500192642E0
2.288640891E0,-2.245761156E0,-1.204283476E0,9.497797966E0
2.290624278E0,-2.255337954E0,-1.206677675E0,9.509769440E0
2.292638513E0,-2.264914751E0,-1.211466074E0,9.521739960E0
2.294622209E0,-2.274491549E0,-1.233013868E0,9.521739960E0
2.296636906E0,-2.267308950E0,-1.223437071E0,9.519346237E0
2.298620293E0,-2.274491549E0,-1.211466074E0,9.512163162E0
2.300634451E0,-2.293645144E0,-1.209071875E0,9.495404243E0
2.302617532E0,-2.312798738E0,-1.199495077E0,9.493009567E0
2.304631690E0,-2.331952572E0,-1.199495077E0,9.488221169E0
2.306615154E0,-2.339135170E0,-1.187524080E0,9.493009567E0
2.308629620E0,-2.336740971E0,-1.185129881E0,9.497797966E0
2.310613316E0,-2.355894566E0,-1.180341482E0,9.493009567E0
2.312626858E0,-2.370259762E0,-1.185129881E0,9.502586365E0
2.314640631E0,-2.372653961E0,-1.185129881E0,9.497797966E0
2.316625943E0,-2.365471363E0,-1.187524080E0,9.490615845E0
2.318641562E0,-2.375048161E0,-1.211466074E0,9.483432770E0
2.320622180E0,-2.382230759E0,-1.221042871E0,9.485827446E0
2.322637261E0,-2.363077164E0,-1.213860273E0,9.488221169E0
2.324620727E0,-2.355894566E0,-1.213860273E0,9.497797966E0
2.326634808E0,-2.346317768E0,-1.206677675E0,9.495404243E0
2.328618888E0,-2.331952572E0,-1.199495077E0,9.483432770E0
2.330632738E0,-2.341529369E0,-1.197100878E0,9.490615845E0
2.332616050E0,-2.343923569E0,-1.189918280E0,9.509769440E0
2.334631515E0,-2.324769735E0,-1.209071875E0,9.507374763E0
2.336614518E0,-2.312798738E0,-1.213860273E0,9.509769440E0
2.338629599E0,-2.288856745E0,-1.192312479E0,9.504981041E0
2.340612449E0,-2.272097349E0,-1.201889277E0,9.507374763E0
2.342626530E0,-2.262520552E0,-1.201889277E0,9.512163162E0
2.344640995E0,-2.267308950E0,-1.194706678E0,9.526528358E0
2.346623768E0,-2.260126352E0,-1.192312479E0,9.526528358E0
2.348638310E0,-2.245761156E0,-1.194706678E0,9.524134636E0
2.350622314E0,-2.226607561E0,-1.197100878E0,9.536105156E0
2.352635471E0,-2.209848166E0,-1.187524080E0,9.543288231E0
2.354619475E0,-2.205059767E0,-1.185129881E0,9.543288231E0
2.356633325E0,-2.202665567E0,-1.194706678E0,9.533711433E0
2.358618637E0,-2.200271368E0,-1.211466074E0,9.526528358E0
2.360631871E0,-2.193088770E0,-1.233013868E0,9.516951561E0
2.362615567E0,-2.205059767E0,-1.218648672E0,9.519346237E0
2.364629725E0,-2.205059767E0,-1.213860273E0,9.514557838E0
2.366612805E0,-2.202665567E0,-1.213860273E0,9.521739960E0
2.368626886E0,-2.185906172E0,-1.189918280E0,9.536105156E0
2.370641121E0,-2.200271368E0,-1.189918280E0,9.528923035E0
2.372624817E0,-2.219424963E0,-1.187524080E0,9.512163162E0
2.374640205E0,-2.236184359E0,-1.194706678E0,9.507374763E0
2.376623824E0,-2.236184359E0,-1.194706678E0,9.507374763E0
2.378638059E0,-2.262520552E0,-1.204283476E0,9.504981041E0
2.380621447E0,-2.267308950E0,-1.194706678E0,9.495404243E0
2.382635220E0,-2.274491549E0,-1.189918280E0,9.488221169E0
2.384618916E0,-2.276885748E0,-1.182735682E0,9.507374763E0
2.386632843E0,-2.286462545E0,-1.175553083E0,9.514557838E0
2.388616232E0,-2.293645144E0,-1.185129881E0,9.519346237E0
2.390631004E0,-2.319981337E0,-1.197100878E0,9.519346237E0
2.392614085E0,-2.319981337E0,-1.192312479E0,9.519346237E0
2.394628166E0,-2.334346771E0,-1.180341482E0,9.528923035E0
2.396612554E0,-2.348711967E0,-1.180341482E0,9.528923035E0
2.398627634E0,-2.351106167E0,-1.189918280E0,9.509769440E0
2.400608792E0,-2.343923569E0,-1.201889277E0,9.488221169E0
2.402625181E0,-2.358288765E0,-1.199495077E0,9.476250648E0
2.404637800E0,-2.355894566E0,-1.199495077E0,9.483432770E0
2.406621726E0,-2.339135170E0,-1.168370485E0,9.500192642E0
2.408635576E0,-2.339135170E0,-1.168370485E0,9.504981041E0
2.410618427E0,-2.346317768E0,-1.168370485E0,9.507374763E0
2.412633815E0,-2.343923569E0,-1.175553083E0,9.524134636E0
2.414617741E0,-2.334346771E0,-1.170764685E0,9.507374763E0
2.416632207E0,-2.334346771E0,-1.170764685E0,9.502586365E0
2.418614980E0,-2.339135170E0,-1.175553083E0,9.507374763E0
2.420629752E0,-2.334346771E0,-1.187524080E0,9.502586365E0
2.422613218E0,-2.343923569E0,-1.175553083E0,9.500192642E0
2.424626760E0,-2.341529369E0,-1.144428372E0,9.481039047E0
2.426641149E0,-2.353500366E0,-1.139639974E0,9.476250648E0
2.428624921E0,-2.360682964E0,-1.127668977E0,9.481039047E0
2.430639310E0,-2.355894566E0,-1.120486379E0,9.471462250E0
2.432623006E0,-2.358288765E0,-1.110909581E0,9.478644371E0
2.434633164E0,-2.360682964E0,-1.094150186E0,9.483432770E0
2.436619936E0,-2.363077164E0,-1.094150186E0,9.471462250E0
2.438636248E0,-2.353500366E0,-1.094150186E0,9.473855972E0
2.440618483E0,-2.346317768E0,-1.096544385E0,9.485827446E0
2.442632256E0,-2.351106167E0,-1.130063176E0,9.493009567E0
2.444616259E0,-2.360682964E0,-1.125274777E0,9.488221169E0
2.446630801E0,-2.367865562E0,-1.122880578E0,9.504981041E0
2.448613575E0,-2.353500366E0,-1.125274777E0,9.500192642E0
2.450628348E0,-2.348711967E0,-1.127668977E0,9.500192642E0
2.452612043E0,-2.339135170E0,-1.139639974E0,9.502586365E0
2.454626509E0,-2.334346771E0,-1.125274777E0,9.497797966E0
2.456639667E0,-2.308010340E0,-1.118092179E0,9.476250648E0
2.458624286E0,-2.279279947E0,-1.110909581E0,9.461885452E0
2.460637597E0,-2.279279947E0,-1.115697980E0,9.457097054E0
2.462620985E0,-2.267308950E0,-1.108515382E0,9.457097054E0
2.464635758E0,-2.262520552E0,-1.106121182E0,9.469067574E0
2.466619069E0,-2.257732153E0,-1.118092179E0,9.473855972E0
2.468633535E0,-2.250549555E0,-1.125274777E0,9.461885452E0
2.470616693E0,-2.240972757E0,-1.139639974E0,9.452308655E0
2.472631466E0,-2.226607561E0,-1.139639974E0,9.447520256E0
2.474614161E0,-2.212242365E0,-1.115697980E0,9.445125580E0
2.476628088E0,-2.200271368E0,-1.108515382E0,9.485827446E0
2.478611477E0,-2.190694571E0,-1.103726983E0,9.485827446E0
2.480628404E0,-2.190694571E0,-1.103726983E0,9.485827446E0
2.482610484E0,-2.171540976E0,-1.094150186E0,9.502586365E0
2.484624642E0,-2.171540976E0,-1.096544385E0,9.507374763E0
2.486638876E0,-2.161964178E0,-1.120486379E0,9.533711433E0
2.488622496E0,-2.147598982E0,-1.130063176E0,9.550470352E0
2.490636114E0,-2.121262789E0,-1.144428372E0,9.567230225E0
2.492620349E0,-2.128445387E0,-1.146822572E0,9.579200745E0
2.494634891E0,-2.135627985E0,-1.165976286E0,9.583989143E0
2.496618203E0,-2.128445387E0,-1.180341482E0,9.591172218E0
2.498633360E0,-2.111685991E0,-1.194706678E0,9.607931137E0
2.500616749E0,-2.106897593E0,-1.189918280E0,9.607931137E0
2.502630291E0,-2.106897593E0,-1.180341482E0,9.607931137E0
2.504613910E0,-2.094926596E0,-1.173158884E0,9.600749016E0
2.506628760E0,-2.092532396E0,-1.187524080E0,9.600749016E0
2.508612071E0,-2.097320795E0,-1.189918280E0,9.576807022E0
2.510625922E0,-2.094926596E0,-1.189918280E0,9.538499832E0
2.512639849E0,-2.087743998E0,-1.187524080E0,9.526528358E0
2.514622621E0,-2.085349798E0,-1.170764685E0,9.533711433E0
2.516637086E0,-2.087743998E0,-1.192312479E0,9.567230225E0
2.518622321E0,-2.094926596E0,-1.194706678E0,9.572018623E0
2.520636094E0,-2.133233786E0,-1.221042871E0,9.572018623E0
2.522619790E0,-2.152387381E0,-1.223437071E0,9.574412346E0
2.524633332E0,-2.178723574E0,-1.228225470E0,9.564835548E0
2.526616490E0,-2.212242365E0,-1.244984865E0,9.560047150E0
2.528630878E0,-2.224213362E0,-1.252167463E0,9.560047150E0
2.530614959E0,-2.260126352E0,-1.247379065E0,9.557653427E0
2.532628809E0,-2.288856745E0,-1.235408068E0,9.531316757E0
2.534613043E0,-2.303221941E0,-1.225831270E0,9.531316757E0
2.536627200E0,-2.312798738E0,-1.228225470E0,9.543288231E0
2.538641050E0,-2.317587137E0,-1.247379065E0,9.538499832E0
2.540624747E0,-2.317587137E0,-1.244984865E0,9.543288231E0
2.542638597E0,-2.312798738E0,-1.247379065E0,9.545681953E0
2.544622369E0,-2.291250944E0,-1.252167463E0,9.543288231E0
2.546636450E0,-2.298433542E0,-1.264138460E0,9.555258751E0
2.548619916E0,-2.300827742E0,-1.295263171E0,9.564835548E0
2.550634381E0,-2.286462545E0,-1.302445769E0,9.569623947E0
2.552618000E0,-2.255337954E0,-1.312022567E0,9.569623947E0
2.554631542E0,-2.257732153E0,-1.319205165E0,9.555258751E0
2.556616777E0,-2.257732153E0,-1.319205165E0,9.552865028E0
2.558631935E0,-2.250549555E0,-1.314416766E0,9.531316757E0
2.560613092E0,-2.245761156E0,-1.300051570E0,9.528923035E0
2.562627865E0,-2.243366957E0,-1.276109457E0,9.526528358E0
2.564611330E0,-2.248155355E0,-1.266532660E0,9.521739960E0
2.566626027E0,-2.243366957E0,-1.240196466E0,9.524134636E0
2.568639876E0,-2.243366957E0,-1.235408068E0,9.528923035E0
2.570623572E0,-2.252943754E0,-1.235408068E0,9.524134636E0
2.572637730E0,-2.255337954E0,-1.230619669E0,9.526528358E0
2.574622348E0,-2.245761156E0,-1.218648672E0,9.540893555E0
2.576635352E0,-2.233790159E0,-1.204283476E0,9.588777542E0
2.578619895E0,-2.221819162E0,-1.235408068E0,9.619902611E0
2.580634053E0,-2.221819162E0,-1.244984865E0,9.622296333E0
2.582617133E0,-2.248155355E0,-1.225831270E0,9.622296333E0
2.584631367E0,-2.255337954E0,-1.271321058E0,9.600749016E0
2.586614448E0,-2.257732153E0,-1.283292055E0,9.591172218E0
2.588629222E0,-2.233790159E0,-1.278503656E0,9.586383820E0
2.590612532E0,-2.231395960E0,-1.276109457E0,9.586383820E0
2.592626152E0,-2.212242365E0,-1.259350061E0,9.579200745E0
2.594637233E0,-2.185906172E0,-1.256955862E0,9.574412346E0
2.596624237E0,-2.178723574E0,-1.244984865E0,9.576807022E0
2.598640240E0,-2.142810583E0,-1.211466074E0,9.572018623E0
2.600623013E0,-2.090138197E0,-1.156399369E0,9.595960617E0
2.602636863E0,-2.070984364E0,-1.130063176E0,9.600749016E0
2.604620021E0,-2.044648170E0,-1.065419793E0,9.574412346E0
2.606634101E0,-2.030282974E0,-1.039083481E0,9.526528358E0
2.608617797E0,-2.023100376E0,-1.022324085E0,9.504981041E0
2.610631955E0,-2.030282974E0,-9.935936928E-1,9.490615845E0
2.612615036E0,-2.035071373E0,-9.792284966E-1,9.476250648E0
2.614631039E0,-2.044648170E0,-1.005564690E0,9.459490776E0
2.616613197E0,-2.082955360E0,-1.053448796E0,9.464279175E0
2.618627662E0,-2.092532396E0,-1.118092179E0,9.466673851E0
2.620642512E0,-2.099714994E0,-1.149216771E0,9.485827446E0
2.622625592E0,-2.133233786E0,-1.161187768E0,9.543288231E0
2.624639058E0,-2.166752577E0,-1.137245774E0,9.593565941E0
2.626623370E0,-2.209848166E0,-1.125274777E0,9.615114212E0
2.628637527E0,-2.248155355E0,-1.154005170E0,9.550470352E0
2.630621607E0,-2.269703150E0,-1.161187768E0,9.519346237E0
2.632635688E0,-2.284068346E0,-1.199495077E0,9.461885452E0
2.634619077E0,-2.312798738E0,-1.242590666E0,9.464279175E0
2.636633849E0,-2.319981337E0,-1.254561663E0,9.481039047E0
2.638618853E0,-2.346317768E0,-1.271321058E0,9.495404243E0
2.640630242E0,-2.336740971E0,-1.276109457E0,9.495404243E0
2.642614861E0,-2.336740971E0,-1.276109457E0,9.495404243E0
2.644628633E0,-2.343923569E0,-1.280897856E0,9.521739960E0
2.646612407E0,-2.336740971E0,-1.285686255E0,9.497797966E0
2.648626180E0,-2.339135170E0,-1.309628367E0,9.459490776E0
2.650641261E0,-2.308010340E0,-1.333570361E0,9.454702377E0
2.652624110E0,-2.296039343E0,-1.333570361E0,9.473855972E0
2.654639191E0,-2.298433542E0,-1.352723956E0,9.488221169E0
2.656622195E0,-2.284068346E0,-1.371877551E0,9.490615845E0
2.658636737E0,-2.272097349E0,-1.381454349E0,9.497797966E0
2.660620740E0,-2.262520552E0,-1.388636947E0,9.500192642E0
2.662634514E0,-2.272097349E0,-1.367089152E0,9.514557838E0
2.664617979E0,-2.276885748E0,-1.352723956E0,9.502586365E0
2.666631445E0,-2.267308950E0,-1.364694953E0,9.502586365E0
2.668615217E0,-2.274491549E0,-1.364694953E0,9.504981041E0
2.670629682E0,-2.286462545E0,-1.347935557E0,9.516951561E0
2.672612763E0,-2.284068346E0,-1.333570361E0,9.526528358E0
2.674623844E0,-2.281674147E0,-1.350329757E0,9.497797966E0
2.676641386E0,-2.274491549E0,-1.347935557E0,9.495404243E0
2.678626621E0,-2.272097349E0,-1.355118155E0,9.490615845E0
2.680640394E0,-2.284068346E0,-1.355118155E0,9.528923035E0
2.682623166E0,-2.293645144E0,-1.350329757E0,9.538499832E0
2.684637093E0,-2.293645144E0,-1.350329757E0,9.536105156E0
2.686621020E0,-2.300827742E0,-1.359906554E0,9.500192642E0
2.688634870E0,-2.296039343E0,-1.364694953E0,9.473855972E0
2.690618873E0,-2.317587137E0,-1.405396342E0,9.440337181E0
2.692632800E0,-2.317587137E0,-1.426944256E0,9.425971985E0
2.694616804E0,-2.315192938E0,-1.426944256E0,9.433155060E0
2.696630270E0,-2.310404539E0,-1.438915253E0,9.459490776E0
2.698614965E0,-2.308010340E0,-1.443703651E0,9.459490776E0
2.700628508E0,-2.298433542E0,-1.443703651E0,9.447520256E0
2.702611819E0,-2.300827742E0,-1.453280449E0,9.433155060E0
2.704625747E0,-2.293645144E0,-1.450886250E0,9.435548782E0
2.706640826E0,-2.286462545E0,-1.431732655E0,9.464279175E0
2.708624523E0,-2.298433542E0,-1.436521053E0,9.471462250E0
2.710638296E0,-2.308010340E0,-1.446097851E0,9.476250648E0
2.712621762E0,-2.327163935E0,-1.441309452E0,9.473855972E0
2.714636149E0,-2.334346771E0,-1.424550056E0,9.490615845E0
2.716619538E0,-2.370259762E0,-1.410184860E0,9.516951561E0
2.718632234E0,-2.370259762E0,-1.419761658E0,9.521739960E0
2.720618623E0,-2.370259762E0,-1.419761658E0,9.521739960E0
2.722632549E0,-2.394201756E0,-1.417367458E0,9.509769440E0
2.724615322E0,-2.413355350E0,-1.419761658E0,9.512163162E0
2.726630095E0,-2.427720547E0,-1.424550056E0,9.524134636E0
2.728612867E0,-2.434903145E0,-1.424550056E0,9.543288231E0
2.730627948E0,-2.446874142E0,-1.410184860E0,9.550470352E0
2.732611029E0,-2.442085743E0,-1.419761658E0,9.555258751E0
2.734626033E0,-2.451662540E0,-1.400607944E0,9.564835548E0
2.736639344E0,-2.456450939E0,-1.386242747E0,9.548076630E0
2.738623348E0,-2.458845139E0,-1.379060149E0,9.533711433E0
2.740638121E0,-2.466027737E0,-1.379060149E0,9.531316757E0
2.742621125E0,-2.497152328E0,-1.362300754E0,9.533711433E0
2.744634744E0,-2.504334927E0,-1.340752959E0,9.538499832E0
2.746619055E0,-2.521094322E0,-1.326387763E0,9.528923035E0
2.748631906E0,-2.535459518E0,-1.340752959E0,9.521739960E0
2.750615986E0,-2.542642117E0,-1.335964561E0,9.519346237E0
2.752630374E0,-2.542642117E0,-1.309628367E0,9.507374763E0
2.754613840E0,-2.545036316E0,-1.283292055E0,9.493009567E0
2.756627690E0,-2.552218914E0,-1.247379065E0,9.473855972E0
2.758644617E0,-2.535459518E0,-1.211466074E0,9.471462250E0
2.760626158E0,-2.537853718E0,-1.189918280E0,9.464279175E0
2.762640855E0,-2.537853718E0,-1.177947283E0,9.442731857E0
2.764623705E0,-2.518700123E0,-1.149216771E0,9.433155060E0
2.766638093E0,-2.501940727E0,-1.125274777E0,9.416395187E0
2.768621558E0,-2.461239338E0,-1.098938584E0,9.380482674E0
2.770636254E0,-2.437297344E0,-1.103726983E0,9.349357605E0
2.772619720E0,-2.422932148E0,-1.101332784E0,9.334992409E0
2.774635339E0,-2.389413357E0,-1.096544385E0,9.330204010E0
2.776617573E0,-2.351106167E0,-1.079784989E0,9.327810287E0
2.778631962E0,-2.343923569E0,-1.084573388E0,9.334992409E0
2.780615735E0,-2.300827742E0,-1.103726983E0,9.342175484E0
2.782629816E0,-2.298433542E0,-1.082179189E0,9.351752281E0
2.784612665E0,-2.276885748E0,-1.082179189E0,9.382876396E0
2.786627669E0,-2.236184359E0,-1.094150186E0,9.392453194E0
2.788641596E0,-2.207453966E0,-1.094150186E0,9.402029991E0
2.790624907E0,-2.188300371E0,-1.089361787E0,9.428366661E0
2.792639141E0,-2.164358377E0,-1.089361787E0,9.428366661E0
2.794622838E0,-2.157175779E0,-1.084573388E0,9.423578262E0
2.796637303E0,-2.133233786E0,-1.072602391E0,9.418789864E0
2.798621306E0,-2.109291792E0,-1.086967587E0,9.452308655E0
2.800634541E0,-2.102109194E0,-1.086967587E0,9.461885452E0
2.802618237E0,-2.078166962E0,-1.103726983E0,9.485827446E0
2.804633318E0,-2.037465572E0,-1.094150186E0,9.497797966E0
2.806616398E0,-2.032677174E0,-1.096544385E0,9.507374763E0
2.808630787E0,-2.032677174E0,-1.134851575E0,9.485827446E0
2.810613868E0,-2.018311977E0,-1.170764685E0,9.476250648E0
2.812628026E0,-2.001552582E0,-1.173158884E0,9.485827446E0
2.814642567E0,-1.980004787E0,-1.197100878E0,9.476250648E0
2.816626571E0,-1.972822189E0,-1.213860273E0,9.485827446E0
2.818641575E0,-1.965639591E0,-1.247379065E0,9.459490776E0
2.820624348E0,-1.951274395E0,-1.247379065E0,9.370905876E0
2.822638813E0,-1.944091797E0,-1.240196466E0,9.332598686E0
2.824621894E0,-1.922544003E0,-1.237802267E0,9.265560150E0
2.826635821E0,-1.910573006E0,-1.261744261E0,9.241618156E0
2.828619133E0,-1.908178806E0,-1.268926859E0,9.236829758E0
2.830634213E0,-1.884236693E0,-1.285686255E0,9.234436035E0
2.832617294E0,-1.855506301E0,-1.312022567E0,9.227252960E0
2.834628067E0,-1.838746905E0,-1.314416766E0,9.215282440E0
2.836644686E0,-1.833958507E0,-1.359906554E0,9.217676163E0
2.838630843E0,-1.850717902E0,-1.400607944E0,9.330204010E0
2.840614001E0,-1.867477298E0,-1.422155857E0,9.433155060E0
2.842627543E0,-1.908178806E0,-1.474828243E0,9.670180321E0
2.844642008E0,-1.946485996E0,-1.549048543E0,9.856928825E0
2.846625012E0,-1.984793186E0,-1.582567334E0,9.921571732E0
2.848638554E0,-2.042253971E0,-1.630451322E0,9.981427193E0
2.850622635E0,-2.078166962E0,-1.647210717E0,9.971850395E0
2.852636484E0,-2.157175779E0,-1.656787634E0,9.931148529E0
2.854621027E0,-2.200271368E0,-1.620874524E0,9.950302124E0
2.856635262E0,-2.214636564E0,-1.604115129E0,9.981427193E0
2.858619266E0,-2.226607561E0,-1.553836942E0,1.006761837E1
2.860632499E0,-2.233790159E0,-1.501164436E0,1.018493366E1
2.862616196E0,-2.231395960E0,-1.479616642E0,1.024478912E1
2.864629969E0,-2.262520552E0,-1.417367458E0,1.030943298E1
2.866614281E0,-2.288856745E0,-1.371877551E0,1.033576870E1
2.868629438E0,-2.305616140E0,-1.352723956E0,1.032140350E1
2.870611288E0,-2.346317768E0,-1.314416766E0,1.025675964E1
2.872625676E0,-2.394201756E0,-1.290474772E0,1.020169353E1
2.874639296E0,-2.413355350E0,-1.268926859E0,1.018732834E1
2.876624529E0,-2.456450939E0,-1.235408068E0,1.016099167E1
2.878639841E0,-2.489969730E0,-1.221042871E0,1.014183807E1
2.880620461E0,-2.485181332E0,-1.223437071E0,1.013704967E1
2.882635311E0,-2.466027737E0,-1.252167463E0,1.012268448E1
2.884618929E0,-2.475604534E0,-1.276109457E0,1.010592556E1
2.886633164E0,-2.509123325E0,-1.316810966E0,1.003888798E1
2.888616860E0,-2.585737944E0,-1.352723956E0,9.981427193E0
2.890631632E0,-2.628833532E0,-1.362300754E0,9.974244118E0
2.892615021E0,-2.729389906E0,-1.379060149E0,9.931148529E0
2.894629794E0,-2.875436306E0,-1.398213744E0,9.854534149E0
2.896612798E0,-2.947262287E0,-1.403002143E0,9.799467087E0
2.898626724E0,-3.102885485E0,-1.383848548E0,9.660603523E0
2.900641421E0,-3.277662039E0,-1.398213744E0,9.519346237E0
2.902625194E0,-3.354276657E0,-1.395819545E0,9.435548782E0
2.904639352E0,-3.466804028E0,-1.414973259E0,9.253589630E0
2.906621816E0,-3.473986626E0,-1.503558636E0,9.133879662E0
2.908636513E0,-3.485957623E0,-1.525106430E0,9.071630478E0
2.910620594E0,-3.632004023E0,-1.513135433E0,8.851364136E0
2.912634751E0,-3.653551817E0,-1.580173135E0,8.798690796E0
2.914617216E0,-3.591302633E0,-1.611297727E0,8.810662270E0
2.916631297E0,-3.509899616E0,-1.721431017E0,8.884882927E0
2.918616609E0,-3.459621429E0,-1.812410712E0,8.920795441E0
2.920630766E0,-3.359065056E0,-1.989581585E0,9.030928612E0
2.922613769E0,-3.325546265E0,-2.224213362E0,9.045293808E0
2.924627927E0,-3.268085241E0,-2.327163935E0,9.107542992E0
2.926641239E0,-3.174711466E0,-2.542642117E0,9.179368973E0
2.928625551E0,-3.174711466E0,-2.738966703E0,9.162610054E0
2.930639708E0,-3.172317266E0,-2.832340717E0,9.126696587E0
2.932623942E0,-3.205836058E0,-3.002328873E0,8.992621422E0
2.934638177E0,-3.294421434E0,-3.155557871E0,8.839392662E0
2.936621566E0,-3.344699860E0,-3.229778051E0,8.779537201E0
2.938636569E0,-3.519476414E0,-3.351882458E0,8.731653214E0
2.940620650E0,-3.701435804E0,-3.457227230E0,8.750806808E0
2.942633577E0,-3.792415380E0,-3.495534420E0,8.765172005E0
2.944616887E0,-3.986345768E0,-3.581725836E0,8.779537201E0
2.946630814E0,-4.079719543E0,-3.627215624E0,8.803479195E0
2.948614434E0,-4.249708176E0,-3.720589399E0,8.836998940E0
2.950628976E0,-4.400542736E0,-3.751713991E0,8.906430244E0
2.952612595E0,-4.467580318E0,-3.761290789E0,8.927978516E0
2.954626214E0,-4.596867085E0,-3.768473387E0,8.870517731E0
2.956640680E0,-4.869806290E0,-3.672705412E0,8.650250435E0
2.958623376E0,-4.948814869E0,-3.629609823E0,8.678980827E0
2.960636610E0,-4.948814869E0,-3.629609823E0,8.678980827E0
2.962622537E0,-5.094861031E0,-3.536235809E0,8.846575737E0
2.964636387E0,-5.176264286E0,-3.485957623E0,8.932766914E0
2.966619776E0,-5.363011837E0,-3.371036053E0,9.057265282E0
2.968634471E0,-5.566518784E0,-3.227383852E0,9.145850182E0
2.970618167E0,-5.669469833E0,-3.145981073E0,9.176975250E0
2.972633248E0,-5.872976780E0,-2.995146275E0,9.258378029E0
2.974616406E0,-5.951985359E0,-2.865859509E0,9.334992409E0
2.976629947E0,-6.107608318E0,-2.798821688E0,9.373299599E0
2.978614875E0,-6.217741966E0,-2.664746523E0,9.411606789E0
2.980629032E0,-6.253654957E0,-2.600103140E0,9.421183586E0
2.982611806E0,-6.301538944E0,-2.494758129E0,9.411606789E0
2.984626501E0,-6.275202751E0,-2.391807556E0,9.423578262E0
2.986639736E0,-6.236895561E0,-2.355894566E0,9.440337181E0
2.988622817E0,-6.129156113E0,-2.281674147E0,9.478644371E0
2.990637667E0,-5.954379559E0,-2.229001760E0,9.521739960E0
2.992621285E0,-5.856217384E0,-2.197877169E0,9.536105156E0
2.994634289E0,-5.623979568E0,-2.152387381E0,9.610325813E0
2.996619755E0,-5.386953831E0,-2.118868589E0,9.665391922E0
2.998635142E0,-5.269638062E0,-2.068590164E0,9.698910713E0
3.000617993E0,-5.063736439E0,-2.013523579E0,9.722852707E0
3.002630843E0,-4.867412090E0,-1.951274395E0,9.698910713E0
3.004615231E0,-4.771644115E0,-1.908178806E0,9.689333916E0
3.006629388E0,-4.589684486E0,-1.829170108E0,9.662998199E0
3.008612469E0,-4.525041103E0,-1.742978811E0,9.648633003E0
3.010626550E0,-4.410119534E0,-1.692700624E0,9.600749016E0
3.012640785E0,-4.316745758E0,-1.606509328E0,9.557653427E0
3.014625942E0,-4.276044369E0,-1.561019540E0,9.536105156E0
3.016638330E0,-4.235342979E0,-1.460463047E0,9.454702377E0
3.018622642E0,-4.240131378E0,-1.340752959E0,9.356540680E0
3.020636492E0,-4.230554581E0,-1.290474772E0,9.323021889E0
3.022620495E0,-4.218583584E0,-1.209071875E0,9.287108421E0
3.024634038E0,-4.242525578E0,-1.106121182E0,9.251194954E0
3.026617965E0,-4.247313976E0,-1.058237195E0,9.210494041E0
3.028632738E0,-4.261679173E0,-9.552865028E-1,9.114726067E0
3.030616433E0,-4.273650169E0,-8.786720037E-1,9.023746490E0
3.032629976E0,-4.278438568E0,-8.547300100E-1,8.980650902E0
3.034612826E0,-4.273650169E0,-7.948749661E-1,8.889671326E0
3.036627907E0,-4.247313976E0,-7.589619160E-1,8.851364136E0
3.038643217E0,-4.228160381E0,-7.302315235E-1,8.848969460E0
3.040624760E0,-4.182670593E0,-6.847416759E-1,8.801085472E0
3.042639918E0,-4.146757126E0,-6.727706790E-1,8.791508675E0
3.044623844E0,-4.094084740E0,-6.679822803E-1,8.784325600E0
3.046638002E0,-4.019864559E0,-6.871358752E-1,8.774748802E0
3.048621160E0,-3.971980572E0,-6.871358752E-1,8.767566681E0
3.050634933E0,-3.892971992E0,-6.823474765E-1,8.717288017E0
3.052619551E0,-3.799597979E0,-7.015010715E-1,8.667010307E0
3.054634017E0,-3.737348795E0,-7.278373241E-1,8.635885239E0
3.056617405E0,-3.636792421E0,-7.517793179E-1,8.583212852E0
3.058631948E0,-3.538630009E0,-7.805097699E-1,8.571242332E0
3.060614105E0,-3.485957623E0,-7.876923680E-1,8.573636055E0
3.062629724E0,-3.371036053E0,-8.164227605E-1,8.554482460E0
3.064612882E0,-3.265691042E0,-8.427590132E-1,8.547300339E0
3.066626655E0,-3.203441858E0,-8.523358107E-1,8.537723541E0
3.068640889E0,-3.098097086E0,-8.619126081E-1,8.492233276E0
3.070624508E0,-2.997540474E0,-8.451532125E-1,8.444349289E0
3.072638435E0,-2.942473888E0,-8.427590132E-1,8.425195694E0
3.074621439E0,-2.851494312E0,-8.092401624E-1,8.406042099E0
3.076635289E0,-2.808398485E0,-7.781155705E-1,8.406042099E0
3.078620908E0,-2.724601507E0,-7.637503147E-1,8.398859978E0
3.080635604E0,-2.650381327E0,-7.541735172E-1,8.396465302E0
3.082618070E0,-2.616862535E0,-7.541735172E-1,8.401253700E0
3.084631919E0,-2.557007313E0,-7.206547260E-1,8.437167168E0
3.086614692E0,-2.494758129E0,-7.158663273E-1,8.468291283E0
3.088629850E0,-2.468421936E0,-7.158663273E-1,8.485051155E0
3.090612930E0,-2.444479942E0,-7.278373241E-1,8.520963669E0
3.092627396E0,-2.401384354E0,-7.374141216E-1,8.554482460E0
3.094643630E0,-2.387019157E0,-7.493851185E-1,8.571242332E0
3.096625557E0,-2.367865562E0,-7.637503147E-1,8.597578049E0
3.098640638E0,-2.353500366E0,-8.236053586E-1,8.604761124E0
3.100623026E0,-2.341529369E0,-8.523358107E-1,8.628703117E0
3.102636953E0,-2.312798738E0,-8.954314590E-1,8.683769226E0
3.104621265E0,-2.267308950E0,-9.672574997E-1,8.877699852E0
3.106635114E0,-2.231395960E0,-9.959878922E-1,8.923190117E0
3.108619118E0,-2.195482969E0,-1.058237195E0,8.762778282E0
3.110633276E0,-2.202665567E0,-1.077390790E0,8.607154846E0
3.112616587E0,-2.300827742E0,-1.074996591E0,8.377311707E0
3.114631052E0,-2.475604534E0,-1.063025594E0,8.415618896E0
3.116615056E0,-2.545036316E0,-1.067813993E0,8.525752068E0
3.118629829E0,-2.592920542E0,-1.101332784E0,8.832210541E0
3.120612064E0,-2.547430515E0,-1.139639974E0,9.066842079E0
3.122626452E0,-2.509123325E0,-1.163581967E0,9.157821655E0
3.124640609E0,-2.382230759E0,-1.213860273E0,9.279925346E0
3.126624613E0,-2.200271368E0,-1.237802267E0,9.354146004E0
3.128638771E0,-2.097320795E0,-1.249773264E0,9.363722801E0
3.130621620E0,-1.891419291E0,-1.271321058E0,9.366117477E0
3.132636317E0,-1.695094824E0,-1.319205165E0,9.409213066E0
3.134620705E0,-1.587355733E0,-1.345541358E0,9.493009567E0
3.136633940E0,-1.386242747E0,-1.393425345E0,9.658209801E0
3.138618789E0,-1.302445769E0,-1.453280449E0,9.732429504E0
3.140632101E0,-1.177947283E0,-1.474828243E0,9.706093788E0
3.142615797E0,-1.094150186E0,-1.484405041E0,9.607931137E0
3.144629032E0,-1.055842996E0,-1.484405041E0,9.569623947E0
3.146613343E0,-9.433154464E-1,-1.496376038E0,9.607931137E0
3.148627731E0,-7.876923680E-1,-1.498770237E0,9.847352028E0
3.150641658E0,-6.871358752E-1,-1.510741234E0,1.000297451E1
3.152624969E0,-4.405331016E-1,-1.580173135E0,1.029027843E1
3.154636435E0,-1.819593310E-1,-1.625662923E0,1.045547867E1
3.156622593E0,-6.464344263E-2,-1.640028119E0,1.046505547E1
3.158638827E0,1.508347094E-1,-1.649604917E0,1.034774017E1
3.160621292E0,3.711012602E-1,-1.623268723E0,1.017775154E1
3.162635527E0,4.644751251E-1,-1.613691926E0,1.010592556E1
3.164619146E0,6.392518282E-1,-1.577778935E0,1.005564690E1
3.166632765E0,8.259995580E-1,-1.549048543E0,1.010113716E1
3.168616153E0,9.097966552E-1,-1.549048543E0,1.016099167E1
3.170630619E0,1.065419793E0,-1.539471745E0,1.031661510E1
3.172614315E0,1.130063176E0,-1.534683347E0,1.037886429E1
3.174629011E0,1.225831270E0,-1.522712231E0,1.047942066E1
3.176612399E0,1.335964561E0,-1.486799240E0,1.043632507E1
3.178627864E0,1.383848548E0,-1.467645645E0,1.033816338E1
3.180640407E0,1.458068848E0,-1.395819545E0,9.919178009E0
3.182624180E0,1.474828243E0,-1.276109457E0,9.370905876E0
3.184638337E0,1.453280449E0,-1.216254473E0,9.093177795E0
3.186622264E0,1.343147159E0,-1.122880578E0,8.652645111E0
3.188636422E0,1.151610970E0,-1.051054597E0,8.441955566E0
3.190619580E0,1.043871999E0,-1.031900883E0,8.418013573E0
3.192633737E0,7.805097699E-1,-1.003170490E0,8.470685959E0
3.194617741E0,5.386953950E-1,-1.012747288E0,8.549694061E0
3.196631206E0,2.370259613E-1,-1.070208192E0,8.609549522E0
3.198613978E0,1.532289088E-1,-1.094150186E0,8.599972725E0
3.200630675E0,8.140286058E-2,-1.122880578E0,8.561665535E0
3.202613448E0,2.633621916E-2,-1.134851575E0,8.530540466E0
3.204626990E0,-1.149216816E-1,-1.175553083E0,8.511386871E0
3.206641147E0,-1.723825186E-1,-1.230619669E0,8.604761124E0
3.208624844E0,-3.208230138E-1,-1.249773264E0,8.693346024E0
3.210638924E0,-4.501099288E-1,-1.295263171E0,8.892065048E0
3.212622082E0,-5.219359994E-1,-1.316810966E0,9.018958092E0
3.214637470E0,-6.488286853E-1,-1.319205165E0,9.198522568E0
3.216620243E0,-7.709329724E-1,-1.307234168E0,9.255983353E0
3.218635016E0,-8.523358107E-1,-1.292868972E0,9.279925346E0
3.220618636E0,-9.911994934E-1,-1.252167463E0,9.354146004E0
3.222632870E0,-1.218648672E0,-1.206677675E0,9.392453194E0
3.224616797E0,-1.359906554E0,-1.177947283E0,9.368511200E0
3.226630416E0,-1.659181833E0,-1.084573388E0,9.323021889E0
3.228614728E0,-2.020706177E0,-1.005564690E0,9.361329079E0
3.230628577E0,-2.212242365E0,-9.409212470E-1,9.404424667E0
3.232611889E0,-2.592920542E0,-8.259995580E-1,9.483432770E0
3.234625431E0,-2.952050686E0,-7.182605267E-1,9.562441826E0
3.236640512E0,-3.134010077E0,-6.631938815E-1,9.598354340E0
3.238625515E0,-3.485957623E0,-5.554547906E-1,9.665391922E0
3.240638750E0,-3.632004023E0,-4.716577232E-1,9.694122314E0
3.242622061E0,-3.871424198E0,-4.453215301E-1,9.725247383E0
3.244635989E0,-4.086902142E0,-3.830722570E-1,9.739612579E0
3.246619684E0,-4.175487995E0,-3.543418646E-1,9.749189377E0
3.248634380E0,-4.338293552E0,-2.992752194E-1,9.756371498E0
3.250616923E0,-4.448426723E0,-2.681505978E-1,9.761159897E0
3.252631696E0,-4.489128113E0,-2.585737705E-1,9.758766174E0
3.254615391E0,-4.537012100E0,-2.729389966E-1,9.763554573E0
3.256628857E0,-4.546588898E0,-3.016694188E-1,9.751583099E0
3.258614092E0,-4.537012100E0,-3.136404157E-1,9.737217903E0
3.260627402E0,-4.510675907E0,-3.447650373E-1,9.722852707E0
3.262641560E0,-4.443638325E0,-3.687070608E-1,9.691728592E0
3.264625256E0,-4.417302132E0,-3.806780577E-1,9.686940193E0
3.266639645E0,-4.340687752E0,-4.094084799E-1,9.672574997E0
3.268622417E0,-4.283226967E0,-4.596867263E-1,9.655815125E0
3.270637498E0,-4.180276394E0,-4.932055473E-1,9.646238327E0
3.272620656E0,-4.084507942E0,-5.386953950E-1,9.615114212E0
3.274633891E0,-4.048594952E0,-5.482721925E-1,9.588777542E0
3.276619125E0,-3.962403774E0,-5.626373887E-1,9.531316757E0
3.278634513E0,-3.878606796E0,-5.841852427E-1,9.488221169E0
3.280615671E0,-3.845088005E0,-5.746083856E-1,9.464279175E0
3.282630521E0,-3.773261786E0,-5.602431893E-1,9.440337181E0
3.284613601E0,-3.703830004E0,-5.434837937E-1,9.440337181E0
3.286628374E0,-3.663128614E0,-5.315127969E-1,9.440337181E0
3.288642455E0,-3.588908434E0,-5.267243981E-1,9.447520256E0
3.290625921E0,-3.493140221E0,-4.955997467E-1,9.485827446E0
3.292640308E0,-3.445256233E0,-4.836287498E-1,9.500192642E0
3.294624620E0,-3.313575268E0,-4.501099288E-1,9.524134636E0
3.296637624E0,-3.203441858E0,-3.878606856E-1,9.507374763E0
3.298621936E0,-3.155557871E0,-3.734954596E-1,9.490615845E0
3.300636323E0,-3.052607059E0,-3.040636182E-1,9.435548782E0
3.302619097E0,-2.997540474E0,-2.561795712E-1,9.399636269E0
3.304633255E0,-2.858676910E0,-2.322375625E-1,9.378087997E0
3.306617642E0,-2.743755102E0,-1.867477298E-1,9.311050415E0
3.308630569E0,-2.693476915E0,-1.580173075E-1,9.267954826E0
3.310615727E0,-2.602497339E0,-8.379705995E-2,9.167398453E0
3.312628731E0,-2.525882721E0,0.000000000E0,9.045293808E0
3.314640350E0,-2.494758129E0,3.830722719E-2,8.983044624E0
3.316625892E0,-2.454056740E0,9.576806426E-2,8.846575737E0
3.318641665E0,-2.403778553E0,1.723825186E-1,8.724471092E0
3.320625285E0,-2.396595955E0,2.274491638E-1,8.667010307E0
3.322639749E0,-2.396595955E0,3.184288144E-1,8.530540466E0
3.324621984E0,-2.442085743E0,3.998316824E-1,8.398859978E0
3.326636680E0,-2.463633537E0,4.357447028E-1,8.327033043E0
3.328620684E0,-2.516305923E0,4.932055473E-1,8.200140953E0
3.330634226E0,-2.592920542E0,5.602431893E-1,8.080430984E0
3.332618845E0,-2.626439333E0,5.817909837E-1,8.039729118E0
3.334632464E0,-2.703053713E0,6.224924326E-1,7.977479935E0
3.336616084E0,-2.734178305E0,6.631938815E-1,7.953537941E0
3.338631471E0,-2.813186884E0,6.703764796E-1,7.920019150E0
3.340614014E0,-2.873042107E0,6.560112834E-1,7.912836552E0
3.342627556E0,-2.901772499E0,6.344634295E-1,7.924807549E0
3.344642560E0,-2.954444885E0,6.105214357E-1,7.963114738E0
3.346625948E0,-3.004723072E0,5.554547906E-1,8.025363922E0
3.348639567E0,-3.016694069E0,5.195417404E-1,8.073247910E0
3.350623264E0,-3.019088268E0,4.381389022E-1,8.161833763E0
3.352637729E0,-2.987963676E0,3.351882398E-1,8.274360657E0
3.354621348E0,-2.961627483E0,2.944868207E-1,8.353369713E0
3.356636736E0,-2.918531895E0,2.059013397E-1,8.506598473E0
3.358621433E0,-2.873042107E0,9.816227108E-2,8.671798706E0
3.360632513E0,-2.844311714E0,4.309562966E-2,8.748413086E0
3.362618055E0,-2.798821688E0,-7.661445439E-2,8.896853447E0
3.364631213E0,-2.748543501E0,-1.747767180E-1,9.038111687E0
3.366614986E0,-2.724601507E0,-2.394201756E-1,9.107542992E0
3.368628835E0,-2.669534922E0,-3.567360640E-1,9.241618156E0
3.370613455E0,-2.640804529E0,-4.141969085E-1,9.311050415E0
3.372627228E0,-2.592920542E0,-5.099649429E-1,9.421183586E0
3.374641155E0,-2.564189911E0,-5.937620401E-1,9.526528358E0
3.376624773E0,-2.547430515E0,-6.416460276E-1,9.569623947E0
3.378640239E0,-2.533065319E0,-7.278373241E-1,9.677363396E0
3.380623012E0,-2.523488522E0,-8.044517636E-1,9.763554573E0
3.382636862E0,-2.525882721E0,-8.355764151E-1,9.813833237E0
3.384621096E0,-2.511517525E0,-8.834604025E-1,9.892841339E0
3.386634408E0,-2.504334927E0,-9.313444495E-1,9.945513725E0
3.388618104E0,-2.509123325E0,-9.481038451E-1,9.967061996E0
3.390632877E0,-2.518700123E0,-1.010353088E0,9.988609314E0
3.392615880E0,-2.552218914E0,-1.029506683E0,9.988609314E0
3.394626654E0,-2.561795712E0,-1.031900883E0,9.976638794E0
3.396644504E0,-2.597708941E0,-1.055842996E0,9.955090523E0
3.398629815E0,-2.628833532E0,-1.063025594E0,9.935936928E0
3.400610972E0,-2.650381327E0,-1.070208192E0,9.914389610E0
3.402625438E0,-2.691082716E0,-1.058237195E0,9.883264542E0
3.404639980E0,-2.717418909E0,-1.046266198E0,9.864110947E0
3.406623907E0,-2.743755102E0,-1.051054597E0,9.835380554E0
3.408638449E0,-2.743755102E0,-1.043871999E0,9.777919769E0
3.410621145E0,-2.748543501E0,-1.036689281E0,9.756371498E0
3.412635303E0,-2.753331900E0,-1.012747288E0,9.720458984E0
3.414619306E0,-2.731784105E0,-9.935936928E-1,9.684545517E0
3.416633772E0,-2.710236311E0,-9.768342972E-1,9.662998199E0
3.418617776E0,-2.691082716E0,-9.481038451E-1,9.634267807E0
3.420631395E0,-2.643198729E0,-9.265560508E-1,9.605537415E0
3.422615013E0,-2.609679937E0,-9.097966552E-1,9.586383820E0
3.424628863E0,-2.530671120E0,-8.714894056E-1,9.569623947E0
3.426642483E0,-2.449268341E0,-8.451532125E-1,9.545681953E0
3.428626718E0,-2.406172752E0,-8.379706144E-1,9.531316757E0
3.430641490E0,-2.300827742E0,-7.900865674E-1,9.488221169E0
3.432624648E0,-2.262520552E0,-7.445967197E-1,9.435548782E0
3.434638498E0,-2.183511972E0,-7.302315235E-1,9.406818390E0
3.436621886E0,-1.977610588E0,-6.751648784E-1,9.332598686E0
3.438634736E0,-1.977610588E0,-6.751648784E-1,9.332598686E0
3.440620586E0,-1.922544003E0,-6.631938815E-1,9.330204010E0
3.442633821E0,-1.829170108E0,-6.296750307E-1,9.306262016E0
3.444618209E0,-1.786074519E0,-6.081272364E-1,9.306262016E0
3.446631981E0,-1.675941229E0,-5.793967843E-1,9.275136948E0
3.448615755E0,-1.604115129E0,-5.746083856E-1,9.229647636E0
3.450629528E0,-1.568202138E0,-5.770025849E-1,9.220070839E0
3.452613609E0,-1.505952835E0,-5.722141862E-1,9.203310966E0
3.454628996E0,-1.462857246E0,-6.129156351E-1,9.215282440E0
3.456642154E0,-1.441309452E0,-6.320692301E-1,9.220070839E0
3.458626158E0,-1.414973259E0,-6.847416759E-1,9.248801231E0
3.460640393E0,-1.395819545E0,-7.637503147E-1,9.306262016E0
3.462623396E0,-1.393425345E0,-8.044517636E-1,9.339780807E0
3.464636939E0,-1.395819545E0,-9.145850539E-1,9.428366661E0
3.466620943E0,-1.417367458E0,-9.959878922E-1,9.483432770E0
3.468635407E0,-1.470039845E0,-1.058237195E0,9.583989143E0
3.470619103E0,-1.575384736E0,-1.175553083E0,9.701305389E0
3.472633338E0,-1.635239720E0,-1.230619669E0,9.770736694E0
3.474615727E0,-1.752555609E0,-1.338358760E0,9.940725327E0
3.476630499E0,-1.898601890E0,-1.403002143E0,1.012268448E1
3.478615195E0,-1.968033791E0,-1.446097851E0,1.019690514E1
3.480628969E0,-2.145204782E0,-1.527500629E0,1.038844109E1
3.482643434E0,-2.293645144E0,-1.611297727E0,1.058237171E1
3.484626591E0,-2.375048161E0,-1.651999116E0,1.067095661E1
3.486640980E0,-2.473210335E0,-1.716642618E0,1.080263805E1
3.488624061E0,-2.597708941E0,-1.776497602E0,1.090558910E1
3.490638526E0,-2.652775526E0,-1.790862918E0,1.096783829E1
3.492621375E0,-2.741360903E0,-1.810016513E0,1.109712505E1
3.494636995E0,-2.774879694E0,-1.843535304E0,1.119289303E1
3.496620076E0,-2.801215887E0,-1.865083098E0,1.123120022E1
3.498635772E0,-2.829946518E0,-1.867477298E0,1.129105568E1
3.500618621E0,-2.829946518E0,-1.869871497E0,1.131020927E1
3.502632087E0,-2.808398485E0,-1.881842494E0,1.132457447E1
3.504615860E0,-2.753331900E0,-1.872265697E0,1.131020927E1
3.506630556E0,-2.717418909E0,-1.872265697E0,1.130063248E1
3.508614021E0,-2.638410330E0,-1.872265697E0,1.125993061E1
3.510627871E0,-2.530671120E0,-1.821987510E0,1.115937424E1
3.512642029E0,-2.477998734E0,-1.795651317E0,1.109473038E1
3.514625339E0,-2.367865562E0,-1.752555609E0,1.093910789E1
3.516639882E0,-2.245761156E0,-1.719036818E0,1.075714779E1
3.518624501E0,-2.178723574E0,-1.707065821E0,1.068053341E1
3.520636813E0,-2.070984364E0,-1.649604917E0,1.047223854E1
3.522621662E0,-1.953668594E0,-1.620874524E0,1.032619190E1
3.524635589E0,-1.912967205E0,-1.582567334E0,1.025197124E1
3.526619593E0,-1.824381709E0,-1.527500629E0,1.009634876E1
3.528632136E0,-1.731007814E0,-1.474828243E0,9.955090523E0
3.530616139E0,-1.675941229E0,-1.443703651E0,9.897629738E0
3.532630373E0,-1.575384736E0,-1.398213744E0,9.773131371E0
3.534615224E0,-1.522712231E0,-1.379060149E0,9.734824181E0
3.536628843E0,-1.448492050E0,-1.335964561E0,9.651026726E0
3.538644231E0,-1.379060149E0,-1.273715258E0,9.595960617E0
3.540627004E0,-1.333570361E0,-1.259350061E0,9.581595421E0
3.542641162E0,-1.244984865E0,-1.230619669E0,9.552865028E0
3.544624473E0,-1.197100878E0,-1.240196466E0,9.524134636E0
3.546637784E0,-1.158793569E0,-1.228225470E0,9.516951561E0
3.548621480E0,-1.084573388E0,-1.211466074E0,9.514557838E0
3.550635869E0,-1.027112484E0,-1.228225470E0,9.536105156E0
3.552620181E0,-1.003170490E0,-1.256955862E0,9.550470352E0
3.554630645E0,-9.576807022E-1,-1.292868972E0,9.564835548E0
3.556617188E0,-9.337386489E-1,-1.307234168E0,9.581595421E0
3.558632269E0,-9.241618514E-1,-1.323993564E0,9.583989143E0
3.560616196E0,-9.050082564E-1,-1.357512355E0,9.569623947E0
3.562630660E0,-9.026140571E-1,-1.403002143E0,9.519346237E0
3.564612587E0,-8.930372596E-1,-1.429338455E0,9.500192642E0
3.566627591E0,-8.738836050E-1,-1.467645645E0,9.459490776E0
3.568641518E0,-8.810662031E-1,-1.458068848E0,9.447520256E0
3.570625444E0,-8.810662031E-1,-1.422155857E0,9.435548782E0
3.572639295E0,-8.810662031E-1,-1.429338455E0,9.399636269E0
3.574623991E0,-8.882488012E-1,-1.438915253E0,9.387664795E0
3.576637456E0,-9.074024558E-1,-1.436521053E0,9.366117477E0
3.578621229E0,-9.289502501E-1,-1.400607944E0,9.342175484E0
3.580635310E0,-9.409212470E-1,-1.383848548E0,9.344569206E0
3.582618698E0,-9.792284966E-1,-1.374271750E0,9.342175484E0
3.584633471E0,-1.055842996E0,-1.359906554E0,9.320627213E0
3.586616013E0,-1.096544385E0,-1.350329757E0,9.301473618E0
3.588630709E0,-1.197100878E0,-1.321599364E0,9.308655739E0
3.590614713E0,-1.307234168E0,-1.319205165E0,9.294290543E0
3.592628870E0,-1.359906554E0,-1.302445769E0,9.284713745E0
3.594642105E0,-1.491587639E0,-1.280897856E0,9.277531624E0
3.596627109E0,-1.553836942E0,-1.266532660E0,9.253589630E0
3.598641882E0,-1.678335428E0,-1.252167463E0,9.255983353E0
3.600624039E0,-1.805228114E0,-1.194706678E0,9.255983353E0
3.602638812E0,-1.872265697E0,-1.173158884E0,9.263166428E0
3.604621816E0,-1.989581585E0,-1.103726983E0,9.296685219E0
3.606636359E0,-2.111685991E0,-1.041477680E0,9.339780807E0
3.608619131E0,-2.171540976E0,-1.005564690E0,9.358934402E0
3.610633827E0,-2.286462545E0,-9.504981041E-1,9.416395187E0
3.612616985E0,-2.384624958E0,-9.050082564E-1,9.469067574E0
3.614632066E0,-2.432508945E0,-8.930372596E-1,9.490615845E0
3.616616377E0,-2.528276920E0,-8.810662031E-1,9.538499832E0
3.618630458E0,-2.612074137E0,-9.002198577E-1,9.560047150E0
3.620613923E0,-2.659958124E0,-9.050082564E-1,9.581595421E0
3.622627695E0,-2.755726099E0,-9.289502501E-1,9.631873131E0
3.624641930E0,-2.825158119E0,-9.840168953E-1,9.665391922E0
3.626624627E0,-2.865859509E0,-1.019929886E0,9.694122314E0
3.628639169E0,-2.920926094E0,-1.053448796E0,9.737217903E0
3.630623403E0,-2.968810081E0,-1.089361787E0,9.753977776E0
3.632637022E0,-3.026270866E0,-1.113303781E0,9.765948296E0
3.634620334E0,-3.090914488E0,-1.144428372E0,9.777919769E0
3.636635107E0,-3.126827478E0,-1.161187768E0,9.787496567E0
3.638619495E0,-3.155557871E0,-1.201889277E0,9.787496567E0
3.640633037E0,-3.165134668E0,-1.204283476E0,9.777919769E0
3.642616041E0,-3.179499865E0,-1.204283476E0,9.761159897E0
3.644630584E0,-3.198653460E0,-1.221042871E0,9.727641106E0
3.646613894E0,-3.203441858E0,-1.204283476E0,9.674968719E0
3.648628129E0,-3.191470861E0,-1.204283476E0,9.648633003E0
3.650642595E0,-3.155557871E0,-1.194706678E0,9.595960617E0
3.652626599E0,-3.119644880E0,-1.177947283E0,9.548076630E0
3.654641063E0,-3.093308687E0,-1.170764685E0,9.514557838E0
3.656623836E0,-3.057395458E0,-1.149216771E0,9.473855972E0
3.658639764E0,-2.995146275E0,-1.113303781E0,9.442731857E0
3.660621691E0,-2.968810081E0,-1.106121182E0,9.428366661E0
3.662635847E0,-2.906560898E0,-1.098938584E0,9.385271072E0
3.664619851E0,-2.877830505E0,-1.082179189E0,9.366117477E0
3.666633702E0,-2.837129116E0,-1.063025594E0,9.327810287E0
3.668617705E0,-2.806004286E0,-1.046266198E0,9.279925346E0
3.670632093E0,-2.806004286E0,-1.041477680E0,9.270348549E0
3.672615251E0,-2.779668093E0,-1.029506683E0,9.239224434E0
3.674628717E0,-2.741360903E0,-1.036689281E0,9.248801231E0
3.676643258E0,-2.743755102E0,-1.015141487E0,9.270348549E0
3.678625724E0,-2.760514498E0,-1.015141487E0,9.265560150E0
3.680641343E0,-2.770091295E0,-1.000776291E0,9.267954826E0
3.682624809E0,-2.789244890E0,-9.959878922E-1,9.263166428E0
3.684638581E0,-2.868253708E0,-9.840168953E-1,9.246406555E0
3.686622662E0,-2.964021683E0,-9.504981041E-1,9.217676163E0
3.688637050E0,-3.019088268E0,-9.409212470E-1,9.200917244E0
3.690620208E0,-3.122039080E0,-9.050082564E-1,9.167398453E0
3.692634365E0,-3.198653460E0,-9.026140571E-1,9.160215378E0
3.694619215E0,-3.234566450E0,-9.050082564E-1,9.160215378E0
3.696633450E0,-3.292027235E0,-9.313444495E-1,9.165003777E0
3.698616762E0,-3.303998232E0,-9.289502501E-1,9.160215378E0
3.700630072E0,-3.339911461E0,-9.481038451E-1,9.172186852E0
3.702614307E0,-3.371036053E0,-9.911994934E-1,9.224859238E0
3.704627850E0,-3.390189648E0,-1.012747288E0,9.251194954E0
3.706642700E0,-3.390189648E0,-1.046266198E0,9.301473618E0
3.708626318E0,-3.399766445E0,-1.091755986E0,9.342175484E0
3.710640168E0,-3.406949043E0,-1.110909581E0,9.368511200E0
3.712623326E0,-3.426102638E0,-1.094150186E0,9.387664795E0
3.714637407E0,-3.435679436E0,-1.101332784E0,9.404424667E0
3.716622102E0,-3.435679436E0,-1.094150186E0,9.404424667E0
3.718637106E0,-3.426102638E0,-1.089361787E0,9.402029991E0
3.720619649E0,-3.397372246E0,-1.094150186E0,9.433155060E0
3.722633499E0,-3.390189648E0,-1.094150186E0,9.437943459E0
3.724617810E0,-3.368641853E0,-1.103726983E0,9.442731857E0
3.726631352E0,-3.320757866E0,-1.089361787E0,9.457097054E0
3.728615279E0,-3.294421434E0,-1.082179189E0,9.464279175E0
3.730629513E0,-3.251325846E0,-1.079784989E0,9.488221169E0
3.732642979E0,-3.236960649E0,-1.086967587E0,9.502586365E0
3.734627983E0,-3.179499865E0,-1.065419793E0,9.512163162E0
3.736641217E0,-3.119644880E0,-1.036689281E0,9.524134636E0
3.738625759E0,-3.100491285E0,-1.015141487E0,9.536105156E0
3.740639994E0,-3.040636063E0,-1.005564690E0,9.536105156E0
3.742622690E0,-2.987963676E0,-1.022324085E0,9.514557838E0
3.744636848E0,-2.966415882E0,-1.022324085E0,9.504981041E0
3.746620543E0,-2.932897091E0,-1.007958889E0,9.512163162E0
3.748634393E0,-2.892195702E0,-9.768342972E-1,9.500192642E0
3.750618397E0,-2.873042107E0,-9.720458984E-1,9.481039047E0
3.752632247E0,-2.863465309E0,-9.816226959E-1,9.433155060E0
3.754615404E0,-2.858676910E0,-9.457096457E-1,9.390059471E0
3.756630408E0,-2.844311714E0,-9.361328483E-1,9.375694275E0
3.758615412E0,-2.820369720E0,-9.121908545E-1,9.366117477E0
3.760627647E0,-2.813186884E0,-8.834604025E-1,9.363722801E0
3.762643112E0,-2.796427488E0,-8.643068075E-1,9.368511200E0
3.764625577E0,-2.786850691E0,-8.475474119E-1,9.351752281E0
3.766640274E0,-2.786850691E0,-8.427590132E-1,9.339780807E0
3.768624047E0,-2.758120298E0,-8.212111592E-1,9.306262016E0
3.770637281E0,-2.755726099E0,-8.020575643E-1,9.270348549E0
3.772621592E0,-2.760514498E0,-7.781155705E-1,9.265560150E0
3.774636365E0,-2.758120298E0,-7.733271718E-1,9.296685219E0
3.776618830E0,-2.760514498E0,-7.709329724E-1,9.320627213E0
3.778634219E0,-2.765302896E0,-7.733271718E-1,9.311050415E0
3.780618146E0,-2.784456491E0,-7.900865674E-1,9.311050415E0
3.782630842E0,-2.803610086E0,-7.996633649E-1,9.339780807E0
3.784614845E0,-2.815581083E0,-7.972691655E-1,9.361329079E0
3.786629311E0,-2.856282711E0,-8.259995580E-1,9.411606789E0
3.788643084E0,-2.892195702E0,-8.523358107E-1,9.445125580E0
3.790627165E0,-2.908955097E0,-8.714894056E-1,9.466673851E0
3.792641245E0,-2.975992680E0,-9.050082564E-1,9.483432770E0
3.794624095E0,-3.004723072E0,-8.954314590E-1,9.516951561E0
3.796637945E0,-3.052607059E0,-9.097966552E-1,9.514557838E0
3.798623487E0,-3.078943491E0,-9.241618514E-1,9.493009567E0
3.800637029E0,-3.095702887E0,-9.241618514E-1,9.485827446E0
3.802620341E0,-3.136404276E0,-9.864110947E-1,9.437943459E0
3.804633960E0,-3.153163671E0,-1.029506683E0,9.421183586E0
3.806618195E0,-3.162740469E0,-1.043871999E0,9.428366661E0
3.808632659E0,-3.153163671E0,-1.074996591E0,9.476250648E0
3.810615740E0,-3.124433279E0,-1.127668977E0,9.512163162E0
3.812630206E0,-3.102885485E0,-1.144428372E0,9.519346237E0
3.814614902E0,-3.050212860E0,-1.161187768E0,9.514557838E0
3.816628367E0,-2.975992680E0,-1.175553083E0,9.507374763E0
3.818643448E0,-2.940079689E0,-1.197100878E0,9.488221169E0
3.820626221E0,-2.870647907E0,-1.244984865E0,9.449913979E0
3.822640686E0,-2.786850691E0,-1.256955862E0,9.440337181E0
3.824623535E0,-2.750937700E0,-1.266532660E0,9.440337181E0
3.826637309E0,-2.681505919E0,-1.288080573E0,9.435548782E0
3.828621620E0,-2.647987127E0,-1.283292055E0,9.433155060E0
3.830635546E0,-2.585737944E0,-1.312022567E0,9.409213066E0
3.832619243E0,-2.499546528E0,-1.323993564E0,9.363722801E0
3.834632708E0,-2.470816135E0,-1.331176162E0,9.361329079E0
3.836618020E0,-2.427720547E0,-1.331176162E0,9.366117477E0
3.838632715E0,-2.379836559E0,-1.335964561E0,9.334992409E0
3.840614642E0,-2.367865562E0,-1.328781962E0,9.320627213E0
3.842629339E0,-2.363077164E0,-1.261744261E0,9.325415611E0
3.844643497E0,-2.384624958E0,-1.221042871E0,9.332598686E0
3.846627192E0,-2.387019157E0,-1.175553083E0,9.342175484E0
3.848640811E0,-2.403778553E0,-1.101332784E0,9.358934402E0
3.850623892E0,-2.437297344E0,-1.024718285E0,9.344569206E0
3.852638896E0,-2.444479942E0,-1.003170490E0,9.334992409E0
3.854622976E0,-2.432508945E0,-9.720458984E-1,9.325415611E0
3.856636519E0,-2.442085743E0,-9.624691010E-1,9.339780807E0
3.858621061E0,-2.463633537E0,-9.504981041E-1,9.339780807E0
3.860634911E0,-2.473210335E0,-9.457096457E-1,9.344569206E0
3.862617760E0,-2.475604534E0,-9.433154464E-1,9.339780807E0
3.864632457E0,-2.454056740E0,-9.696516991E-1,9.349357605E0
3.866615922E0,-2.456450939E0,-9.600749016E-1,9.354146004E0
3.868629772E0,-2.454056740E0,-9.648633003E-1,9.342175484E0
3.870614006E0,-2.454056740E0,-9.624691010E-1,9.323021889E0
3.872627856E0,-2.492363930E0,-9.361328483E-1,9.287108421E0
3.874638937E0,-2.513911724E0,-9.097966552E-1,9.284713745E0
3.876624480E0,-2.559401512E0,-8.786720037E-1,9.291896820E0
3.878641098E0,-2.614468336E0,-8.690952063E-1,9.291896820E0
3.880623256E0,-2.659958124E0,-8.595184088E-1,9.296685219E0
3.882637414E0,-2.762908697E0,-8.451532125E-1,9.330204010E0
3.884620494E0,-2.853888512E0,-8.212111592E-1,9.373299599E0
3.886635036E0,-2.887407303E0,-8.236053586E-1,9.392453194E0
3.888619271E0,-2.964021683E0,-8.499416113E-1,9.411606789E0
3.890632506E0,-3.009511471E0,-8.810662031E-1,9.449913979E0
3.892617124E0,-3.059789658E0,-8.978256583E-1,9.471462250E0
3.894632205E0,-3.112462282E0,-9.193734527E-1,9.490615845E0
3.896615055E0,-3.126827478E0,-9.313444495E-1,9.512163162E0
3.898629213E0,-3.160346270E0,-9.433154464E-1,9.550470352E0
3.900642678E0,-3.191470861E0,-9.504981041E-1,9.572018623E0
3.902627297E0,-3.205836058E0,-9.457096457E-1,9.574412346E0
3.904641224E0,-3.210624456E0,-9.552865028E-1,9.588777542E0
3.906625151E0,-3.169923067E0,-9.768342972E-1,9.588777542E0
3.908638693E0,-3.138798475E0,-9.816226959E-1,9.595960617E0
3.910622081E0,-3.071760893E0,-9.983820915E-1,9.600749016E0
3.912636624E0,-2.980781078E0,-1.041477680E0,9.600749016E0
3.914619935E0,-2.930502892E0,-1.067813993E0,9.586383820E0
3.916634400E0,-2.698265314E0,-1.170764685E0,9.514557838E0
3.918616250E0,-2.636016130E0,-1.170764685E0,9.514557838E0
3.920628870E0,-2.636016130E0,-1.170764685E0,9.514557838E0
3.922647104E0,-2.511517525E0,-1.206677675E0,9.495404243E0
3.924630107E0,-2.458845139E0,-1.268926859E0,9.478644371E0
3.926613188E0,-2.348711967E0,-1.271321058E0,9.464279175E0
3.928627423E0,-2.243366957E0,-1.261744261E0,9.414001465E0
3.930641504E0,-2.188300371E0,-1.259350061E0,9.394847870E0
3.932625507E0,-2.126051188E0,-1.240196466E0,9.363722801E0
3.934640973E0,-2.061407566E0,-1.218648672E0,9.370905876E0
3.936623130E0,-2.023100376E0,-1.216254473E0,9.370905876E0
3.938638133E0,-1.970427990E0,-1.230619669E0,9.394847870E0
3.940620984E0,-1.946485996E0,-1.242590666E0,9.414001465E0
3.942635757E0,-1.936909199E0,-1.230619669E0,9.421183586E0
3.944619453E0,-1.939303398E0,-1.225831270E0,9.406818390E0
3.946632995E0,-1.948880196E0,-1.240196466E0,9.402029991E0
3.948617229E0,-1.956062794E0,-1.242590666E0,9.402029991E0
3.950631156E0,-2.008735180E0,-1.211466074E0,9.385271072E0
3.952615083E0,-2.049436569E0,-1.209071875E0,9.375694275E0
3.954627779E0,-2.063801765E0,-1.201889277E0,9.363722801E0
3.956641629E0,-2.121262789E0,-1.197100878E0,9.334992409E0
3.958627710E0,-2.152387381E0,-1.180341482E0,9.325415611E0
3.960640945E0,-2.209848166E0,-1.175553083E0,9.311050415E0
3.962624717E0,-2.276885748E0,-1.161187768E0,9.289502144E0
3.964638259E0,-2.305616140E0,-1.156399369E0,9.294290543E0
3.966622571E0,-2.353500366E0,-1.137245774E0,9.279925346E0
3.968636344E0,-2.403778553E0,-1.144428372E0,9.291896820E0
3.970620040E0,-2.439691544E0,-1.154005170E0,9.299078941E0
3.972634197E0,-2.492363930E0,-1.156399369E0,9.327810287E0
3.974618894E0,-2.528276920E0,-1.146822572E0,9.344569206E0
3.976632129E0,-2.554613113E0,-1.154005170E0,9.356540680E0
3.978616978E0,-2.619256735E0,-1.158793569E0,9.366117477E0
3.980630597E0,-2.667140722E0,-1.168370485E0,9.358934402E0
3.982613986E0,-2.686294317E0,-1.182735682E0,9.361329079E0
3.984627527E0,-2.722207308E0,-1.199495077E0,9.382876396E0
3.986642300E0,-2.777273893E0,-1.192312479E0,9.394847870E0
3.988625997E0,-2.801215887E0,-1.199495077E0,9.404424667E0
3.990639539E0,-2.839523315E0,-1.221042871E0,9.435548782E0
3.992623158E0,-2.873042107E0,-1.221042871E0,9.447520256E0
3.994637008E0,-2.923320293E0,-1.209071875E0,9.464279175E0
3.996621704E0,-2.949656487E0,-1.228225470E0,9.464279175E0
3.998636785E0,-2.961627483E0,-1.223437071E0,9.457097054E0
4.000618019E0,-2.992752075E0,-1.197100878E0,9.435548782E0
4.002633100E0,-3.019088268E0,-1.189918280E0,9.399636269E0
4.004616796E0,-3.031059265E0,-1.163581967E0,9.378087997E0
4.006631569E0,-3.064578056E0,-1.122880578E0,9.332598686E0
4.008614265E0,-3.112462282E0,-1.058237195E0,9.308655739E0
4.010628730E0,-3.138798475E0,-1.029506683E0,9.287108421E0
4.012643196E0,-3.210624456E0,-9.672574997E-1,9.279925346E0
4.014626969E0,-3.303998232E0,-8.882488012E-1,9.287108421E0
4.016640741E0,-3.356670856E0,-8.379706144E-1,9.294290543E0
4.018625130E0,-3.459621429E0,-7.661445141E-1,9.291896820E0
4.020638672E0,-3.555389643E0,-7.038952708E-1,9.289502144E0
4.022622907E0,-3.596091032E0,-6.703764796E-1,9.291896820E0
4.024636525E0,-3.660734415E0,-6.081272364E-1,9.303867340E0
4.026620145E0,-3.696647406E0,-5.722141862E-1,9.311050415E0
4.028634072E0,-3.749319792E0,-5.147533417E-1,9.323021889E0
4.030617384E0,-3.790021181E0,-4.932055473E-1,9.358934402E0
4.032631848E0,-3.797203779E0,-4.884171486E-1,9.380482674E0
4.034614929E0,-3.792415380E0,-5.123591423E-1,9.425971985E0
4.036628779E0,-3.790021181E0,-5.123591423E-1,9.514557838E0
4.038644783E0,-3.778050184E0,-5.267243981E-1,9.538499832E0
4.040628478E0,-3.718195200E0,-5.913678408E-1,9.576807022E0
4.042641790E0,-3.632004023E0,-6.631938815E-1,9.615114212E0
4.044626025E0,-3.586514235E0,-6.847416759E-1,9.634267807E0
4.046639028E0,-3.488351822E0,-7.398083210E-1,9.662998199E0
4.048623263E0,-3.392583847E0,-8.116343617E-1,9.655815125E0
4.050638036E0,-3.342305660E0,-8.475474119E-1,9.641449928E0
4.052621425E0,-3.205836058E0,-9.145850539E-1,9.581595421E0
4.054635889E0,-3.141192675E0,-9.816226959E-1,9.521739960E0
4.056618124E0,-3.016694069E0,-1.017535686E0,9.507374763E0
4.058633820E0,-2.901772499E0,-1.084573388E0,9.476250648E0
4.060616593E0,-2.839523315E0,-1.101332784E0,9.471462250E0
4.062630443E0,-2.748543501E0,-1.156399369E0,9.452308655E0
4.064614062E0,-2.643198729E0,-1.173158884E0,9.445125580E0
4.066628528E0,-2.580949545E0,-1.163581967E0,9.449913979E0
4.068642685E0,-2.513911724E0,-1.149216771E0,9.449913979E0
4.070626381E0,-2.442085743E0,-1.146822572E0,9.437943459E0
4.072640231E0,-2.403778553E0,-1.132457376E0,9.440337181E0
4.074623619E0,-2.351106167E0,-1.091755986E0,9.423578262E0
4.076638470E0,-2.308010340E0,-1.043871999E0,9.416395187E0
4.078623934E0,-2.303221941E0,-1.027112484E0,9.402029991E0
4.080635707E0,-2.296039343E0,-9.983820915E-1,9.390059471E0
4.082620634E0,-2.281674147E0,-9.720458984E-1,9.380482674E0
4.084633562E0,-2.276885748E0,-9.528923035E-1,9.373299599E0
4.086617795E0,-2.279279947E0,-9.361328483E-1,9.375694275E0
4.088631722E0,-2.286462545E0,-9.217676520E-1,9.373299599E0
4.090615419E0,-2.279279947E0,-9.169792533E-1,9.375694275E0
4.092628960E0,-2.300827742E0,-9.313444495E-1,9.363722801E0
4.094644349E0,-2.310404539E0,-9.361328483E-1,9.354146004E0
4.096627430E0,-2.308010340E0,-9.385270476E-1,9.334992409E0
4.098641895E0,-2.334346771E0,-9.504981041E-1,9.323021889E0
4.100625898E0,-2.346317768E0,-9.600749016E-1,9.325415611E0
4.102639133E0,-2.367865562E0,-9.720458984E-1,9.323021889E0
4.104622445E0,-2.410961151E0,-9.433154464E-1,9.313444138E0
4.106636910E0,-2.442085743E0,-9.361328483E-1,9.318233490E0
