"Time (s)","Gyroscope x (rad/s)","Gyroscope y (rad/s)","Gyroscope z (rad/s)"
6.531694000E-3,3.054326167E-3,1.343903504E-2,1.160643995E-2
8.607697000E-3,3.054326167E-3,1.343903504E-2,1.160643995E-2
1.062162400E-2,3.054326167E-3,1.343903504E-2,1.160643995E-2
1.263485900E-2,3.054326167E-3,1.343903504E-2,1.160643995E-2
1.462009400E-2,3.054326167E-3,1.343903504E-2,1.160643995E-2
1.663363600E-2,3.054326167E-3,1.343903504E-2,1.160643995E-2
1.861694700E-2,3.054326167E-3,1.343903504E-2,1.160643995E-2
2.063148900E-2,3.054326167E-3,1.343903504E-2,1.160643995E-2
2.261426300E-2,3.054326167E-3,1.343903504E-2,1.160643995E-2
2.462903500E-2,3.054326167E-3,1.343903504E-2,1.160643995E-2
2.661203900E-2,3.054326167E-3,1.343903504E-2,1.160643995E-2
2.862650400E-2,3.054326167E-3,1.343903504E-2,1.160643995E-2
3.060935500E-2,3.054326167E-3,1.343903504E-2,1.160643995E-2
3.262412700E-2,3.054326167E-3,1.343903504E-2,1.160643995E-2
3.460720800E-2,3.054326167E-3,1.343903504E-2,1.160643995E-2
3.662221200E-2,3.054326167E-3,1.343903504E-2,1.160643995E-2
3.863698500E-2,3.054326167E-3,1.343903504E-2,1.160643995E-2
4.062044900E-2,3.054326167E-3,1.343903504E-2,1.160643995E-2
4.263430000E-2,3.054326167E-3,1.343903504E-2,1.160643995E-2
4.461822700E-2,3.054326167E-3,1.343903504E-2,1.160643995E-2
4.663184600E-2,3.054326167E-3,1.343903504E-2,1.160643995E-2
4.861515700E-2,3.054326167E-3,1.343903504E-2,1.160643995E-2
5.062962200E-2,3.054326167E-3,1.343903504E-2,1.160643995E-2
5.261308800E-2,3.054326167E-3,1.343903504E-2,1.160643995E-2
5.462847600E-2,3.054326167E-3,1.343903504E-2,1.160643995E-2
5.661148000E-2,3.054326167E-3,1.343903504E-2,1.160643995E-2
5.862625300E-2,3.054326167E-3,1.343903504E-2,1.160643995E-2
6.060902600E-2,3.054326167E-3,1.343903504E-2,1.160643995E-2
6.262264500E-2,3.054326167E-3,1.343903504E-2,1.160643995E-2
6.463680200E-2,3.054326167E-3,1.343903504E-2,1.160643995E-2
6.662049900E-2,3.054326167E-3,1.343903504E-2,1.160643995E-2
6.863550300E-2,3.054326167E-3,1.343903504E-2,1.160643995E-2
7.061927500E-2,-1.160643995E-2,4.276056588E-2,7.941247895E-3
7.263274000E-2,-1.343903504E-2,4.031710699E-2,7.941247895E-3
7.461682100E-2,-1.343903504E-2,4.031710699E-2,9.162978269E-3
7.663005600E-2,-9.162978269E-3,3.604105115E-2,5.497787148E-3
7.861282800E-2,-1.404990070E-2,3.420845419E-2,3.665191587E-3
8.062629400E-2,-1.221730467E-2,3.298672289E-2,4.276056774E-3
8.261275900E-2,-1.282817032E-2,3.237585723E-2,5.497787148E-3
8.462660900E-2,-1.343903504E-2,3.054326214E-2,4.886921961E-3
8.660999700E-2,-1.404990070E-2,2.871066704E-2,3.665191587E-3
8.862423200E-2,-1.466076635E-2,2.748893574E-2,3.054326167E-3
9.060792800E-2,-1.160643995E-2,2.443460934E-2,1.221730490E-3
9.262170100E-2,-1.343903504E-2,2.382374369E-2,4.276056774E-3
9.463685800E-2,-1.527163107E-2,1.771509275E-2,2.443460980E-3
9.661963200E-2,-1.588249579E-2,1.527163107E-2,3.665191587E-3
9.863402000E-2,-1.649336144E-2,1.404990070E-2,6.108652451E-4
1.006177160E-1,-1.588249579E-2,9.773843922E-3,0.000000000E0
1.026315660E-1,-1.893682219E-2,1.038470957E-2,0.000000000E0
1.046155700E-1,-2.076941915E-2,3.665191587E-3,0.000000000E0
1.066298040E-1,-2.138028294E-2,-3.054326167E-3,-1.221730490E-3
1.086128850E-1,-2.076941915E-2,-3.054326167E-3,-2.443460980E-3
1.106273500E-1,-2.504547499E-2,-7.941247895E-3,-3.665191587E-3
1.126112770E-1,-2.504547499E-2,-1.527163107E-2,-4.886921961E-3
1.146245890E-1,-2.687807009E-2,-1.893682219E-2,-4.886921961E-3
1.166088990E-1,-2.687807009E-2,-2.260201424E-2,-9.162978269E-3
1.186245960E-1,-3.054326214E-2,-2.565634064E-2,-5.497787148E-3
1.206064460E-1,-2.993239649E-2,-2.932153270E-2,-5.497787148E-3
1.226215270E-1,-3.298672289E-2,-3.176499158E-2,-6.719517522E-3
1.246346840E-1,-3.237585723E-2,-3.604105115E-2,-6.719517522E-3
1.266184570E-1,-3.298672289E-2,-3.665191308E-2,-7.330383174E-3
1.286323070E-1,-3.481931984E-2,-4.276056588E-2,-7.330383174E-3
1.306166190E-1,-3.726277873E-2,-4.398229718E-2,-7.941247895E-3
1.326303910E-1,-3.604105115E-2,-4.459316283E-2,-9.162978269E-3
1.346153950E-1,-3.909537569E-2,-5.131268129E-2,-9.773843922E-3
1.366283220E-1,-3.848451003E-2,-5.253441259E-2,-9.162978269E-3
1.386129410E-1,-3.726277873E-2,-5.681046844E-2,-7.941247895E-3
1.406264830E-1,-3.787364438E-2,-5.864306539E-2,-9.162978269E-3
1.426097950E-1,-3.909537569E-2,-5.803219974E-2,-1.099557430E-2
1.446243370E-1,-3.787364438E-2,-6.291911751E-2,-1.343903504E-2
1.466071100E-1,-3.726277873E-2,-6.414084882E-2,-1.038470957E-2
1.486221900E-1,-3.543018550E-2,-6.414084882E-2,-1.099557430E-2
1.506362710E-1,-3.787364438E-2,-6.414084882E-2,-1.038470957E-2
1.526199670E-1,-3.787364438E-2,-6.597344577E-2,-1.038470957E-2
1.546329710E-1,-3.909537569E-2,-6.475171447E-2,-1.099557430E-2
1.566181280E-1,-3.909537569E-2,-6.475171447E-2,-9.773843922E-3
1.586329020E-1,-3.665191308E-2,-6.352998316E-2,-8.552113548E-3
1.606145210E-1,-3.970624134E-2,-6.230825558E-2,-1.038470957E-2
1.626289100E-1,-3.848451003E-2,-5.803219974E-2,-1.099557430E-2
1.646129130E-1,-3.848451003E-2,-5.803219974E-2,-9.162978269E-3
1.666271470E-1,-3.604105115E-2,-5.558873713E-2,-9.773843922E-3
1.686111510E-1,-3.604105115E-2,-5.192354694E-2,-8.552113548E-3
1.706250000E-1,-3.543018550E-2,-5.009094998E-2,-6.719517522E-3
1.726093120E-1,-3.604105115E-2,-4.642575979E-2,-5.497787148E-3
1.746240850E-1,-3.298672289E-2,-4.276056588E-2,-7.330383174E-3
1.766064740E-1,-3.543018550E-2,-3.909537569E-2,-6.719517522E-3
1.786212460E-1,-3.237585723E-2,-3.420845419E-2,-5.497787148E-3
1.806348660E-1,-2.993239649E-2,-3.115412779E-2,-7.330383174E-3
1.826191000E-1,-3.115412779E-2,-3.176499158E-2,-5.497787148E-3
1.846320270E-1,-3.054326214E-2,-2.626720630E-2,-6.719517522E-3
1.866161070E-1,-3.115412779E-2,-2.443460934E-2,-3.665191587E-3
1.886308040E-1,-2.932153270E-2,-2.138028294E-2,-1.832595794E-3
1.906138850E-1,-2.871066704E-2,-2.015855350E-2,-3.054326167E-3
1.926278120E-1,-2.993239649E-2,-1.527163107E-2,-4.886921961E-3
1.946111220E-1,-3.115412779E-2,-1.466076635E-2,-3.665191587E-3
1.966256650E-1,-2.993239649E-2,-1.282817032E-2,-3.665191587E-3
1.986105150E-1,-2.932153270E-2,-9.162978269E-3,-4.886921961E-3
2.006238270E-1,-2.932153270E-2,-7.941247895E-3,-4.886921961E-3
2.026074450E-1,-2.871066704E-2,-3.665191587E-3,-4.886921961E-3
2.046216800E-1,-2.809980139E-2,-3.665191587E-3,-4.276056774E-3
2.066364530E-1,-2.626720630E-2,-3.054326167E-3,-6.108652335E-3
2.086197650E-1,-2.565634064E-2,-3.665191587E-3,-4.886921961E-3
2.106342290E-1,-2.565634064E-2,-5.497787148E-3,-4.276056774E-3
2.126173870E-1,-2.565634064E-2,-3.665191587E-3,-4.886921961E-3
2.146321600E-1,-2.382374369E-2,-1.221730490E-3,-3.665191587E-3
2.165315480E-1,-2.260201424E-2,-6.108652451E-4,-4.276056774E-3
2.186182440E-1,-2.382374369E-2,6.108652451E-4,-4.886921961E-3
2.207007870E-1,-2.199114859E-2,0.000000000E0,-3.665191587E-3
2.226268680E-1,-2.321287990E-2,6.108652451E-4,-4.276056774E-3
2.246109480E-1,-2.076941915E-2,-6.108652451E-4,-2.443460980E-3
2.266251060E-1,-2.443460934E-2,-3.054326167E-3,-3.665191587E-3
2.286087250E-1,-2.260201424E-2,-5.497787148E-3,-4.276056774E-3
2.306222670E-1,-2.504547499E-2,-7.330383174E-3,-3.054326167E-3
2.326368090E-1,-2.565634064E-2,-1.099557430E-2,-6.108652335E-3
2.346198900E-1,-2.382374369E-2,-1.404990070E-2,-6.108652335E-3
2.366352020E-1,-2.687807009E-2,-1.710422710E-2,-5.497787148E-3
2.386195900E-1,-3.176499158E-2,-1.588249579E-2,-8.552113548E-3
2.406325160E-1,-3.237585723E-2,-2.382374369E-2,-7.330383174E-3
2.426165200E-1,-3.359758854E-2,-2.626720630E-2,-6.719517522E-3
2.446306010E-1,-3.420845419E-2,-2.809980139E-2,-7.941247895E-3
2.466134510E-1,-3.665191308E-2,-3.420845419E-2,-9.162978269E-3
2.486284540E-1,-3.909537569E-2,-3.787364438E-2,-6.719517522E-3
2.506118430E-1,-3.970624134E-2,-3.726277873E-2,-1.282817032E-2
2.526263850E-1,-4.276056588E-2,-4.153883830E-2,-1.038470957E-2
2.546103890E-1,-4.642575979E-2,-4.276056588E-2,-1.099557430E-2
2.566242390E-1,-4.764748737E-2,-4.520402849E-2,-1.160643995E-2
2.586079350E-1,-5.070181563E-2,-4.764748737E-2,-1.099557430E-2
2.606220160E-1,-5.375614017E-2,-4.886921868E-2,-1.099557430E-2
2.626361740E-1,-5.253441259E-2,-5.070181563E-2,-8.552113548E-3
2.646190230E-1,-5.314527452E-2,-5.070181563E-2,-7.941247895E-3
2.666331810E-1,-5.558873713E-2,-5.131268129E-2,-9.162978269E-3
2.686165690E-1,-5.497787148E-2,-5.009094998E-2,-9.773843922E-3
2.706315730E-1,-5.803219974E-2,-5.070181563E-2,-1.038470957E-2
2.726150380E-1,-5.497787148E-2,-5.131268129E-2,-9.162978269E-3
2.746260420E-1,-5.314527452E-2,-4.764748737E-2,-8.552113548E-3
2.766125840E-1,-5.131268129E-2,-4.703662544E-2,-7.941247895E-3
2.786285870E-1,-5.375614017E-2,-4.459316283E-2,-6.108652335E-3
2.806104370E-1,-5.131268129E-2,-4.337143153E-2,-5.497787148E-3
2.826251340E-1,-4.886921868E-2,-3.970624134E-2,-5.497787148E-3
2.846085220E-1,-4.703662544E-2,-4.031710699E-2,-6.719517522E-3
2.866232950E-1,-4.520402849E-2,-3.787364438E-2,-4.886921961E-3
2.886369140E-1,-4.276056588E-2,-3.604105115E-2,-6.719517522E-3
2.906206100E-1,-4.337143153E-2,-3.298672289E-2,-3.665191587E-3
2.926349990E-1,-4.398229718E-2,-3.115412779E-2,-3.665191587E-3
2.946186940E-1,-4.092797264E-2,-3.176499158E-2,-7.330383174E-3
2.966323140E-1,-4.031710699E-2,-3.054326214E-2,-6.719517522E-3
2.986163180E-1,-4.092797264E-2,-2.504547499E-2,-6.108652335E-3
3.006301680E-1,-3.970624134E-2,-2.626720630E-2,-4.886921961E-3
3.026141710E-1,-3.909537569E-2,-2.504547499E-2,-6.108652335E-3
3.046277130E-1,-3.787364438E-2,-2.321287990E-2,-7.941247895E-3
3.066111020E-1,-3.726277873E-2,-2.199114859E-2,-7.941247895E-3
3.086254910E-1,-3.909537569E-2,-2.138028294E-2,-9.773843922E-3
3.106092630E-1,-3.604105115E-2,-2.138028294E-2,-1.038470957E-2
3.126231130E-1,-3.604105115E-2,-2.076941915E-2,-1.099557430E-2
3.146369630E-1,-3.604105115E-2,-2.138028294E-2,-1.221730467E-2
3.166211980E-1,-3.359758854E-2,-2.260201424E-2,-1.466076635E-2
3.186342010E-1,-3.359758854E-2,-2.626720630E-2,-1.649336144E-2
3.206200510E-1,-3.359758854E-2,-2.626720630E-2,-1.649336144E-2
3.226342090E-1,-3.176499158E-2,-2.443460934E-2,-1.404990070E-2
3.246169040E-1,-3.115412779E-2,-2.809980139E-2,-1.527163107E-2
3.266310620E-1,-2.993239649E-2,-2.748893574E-2,-1.649336144E-2
3.286156810E-1,-2.932153270E-2,-3.115412779E-2,-1.771509275E-2
3.306295320E-1,-2.871066704E-2,-3.420845419E-2,-1.527163107E-2
3.326129960E-1,-2.748893574E-2,-3.359758854E-2,-1.588249579E-2
3.346277690E-1,-2.809980139E-2,-3.970624134E-2,-1.771509275E-2
3.366099270E-1,-2.565634064E-2,-4.214970022E-2,-1.832595654E-2
3.386249310E-1,-2.382374369E-2,-4.642575979E-2,-1.710422710E-2
3.406090110E-1,-2.565634064E-2,-4.581489414E-2,-1.954768784E-2
3.426224770E-1,-2.199114859E-2,-5.131268129E-2,-1.954768784E-2
3.446363270E-1,-1.832595654E-2,-5.497787148E-2,-1.649336144E-2
3.466206390E-1,-1.832595654E-2,-5.375614017E-2,-1.832595654E-2
3.486342570E-1,-1.893682219E-2,-5.803219974E-2,-2.015855350E-2
3.506184920E-1,-1.588249579E-2,-6.291911751E-2,-1.771509275E-2
3.526321110E-1,-1.404990070E-2,-6.475171447E-2,-1.893682219E-2
3.546151150E-1,-1.038470957E-2,-6.780604273E-2,-1.954768784E-2
3.566293490E-1,-1.038470957E-2,-7.024950534E-2,-2.138028294E-2
3.586151220E-1,-8.552113548E-3,-7.391469181E-2,-1.771509275E-2
3.606281260E-1,-5.497787148E-3,-7.635815442E-2,-1.832595654E-2
3.626111300E-1,-3.665191587E-3,-7.757988572E-2,-1.771509275E-2
3.646253640E-1,-3.054326167E-3,-8.002334833E-2,-1.893682219E-2
3.666087530E-1,-1.221730490E-3,-8.063421398E-2,-1.649336144E-2
3.686238330E-1,0.000000000E0,-8.246681094E-2,-1.771509275E-2
3.706071450E-1,3.054326167E-3,-8.552113175E-2,-1.771509275E-2
3.726216100E-1,4.276056774E-3,-8.735372871E-2,-1.710422710E-2
3.746363830E-1,4.276056774E-3,-8.613199741E-2,-1.771509275E-2
3.766191560E-1,4.886921961E-3,-9.101892263E-2,-1.893682219E-2
3.786340060E-1,4.276056774E-3,-9.346238524E-2,-1.710422710E-2
3.806173940E-1,5.497787148E-3,-9.529497474E-2,-1.771509275E-2
3.826314750E-1,6.108652335E-3,-1.001819000E-1,-1.832595654E-2
3.846143250E-1,6.719517522E-3,-1.026253626E-1,-1.832595654E-2
3.866290200E-1,7.330383174E-3,-1.044579595E-1,-1.649336144E-2
3.886121010E-1,6.719517522E-3,-1.062905490E-1,-1.893682219E-2
3.906274900E-1,7.330383174E-3,-1.081231460E-1,-1.527163107E-2
3.926103400E-1,7.330383174E-3,-1.087340117E-1,-1.649336144E-2
3.946238050E-1,7.330383174E-3,-1.099557430E-1,-1.588249579E-2
3.966085010E-1,7.941247895E-3,-1.093448773E-1,-1.588249579E-2
3.986244280E-1,6.719517522E-3,-1.105666086E-1,-1.710422710E-2
4.006054320E-1,7.330383174E-3,-1.142318025E-1,-1.527163107E-2
4.026205120E-1,7.941247895E-3,-1.166752651E-1,-1.649336144E-2
4.046339770E-1,8.552113548E-3,-1.172861308E-1,-1.404990070E-2
4.066176740E-1,8.552113548E-3,-1.185078546E-1,-1.710422710E-2
4.086319090E-1,7.330383174E-3,-1.203404516E-1,-1.649336144E-2
4.106161420E-1,8.552113548E-3,-1.246165112E-1,-1.404990070E-2
4.126296850E-1,8.552113548E-3,-1.270599663E-1,-1.527163107E-2
4.146143810E-1,9.773843922E-3,-1.252273768E-1,-1.404990070E-2
4.166281540E-1,9.162978269E-3,-1.288925707E-1,-1.527163107E-2
4.186122340E-1,9.773843922E-3,-1.325577646E-1,-1.588249579E-2
4.206254690E-1,9.773843922E-3,-1.319468915E-1,-1.466076635E-2
4.226094730E-1,9.162978269E-3,-1.313360333E-1,-1.038470957E-2
4.246236310E-1,6.108652335E-3,-1.301143020E-1,-1.404990070E-2
4.266066340E-1,9.162978269E-3,-1.319468915E-1,-1.343903504E-2
4.286205610E-1,1.038470957E-2,-1.295034289E-1,-1.343903504E-2
4.306353340E-1,1.038470957E-2,-1.301143020E-1,-1.099557430E-2
4.326186450E-1,9.162978269E-3,-1.258382350E-1,-1.038470957E-2
4.346298030E-1,9.162978269E-3,-1.197295859E-1,-1.160643995E-2
4.366161910E-1,1.343903504E-2,-1.185078546E-1,-8.552113548E-3
4.386321950E-1,1.404990070E-2,-1.130100712E-1,-7.941247895E-3
4.406146600E-1,1.404990070E-2,-1.087340117E-1,-6.719517522E-3
4.426291250E-1,1.343903504E-2,-1.056796908E-1,-7.330383174E-3
4.446125910E-1,1.771509275E-2,-1.007927656E-1,-5.497787148E-3
4.466258260E-1,1.771509275E-2,-9.468411654E-2,-4.276056774E-3
4.486103670E-1,1.771509275E-2,-9.101892263E-2,-4.886921961E-3
4.506248330E-1,1.832595654E-2,-8.307767659E-2,-3.054326167E-3
4.526076830E-1,1.893682219E-2,-7.452555746E-2,6.108652451E-4
4.546236100E-1,2.015855350E-2,-7.086037099E-2,-6.108652451E-4
4.566363050E-1,2.321287990E-2,-5.986479297E-2,0.000000000E0
4.586208480E-1,1.771509275E-2,-5.070181563E-2,0.000000000E0
4.606344670E-1,2.015855350E-2,-4.642575979E-2,1.832595794E-3
4.626178560E-1,2.076941915E-2,-3.726277873E-2,1.832595794E-3
4.646325510E-1,2.015855350E-2,-3.420845419E-2,3.665191587E-3
4.666150940E-1,2.076941915E-2,-2.382374369E-2,4.276056774E-3
4.686304050E-1,2.076941915E-2,-1.893682219E-2,3.665191587E-3
4.706134860E-1,2.015855350E-2,-1.404990070E-2,7.941247895E-3
4.726270280E-1,2.015855350E-2,-7.330383174E-3,5.497787148E-3
4.746113390E-1,1.954768784E-2,0.000000000E0,6.108652335E-3
4.766264970E-1,1.893682219E-2,3.665191587E-3,4.886921961E-3
4.786108080E-1,1.893682219E-2,1.282817032E-2,7.330383174E-3
4.806224270E-1,1.893682219E-2,2.138028294E-2,8.552113548E-3
4.826375080E-1,1.832595654E-2,2.138028294E-2,9.773843922E-3
4.846208970E-1,1.954768784E-2,2.687807009E-2,8.552113548E-3
4.866356700E-1,1.771509275E-2,3.420845419E-2,9.162978269E-3
4.886190580E-1,1.771509275E-2,3.543018550E-2,9.162978269E-3
4.906323690E-1,1.588249579E-2,4.153883830E-2,9.773843922E-3
4.926163730E-1,1.771509275E-2,4.337143153E-2,1.099557430E-2
4.946314530E-1,1.649336144E-2,4.581489414E-2,8.552113548E-3
4.966148420E-1,1.527163107E-2,4.459316283E-2,1.160643995E-2
4.986292310E-1,1.588249579E-2,4.886921868E-2,9.773843922E-3
5.006130040E-1,1.710422710E-2,4.948008433E-2,1.404990070E-2
5.026265450E-1,2.015855350E-2,4.886921868E-2,1.466076635E-2
5.046104720E-1,1.954768784E-2,5.192354694E-2,1.404990070E-2
5.066240920E-1,2.076941915E-2,5.070181563E-2,1.221730467E-2
5.086080190E-1,2.321287990E-2,5.375614017E-2,1.466076635E-2
5.106216370E-1,2.199114859E-2,5.558873713E-2,1.282817032E-2
5.126366410E-1,2.076941915E-2,5.558873713E-2,1.527163107E-2
5.146188760E-1,2.260201424E-2,5.375614017E-2,1.710422710E-2
5.166330340E-1,2.260201424E-2,5.436700583E-2,1.404990070E-2
5.186194980E-1,2.382374369E-2,5.619960278E-2,1.466076635E-2
5.206321180E-1,2.504547499E-2,5.375614017E-2,1.771509275E-2
5.226157370E-1,2.382374369E-2,5.314527452E-2,1.588249579E-2
5.246293570E-1,2.504547499E-2,5.375614017E-2,1.527163107E-2
5.266138980E-1,2.626720630E-2,5.314527452E-2,1.527163107E-2
5.286271330E-1,2.748893574E-2,5.070181563E-2,1.710422710E-2
5.306112140E-1,2.626720630E-2,5.131268129E-2,1.527163107E-2
5.326253720E-1,2.687807009E-2,5.070181563E-2,1.527163107E-2
5.346096820E-1,2.626720630E-2,4.642575979E-2,1.710422710E-2
5.366231480E-1,2.565634064E-2,4.581489414E-2,1.466076635E-2
5.386376130E-1,2.504547499E-2,4.642575979E-2,1.588249579E-2
5.406213090E-1,2.565634064E-2,4.214970022E-2,1.343903504E-2
5.426351590E-1,2.565634064E-2,3.970624134E-2,1.282817032E-2
5.446183170E-1,2.504547499E-2,3.726277873E-2,1.099557430E-2
5.466333980E-1,2.504547499E-2,3.298672289E-2,1.221730467E-2
5.486157850E-1,2.076941915E-2,3.237585723E-2,9.162978269E-3
5.506312510E-1,2.138028294E-2,3.054326214E-2,1.099557430E-2
5.526142550E-1,1.893682219E-2,2.809980139E-2,7.941247895E-3
5.546275670E-1,1.527163107E-2,2.687807009E-2,8.552113548E-3
5.566109540E-1,1.099557430E-2,2.199114859E-2,6.108652335E-3
5.586244970E-1,1.099557430E-2,2.199114859E-2,6.108652335E-3
5.606093470E-1,7.941247895E-3,2.260201424E-2,4.886921961E-3
5.626245050E-1,4.886921961E-3,1.954768784E-2,3.054326167E-3
5.646078150E-1,2.443460980E-3,1.710422710E-2,1.832595794E-3
5.666214350E-1,-6.108652451E-4,1.588249579E-2,3.054326167E-3
5.686359000E-1,-6.108652335E-3,1.221730467E-2,1.221730490E-3
5.706199040E-1,-9.162978269E-3,7.941247895E-3,-6.108652451E-4
5.726336770E-1,-1.160643995E-2,5.497787148E-3,-1.832595794E-3
5.746189110E-1,-1.649336144E-2,-6.108652451E-4,-1.832595794E-3
5.766321460E-1,-2.076941915E-2,-4.886921961E-3,-1.832595794E-3
5.786162270E-1,-1.954768784E-2,-5.497787148E-3,-2.443460980E-3
5.806296920E-1,-2.565634064E-2,-1.099557430E-2,-3.665191587E-3
5.826134650E-1,-2.993239649E-2,-1.466076635E-2,-5.497787148E-3
5.846269300E-1,-2.932153270E-2,-2.015855350E-2,-7.330383174E-3
5.866107030E-1,-3.298672289E-2,-1.954768784E-2,-6.719517522E-3
5.886251680E-1,-3.604105115E-2,-2.321287990E-2,-1.038470957E-2
5.906081720E-1,-3.665191308E-2,-2.565634064E-2,-9.162978269E-3
5.926233300E-1,-3.909537569E-2,-2.748893574E-2,-1.099557430E-2
5.946364870E-1,-4.031710699E-2,-2.993239649E-2,-1.527163107E-2
5.966217980E-1,-4.398229718E-2,-3.359758854E-2,-1.221730467E-2
5.986355720E-1,-4.459316283E-2,-3.359758854E-2,-1.282817032E-2
6.006195760E-1,-4.337143153E-2,-3.481931984E-2,-1.160643995E-2
6.026331170E-1,-4.703662544E-2,-3.909537569E-2,-1.282817032E-2
6.046168140E-1,-4.398229718E-2,-4.031710699E-2,-1.160643995E-2
6.066303560E-1,-4.581489414E-2,-4.398229718E-2,-1.160643995E-2
6.086141290E-1,-4.520402849E-2,-4.520402849E-2,-1.343903504E-2
6.106288250E-1,-4.642575979E-2,-4.642575979E-2,-1.588249579E-2
6.126128290E-1,-4.337143153E-2,-4.703662544E-2,-1.649336144E-2
6.146264480E-1,-4.398229718E-2,-4.948008433E-2,-1.466076635E-2
6.166098370E-1,-4.337143153E-2,-5.314527452E-2,-1.466076635E-2
6.186249160E-1,-4.153883830E-2,-5.131268129E-2,-1.527163107E-2
6.206079200E-1,-4.459316283E-2,-5.314527452E-2,-1.771509275E-2
6.226215400E-1,-4.398229718E-2,-5.497787148E-2,-1.710422710E-2
6.246359280E-1,-4.337143153E-2,-5.436700583E-2,-1.527163107E-2
6.266190080E-1,-4.398229718E-2,-5.375614017E-2,-1.527163107E-2
6.286335510E-1,-4.459316283E-2,-5.436700583E-2,-1.771509275E-2
6.306177860E-1,-4.520402849E-2,-5.375614017E-2,-1.710422710E-2
6.326320200E-1,-4.703662544E-2,-5.314527452E-2,-1.954768784E-2
6.346150230E-1,-4.642575979E-2,-5.192354694E-2,-1.710422710E-2
6.366301040E-1,-4.642575979E-2,-5.131268129E-2,-1.588249579E-2
6.386147240E-1,-4.886921868E-2,-4.642575979E-2,-1.527163107E-2
6.406268050E-1,-4.948008433E-2,-4.276056588E-2,-1.527163107E-2
6.426114230E-1,-5.192354694E-2,-4.337143153E-2,-1.771509275E-2
6.446255040E-1,-5.436700583E-2,-4.031710699E-2,-1.527163107E-2
6.466086620E-1,-5.864306539E-2,-3.848451003E-2,-1.527163107E-2
6.486230490E-1,-5.619960278E-2,-3.665191308E-2,-1.588249579E-2
6.506372070E-1,-5.803219974E-2,-3.543018550E-2,-1.771509275E-2
6.526205960E-1,-5.986479297E-2,-3.543018550E-2,-1.466076635E-2
6.546351380E-1,-6.108652428E-2,-3.543018550E-2,-1.466076635E-2
6.566191410E-1,-6.108652428E-2,-3.481931984E-2,-1.343903504E-2
6.586335300E-1,-6.414084882E-2,-3.481931984E-2,-1.343903504E-2
6.606166110E-1,-6.841690838E-2,-3.054326214E-2,-1.343903504E-2
6.626299230E-1,-6.658431143E-2,-2.871066704E-2,-1.221730467E-2
6.646135410E-1,-6.780604273E-2,-2.504547499E-2,-1.038470957E-2
6.666270830E-1,-7.330382615E-2,-1.954768784E-2,-1.099557430E-2
6.686120110E-1,-7.696902007E-2,-1.588249579E-2,-1.404990070E-2
6.706262450E-1,-7.819075137E-2,-1.221730467E-2,-9.162978269E-3
6.726095560E-1,-7.819075137E-2,-6.719517522E-3,-9.162978269E-3
6.746209450E-1,-8.002334833E-2,-4.886921961E-3,-6.719517522E-3
6.766376410E-1,-8.185594529E-2,-1.832595794E-3,-7.330383174E-3
6.786225680E-1,-8.491026610E-2,1.832595794E-3,-4.886921961E-3
6.806358020E-1,-8.491026610E-2,4.276056774E-3,-3.054326167E-3
6.826197290E-1,-8.613199741E-2,9.773843922E-3,-4.886921961E-3
6.846339640E-1,-8.674286306E-2,1.527163107E-2,-3.665191587E-3
6.866166600E-1,-8.796459436E-2,2.015855350E-2,-3.665191587E-3
6.886315090E-1,-8.735372871E-2,2.443460934E-2,-1.221730490E-3
6.906151290E-1,-8.857546002E-2,2.748893574E-2,-2.443460980E-3
6.926293630E-1,-8.796459436E-2,3.176499158E-2,-5.497787148E-3
6.946139820E-1,-9.040805697E-2,3.909537569E-2,-4.886921961E-3
6.966274470E-1,-9.040805697E-2,4.092797264E-2,-3.665191587E-3
6.986120670E-1,-9.407325089E-2,4.703662544E-2,-3.665191587E-3
7.006249940E-1,-9.162978828E-2,5.681046844E-2,-4.886921961E-3
7.026090740E-1,-9.224065393E-2,5.925392732E-2,-4.886921961E-3
7.046225390E-1,-9.162978828E-2,6.780604273E-2,-3.054326167E-3
7.066361590E-1,-8.796459436E-2,7.635815442E-2,-3.665191587E-3
7.086203930E-1,-8.735372871E-2,7.819075137E-2,-3.665191587E-3
7.106348580E-1,-8.491026610E-2,8.491026610E-2,-4.276056774E-3
7.126176310E-1,-7.696902007E-2,9.224065393E-2,-3.665191587E-3
7.146327120E-1,-7.574728876E-2,9.834930301E-2,-1.221730490E-3
7.166171010E-1,-7.147123665E-2,1.093448773E-1,6.108652451E-4
7.186321040E-1,-6.780604273E-2,1.233947799E-1,-1.221730490E-3
7.206133380E-1,-6.902777404E-2,1.301143020E-1,-1.832595794E-3
7.226284190E-1,-6.658431143E-2,1.466076523E-1,0.000000000E0
7.246115770E-1,-6.536258012E-2,1.557706445E-1,3.665191587E-3
7.266257340E-1,-6.414084882E-2,1.679879427E-1,7.941247895E-3
7.286096610E-1,-6.291911751E-2,1.789835095E-1,9.773843922E-3
7.306229730E-1,-6.536258012E-2,1.857030392E-1,1.160643995E-2
7.326377460E-1,-5.986479297E-2,1.948660165E-1,1.160643995E-2
7.346223650E-1,-5.497787148E-2,1.979203373E-1,1.282817032E-2
7.366362150E-1,-4.948008433E-2,1.997529417E-1,1.282817032E-2
7.386205260E-1,-4.520402849E-2,1.979203373E-1,1.404990070E-2
7.406339920E-1,-4.276056588E-2,2.009746730E-1,1.466076635E-2
7.426173800E-1,-4.459316283E-2,2.064724565E-1,1.466076635E-2
7.446312300E-1,-4.459316283E-2,2.119702399E-1,1.466076635E-2
7.466143880E-1,-4.581489414E-2,2.211332172E-1,1.343903504E-2
7.486291600E-1,-4.276056588E-2,2.223549485E-1,1.649336144E-2
7.506125480E-1,-4.214970022E-2,2.272418737E-1,1.466076635E-2
7.526269370E-1,-3.848451003E-2,2.290744632E-1,1.588249579E-2
7.546100180E-1,-3.481931984E-2,2.296853364E-1,1.527163107E-2
7.566247900E-1,-3.604105115E-2,2.321287990E-1,1.343903504E-2
7.586094860E-1,-3.787364438E-2,2.333505303E-1,1.404990070E-2
7.606217210E-1,-3.909537569E-2,2.370157093E-1,1.160643995E-2
7.626364940E-1,-4.520402849E-2,2.400700450E-1,9.773843922E-3
7.646205740E-1,-4.703662544E-2,2.419026345E-1,1.160643995E-2
7.666337320E-1,-5.253441259E-2,2.443460971E-1,1.099557430E-2
7.686178130E-1,-5.497787148E-2,2.431243658E-1,1.038470957E-2
7.706319710E-1,-5.864306539E-2,2.419026345E-1,9.773843922E-3
7.726162050E-1,-6.414084882E-2,2.425135076E-1,9.162978269E-3
7.746306700E-1,-6.841690838E-2,2.357939780E-1,8.552113548E-3
7.766138280E-1,-6.841690838E-2,2.315179259E-1,7.941247895E-3
7.786282940E-1,-7.208210230E-2,2.266310006E-1,4.276056774E-3
7.806116040E-1,-7.269296050E-2,2.193006277E-1,3.054326167E-3
7.826254550E-1,-7.391469181E-2,2.156354338E-1,3.054326167E-3
7.846092280E-1,-7.086037099E-2,2.070833147E-1,1.832595794E-3
7.866233860E-1,-6.902777404E-2,2.034181207E-1,6.108652451E-4
7.886374660E-1,-6.719517708E-2,2.015855312E-1,1.832595794E-3
7.906214700E-1,-6.169738993E-2,1.924225539E-1,-6.108652451E-4
7.926353970E-1,-6.047565863E-2,1.918116808E-1,-6.108652451E-4
7.946187070E-1,-5.009094998E-2,1.777617931E-1,-6.108652451E-4
7.966331730E-1,-3.298672289E-2,1.472185254E-1,-6.108652451E-4
7.986156390E-1,-3.298672289E-2,1.472185254E-1,-6.108652451E-4
8.006311040E-1,-2.871066704E-2,1.392772794E-1,1.221730490E-3
8.026147990E-1,-2.321287990E-2,1.227839142E-1,1.221730490E-3
8.046285730E-1,-2.138028294E-2,1.172861308E-1,2.443460980E-3
8.066125770E-1,-1.588249579E-2,1.038470939E-1,4.276056774E-3
8.086264270E-1,-1.404990070E-2,9.407325089E-2,4.886921961E-3
8.106108140E-1,-8.552113548E-3,8.491026610E-2,6.108652335E-3
8.126242800E-1,-7.330383174E-3,7.391469181E-2,5.497787148E-3
8.146393610E-1,-8.552113548E-3,6.352998316E-2,6.108652335E-3
8.166230570E-1,-6.719517522E-3,5.619960278E-2,6.719517522E-3
8.186375220E-1,-9.773843922E-3,4.214970022E-2,6.108652335E-3
8.206203720E-1,-6.108652335E-3,3.176499158E-2,5.497787148E-3
8.226339140E-1,-6.108652335E-3,1.588249579E-2,4.886921961E-3
8.246176110E-1,-1.038470957E-2,6.108652451E-4,3.054326167E-3
8.266323060E-1,-9.162978269E-3,-7.941247895E-3,0.000000000E0
8.286163100E-1,-1.343903504E-2,-2.076941915E-2,1.221730490E-3
8.306292370E-1,-1.343903504E-2,-3.481931984E-2,0.000000000E0
8.326138560E-1,-1.527163107E-2,-4.031710699E-2,-2.443460980E-3
8.346265520E-1,-1.710422710E-2,-5.436700583E-2,-6.108652335E-3
8.366120940E-1,-1.771509275E-2,-6.291911751E-2,-4.886921961E-3
8.386265600E-1,-1.832595654E-2,-6.780604273E-2,-6.108652335E-3
8.406096410E-1,-2.138028294E-2,-7.635815442E-2,-3.054326167E-3
8.426237210E-1,-2.260201424E-2,-8.429940045E-2,-1.221730490E-3
8.446376480E-1,-2.626720630E-2,-8.491026610E-2,-1.832595794E-3
8.466213440E-1,-2.932153270E-2,-8.979719132E-2,-1.221730490E-3
8.486354250E-1,-3.298672289E-2,-9.346238524E-2,-4.276056774E-3
8.506188130E-1,-3.237585723E-2,-9.590584040E-2,-3.054326167E-3
8.526329700E-1,-3.481931984E-2,-9.712757170E-2,-6.108652451E-4
8.546178970E-1,-3.665191308E-2,-9.773843735E-2,-3.054326167E-3
8.566315160E-1,-3.604105115E-2,-9.651670605E-2,-6.108652335E-3
8.586151350E-1,-3.970624134E-2,-9.040805697E-2,-4.276056774E-3
8.606296780E-1,-3.909537569E-2,-8.857546002E-2,-4.886921961E-3
8.626126820E-1,-4.031710699E-2,-8.307767659E-2,-6.719517522E-3
8.646269160E-1,-3.787364438E-2,-7.757988572E-2,-3.665191587E-3
8.666099200E-1,-4.153883830E-2,-7.024950534E-2,-6.108652335E-3
8.686243850E-1,-4.031710699E-2,-6.414084882E-2,-4.276056774E-3
8.706391580E-1,-3.848451003E-2,-5.375614017E-2,-4.276056774E-3
8.726223150E-1,-3.970624134E-2,-5.009094998E-2,-4.276056774E-3
8.746360880E-1,-3.665191308E-2,-3.726277873E-2,-2.443460980E-3
8.766204770E-1,-3.726277873E-2,-2.443460934E-2,1.832595794E-3
8.786358660E-1,-3.604105115E-2,-2.076941915E-2,1.221730490E-3
8.806174070E-1,-3.298672289E-2,-6.719517522E-3,0.000000000E0
8.826324110E-1,-2.932153270E-2,4.886921961E-3,3.054326167E-3
8.846158000E-1,-2.443460934E-2,1.038470957E-2,2.443460980E-3
8.866293420E-1,-2.138028294E-2,2.382374369E-2,1.832595794E-3
8.886131140E-1,-1.832595654E-2,2.871066704E-2,1.832595794E-3
8.906278110E-1,-1.404990070E-2,4.398229718E-2,5.497787148E-3
8.926108920E-1,-1.038470957E-2,5.497787148E-2,6.719517522E-3
8.946268960E-1,-7.941247895E-3,6.230825558E-2,7.941247895E-3
8.966093600E-1,-4.276056774E-3,7.452555746E-2,1.099557430E-2
8.986245180E-1,-1.832595794E-3,8.491026610E-2,1.343903504E-2
9.006377530E-1,1.832595794E-3,9.101892263E-2,1.466076635E-2
9.026214480E-1,4.276056774E-3,1.007927656E-1,1.893682219E-2
9.046349140E-1,6.108652335E-3,1.123992056E-1,1.954768784E-2
9.066186870E-1,5.497787148E-3,1.178969890E-1,2.076941915E-2
9.086327680E-1,6.108652335E-3,1.295034289E-1,2.199114859E-2
9.106167710E-1,9.773843922E-3,1.380555481E-1,2.565634064E-2
9.126312360E-1,9.773843922E-3,1.423316002E-1,2.504547499E-2
9.146134710E-1,8.552113548E-3,1.521054506E-1,2.443460934E-2
9.166281670E-1,1.221730467E-2,1.606575549E-1,2.382374369E-2
9.186125550E-1,1.160643995E-2,1.661553532E-1,2.321287990E-2
9.206270210E-1,1.404990070E-2,1.747074574E-1,2.443460934E-2
9.226107170E-1,1.282817032E-2,1.789835095E-1,2.260201424E-2
9.246241820E-1,1.160643995E-2,1.857030392E-1,1.893682219E-2
9.266386470E-1,1.282817032E-2,1.924225539E-1,1.893682219E-2
9.286223430E-1,1.404990070E-2,1.954768747E-1,1.771509275E-2
9.306361940E-1,1.527163107E-2,2.015855312E-1,1.832595654E-2
9.326196590E-1,1.466076635E-2,2.095267773E-1,1.771509275E-2
9.346340470E-1,1.466076635E-2,2.101376504E-1,1.710422710E-2
9.366175120E-1,1.588249579E-2,2.150245607E-1,1.404990070E-2
9.386335160E-1,1.588249579E-2,2.199114859E-1,1.221730467E-2
9.406159050E-1,1.466076635E-2,2.217440903E-1,1.221730467E-2
9.426295230E-1,1.710422710E-2,2.260201424E-1,1.160643995E-2
9.446137580E-1,1.649336144E-2,2.290744632E-1,8.552113548E-3
9.466279160E-1,1.771509275E-2,2.315179259E-1,6.108652335E-3
9.486110730E-1,1.710422710E-2,2.321287990E-1,7.330383174E-3
9.506261540E-1,1.588249579E-2,2.370157093E-1,3.665191587E-3
9.526089270E-1,1.466076635E-2,2.357939780E-1,4.276056774E-3
9.546224690E-1,1.282817032E-2,2.382374406E-1,1.832595794E-3
9.566381660E-1,9.162978269E-3,2.394591719E-1,1.832595794E-3
9.586233990E-1,1.160643995E-2,2.425135076E-1,-3.054326167E-3
9.606347110E-1,6.719517522E-3,2.425135076E-1,-5.497787148E-3
9.626187150E-1,5.497787148E-3,2.400700450E-1,-6.108652335E-3
9.646329490E-1,4.886921961E-3,2.394591719E-1,-7.941247895E-3
9.666166450E-1,4.276056774E-3,2.406809032E-1,-1.343903504E-2
9.686313420E-1,-1.221730490E-3,2.394591719E-1,-1.710422710E-2
9.706141150E-1,0.000000000E0,2.370157093E-1,-1.954768784E-2
9.726283490E-1,-1.221730490E-3,2.309070677E-1,-2.504547499E-2
9.746126600E-1,-6.108652451E-4,2.272418737E-1,-2.993239649E-2
9.766261260E-1,-2.443460980E-3,2.223549485E-1,-3.543018550E-2
9.786110530E-1,-6.108652335E-3,2.150245607E-1,-3.909537569E-2
9.806246710E-1,-1.038470957E-2,2.131919712E-1,-4.764748737E-2
9.826077520E-1,-1.160643995E-2,2.076941878E-1,-5.192354694E-2
9.846224480E-1,-1.282817032E-2,2.052507252E-1,-5.619960278E-2
9.866359910E-1,-1.771509275E-2,1.979203373E-1,-6.230825558E-2
9.886196860E-1,-2.138028294E-2,1.924225539E-1,-6.963863969E-2
9.906333060E-1,-2.260201424E-2,1.863138974E-1,-7.513642311E-2
9.926176170E-1,-2.076941915E-2,1.747074574E-1,-8.246681094E-2
9.946286210E-1,-2.076941915E-2,1.624901593E-1,-8.735372871E-2
9.966147780E-1,-1.832595654E-2,1.539380401E-1,-8.918632567E-2
9.986307820E-1,-1.404990070E-2,1.368338168E-1,-9.651670605E-2
1.000613325E0,-1.221730467E-2,1.246165112E-1,-1.020144969E-1
1.002627713E0,-1.038470957E-2,1.185078546E-1,-1.032362282E-1
1.004611409E0,-8.552113548E-3,1.038470939E-1,-1.069014147E-1
1.006624951E0,-4.276056774E-3,9.040805697E-2,-1.069014147E-1
1.008608724E0,-6.108652451E-4,8.674286306E-2,-1.075122803E-1
1.010622573E0,6.108652335E-3,7.086037099E-2,-1.062905490E-1
1.012636731E0,9.162978269E-3,5.742133409E-2,-1.075122803E-1
1.014621043E0,1.160643995E-2,5.009094998E-2,-1.032362282E-1
1.016635509E0,1.649336144E-2,3.787364438E-2,-1.062905490E-1
1.018618588E0,1.710422710E-2,3.054326214E-2,-1.032362282E-1
1.020633054E0,1.771509275E-2,1.954768784E-2,-1.001819000E-1
1.022616366E0,1.771509275E-2,8.552113548E-3,-9.712757170E-2
1.024630524E0,1.710422710E-2,4.276056774E-3,-9.468411654E-2
1.026613604E0,1.649336144E-2,-6.719517522E-3,-8.979719132E-2
1.028628146E0,1.649336144E-2,-1.832595654E-2,-8.796459436E-2
1.030611842E0,1.649336144E-2,-2.321287990E-2,-8.735372871E-2
1.032625923E0,1.832595654E-2,-3.787364438E-2,-8.246681094E-2
1.034609388E0,1.832595654E-2,-4.703662544E-2,-8.185594529E-2
1.036623469E0,1.099557430E-2,-5.925392732E-2,-7.696902007E-2
1.038636396E0,1.099557430E-2,-5.925392732E-2,-7.696902007E-2
1.040620477E0,1.160643995E-2,-6.536258012E-2,-7.513642311E-2
1.042637018E0,1.160643995E-2,-6.841690838E-2,-7.696902007E-2
1.044619791E0,8.552113548E-3,-7.208210230E-2,-7.513642311E-2
1.046633718E0,7.330383174E-3,-7.513642311E-2,-7.635815442E-2
1.048617646E0,3.665191587E-3,-7.696902007E-2,-7.574728876E-2
1.050632187E0,6.108652451E-4,-7.757988572E-2,-7.513642311E-2
1.052614960E0,-6.108652451E-4,-8.002334833E-2,-7.513642311E-2
1.054630887E0,-3.054326167E-3,-7.880161703E-2,-7.574728876E-2
1.056612813E0,-6.719517522E-3,-8.307767659E-2,-7.819075137E-2
1.058628510E0,-6.719517522E-3,-8.185594529E-2,-7.819075137E-2
1.060610360E0,-4.886921961E-3,-8.613199741E-2,-7.880161703E-2
1.062625133E0,-6.719517522E-3,-8.735372871E-2,-7.941248268E-2
1.064608828E0,-6.719517522E-3,-8.979719132E-2,-7.819075137E-2
1.066622602E0,-1.221730467E-2,-8.857546002E-2,-7.819075137E-2
1.068637067E0,-1.282817032E-2,-8.979719132E-2,-7.696902007E-2
1.070620148E0,-1.343903504E-2,-8.857546002E-2,-7.574728876E-2
1.072634920E0,-1.588249579E-2,-8.552113175E-2,-7.574728876E-2
1.074618924E0,-1.099557430E-2,-8.613199741E-2,-7.452555746E-2
1.076632159E0,-9.162978269E-3,-8.796459436E-2,-7.330382615E-2
1.078616855E0,-7.941247895E-3,-8.735372871E-2,-6.963863969E-2
1.080630935E0,-5.497787148E-3,-8.918632567E-2,-6.780604273E-2
1.082614401E0,-3.665191587E-3,-9.162978828E-2,-6.536258012E-2
1.084627866E0,-1.221730490E-3,-9.346238524E-2,-6.291911751E-2
1.086611870E0,3.054326167E-3,-9.407325089E-2,-5.925392732E-2
1.088626335E0,6.108652335E-3,-9.651670605E-2,-5.681046844E-2
1.090609724E0,8.552113548E-3,-9.590584040E-2,-5.192354694E-2
1.092623651E0,8.552113548E-3,-9.651670605E-2,-5.253441259E-2
1.094639039E0,1.160643995E-2,-9.590584040E-2,-4.703662544E-2
1.096621504E0,1.221730467E-2,-9.834930301E-2,-4.520402849E-2
1.098636277E0,1.404990070E-2,-9.651670605E-2,-4.031710699E-2
1.100620281E0,1.466076635E-2,-9.529497474E-2,-3.787364438E-2
1.102633516E0,1.343903504E-2,-9.529497474E-2,-3.359758854E-2
1.104617211E0,1.466076635E-2,-9.468411654E-2,-3.054326214E-2
1.106631677E0,1.466076635E-2,-9.346238524E-2,-2.809980139E-2
1.108615065E0,1.649336144E-2,-9.590584040E-2,-2.871066704E-2
1.110629839E0,1.343903504E-2,-9.468411654E-2,-2.687807009E-2
1.112612226E0,1.343903504E-2,-9.162978828E-2,-2.748893574E-2
1.114627384E0,1.160643995E-2,-9.224065393E-2,-2.687807009E-2
1.116610696E0,1.038470957E-2,-8.857546002E-2,-2.809980139E-2
1.118626083E0,9.162978269E-3,-8.491026610E-2,-2.687807009E-2
1.120608241E0,9.162978269E-3,-8.124507964E-2,-2.565634064E-2
1.122622784E0,4.886921961E-3,-7.880161703E-2,-2.565634064E-2
1.124636634E0,5.497787148E-3,-7.757988572E-2,-2.382374369E-2
1.126620252E0,2.443460980E-3,-7.391469181E-2,-2.382374369E-2
1.128634410E0,-1.221730490E-3,-7.086037099E-2,-2.321287990E-2
1.130618106E0,-1.832595794E-3,-6.658431143E-2,-2.260201424E-2
1.132632572E0,-3.665191587E-3,-6.475171447E-2,-2.504547499E-2
1.134616344E0,-8.552113548E-3,-6.169738993E-2,-2.321287990E-2
1.136630502E0,-9.773843922E-3,-5.803219974E-2,-2.015855350E-2
1.138614737E0,-1.404990070E-2,-5.436700583E-2,-2.076941915E-2
1.140627664E0,-1.527163107E-2,-4.825835302E-2,-2.199114859E-2
1.142612052E0,-1.710422710E-2,-4.337143153E-2,-2.199114859E-2
1.144625902E0,-2.015855350E-2,-4.031710699E-2,-2.015855350E-2
1.146609290E0,-2.076941915E-2,-3.298672289E-2,-2.138028294E-2
1.148623448E0,-2.076941915E-2,-3.054326214E-2,-1.893682219E-2
1.150637605E0,-2.382374369E-2,-2.504547499E-2,-2.015855350E-2
1.152621609E0,-2.626720630E-2,-1.832595654E-2,-1.954768784E-2
1.154632690E0,-2.687807009E-2,-1.404990070E-2,-1.893682219E-2
1.156619079E0,-2.871066704E-2,-8.552113548E-3,-1.771509275E-2
1.158634543E0,-3.054326214E-2,-3.054326167E-3,-1.710422710E-2
1.160617624E0,-3.054326214E-2,1.221730490E-3,-1.649336144E-2
1.162631782E0,-3.176499158E-2,4.276056774E-3,-1.588249579E-2
1.164615093E0,-3.115412779E-2,8.552113548E-3,-1.527163107E-2
1.166629020E0,-2.993239649E-2,9.162978269E-3,-1.771509275E-2
1.168612716E0,-2.871066704E-2,9.773843922E-3,-1.954768784E-2
1.170627412E0,-2.321287990E-2,8.552113548E-3,-1.588249579E-2
1.172610185E0,-2.565634064E-2,1.038470957E-2,-2.015855350E-2
1.174625035E0,-2.260201424E-2,1.038470957E-2,-2.015855350E-2
1.176608346E0,-1.832595654E-2,1.038470957E-2,-1.954768784E-2
1.178622581E0,-1.710422710E-2,1.343903504E-2,-2.076941915E-2
1.180636738E0,-1.282817032E-2,1.282817032E-2,-1.832595654E-2
1.182620973E0,-8.552113548E-3,1.282817032E-2,-2.076941915E-2
1.184634592E0,-5.497787148E-3,1.466076635E-2,-2.076941915E-2
1.186618596E0,-2.443460980E-3,1.649336144E-2,-2.321287990E-2
1.188632138E0,-1.832595794E-3,1.588249579E-2,-2.504547499E-2
1.190616142E0,2.443460980E-3,1.771509275E-2,-2.626720630E-2
1.192630300E0,7.330383174E-3,1.771509275E-2,-3.176499158E-2
1.194613380E0,4.276056774E-3,1.832595654E-2,-3.237585723E-2
1.196628383E0,1.099557430E-2,2.015855350E-2,-4.031710699E-2
1.198613387E0,1.221730467E-2,2.076941915E-2,-4.581489414E-2
1.200625007E0,1.221730467E-2,2.260201424E-2,-5.070181563E-2
1.202639857E0,1.160643995E-2,2.443460934E-2,-5.192354694E-2
1.204623245E0,1.527163107E-2,2.626720630E-2,-6.047565863E-2
1.206637633E0,1.527163107E-2,2.443460934E-2,-6.169738993E-2
1.208621945E0,1.466076635E-2,3.054326214E-2,-6.352998316E-2
1.210634872E0,1.404990070E-2,3.115412779E-2,-6.902777404E-2
1.212619567E0,1.404990070E-2,3.176499158E-2,-7.086037099E-2
1.214634033E0,1.466076635E-2,3.420845419E-2,-7.452555746E-2
1.216617037E0,1.588249579E-2,3.481931984E-2,-7.513642311E-2
1.218631809E0,1.588249579E-2,3.665191308E-2,-7.941248268E-2
1.220615275E0,1.343903504E-2,3.848451003E-2,-8.063421398E-2
1.222629048E0,1.527163107E-2,3.909537569E-2,-8.124507964E-2
1.224612129E0,1.099557430E-2,4.031710699E-2,-8.246681094E-2
1.226626286E0,7.330383174E-3,3.970624134E-2,-8.185594529E-2
1.228610290E0,3.665191587E-3,4.214970022E-2,-8.124507964E-2
1.230624755E0,3.054326167E-3,4.092797264E-2,-7.757988572E-2
1.232638605E0,-6.108652451E-4,3.970624134E-2,-7.513642311E-2
1.234622378E0,-5.497787148E-3,3.665191308E-2,-7.391469181E-2
1.236635920E0,-7.941247895E-3,3.604105115E-2,-6.658431143E-2
1.238621078E0,-1.221730467E-2,3.176499158E-2,-6.108652428E-2
1.240634390E0,-1.710422710E-2,2.932153270E-2,-6.169738993E-2
1.242618085E0,-1.893682219E-2,2.260201424E-2,-5.558873713E-2
1.244633089E0,-2.260201424E-2,1.588249579E-2,-5.436700583E-2
1.246615939E0,-2.565634064E-2,1.160643995E-2,-5.131268129E-2
1.248629789E0,-2.748893574E-2,4.886921961E-3,-4.398229718E-2
1.250613100E0,-2.993239649E-2,-1.221730490E-3,-4.337143153E-2
1.252628258E0,-3.115412779E-2,-1.160643995E-2,-3.848451003E-2
1.254612493E0,-3.237585723E-2,-1.954768784E-2,-3.298672289E-2
1.256625727E0,-3.298672289E-2,-2.626720630E-2,-3.176499158E-2
1.258610961E0,-3.420845419E-2,-3.420845419E-2,-2.687807009E-2
1.260623350E0,-3.481931984E-2,-4.276056588E-2,-2.443460934E-2
1.262637815E0,-3.298672289E-2,-5.131268129E-2,-2.260201424E-2
1.264620896E0,-3.298672289E-2,-6.291911751E-2,-1.893682219E-2
1.266636207E0,-3.237585723E-2,-7.513642311E-2,-1.466076635E-2
1.268618672E0,-3.054326214E-2,-8.063421398E-2,-1.893682219E-2
1.270633215E0,-2.687807009E-2,-9.346238524E-2,-1.588249579E-2
1.272616603E0,-2.321287990E-2,-1.044579595E-1,-1.832595654E-2
1.274630376E0,-2.260201424E-2,-1.093448773E-1,-1.710422710E-2
1.276614380E0,-1.649336144E-2,-1.209513173E-1,-2.076941915E-2
1.278627615E0,-1.404990070E-2,-1.233947799E-1,-1.954768784E-2
1.280610387E0,-1.160643995E-2,-1.264491081E-1,-2.138028294E-2
1.282626699E0,-1.038470957E-2,-1.276708394E-1,-2.382374369E-2
1.284610164E0,-9.773843922E-3,-1.331686229E-1,-2.076941915E-2
1.286624322E0,-6.108652335E-3,-1.319468915E-1,-2.199114859E-2
1.288638094E0,-4.276056774E-3,-1.301143020E-1,-2.321287990E-2
1.290621867E0,-1.832595794E-3,-1.301143020E-1,-2.015855350E-2
1.292636641E0,2.443460980E-3,-1.252273768E-1,-2.199114859E-2
1.294619952E0,5.497787148E-3,-1.203404516E-1,-2.260201424E-2
1.296633878E0,6.108652335E-3,-1.172861308E-1,-2.260201424E-2
1.298619113E0,9.162978269E-3,-1.093448773E-1,-1.954768784E-2
1.300632886E0,9.162978269E-3,-1.020144969E-1,-1.954768784E-2
1.302615429E0,1.160643995E-2,-9.651670605E-2,-2.015855350E-2
1.304629816E0,1.038470957E-2,-8.857546002E-2,-1.832595654E-2
1.306613282E0,1.466076635E-2,-8.185594529E-2,-1.710422710E-2
1.308627440E0,1.282817032E-2,-7.391469181E-2,-1.710422710E-2
1.310611136E0,1.343903504E-2,-6.597344577E-2,-1.710422710E-2
1.312625831E0,1.527163107E-2,-6.597344577E-2,-1.404990070E-2
1.314608605E0,1.893682219E-2,-5.558873713E-2,-1.832595654E-2
1.316622147E0,1.832595654E-2,-4.398229718E-2,-1.404990070E-2
1.318638228E0,1.832595654E-2,-4.031710699E-2,-1.527163107E-2
1.320621847E0,2.138028294E-2,-2.993239649E-2,-1.710422710E-2
1.322635774E0,2.321287990E-2,-1.710422710E-2,-1.649336144E-2
1.324619162E0,2.076941915E-2,-9.162978269E-3,-1.649336144E-2
1.326633242E0,2.199114859E-2,-2.443460980E-3,-1.588249579E-2
1.328616631E0,2.443460934E-2,1.038470957E-2,-1.527163107E-2
1.330630250E0,2.443460934E-2,1.343903504E-2,-1.710422710E-2
1.332614254E0,2.504547499E-2,2.382374369E-2,-1.466076635E-2
1.334628949E0,2.321287990E-2,3.237585723E-2,-1.038470957E-2
1.336611800E0,1.954768784E-2,3.543018550E-2,-1.282817032E-2
1.338627111E0,1.954768784E-2,4.520402849E-2,-1.099557430E-2
1.340610885E0,1.649336144E-2,4.764748737E-2,-8.552113548E-3
1.342624426E0,1.343903504E-2,5.436700583E-2,-8.552113548E-3
1.344637892E0,1.221730467E-2,5.619960278E-2,-8.552113548E-3
1.346621665E0,1.221730467E-2,5.925392732E-2,-7.330383174E-3
1.348636669E0,7.330383174E-3,6.108652428E-2,-9.162978269E-3
1.350620749E0,2.443460980E-3,6.230825558E-2,-7.941247895E-3
1.352634291E0,1.221730490E-3,5.986479297E-2,-7.330383174E-3
1.354617295E0,-3.665191587E-3,5.925392732E-2,-6.719517522E-3
1.356633068E0,-6.719517522E-3,5.497787148E-2,-5.497787148E-3
1.358617687E0,-1.038470957E-2,5.436700583E-2,-4.276056774E-3
1.360628999E0,-1.771509275E-2,4.948008433E-2,-3.665191587E-3
1.362613387E0,-1.954768784E-2,4.153883830E-2,1.221730490E-3
1.364627776E0,-2.138028294E-2,3.909537569E-2,1.221730490E-3
1.366611163E0,-2.443460934E-2,3.237585723E-2,6.108652451E-4
1.368625937E0,-2.565634064E-2,2.321287990E-2,-1.221730490E-3
1.370609018E0,-2.443460934E-2,2.076941915E-2,1.832595794E-3
1.372622559E0,-2.809980139E-2,1.404990070E-2,1.832595794E-3
1.374638563E0,-2.626720630E-2,6.719517522E-3,2.443460980E-3
1.376620490E0,-2.748893574E-2,1.832595794E-3,0.000000000E0
1.378636109E0,-2.443460934E-2,-7.941247895E-3,-1.832595794E-3
1.380619266E0,-2.443460934E-2,-1.099557430E-2,-6.108652451E-4
1.382633040E0,-2.199114859E-2,-1.893682219E-2,-2.443460980E-3
1.384616813E0,-1.893682219E-2,-3.115412779E-2,-6.108652451E-4
1.386630586E0,-1.893682219E-2,-3.298672289E-2,1.221730490E-3
1.388614666E0,-1.832595654E-2,-4.092797264E-2,6.108652451E-4
1.390628516E0,-1.527163107E-2,-4.825835302E-2,3.054326167E-3
1.392612212E0,-1.710422710E-2,-5.009094998E-2,6.108652451E-4
1.394622909E0,-1.404990070E-2,-5.619960278E-2,2.443460980E-3
1.396640219E0,-1.038470957E-2,-5.681046844E-2,2.443460980E-3
1.398625070E0,-9.162978269E-3,-5.986479297E-2,3.665191587E-3
1.400639843E0,-6.719517522E-3,-5.803219974E-2,1.832595794E-3
1.402622385E0,-6.719517522E-3,-5.619960278E-2,3.665191587E-3
1.404635850E0,-3.054326167E-3,-5.497787148E-2,2.443460980E-3
1.406619854E0,-1.832595794E-3,-5.070181563E-2,1.832595794E-3
1.408633781E0,4.276056774E-3,-4.642575979E-2,3.665191587E-3
1.410618016E0,3.054326167E-3,-4.153883830E-2,2.443460980E-3
1.412631326E0,2.443460980E-3,-3.604105115E-2,3.054326167E-3
1.414616484E0,4.276056774E-3,-2.993239649E-2,1.832595794E-3
1.416629719E0,6.719517522E-3,-2.138028294E-2,5.497787148E-3
1.418614338E0,6.719517522E-3,-1.527163107E-2,7.330383174E-3
1.420628495E0,6.719517522E-3,-9.162978269E-3,6.108652335E-3
1.422610422E0,9.162978269E-3,-1.221730490E-3,7.330383174E-3
1.424625119E0,7.941247895E-3,7.941247895E-3,7.941247895E-3
1.426638969E0,7.330383174E-3,1.282817032E-2,6.719517522E-3
1.428623280E0,8.552113548E-3,2.199114859E-2,8.552113548E-3
1.430637437E0,7.941247895E-3,2.993239649E-2,9.773843922E-3
1.432620826E0,6.719517522E-3,3.604105115E-2,1.038470957E-2
1.434634444E0,7.330383174E-3,4.214970022E-2,9.773843922E-3
1.436619064E0,7.941247895E-3,5.131268129E-2,8.552113548E-3
1.438634145E0,6.108652335E-3,5.375614017E-2,1.160643995E-2
1.440615995E0,7.941247895E-3,5.925392732E-2,1.038470957E-2
1.442630998E0,7.330383174E-3,6.291911751E-2,9.162978269E-3
1.444614156E0,7.330383174E-3,7.024950534E-2,1.038470957E-2
1.446628237E0,4.886921961E-3,7.391469181E-2,9.162978269E-3
1.448611933E0,7.941247895E-3,7.452555746E-2,9.162978269E-3
1.450625859E0,6.108652335E-3,8.429940045E-2,7.941247895E-3
1.452610171E0,8.552113548E-3,8.613199741E-2,9.773843922E-3
1.454624021E0,6.719517522E-3,8.674286306E-2,9.162978269E-3
1.456638179E0,6.719517522E-3,9.162978828E-2,1.038470957E-2
1.458622489E0,6.108652335E-3,9.224065393E-2,9.162978269E-3
1.460636955E0,6.719517522E-3,9.407325089E-2,1.282817032E-2
1.462619651E0,4.276056774E-3,9.346238524E-2,9.773843922E-3
1.464633886E0,4.276056774E-3,9.346238524E-2,1.099557430E-2
1.466617197E0,3.665191587E-3,9.407325089E-2,1.099557430E-2
1.468631432E0,0.000000000E0,9.101892263E-2,8.552113548E-3
1.470615051E0,-1.221730490E-3,8.796459436E-2,1.160643995E-2
1.472629286E0,-4.276056774E-3,8.613199741E-2,9.773843922E-3
1.474612289E0,-5.497787148E-3,8.063421398E-2,1.160643995E-2
1.476627062E0,-3.054326167E-3,7.757988572E-2,1.282817032E-2
1.478611681E0,-4.276056774E-3,6.841690838E-2,1.038470957E-2
1.480625607E0,-1.221730490E-3,5.681046844E-2,9.773843922E-3
1.482608381E0,-1.221730490E-3,4.825835302E-2,7.330383174E-3
1.484623077E0,1.221730490E-3,3.543018550E-2,7.941247895E-3
1.486636696E0,2.443460980E-3,2.382374369E-2,4.886921961E-3
1.488620622E0,2.443460980E-3,1.771509275E-2,6.719517522E-3
1.490634780E0,5.497787148E-3,8.552113548E-3,4.886921961E-3
1.492618554E0,9.162978269E-3,-3.665191587E-3,4.886921961E-3
1.494633634E0,1.038470957E-2,-7.330383174E-3,4.276056774E-3
1.496615791E0,1.160643995E-2,-1.710422710E-2,4.886921961E-3
1.498631795E0,1.710422710E-2,-2.687807009E-2,5.497787148E-3
1.500614569E0,1.710422710E-2,-2.993239649E-2,3.665191587E-3
1.502627726E0,1.893682219E-2,-3.665191308E-2,4.886921961E-3
1.504611806E0,2.015855350E-2,-4.276056588E-2,5.497787148E-3
1.506625656E0,2.199114859E-2,-4.581489414E-2,6.108652335E-3
1.508609661E0,2.321287990E-2,-5.131268129E-2,4.886921961E-3
1.510624357E0,2.443460934E-2,-5.253441259E-2,6.108652335E-3
1.512637975E0,2.565634064E-2,-5.497787148E-2,7.941247895E-3
1.514621056E0,2.626720630E-2,-5.619960278E-2,8.552113548E-3
1.516635137E0,2.871066704E-2,-5.192354694E-2,6.108652335E-3
1.518617680E0,2.871066704E-2,-5.192354694E-2,6.108652335E-3
1.520634529E0,2.687807009E-2,-5.131268129E-2,6.108652335E-3
1.522617994E0,2.871066704E-2,-5.131268129E-2,5.497787148E-3
1.524631460E0,2.932153270E-2,-4.948008433E-2,7.330383174E-3
1.526615155E0,3.176499158E-2,-4.825835302E-2,4.886921961E-3
1.528629313E0,2.993239649E-2,-4.703662544E-2,4.276056774E-3
1.530613702E0,2.932153270E-2,-4.459316283E-2,5.497787148E-3
1.532626859E0,2.748893574E-2,-4.276056588E-2,5.497787148E-3
1.534611247E0,2.687807009E-2,-4.214970022E-2,5.497787148E-3
1.536625405E0,2.504547499E-2,-3.909537569E-2,6.719517522E-3
1.538640409E0,2.504547499E-2,-3.420845419E-2,7.941247895E-3
1.540622874E0,2.321287990E-2,-3.115412779E-2,7.330383174E-3
1.542636108E0,2.382374369E-2,-2.748893574E-2,6.719517522E-3
1.544620420E0,2.443460934E-2,-2.871066704E-2,7.941247895E-3
1.546634578E0,2.199114859E-2,-2.260201424E-2,6.719517522E-3
1.548617966E0,1.954768784E-2,-1.832595654E-2,9.162978269E-3
1.550632508E0,2.138028294E-2,-1.527163107E-2,6.108652335E-3
1.552615896E0,2.138028294E-2,-1.099557430E-2,6.719517522E-3
1.554629670E0,1.832595654E-2,-7.330383174E-3,5.497787148E-3
1.556613981E0,1.954768784E-2,-4.886921961E-3,6.719517522E-3
1.558629369E0,2.015855350E-2,-3.665191587E-3,7.941247895E-3
1.560611911E0,1.954768784E-2,1.221730490E-3,4.886921961E-3
1.562625762E0,2.076941915E-2,1.832595794E-3,7.941247895E-3
1.564609073E0,2.076941915E-2,1.221730490E-3,6.719517522E-3
1.566624153E0,2.260201424E-2,4.886921961E-3,8.552113548E-3
1.568637696E0,2.443460934E-2,4.276056774E-3,9.773843922E-3
1.570622007E0,2.565634064E-2,8.552113548E-3,7.941247895E-3
1.572635627E0,2.871066704E-2,1.221730467E-2,8.552113548E-3
1.574620553E0,2.871066704E-2,1.343903504E-2,9.773843922E-3
1.576633788E0,2.932153270E-2,1.771509275E-2,1.282817032E-2
1.578617792E0,3.115412779E-2,2.015855350E-2,1.160643995E-2
1.580631565E0,2.932153270E-2,2.565634064E-2,1.404990070E-2
1.582615260E0,2.809980139E-2,3.298672289E-2,1.649336144E-2
1.584629187E0,2.809980139E-2,3.237585723E-2,1.771509275E-2
1.586612499E0,2.260201424E-2,3.665191308E-2,1.771509275E-2
1.588627579E0,1.954768784E-2,4.031710699E-2,1.649336144E-2
1.590610737E0,1.954768784E-2,4.031710699E-2,1.649336144E-2
1.592624202E0,1.527163107E-2,4.092797264E-2,1.466076635E-2
1.594639052E0,1.221730467E-2,4.031710699E-2,1.221730467E-2
1.596622979E0,1.038470957E-2,3.848451003E-2,1.160643995E-2
1.598638675E0,7.941247895E-3,3.726277873E-2,7.941247895E-3
1.600619679E0,5.497787148E-3,3.543018550E-2,5.497787148E-3
1.602635606E0,5.497787148E-3,3.543018550E-2,5.497787148E-3
1.604617840E0,2.443460980E-3,3.237585723E-2,3.665191587E-3
1.606631921E0,2.443460980E-3,2.932153270E-2,2.443460980E-3
1.608616540E0,1.221730490E-3,2.748893574E-2,0.000000000E0
1.610630159E0,0.000000000E0,2.504547499E-2,-6.108652451E-4
1.612613547E0,-1.221730490E-3,2.382374369E-2,6.108652451E-4
1.614629166E0,-2.443460980E-3,1.771509275E-2,3.054326167E-3
1.616612017E0,-4.276056774E-3,1.832595654E-2,3.054326167E-3
1.618626405E0,-5.497787148E-3,1.649336144E-2,3.665191587E-3
1.620609793E0,-6.719517522E-3,9.773843922E-3,2.443460980E-3
1.622623643E0,-6.108652335E-3,3.665191587E-3,1.832595794E-3
1.624638109E0,-6.108652335E-3,2.443460980E-3,2.443460980E-3
1.626620959E0,-8.552113548E-3,-6.719517522E-3,1.832595794E-3
1.628635654E0,-4.886921961E-3,-1.099557430E-2,2.443460980E-3
1.630619658E0,-7.330383174E-3,-1.099557430E-2,6.108652451E-4
1.632632662E0,-9.162978269E-3,-1.588249579E-2,1.832595794E-3
1.634616588E0,-1.099557430E-2,-1.710422710E-2,-1.221730490E-3
1.636631131E0,-1.038470957E-2,-1.771509275E-2,-1.832595794E-3
1.638615750E0,-1.221730467E-2,-2.138028294E-2,-6.108652451E-4
1.640629908E0,-1.343903504E-2,-2.382374369E-2,-1.221730490E-3
1.642613295E0,-1.588249579E-2,-2.748893574E-2,-4.276056774E-3
1.644628069E0,-1.771509275E-2,-3.237585723E-2,-2.443460980E-3
1.646610457E0,-1.954768784E-2,-3.359758854E-2,-2.443460980E-3
1.648624384E0,-2.260201424E-2,-3.604105115E-2,-4.886921961E-3
1.650638541E0,-2.382374369E-2,-4.031710699E-2,-3.665191587E-3
1.652622853E0,-2.748893574E-2,-4.031710699E-2,-2.443460980E-3
1.654637857E0,-2.871066704E-2,-4.031710699E-2,-4.276056774E-3
1.656620399E0,-3.237585723E-2,-4.092797264E-2,-5.497787148E-3
1.658635479E0,-3.359758854E-2,-4.092797264E-2,-6.108652335E-3
1.660618483E0,-3.604105115E-2,-3.726277873E-2,-5.497787148E-3
1.662632949E0,-3.726277873E-2,-3.848451003E-2,-6.719517522E-3
1.664616337E0,-3.909537569E-2,-3.665191308E-2,-6.719517522E-3
1.666630494E0,-3.787364438E-2,-3.481931984E-2,-4.886921961E-3
1.668613883E0,-3.481931984E-2,-3.665191308E-2,-4.886921961E-3
1.670628656E0,-3.543018550E-2,-3.359758854E-2,-4.886921961E-3
1.672611737E0,-3.481931984E-2,-2.626720630E-2,-4.276056774E-3
1.674625279E0,-3.787364438E-2,-2.321287990E-2,-1.221730490E-3
1.676641052E0,-3.604105115E-2,-1.771509275E-2,6.108652451E-4
1.678625671E0,-3.604105115E-2,-1.038470957E-2,1.221730490E-3
1.680636675E0,-3.726277873E-2,-7.941247895E-3,3.665191587E-3
1.682621371E0,-3.909537569E-2,1.221730490E-3,2.443460980E-3
1.684634605E0,-4.092797264E-2,7.330383174E-3,5.497787148E-3
1.686618917E0,-4.153883830E-2,9.162978269E-3,6.108652335E-3
1.688633305E0,-4.398229718E-2,1.588249579E-2,7.330383174E-3
1.690617309E0,-4.459316283E-2,2.199114859E-2,6.108652335E-3
1.692630928E0,-4.581489414E-2,2.260201424E-2,6.108652335E-3
1.694616086E0,-4.948008433E-2,3.054326214E-2,3.665191587E-3
1.696629012E0,-5.192354694E-2,3.726277873E-2,4.276056774E-3
1.698613631E0,-5.192354694E-2,4.276056588E-2,6.719517522E-3
1.700627174E0,-5.314527452E-2,5.009094998E-2,6.719517522E-3
1.702610870E0,-5.314527452E-2,5.803219974E-2,9.162978269E-3
1.704624181E0,-5.192354694E-2,6.780604273E-2,9.162978269E-3
1.706638877E0,-4.948008433E-2,8.613199741E-2,1.404990070E-2
1.708622343E0,-5.131268129E-2,9.468411654E-2,1.466076635E-2
1.710636116E0,-4.948008433E-2,1.081231460E-1,1.710422710E-2
1.712620427E0,-4.703662544E-2,1.227839142E-1,1.954768784E-2
1.714630661E0,-4.581489414E-2,1.313360333E-1,2.199114859E-2
1.716617435E0,-4.459316283E-2,1.453859210E-1,2.199114859E-2
1.718632516E0,-4.276056588E-2,1.600466967E-1,2.504547499E-2
1.720615288E0,-3.909537569E-2,1.673770845E-1,2.687807009E-2
1.722629676E0,-3.726277873E-2,1.802052408E-1,2.626720630E-2
1.724614065E0,-3.481931984E-2,1.942551434E-1,2.993239649E-2
1.726627607E0,-3.604105115E-2,1.997529417E-1,2.993239649E-2
1.728611918E0,-3.237585723E-2,2.101376504E-1,2.932153270E-2
1.730625153E0,-2.871066704E-2,2.199114859E-1,3.054326214E-2
1.732640234E0,-2.932153270E-2,2.241875380E-1,3.298672289E-2
1.734623853E0,-2.565634064E-2,2.315179259E-1,3.359758854E-2
1.736637779E0,-2.626720630E-2,2.357939780E-1,3.359758854E-2
1.738621783E0,-2.565634064E-2,2.412917763E-1,3.054326214E-2
1.740635634E0,-2.687807009E-2,2.455678284E-1,3.298672289E-2
1.742618637E0,-2.809980139E-2,2.492330223E-1,3.115412779E-2
1.744633410E0,-2.809980139E-2,2.522873580E-1,2.993239649E-2
1.746616260E0,-3.176499158E-2,2.528982162E-1,3.176499158E-2
1.748630725E0,-3.481931984E-2,2.541199327E-1,3.359758854E-2
1.750614652E0,-3.665191308E-2,2.535090744E-1,3.237585723E-2
1.752628271E0,-3.909537569E-2,2.547308207E-1,3.298672289E-2
1.754611660E0,-4.337143153E-2,2.571742535E-1,3.115412779E-2
1.756626048E0,-4.581489414E-2,2.504547536E-1,3.054326214E-2
1.758608590E0,-4.581489414E-2,2.504547536E-1,3.054326214E-2
1.760624286E0,-4.703662544E-2,2.474004179E-1,3.054326214E-2
1.762638367E0,-4.642575979E-2,2.455678284E-1,2.993239649E-2
1.764622371E0,-4.764748737E-2,2.394591719E-1,2.993239649E-2
1.766636528E0,-4.581489414E-2,2.357939780E-1,2.993239649E-2
1.768619301E0,-4.520402849E-2,2.284636050E-1,2.871066704E-2
1.770634382E0,-4.520402849E-2,2.223549485E-1,2.932153270E-2
1.772617540E0,-4.153883830E-2,2.150245607E-1,3.298672289E-2
1.774632235E0,-4.153883830E-2,2.058615834E-1,3.237585723E-2
1.776615931E0,-3.970624134E-2,1.997529417E-1,3.237585723E-2
1.778630166E0,-3.909537569E-2,1.912008226E-1,3.420845419E-2
1.780613862E0,-4.092797264E-2,1.771509200E-1,3.359758854E-2
1.782628019E0,-3.970624134E-2,1.716531366E-1,3.420845419E-2
1.784611408E0,-3.787364438E-2,1.594358236E-1,3.481931984E-2
1.786625181E0,-4.214970022E-2,1.441642046E-1,3.604105115E-2
1.788639031E0,-4.031710699E-2,1.380555481E-1,3.787364438E-2
1.790623111E0,-4.214970022E-2,1.246165112E-1,3.787364438E-2
1.792636654E0,-4.153883830E-2,1.093448773E-1,3.909537569E-2
1.794620581E0,-4.031710699E-2,1.007927656E-1,3.909537569E-2
1.796634430E0,-4.337143153E-2,8.429940045E-2,3.726277873E-2
1.798620357E0,-4.214970022E-2,6.475171447E-2,3.481931984E-2
1.800633207E0,-4.214970022E-2,5.619960278E-2,3.543018550E-2
1.802616904E0,-4.581489414E-2,3.787364438E-2,3.787364438E-2
1.804630753E0,-4.581489414E-2,3.054326214E-2,3.787364438E-2
1.806614449E0,-4.276056588E-2,1.221730467E-2,3.359758854E-2
1.808628991E0,-4.214970022E-2,-3.054326167E-3,3.481931984E-2
1.810612072E0,-4.398229718E-2,-9.773843922E-3,3.481931984E-2
1.812626537E0,-4.214970022E-2,-2.260201424E-2,3.665191308E-2
1.814611079E0,-3.848451003E-2,-3.298672289E-2,3.909537569E-2
1.816623468E0,-3.970624134E-2,-3.909537569E-2,4.031710699E-2
1.818639703E0,-3.481931984E-2,-4.764748737E-2,4.276056588E-2
1.820622167E0,-2.993239649E-2,-5.803219974E-2,4.886921868E-2
1.822635787E0,-2.932153270E-2,-6.291911751E-2,4.948008433E-2
1.824619791E0,-2.443460934E-2,-7.024950534E-2,5.253441259E-2
1.826633872E0,-2.199114859E-2,-7.696902007E-2,5.619960278E-2
1.828617952E0,-2.015855350E-2,-8.002334833E-2,6.047565863E-2
1.830631494E0,-1.649336144E-2,-8.552113175E-2,6.108652428E-2
1.832615806E0,-1.649336144E-2,-8.796459436E-2,6.414084882E-2
1.834628733E0,-1.588249579E-2,-8.735372871E-2,6.352998316E-2
1.836613890E0,-1.343903504E-2,-9.101892263E-2,6.352998316E-2
1.838629278E0,-1.466076635E-2,-9.162978828E-2,6.475171447E-2
1.840610513E0,-1.893682219E-2,-9.040805697E-2,6.536258012E-2
1.842625593E0,-1.893682219E-2,-8.979719132E-2,6.291911751E-2
1.844639520E0,-1.771509275E-2,-9.468411654E-2,6.291911751E-2
1.846623216E0,-2.076941915E-2,-9.162978828E-2,6.169738993E-2
1.848637297E0,-2.443460934E-2,-8.857546002E-2,5.619960278E-2
1.850620993E0,-2.443460934E-2,-8.735372871E-2,5.619960278E-2
1.852634920E0,-2.932153270E-2,-8.368854225E-2,5.192354694E-2
1.854620154E0,-3.176499158E-2,-8.124507964E-2,5.009094998E-2
1.856633005E0,-3.237585723E-2,-7.941248268E-2,4.703662544E-2
1.858617315E0,-3.481931984E-2,-7.635815442E-2,4.153883830E-2
1.860630627E0,-3.604105115E-2,-7.513642311E-2,3.726277873E-2
1.862614016E0,-3.970624134E-2,-7.086037099E-2,3.420845419E-2
1.864628789E0,-4.092797264E-2,-7.330382615E-2,3.604105115E-2
1.866611869E0,-4.153883830E-2,-7.269296050E-2,3.359758854E-2
1.868626334E0,-4.337143153E-2,-7.452555746E-2,2.993239649E-2
1.870610261E0,-4.276056588E-2,-7.696902007E-2,3.054326214E-2
1.872623189E0,-4.337143153E-2,-7.880161703E-2,2.748893574E-2
1.874634961E0,-4.398229718E-2,-8.185594529E-2,2.504547499E-2
1.876621657E0,-4.520402849E-2,-8.796459436E-2,2.626720630E-2
1.878637046E0,-4.276056588E-2,-8.796459436E-2,2.748893574E-2
1.880620127E0,-4.214970022E-2,-9.468411654E-2,2.565634064E-2
1.882634360E0,-4.031710699E-2,-9.834930301E-2,2.565634064E-2
1.884617134E0,-3.909537569E-2,-1.032362282E-1,2.504547499E-2
1.886631291E0,-3.543018550E-2,-1.075122803E-1,2.748893574E-2
1.888614911E0,-3.176499158E-2,-1.154535338E-1,3.054326214E-2
1.890629452E0,-3.359758854E-2,-1.178969890E-1,2.932153270E-2
1.892613687E0,-2.993239649E-2,-1.233947799E-1,2.871066704E-2
1.894628845E0,-2.748893574E-2,-1.270599663E-1,3.359758854E-2
1.896611540E0,-2.565634064E-2,-1.319468915E-1,3.359758854E-2
1.898625775E0,-2.260201424E-2,-1.319468915E-1,3.604105115E-2
1.900639318E0,-2.199114859E-2,-1.331686229E-1,3.909537569E-2
1.902623245E0,-1.771509275E-2,-1.343903542E-1,4.031710699E-2
1.904637094E0,-1.832595654E-2,-1.356120855E-1,4.153883830E-2
1.906621175E0,-1.466076635E-2,-1.362229437E-1,4.153883830E-2
1.908634333E0,-1.343903504E-2,-1.356120855E-1,4.459316283E-2
1.910618644E0,-1.343903504E-2,-1.343903542E-1,4.398229718E-2
1.912633493E0,-1.038470957E-2,-1.337794960E-1,4.520402849E-2
1.914615574E0,-8.552113548E-3,-1.288925707E-1,4.642575979E-2
1.916631271E0,-8.552113548E-3,-1.240056455E-1,4.764748737E-2
1.918615352E0,-7.330383174E-3,-1.209513173E-1,4.948008433E-2
1.920627278E0,-8.552113548E-3,-1.148426682E-1,4.703662544E-2
1.922612512E0,-1.099557430E-2,-1.062905490E-1,4.459316283E-2
1.924626132E0,-7.330383174E-3,-1.020144969E-1,4.581489414E-2
1.926610059E0,-1.038470957E-2,-9.224065393E-2,4.459316283E-2
1.928623985E0,-1.038470957E-2,-8.429940045E-2,4.276056588E-2
1.930637758E0,-1.160643995E-2,-7.513642311E-2,4.031710699E-2
1.932621531E0,-1.282817032E-2,-6.719517708E-2,3.909537569E-2
1.934637459E0,-1.466076635E-2,-6.291911751E-2,3.909537569E-2
1.936619615E0,-1.710422710E-2,-5.070181563E-2,3.665191308E-2
1.938634466E0,-1.527163107E-2,-4.276056588E-2,3.481931984E-2
1.940618162E0,-1.527163107E-2,-3.787364438E-2,3.359758854E-2
1.942631627E0,-1.832595654E-2,-2.626720630E-2,3.054326214E-2
1.944614477E0,-1.649336144E-2,-1.710422710E-2,2.932153270E-2
1.946629250E0,-1.527163107E-2,-1.099557430E-2,2.687807009E-2
1.948613177E0,-1.527163107E-2,-1.221730490E-3,2.565634064E-2
1.950627641E0,-1.282817032E-2,9.162978269E-3,2.382374369E-2
1.952610799E0,-1.466076635E-2,1.404990070E-2,2.260201424E-2
1.954621572E0,-1.099557430E-2,2.382374369E-2,2.015855350E-2
1.956638807E0,-1.038470957E-2,3.359758854E-2,1.893682219E-2
1.958623964E0,-6.719517522E-3,3.909537569E-2,1.710422710E-2
1.960637276E0,-6.108652335E-3,4.703662544E-2,1.710422710E-2
1.962620280E0,-5.497787148E-3,5.864306539E-2,1.771509275E-2
1.964634515E0,-3.054326167E-3,6.169738993E-2,1.771509275E-2
1.966618210E0,-1.221730490E-3,6.780604273E-2,1.893682219E-2
1.968632675E0,-3.054326167E-3,7.269296050E-2,1.649336144E-2
1.970616603E0,-6.108652451E-4,7.696902007E-2,1.588249579E-2
1.972629837E0,0.000000000E0,8.307767659E-2,1.710422710E-2
1.974615148E0,0.000000000E0,8.613199741E-2,1.466076635E-2
1.976628306E0,0.000000000E0,8.979719132E-2,1.588249579E-2
1.978613002E0,0.000000000E0,9.101892263E-2,1.343903504E-2
1.980625929E0,1.221730490E-3,9.529497474E-2,1.282817032E-2
1.982640009E0,-1.832595794E-3,9.590584040E-2,1.282817032E-2
1.984623705E0,-3.665191587E-3,9.651670605E-2,1.160643995E-2
1.986638248E0,-2.443460980E-3,9.407325089E-2,1.099557430E-2
1.988621560E0,-5.497787148E-3,9.162978828E-2,1.282817032E-2
1.990635101E0,-4.276056774E-3,8.796459436E-2,9.162978269E-3
1.992619105E0,-3.054326167E-3,8.368854225E-2,9.162978269E-3
1.994633955E0,-1.832595794E-3,7.819075137E-2,1.038470957E-2
1.996617266E0,-3.665191587E-3,6.230825558E-2,6.719517522E-3
1.998630193E0,-3.665191587E-3,6.230825558E-2,6.719517522E-3
2.000614274E0,-3.054326167E-3,5.742133409E-2,6.108652335E-3
2.002629047E0,-3.665191587E-3,5.375614017E-2,7.330383174E-3
2.004612743E0,0.000000000E0,4.337143153E-2,7.330383174E-3
2.006626516E0,-2.443460980E-3,3.420845419E-2,9.773843922E-3
2.008610827E0,-4.276056774E-3,2.871066704E-2,4.886921961E-3
2.010624370E0,-6.108652451E-4,1.588249579E-2,3.665191587E-3
2.012639758E0,-1.221730490E-3,4.886921961E-3,2.443460980E-3
2.014622608E0,-1.832595794E-3,2.443460980E-3,4.276056774E-3
2.016637689E0,-3.054326167E-3,-8.552113548E-3,3.665191587E-3
2.018621693E0,-3.054326167E-3,-1.893682219E-2,0.000000000E0
2.020635542E0,-2.443460980E-3,-2.443460934E-2,2.443460980E-3
2.022618238E0,-3.054326167E-3,-3.359758854E-2,-6.108652451E-4
2.024633011E0,-2.443460980E-3,-4.214970022E-2,-6.108652451E-4
2.026615477E0,-3.054326167E-3,-4.703662544E-2,-3.054326167E-3
2.028629941E0,-1.832595794E-3,-5.375614017E-2,-3.665191587E-3
2.030613945E0,-4.886921961E-3,-5.681046844E-2,-2.443460980E-3
2.032627488E0,-6.108652451E-4,-6.230825558E-2,-1.832595794E-3
2.034610953E0,-1.832595794E-3,-6.719517708E-2,-4.276056774E-3
2.036625418E0,0.000000000E0,-6.841690838E-2,-3.665191587E-3
2.038640807E0,6.108652451E-4,-7.086037099E-2,-2.443460980E-3
2.040623503E0,1.221730490E-3,-6.841690838E-2,-3.054326167E-3
2.042637738E0,1.832595794E-3,-6.963863969E-2,-2.443460980E-3
2.044622279E0,4.276056774E-3,-6.841690838E-2,-4.276056774E-3
2.046635899E0,1.221730490E-3,-6.658431143E-2,-5.497787148E-3
2.048619518E0,3.054326167E-3,-6.780604273E-2,-4.886921961E-3
2.050633753E0,1.832595794E-3,-6.536258012E-2,-5.497787148E-3
2.052617063E0,4.886921961E-3,-6.414084882E-2,-6.719517522E-3
2.054631606E0,3.665191587E-3,-6.536258012E-2,-4.886921961E-3
2.056614687E0,6.719517522E-3,-6.169738993E-2,-6.108652335E-3
2.058630074E0,5.497787148E-3,-6.169738993E-2,-4.276056774E-3
2.060613463E0,6.719517522E-3,-6.169738993E-2,-4.276056774E-3
2.062626390E0,7.941247895E-3,-5.986479297E-2,-3.665191587E-3
2.064640779E0,8.552113548E-3,-5.497787148E-2,-2.443460980E-3
2.066624859E0,6.719517522E-3,-5.192354694E-2,-2.443460980E-3
2.068640170E0,7.330383174E-3,-4.642575979E-2,-3.054326167E-3
2.070622713E0,9.773843922E-3,-4.764748737E-2,-4.276056774E-3
2.072636563E0,9.162978269E-3,-4.337143153E-2,-6.108652451E-4
2.074620181E0,8.552113548E-3,-4.092797264E-2,-1.832595794E-3
2.076634955E0,9.773843922E-3,-3.787364438E-2,-1.832595794E-3
2.078619574E0,9.773843922E-3,-3.420845419E-2,-1.221730490E-3
2.080631655E0,7.330383174E-3,-3.054326214E-2,-5.497787148E-3
2.082615581E0,6.719517522E-3,-2.687807009E-2,-3.665191587E-3
2.084629816E0,6.108652335E-3,-2.504547499E-2,-4.886921961E-3
2.086613127E0,8.552113548E-3,-2.382374369E-2,-4.886921961E-3
2.088627593E0,6.719517522E-3,-2.015855350E-2,-4.276056774E-3
2.090610365E0,1.160643995E-2,-2.015855350E-2,-4.886921961E-3
2.092625523E0,9.162978269E-3,-1.588249579E-2,-5.497787148E-3
2.094640219E0,1.099557430E-2,-1.527163107E-2,-7.330383174E-3
2.096623685E0,9.773843922E-3,-1.221730467E-2,-2.443460980E-3
2.098638457E0,1.221730467E-2,-1.343903504E-2,-1.221730490E-3
2.100621230E0,1.343903504E-2,-1.221730467E-2,-1.832595794E-3
2.102635696E0,1.771509275E-2,-1.160643995E-2,-1.832595794E-3
2.104619314E0,1.832595654E-2,-1.404990070E-2,-1.832595794E-3
2.106633857E0,1.954768784E-2,-1.160643995E-2,-1.832595794E-3
2.108616553E0,2.076941915E-2,-8.552113548E-3,-1.832595794E-3
2.110631942E0,2.260201424E-2,-6.108652335E-3,0.000000000E0
2.112614483E0,2.565634064E-2,-6.108652335E-3,1.221730490E-3
2.114627718E0,2.748893574E-2,-4.276056774E-3,0.000000000E0
2.116612876E0,2.932153270E-2,0.000000000E0,3.054326167E-3
2.118628034E0,2.871066704E-2,-1.221730490E-3,1.832595794E-3
2.120611344E0,2.932153270E-2,6.108652451E-4,2.443460980E-3
2.122624348E0,3.176499158E-2,0.000000000E0,3.665191587E-3
2.124639045E0,2.993239649E-2,-3.665191587E-3,0.000000000E0
2.126621818E0,2.809980139E-2,-3.054326167E-3,6.108652451E-4
2.128636667E0,2.626720630E-2,-1.832595794E-3,1.832595794E-3
2.130620363E0,2.321287990E-2,-4.276056774E-3,2.443460980E-3
2.132633906E0,2.382374369E-2,-5.497787148E-3,0.000000000E0
2.134618218E0,2.076941915E-2,-7.330383174E-3,-1.221730490E-3
2.136632298E0,2.015855350E-2,-9.773843922E-3,-3.665191587E-3
2.138616071E0,2.015855350E-2,-1.221730467E-2,-2.443460980E-3
2.140630152E0,1.649336144E-2,-1.466076635E-2,-4.276056774E-3
2.142613233E0,1.466076635E-2,-1.649336144E-2,-7.941247895E-3
2.144628082E0,1.527163107E-2,-1.527163107E-2,-5.497787148E-3
2.146612009E0,1.649336144E-2,-2.076941915E-2,-7.941247895E-3
2.148625321E0,1.527163107E-2,-2.015855350E-2,-6.719517522E-3
2.150639478E0,1.282817032E-2,-2.076941915E-2,-3.054326167E-3
2.152623404E0,1.527163107E-2,-2.076941915E-2,-6.108652335E-3
2.154637255E0,1.343903504E-2,-2.076941915E-2,-4.276056774E-3
2.156621874E0,1.160643995E-2,-1.832595654E-2,-2.443460980E-3
2.158636955E0,1.038470957E-2,-2.076941915E-2,-1.832595794E-3
2.160618189E0,1.282817032E-2,-1.893682219E-2,-1.221730490E-3
2.162633962E0,1.099557430E-2,-2.076941915E-2,6.108652451E-4
2.164617043E0,1.160643995E-2,-1.832595654E-2,1.832595794E-3
2.166631431E0,1.282817032E-2,-2.076941915E-2,6.108652451E-4
2.168614896E0,1.160643995E-2,-2.015855350E-2,0.000000000E0
2.170628669E0,1.282817032E-2,-1.954768784E-2,4.276056774E-3
2.172611827E0,1.099557430E-2,-1.832595654E-2,-6.108652451E-4
2.174627522E0,1.282817032E-2,-1.832595654E-2,6.108652451E-4
2.176610526E0,1.466076635E-2,-1.466076635E-2,0.000000000E0
2.178625607E0,1.588249579E-2,-1.527163107E-2,-3.054326167E-3
2.180638842E0,1.527163107E-2,-1.282817032E-2,-2.443460980E-3
2.182621999E0,2.015855350E-2,-1.282817032E-2,-3.054326167E-3
2.184636388E0,1.832595654E-2,-1.099557430E-2,-1.832595794E-3
2.186619853E0,2.015855350E-2,-1.160643995E-2,0.000000000E0
2.188634011E0,2.076941915E-2,-9.773843922E-3,1.221730490E-3
2.190618322E0,2.199114859E-2,-9.162978269E-3,6.108652451E-4
2.192631480E0,2.199114859E-2,-7.330383174E-3,2.443460980E-3
2.194614637E0,2.321287990E-2,-6.108652335E-3,1.221730490E-3
2.196629411E0,2.748893574E-2,-3.665191587E-3,3.665191587E-3
2.198614260E0,2.748893574E-2,6.108652451E-4,1.832595794E-3
2.200628418E0,2.809980139E-2,6.108652451E-4,6.108652451E-4
2.202611499E0,2.809980139E-2,5.497787148E-3,6.108652451E-4
2.204625118E0,2.871066704E-2,7.941247895E-3,1.221730490E-3
2.206639506E0,2.993239649E-2,7.330383174E-3,2.443460980E-3
2.208623202E0,2.871066704E-2,7.941247895E-3,1.221730490E-3
2.210637437E0,2.993239649E-2,4.886921961E-3,3.054326167E-3
2.212620747E0,3.054326214E-2,5.497787148E-3,1.221730490E-3
2.214635905E0,3.054326214E-2,4.276056774E-3,1.832595794E-3
2.216618678E0,3.176499158E-2,1.221730490E-3,0.000000000E0
2.218633990E0,2.993239649E-2,1.832595794E-3,1.221730490E-3
2.220617070E0,3.237585723E-2,-2.443460980E-3,-6.108652451E-4
2.222631228E0,3.298672289E-2,-2.443460980E-3,-6.108652451E-4
2.224615001E0,3.176499158E-2,-3.665191587E-3,-6.108652451E-4
2.226629698E0,3.359758854E-2,-4.886921961E-3,-6.108652451E-4
2.228611008E0,3.543018550E-2,-6.108652335E-3,-1.221730490E-3
2.230626628E0,3.420845419E-2,-6.719517522E-3,-1.221730490E-3
2.232640247E0,3.176499158E-2,-8.552113548E-3,0.000000000E0
2.234623866E0,3.420845419E-2,-7.330383174E-3,-1.832595794E-3
2.236638331E0,2.993239649E-2,-1.466076635E-2,-1.221730490E-3
2.238621104E0,2.993239649E-2,-1.343903504E-2,-3.054326167E-3
2.240633493E0,2.809980139E-2,-1.527163107E-2,-3.665191587E-3
2.242620189E0,3.115412779E-2,-1.588249579E-2,-3.665191587E-3
2.244633807E0,2.809980139E-2,-1.588249579E-2,-3.054326167E-3
2.246617504E0,2.565634064E-2,-1.649336144E-2,-3.665191587E-3
2.248631662E0,2.443460934E-2,-1.832595654E-2,-4.886921961E-3
2.250615281E0,2.321287990E-2,-1.954768784E-2,-4.276056774E-3
2.252629438E0,2.260201424E-2,-2.015855350E-2,-5.497787148E-3
2.254613827E0,2.382374369E-2,-1.893682219E-2,-3.665191587E-3
2.256627292E0,2.260201424E-2,-2.138028294E-2,-4.886921961E-3
2.258611295E0,2.260201424E-2,-2.138028294E-2,-3.665191587E-3
2.260625838E0,2.321287990E-2,-2.138028294E-2,-6.108652335E-3
2.262639072E0,2.199114859E-2,-2.015855350E-2,-5.497787148E-3
2.264622692E0,2.321287990E-2,-1.893682219E-2,-4.276056774E-3
2.266637464E0,2.199114859E-2,-1.832595654E-2,-3.054326167E-3
2.268620622E0,2.504547499E-2,-1.832595654E-2,-3.665191587E-3
2.270635010E0,2.504547499E-2,-1.832595654E-2,-4.276056774E-3
2.272618399E0,2.626720630E-2,-1.954768784E-2,-1.832595794E-3
2.274632864E0,2.382374369E-2,-1.710422710E-2,-2.443460980E-3
2.276616021E0,2.565634064E-2,-1.710422710E-2,-3.665191587E-3
2.278632333E0,2.321287990E-2,-1.771509275E-2,-3.665191587E-3
2.280614799E0,2.504547499E-2,-1.649336144E-2,-1.832595794E-3
2.282628340E0,2.443460934E-2,-1.893682219E-2,-3.054326167E-3
2.284612267E0,2.504547499E-2,-1.588249579E-2,-3.054326167E-3
2.286625579E0,2.748893574E-2,-1.649336144E-2,-2.443460980E-3
2.288640891E0,2.626720630E-2,-1.954768784E-2,-3.054326167E-3
2.290624278E0,2.504547499E-2,-1.893682219E-2,-4.886921961E-3
2.292638513E0,2.871066704E-2,-1.893682219E-2,-3.665191587E-3
2.294622209E0,2.809980139E-2,-2.015855350E-2,-3.665191587E-3
2.296636906E0,2.809980139E-2,-2.076941915E-2,-5.497787148E-3
2.298620293E0,2.626720630E-2,-2.138028294E-2,-4.276056774E-3
2.300634451E0,2.748893574E-2,-1.893682219E-2,-4.886921961E-3
2.302617532E0,2.565634064E-2,-1.893682219E-2,-4.276056774E-3
2.304631690E0,2.687807009E-2,-2.138028294E-2,-7.941247895E-3
2.306615154E0,2.321287990E-2,-1.832595654E-2,-3.054326167E-3
2.308629620E0,2.382374369E-2,-1.954768784E-2,-3.665191587E-3
2.310613316E0,2.626720630E-2,-2.199114859E-2,-3.665191587E-3
2.312626858E0,2.443460934E-2,-2.260201424E-2,-3.054326167E-3
2.314640631E0,2.321287990E-2,-2.260201424E-2,-3.665191587E-3
2.316625943E0,2.260201424E-2,-2.565634064E-2,-3.665191587E-3
2.318641562E0,2.199114859E-2,-2.504547499E-2,-1.832595794E-3
2.320622180E0,2.138028294E-2,-2.932153270E-2,-3.665191587E-3
2.322637261E0,2.199114859E-2,-2.871066704E-2,-4.276056774E-3
2.324620727E0,2.076941915E-2,-3.176499158E-2,-3.054326167E-3
2.326634808E0,2.199114859E-2,-2.993239649E-2,-3.665191587E-3
2.328618888E0,2.015855350E-2,-3.054326214E-2,-4.276056774E-3
2.330632738E0,1.954768784E-2,-2.993239649E-2,-4.276056774E-3
2.332616050E0,1.771509275E-2,-3.359758854E-2,-3.054326167E-3
2.334631515E0,2.076941915E-2,-3.237585723E-2,-4.276056774E-3
2.336614518E0,2.138028294E-2,-3.359758854E-2,-2.443460980E-3
2.338629599E0,1.954768784E-2,-3.054326214E-2,-1.832595794E-3
2.340612449E0,2.015855350E-2,-3.115412779E-2,-1.832595794E-3
2.342626530E0,2.260201424E-2,-2.871066704E-2,-3.054326167E-3
2.344640995E0,2.076941915E-2,-2.565634064E-2,-3.665191587E-3
2.346623768E0,2.076941915E-2,-2.687807009E-2,-2.443460980E-3
2.348638310E0,2.076941915E-2,-2.443460934E-2,-4.886921961E-3
2.350622314E0,2.321287990E-2,-2.443460934E-2,-3.054326167E-3
2.352635471E0,2.443460934E-2,-2.321287990E-2,-2.443460980E-3
2.354619475E0,2.504547499E-2,-2.138028294E-2,-2.443460980E-3
2.356633325E0,2.504547499E-2,-1.954768784E-2,-1.832595794E-3
2.358618637E0,2.504547499E-2,-1.893682219E-2,-1.832595794E-3
2.360631871E0,2.260201424E-2,-1.649336144E-2,-2.443460980E-3
2.362615567E0,2.443460934E-2,-1.466076635E-2,-1.832595794E-3
2.364629725E0,2.504547499E-2,-1.343903504E-2,-3.665191587E-3
2.366612805E0,2.687807009E-2,-1.221730467E-2,-6.108652451E-4
2.368626886E0,2.687807009E-2,-1.099557430E-2,-1.832595794E-3
2.370641121E0,2.443460934E-2,-1.038470957E-2,-1.832595794E-3
2.372624817E0,2.748893574E-2,-1.038470957E-2,-1.221730490E-3
2.374640205E0,2.504547499E-2,-8.552113548E-3,-1.221730490E-3
2.376623824E0,2.504547499E-2,-7.330383174E-3,-2.443460980E-3
2.378638059E0,2.565634064E-2,-4.886921961E-3,1.221730490E-3
2.380621447E0,2.626720630E-2,-6.719517522E-3,6.108652451E-4
2.382635220E0,2.626720630E-2,-5.497787148E-3,-6.108652451E-4
2.384618916E0,2.443460934E-2,-4.886921961E-3,-6.108652451E-4
2.386632843E0,2.443460934E-2,-2.443460980E-3,6.108652451E-4
2.388616232E0,2.626720630E-2,-3.054326167E-3,-6.108652451E-4
2.390631004E0,2.504547499E-2,-5.497787148E-3,1.221730490E-3
2.392614085E0,2.382374369E-2,-5.497787148E-3,-2.443460980E-3
2.394628166E0,2.687807009E-2,-1.038470957E-2,-6.108652451E-4
2.396612554E0,2.504547499E-2,-9.773843922E-3,-6.108652451E-4
2.398627634E0,2.443460934E-2,-9.162978269E-3,1.221730490E-3
2.400608792E0,2.626720630E-2,-1.282817032E-2,-6.108652451E-4
2.402625181E0,2.687807009E-2,-1.527163107E-2,-1.832595794E-3
2.404637800E0,2.565634064E-2,-1.649336144E-2,-1.221730490E-3
2.406621726E0,2.443460934E-2,-2.076941915E-2,-2.443460980E-3
2.408635576E0,2.382374369E-2,-2.382374369E-2,-1.832595794E-3
2.410618427E0,2.687807009E-2,-2.687807009E-2,-3.665191587E-3
2.412633815E0,2.565634064E-2,-2.993239649E-2,-4.886921961E-3
2.414617741E0,2.260201424E-2,-3.359758854E-2,-4.276056774E-3
2.416632207E0,2.382374369E-2,-3.298672289E-2,-4.886921961E-3
2.418614980E0,2.199114859E-2,-3.726277873E-2,-4.276056774E-3
2.420629752E0,2.138028294E-2,-4.031710699E-2,-7.941247895E-3
2.422613218E0,2.199114859E-2,-4.092797264E-2,-7.941247895E-3
2.424626760E0,1.954768784E-2,-4.581489414E-2,-8.552113548E-3
2.426641149E0,2.138028294E-2,-4.764748737E-2,-9.162978269E-3
2.428624921E0,1.771509275E-2,-4.825835302E-2,-1.160643995E-2
2.430639310E0,1.221730467E-2,-5.070181563E-2,-9.773843922E-3
2.432623006E0,1.221730467E-2,-5.314527452E-2,-1.038470957E-2
2.434633164E0,8.552113548E-3,-5.436700583E-2,-1.099557430E-2
2.436619936E0,7.330383174E-3,-5.375614017E-2,-1.221730467E-2
2.438636248E0,6.719517522E-3,-5.375614017E-2,-1.282817032E-2
2.440618483E0,6.108652451E-4,-5.803219974E-2,-1.038470957E-2
2.442632256E0,-6.108652451E-4,-5.742133409E-2,-1.221730467E-2
2.444616259E0,-2.443460980E-3,-5.681046844E-2,-1.221730467E-2
2.446630801E0,-4.276056774E-3,-6.108652428E-2,-1.282817032E-2
2.448613575E0,-7.941247895E-3,-5.986479297E-2,-1.221730467E-2
2.450628348E0,-9.162978269E-3,-6.291911751E-2,-1.160643995E-2
2.452612043E0,-1.160643995E-2,-6.352998316E-2,-1.282817032E-2
2.454626509E0,-1.282817032E-2,-6.597344577E-2,-1.282817032E-2
2.456639667E0,-1.466076635E-2,-6.414084882E-2,-1.404990070E-2
2.458624286E0,-1.832595654E-2,-6.658431143E-2,-1.404990070E-2
2.460637597E0,-2.260201424E-2,-6.780604273E-2,-1.527163107E-2
2.462620985E0,-2.382374369E-2,-6.597344577E-2,-1.771509275E-2
2.464635758E0,-2.809980139E-2,-6.597344577E-2,-1.527163107E-2
2.466619069E0,-2.871066704E-2,-6.780604273E-2,-1.466076635E-2
2.468633535E0,-3.359758854E-2,-6.658431143E-2,-1.771509275E-2
2.470616693E0,-3.481931984E-2,-6.475171447E-2,-1.954768784E-2
2.472631466E0,-3.787364438E-2,-6.230825558E-2,-2.015855350E-2
2.474614161E0,-4.337143153E-2,-5.986479297E-2,-2.076941915E-2
2.476628088E0,-5.192354694E-2,-5.436700583E-2,-2.260201424E-2
2.478611477E0,-5.131268129E-2,-5.619960278E-2,-2.076941915E-2
2.480628404E0,-5.131268129E-2,-5.619960278E-2,-2.076941915E-2
2.482610484E0,-5.436700583E-2,-5.131268129E-2,-2.076941915E-2
2.484624642E0,-5.803219974E-2,-4.886921868E-2,-2.138028294E-2
2.486638876E0,-6.047565863E-2,-5.009094998E-2,-2.138028294E-2
2.488622496E0,-6.291911751E-2,-4.581489414E-2,-2.076941915E-2
2.490636114E0,-6.169738993E-2,-4.459316283E-2,-2.382374369E-2
2.492620349E0,-6.414084882E-2,-4.276056588E-2,-2.321287990E-2
2.494634891E0,-6.414084882E-2,-4.337143153E-2,-2.321287990E-2
2.496618203E0,-6.352998316E-2,-3.787364438E-2,-2.138028294E-2
2.498633360E0,-6.658431143E-2,-3.420845419E-2,-2.260201424E-2
2.500616749E0,-6.536258012E-2,-3.115412779E-2,-2.260201424E-2
2.502630291E0,-6.658431143E-2,-2.504547499E-2,-2.565634064E-2
2.504613910E0,-6.780604273E-2,-2.138028294E-2,-2.626720630E-2
2.506628760E0,-6.536258012E-2,-1.893682219E-2,-2.565634064E-2
2.508612071E0,-6.841690838E-2,-1.160643995E-2,-2.687807009E-2
2.510625922E0,-6.902777404E-2,-1.038470957E-2,-3.054326214E-2
2.512639849E0,-6.902777404E-2,-1.038470957E-2,-3.115412779E-2
2.514622621E0,-7.269296050E-2,-4.886921961E-3,-3.176499158E-2
2.516637086E0,-7.208210230E-2,1.221730490E-3,-3.115412779E-2
2.518622321E0,-7.269296050E-2,3.665191587E-3,-3.176499158E-2
2.520636094E0,-7.513642311E-2,8.552113548E-3,-3.359758854E-2
2.522619790E0,-7.330382615E-2,9.162978269E-3,-3.359758854E-2
2.524633332E0,-7.513642311E-2,1.343903504E-2,-3.176499158E-2
2.526616490E0,-7.574728876E-2,1.893682219E-2,-3.054326214E-2
2.528630878E0,-7.513642311E-2,2.076941915E-2,-2.687807009E-2
2.530614959E0,-7.819075137E-2,2.321287990E-2,-2.504547499E-2
2.532628809E0,-8.002334833E-2,2.626720630E-2,-2.138028294E-2
2.534613043E0,-8.124507964E-2,2.809980139E-2,-1.893682219E-2
2.536627200E0,-8.368854225E-2,3.054326214E-2,-1.466076635E-2
2.538641050E0,-8.368854225E-2,3.176499158E-2,-1.221730467E-2
2.540624747E0,-8.307767659E-2,3.420845419E-2,-9.773843922E-3
2.542638597E0,-8.246681094E-2,3.359758854E-2,-7.941247895E-3
2.544622369E0,-7.757988572E-2,3.298672289E-2,-4.886921961E-3
2.546636450E0,-8.063421398E-2,3.543018550E-2,-3.665191587E-3
2.548619916E0,-7.635815442E-2,3.543018550E-2,-4.886921961E-3
2.550634381E0,-7.696902007E-2,3.726277873E-2,-2.443460980E-3
2.552618000E0,-7.574728876E-2,3.543018550E-2,-5.497787148E-3
2.554631542E0,-7.330382615E-2,3.787364438E-2,-4.276056774E-3
2.556616777E0,-7.269296050E-2,3.848451003E-2,-6.108652335E-3
2.558631935E0,-6.902777404E-2,4.337143153E-2,-6.719517522E-3
2.560613092E0,-6.902777404E-2,4.459316283E-2,-1.038470957E-2
2.562627865E0,-6.841690838E-2,4.398229718E-2,-4.886921961E-3
2.564611330E0,-6.536258012E-2,4.703662544E-2,-7.941247895E-3
2.566626027E0,-6.291911751E-2,4.825835302E-2,-7.330383174E-3
2.568639876E0,-6.414084882E-2,4.703662544E-2,-9.162978269E-3
2.570623572E0,-6.414084882E-2,4.948008433E-2,-8.552113548E-3
2.572637730E0,-6.230825558E-2,4.825835302E-2,-1.160643995E-2
2.574622348E0,-6.291911751E-2,4.825835302E-2,-1.038470957E-2
2.576635352E0,-6.047565863E-2,4.459316283E-2,-1.038470957E-2
2.578619895E0,-5.742133409E-2,4.459316283E-2,-1.099557430E-2
2.580634053E0,-5.497787148E-2,4.459316283E-2,-9.162978269E-3
2.582617133E0,-5.375614017E-2,4.276056588E-2,-1.038470957E-2
2.584631367E0,-5.131268129E-2,4.337143153E-2,-9.773843922E-3
2.586614448E0,-4.825835302E-2,4.642575979E-2,-9.773843922E-3
2.588629222E0,-4.703662544E-2,4.886921868E-2,-9.773843922E-3
2.590612532E0,-4.398229718E-2,4.948008433E-2,-8.552113548E-3
2.592626152E0,-4.153883830E-2,5.375614017E-2,-6.719517522E-3
2.594637233E0,-3.787364438E-2,5.925392732E-2,-6.719517522E-3
2.596624237E0,-3.848451003E-2,5.742133409E-2,-6.719517522E-3
2.598640240E0,-3.359758854E-2,5.864306539E-2,-6.108652335E-3
2.600623013E0,-2.748893574E-2,5.619960278E-2,-6.108652335E-3
2.602636863E0,-2.809980139E-2,5.558873713E-2,-1.038470957E-2
2.604620021E0,-2.443460934E-2,5.131268129E-2,-1.282817032E-2
2.606634101E0,-2.260201424E-2,4.520402849E-2,-1.832595654E-2
2.608617797E0,-2.321287990E-2,4.092797264E-2,-2.138028294E-2
2.610631955E0,-2.443460934E-2,3.420845419E-2,-2.321287990E-2
2.612615036E0,-2.443460934E-2,2.687807009E-2,-2.871066704E-2
2.614631039E0,-2.321287990E-2,2.321287990E-2,-2.871066704E-2
2.616613197E0,-2.687807009E-2,2.015855350E-2,-3.237585723E-2
2.618627662E0,-2.504547499E-2,1.649336144E-2,-3.481931984E-2
2.620642512E0,-2.260201424E-2,1.099557430E-2,-3.726277873E-2
2.622625592E0,-2.443460934E-2,6.719517522E-3,-3.970624134E-2
2.624639058E0,-1.893682219E-2,7.330383174E-3,-4.031710699E-2
2.626623370E0,-1.710422710E-2,1.221730490E-3,-4.214970022E-2
2.628637527E0,-1.404990070E-2,3.665191587E-3,-4.398229718E-2
2.630621607E0,-1.282817032E-2,1.832595794E-3,-4.398229718E-2
2.632635688E0,-1.710422710E-2,3.665191587E-3,-4.703662544E-2
2.634619077E0,-1.771509275E-2,5.497787148E-3,-4.703662544E-2
2.636633849E0,-1.649336144E-2,5.497787148E-3,-4.276056588E-2
2.638618853E0,-1.527163107E-2,6.719517522E-3,-4.459316283E-2
2.640630242E0,-1.649336144E-2,7.941247895E-3,-4.459316283E-2
2.642614861E0,-1.588249579E-2,7.941247895E-3,-4.337143153E-2
2.644628633E0,-1.527163107E-2,5.497787148E-3,-4.459316283E-2
2.646612407E0,-1.404990070E-2,5.497787148E-3,-4.581489414E-2
2.648626180E0,-1.466076635E-2,6.108652335E-3,-4.398229718E-2
2.650641261E0,-1.466076635E-2,6.719517522E-3,-4.703662544E-2
2.652624110E0,-1.221730467E-2,3.665191587E-3,-4.520402849E-2
2.654639191E0,-1.404990070E-2,4.886921961E-3,-4.886921868E-2
2.656622195E0,-1.343903504E-2,6.719517522E-3,-4.825835302E-2
2.658636737E0,-1.038470957E-2,3.665191587E-3,-4.825835302E-2
2.660620740E0,-1.038470957E-2,4.886921961E-3,-5.070181563E-2
2.662634514E0,-8.552113548E-3,4.276056774E-3,-5.253441259E-2
2.664617979E0,-6.108652335E-3,5.497787148E-3,-5.375614017E-2
2.666631445E0,-3.665191587E-3,6.719517522E-3,-5.497787148E-2
2.668615217E0,-3.054326167E-3,5.497787148E-3,-5.497787148E-2
2.670629682E0,-6.108652451E-4,3.054326167E-3,-5.375614017E-2
2.672612763E0,-6.108652451E-4,4.276056774E-3,-5.375614017E-2
2.674623844E0,3.665191587E-3,2.443460980E-3,-5.314527452E-2
2.676641386E0,6.108652451E-4,3.054326167E-3,-5.314527452E-2
2.678626621E0,0.000000000E0,3.054326167E-3,-5.131268129E-2
2.680640394E0,2.443460980E-3,-1.832595794E-3,-5.192354694E-2
2.682623166E0,6.108652335E-3,-1.832595794E-3,-5.192354694E-2
2.684637093E0,5.497787148E-3,0.000000000E0,-5.436700583E-2
2.686621020E0,5.497787148E-3,-1.832595794E-3,-5.192354694E-2
2.688634870E0,5.497787148E-3,-6.108652451E-4,-5.131268129E-2
2.690618873E0,6.108652335E-3,1.221730490E-3,-5.009094998E-2
2.692632800E0,4.886921961E-3,6.108652451E-4,-4.948008433E-2
2.694616804E0,2.443460980E-3,1.221730490E-3,-5.192354694E-2
2.696630270E0,5.497787148E-3,3.665191587E-3,-5.192354694E-2
2.698614965E0,8.552113548E-3,4.276056774E-3,-5.314527452E-2
2.700628508E0,6.108652335E-3,4.886921961E-3,-5.558873713E-2
2.702611819E0,9.162978269E-3,2.443460980E-3,-5.375614017E-2
2.704625747E0,8.552113548E-3,5.497787148E-3,-5.558873713E-2
2.706640826E0,1.160643995E-2,1.221730490E-3,-5.681046844E-2
2.708624523E0,1.343903504E-2,-3.054326167E-3,-5.681046844E-2
2.710638296E0,1.588249579E-2,-4.276056774E-3,-6.108652428E-2
2.712621762E0,1.710422710E-2,-7.941247895E-3,-5.925392732E-2
2.714636149E0,1.771509275E-2,-1.160643995E-2,-6.108652428E-2
2.716619538E0,2.260201424E-2,-1.771509275E-2,-5.925392732E-2
2.718632234E0,2.565634064E-2,-1.893682219E-2,-6.169738993E-2
2.720618623E0,2.565634064E-2,-1.893682219E-2,-6.169738993E-2
2.722632549E0,2.626720630E-2,-2.138028294E-2,-5.925392732E-2
2.724615322E0,2.809980139E-2,-2.504547499E-2,-5.803219974E-2
2.726630095E0,2.626720630E-2,-2.565634064E-2,-5.803219974E-2
2.728612867E0,3.176499158E-2,-2.871066704E-2,-5.619960278E-2
2.730627948E0,3.420845419E-2,-3.298672289E-2,-5.558873713E-2
2.732611029E0,3.543018550E-2,-3.543018550E-2,-5.375614017E-2
2.734626033E0,3.848451003E-2,-3.909537569E-2,-5.497787148E-2
2.736639344E0,3.726277873E-2,-4.703662544E-2,-5.497787148E-2
2.738623348E0,3.909537569E-2,-5.070181563E-2,-5.497787148E-2
2.740638121E0,4.153883830E-2,-5.497787148E-2,-5.497787148E-2
2.742621125E0,4.214970022E-2,-6.230825558E-2,-5.253441259E-2
2.744634744E0,4.153883830E-2,-6.658431143E-2,-5.131268129E-2
2.746619055E0,4.398229718E-2,-7.391469181E-2,-5.375614017E-2
2.748631906E0,4.459316283E-2,-7.819075137E-2,-5.314527452E-2
2.750615986E0,4.153883830E-2,-8.491026610E-2,-4.948008433E-2
2.752630374E0,4.092797264E-2,-9.529497474E-2,-5.009094998E-2
2.754613840E0,3.848451003E-2,-9.834930301E-2,-5.009094998E-2
2.756627690E0,3.543018550E-2,-1.087340117E-1,-5.131268129E-2
2.758644617E0,3.298672289E-2,-1.178969890E-1,-5.070181563E-2
2.760626158E0,2.993239649E-2,-1.221730486E-1,-5.070181563E-2
2.762640855E0,2.809980139E-2,-1.295034289E-1,-5.070181563E-2
2.764623705E0,2.199114859E-2,-1.411098689E-1,-5.192354694E-2
2.766638093E0,1.954768784E-2,-1.478293836E-1,-5.497787148E-2
2.768621558E0,1.404990070E-2,-1.569923609E-1,-5.619960278E-2
2.770636254E0,7.941247895E-3,-1.643227488E-1,-6.169738993E-2
2.772619720E0,6.108652335E-3,-1.692096740E-1,-6.475171447E-2
2.774635339E0,-1.221730490E-3,-1.753183305E-1,-6.841690838E-2
2.776617573E0,-8.552113548E-3,-1.832595766E-1,-7.391469181E-2
2.778631962E0,-1.099557430E-2,-1.875356287E-1,-7.574728876E-2
2.780615735E0,-1.588249579E-2,-1.960877478E-1,-7.819075137E-2
2.782629816E0,-1.954768784E-2,-1.966986060E-1,-8.124507964E-2
2.784612665E0,-2.687807009E-2,-2.009746730E-1,-8.613199741E-2
2.786627669E0,-3.237585723E-2,-2.064724565E-1,-8.918632567E-2
2.788641596E0,-3.481931984E-2,-2.052507252E-1,-9.101892263E-2
2.790624907E0,-4.092797264E-2,-2.070833147E-1,-9.407325089E-2
2.792639141E0,-4.337143153E-2,-2.076941878E-1,-9.468411654E-2
2.794622838E0,-4.948008433E-2,-2.064724565E-1,-9.529497474E-2
2.796637303E0,-5.619960278E-2,-2.040289938E-1,-9.712757170E-2
2.798621306E0,-6.352998316E-2,-2.040289938E-1,-9.834930301E-2
2.800634541E0,-6.780604273E-2,-2.040289938E-1,-9.834930301E-2
2.802618237E0,-7.452555746E-2,-2.009746730E-1,-9.407325089E-2
2.804633318E0,-7.574728876E-2,-1.966986060E-1,-9.285151958E-2
2.806616398E0,-7.941248268E-2,-1.979203373E-1,-8.979719132E-2
2.808630787E0,-8.552113175E-2,-1.960877478E-1,-8.796459436E-2
2.810613868E0,-9.101892263E-2,-1.899790913E-1,-8.368854225E-2
2.812628026E0,-9.407325089E-2,-1.863138974E-1,-8.124507964E-2
2.814642567E0,-9.834930301E-2,-1.771509200E-1,-7.819075137E-2
2.816626571E0,-1.032362282E-1,-1.747074574E-1,-7.574728876E-2
2.818641575E0,-1.069014147E-1,-1.637118906E-1,-7.147123665E-2
2.820624348E0,-1.142318025E-1,-1.521054506E-1,-6.597344577E-2
2.822638813E0,-1.172861308E-1,-1.478293836E-1,-6.475171447E-2
2.824621894E0,-1.227839142E-1,-1.362229437E-1,-6.169738993E-2
2.826635821E0,-1.276708394E-1,-1.252273768E-1,-5.436700583E-2
2.828619133E0,-1.301143020E-1,-1.209513173E-1,-5.375614017E-2
2.830634213E0,-1.350012124E-1,-1.136209369E-1,-4.948008433E-2
2.832617294E0,-1.386664063E-1,-1.050688252E-1,-4.337143153E-2
2.834628067E0,-1.398881376E-1,-1.032362282E-1,-4.214970022E-2
2.836644686E0,-1.459967941E-1,-9.407325089E-2,-3.970624134E-2
2.838630843E0,-1.472185254E-1,-8.979719132E-2,-3.604105115E-2
2.840614001E0,-1.441642046E-1,-8.552113175E-2,-3.420845419E-2
2.842627543E0,-1.350012124E-1,-8.307767659E-2,-3.054326214E-2
2.844642008E0,-1.276708394E-1,-7.635815442E-2,-2.687807009E-2
2.846625012E0,-1.240056455E-1,-7.574728876E-2,-2.626720630E-2
2.848638554E0,-1.148426682E-1,-6.902777404E-2,-2.504547499E-2
2.850622635E0,-1.123992056E-1,-6.291911751E-2,-2.382374369E-2
2.852636484E0,-1.050688252E-1,-5.009094998E-2,-2.138028294E-2
2.854621027E0,-1.056796908E-1,-3.359758854E-2,-1.893682219E-2
2.856635262E0,-1.007927656E-1,-2.382374369E-2,-1.649336144E-2
2.858619266E0,-9.712757170E-2,-7.941247895E-3,-1.221730467E-2
2.860632499E0,-9.040805697E-2,2.443460980E-3,-1.221730467E-2
2.862616196E0,-9.040805697E-2,6.108652335E-3,-1.221730467E-2
2.864629969E0,-9.040805697E-2,1.038470957E-2,-1.160643995E-2
2.866614281E0,-9.040805697E-2,1.343903504E-2,-7.330383174E-3
2.868629438E0,-9.224065393E-2,1.221730467E-2,-5.497787148E-3
2.870611288E0,-9.773843735E-2,1.343903504E-2,-2.443460980E-3
2.872625676E0,-1.050688252E-1,1.710422710E-2,-6.108652451E-4
2.874639296E0,-1.093448773E-1,1.588249579E-2,-6.108652451E-4
2.876624529E0,-1.111774743E-1,1.832595654E-2,-1.221730490E-3
2.878639841E0,-1.117883399E-1,2.138028294E-2,-6.108652451E-4
2.880620461E0,-1.093448773E-1,2.199114859E-2,6.108652451E-4
2.882635311E0,-1.087340117E-1,2.199114859E-2,-1.832595794E-3
2.884618929E0,-1.069014147E-1,1.954768784E-2,-6.719517522E-3
2.886633164E0,-1.007927656E-1,1.588249579E-2,-1.038470957E-2
2.888616860E0,-9.346238524E-2,1.466076635E-2,-1.649336144E-2
2.890631632E0,-8.735372871E-2,1.893682219E-2,-1.527163107E-2
2.892615021E0,-7.819075137E-2,2.748893574E-2,-1.466076635E-2
2.894629794E0,-6.719517708E-2,4.276056588E-2,-1.160643995E-2
2.896612798E0,-6.414084882E-2,5.619960278E-2,-6.108652335E-3
2.898626724E0,-6.047565863E-2,8.368854225E-2,8.552113548E-3
2.900641421E0,-6.230825558E-2,1.197295859E-1,2.626720630E-2
2.902625194E0,-6.475171447E-2,1.368338168E-1,3.909537569E-2
2.904639352E0,-7.391469181E-2,1.759291887E-1,6.841690838E-2
2.906621816E0,-9.162978828E-2,2.064724565E-1,9.957103431E-2
2.908636513E0,-1.038470939E-1,2.107485086E-1,1.166752651E-1
2.910620594E0,-1.191187203E-1,2.504547536E-1,1.576032341E-1
2.912634751E0,-1.288925707E-1,2.840523422E-1,2.028072625E-1
2.914617216E0,-1.313360333E-1,2.981022298E-1,2.235766798E-1
2.916631297E0,-1.313360333E-1,3.170390725E-1,2.638937831E-1
2.918616609E0,-1.301143020E-1,3.243694305E-1,2.883284092E-1
2.920630766E0,-1.185078546E-1,3.298672438E-1,3.286454976E-1
2.922613769E0,-1.062905490E-1,3.445279896E-1,3.671300113E-1
2.924627927E0,-9.896016866E-2,3.475823104E-1,3.854559660E-1
2.926641239E0,-7.574728876E-2,3.433062732E-1,4.190535545E-1
2.928625551E0,-5.925392732E-2,3.420845270E-1,4.495968223E-1
2.930639708E0,-4.764748737E-2,3.414736688E-1,4.685336351E-1
2.932623942E0,-3.237585723E-2,3.488040566E-1,4.954117239E-1
2.934638177E0,-1.832595654E-2,3.622430861E-1,5.229006410E-1
2.936621566E0,-1.404990070E-2,3.714060783E-1,5.363397002E-1
2.938636569E0,0.000000000E0,3.952298164E-1,5.613851547E-1
2.940620650E0,1.404990070E-2,4.239404798E-1,5.894849896E-1
2.942633577E0,2.138028294E-2,4.379903674E-1,6.029239893E-1
2.944616887E0,3.909537569E-2,4.740314186E-1,6.310238242E-1
2.946630814E0,4.825835302E-2,4.899139404E-1,6.462954283E-1
2.948614434E0,6.536258012E-2,5.241223574E-1,6.762278080E-1
2.950628976E0,8.185594529E-2,5.546656251E-1,7.049384713E-1
2.952612595E0,8.918632567E-2,5.668829679E-1,7.214318514E-1
2.954626214E0,1.007927656E-1,5.870414972E-1,7.513642311E-1
2.956640680E0,1.020144969E-1,6.175847650E-1,8.112290502E-1
2.958623376E0,1.026253626E-1,6.224716902E-1,8.295549750E-1
2.960636610E0,1.026253626E-1,6.224716902E-1,8.295549750E-1
2.962622537E0,9.957103431E-2,6.359107494E-1,8.655960560E-1
2.964636387E0,1.032362282E-1,6.420193911E-1,8.814785480E-1
2.966619776E0,1.038470939E-1,6.579018831E-1,9.199630618E-1
2.968634471E0,1.075122803E-1,6.743952036E-1,9.627236128E-1
2.970618167E0,1.075122803E-1,6.792821288E-1,9.847147465E-1
2.972633248E0,1.111774743E-1,6.969972253E-1,1.031140566E0
2.974616406E0,1.166752651E-1,7.195992470E-1,1.077566266E0
2.976629947E0,1.209513173E-1,7.281513810E-1,1.103833556E0
2.978614875E0,1.276708394E-1,7.464773059E-1,1.152702689E0
2.980629032E0,1.313360333E-1,7.525860071E-1,1.180191636E0
2.982611806E0,1.337794960E-1,7.672467232E-1,1.230282545E0
2.984626501E0,1.392772794E-1,7.703011036E-1,1.279151797E0
2.986639736E0,1.411098689E-1,7.721336484E-1,1.301753879E0
2.988622817E0,1.417207420E-1,7.641924024E-1,1.342070937E0
2.990637667E0,1.398881376E-1,7.476990819E-1,1.379944563E0
2.992621285E0,1.386664063E-1,7.348709106E-1,1.391551018E0
2.994634289E0,1.392772794E-1,7.031059265E-1,1.415374756E0
2.996619755E0,1.386664063E-1,6.579018831E-1,1.433089852E0
2.998635142E0,1.356120855E-1,6.334672570E-1,1.439809442E0
3.000617993E0,1.356120855E-1,5.736024380E-1,1.447139740E0
3.002630843E0,1.307251602E-1,5.051855445E-1,1.448972344E0
3.004615231E0,1.307251602E-1,4.667010605E-1,1.447139740E0
3.006629388E0,1.264491081E-1,3.940080702E-1,1.441641927E0
3.008612469E0,1.246165112E-1,3.573561609E-1,1.437365890E0
3.010626550E0,1.166752651E-1,2.773328125E-1,1.423926830E0
3.012640785E0,1.130100712E-1,1.991420686E-1,1.414153099E0
3.014625942E0,1.093448773E-1,1.606575549E-1,1.404990077E0
3.016638330E0,9.896016866E-2,8.246681094E-2,1.392772794E0
3.018622642E0,8.979719132E-2,6.108652335E-3,1.380555511E0
3.020636492E0,8.429940045E-2,-3.359758854E-2,1.374446750E0
3.022620495E0,7.452555746E-2,-1.075122803E-1,1.362229466E0
3.024634038E0,6.719517708E-2,-1.826487035E-1,1.357953429E0
3.026617965E0,6.230825558E-2,-2.174680233E-1,1.353677392E0
3.028632738E0,5.070181563E-2,-2.852740586E-1,1.348790407E0
3.030616433E0,4.153883830E-2,-3.506366611E-1,1.345736146E0
3.032629976E0,3.543018550E-2,-3.799581826E-1,1.345736146E0
3.034612826E0,2.382374369E-2,-4.428772926E-1,1.348179579E0
3.036627907E0,1.221730467E-2,-5.027421117E-1,1.350623012E0
3.038643217E0,5.497787148E-3,-5.332853794E-1,1.353677392E0
3.040624760E0,-1.038470957E-2,-5.949827433E-1,1.360396862E0
3.042639918E0,-2.321287990E-2,-6.505714655E-1,1.367116451E0
3.044623844E0,-3.054326214E-2,-6.823364496E-1,1.372003317E0
3.046638002E0,-4.459316283E-2,-7.367035151E-1,1.380555511E0
3.048621160E0,-5.253441259E-2,-7.623597980E-1,1.389107585E0
3.050634933E0,-6.414084882E-2,-8.130616546E-1,1.397048831E0
3.052619551E0,-7.819075137E-2,-8.588765264E-1,1.409876943E0
3.054634017E0,-8.613199741E-2,-8.765916228E-1,1.415985584E0
3.056617405E0,-1.007927656E-1,-9.126327038E-1,1.423316002E0
3.058631948E0,-1.142318025E-1,-9.413433671E-1,1.435533285E0
3.060614105E0,-1.203404516E-1,-9.547823668E-1,1.440420270E0
3.062629724E0,-1.337794960E-1,-9.706648588E-1,1.450804949E0
3.064612882E0,-1.490511149E-1,-9.859365225E-1,1.459357023E0
3.066626655E0,-1.563815027E-1,-9.896016717E-1,1.465465665E0
3.068640889E0,-1.734857261E-1,-9.932668805E-1,1.472796082E0
3.070624508E0,-1.918116808E-1,-9.920451641E-1,1.481348276E0
3.072638435E0,-1.991420686E-1,-9.914342761E-1,1.485624313E0
3.074621439E0,-2.217440903E-1,-9.853256345E-1,1.494176388E0
3.076635289E0,-2.309070677E-1,-9.816604257E-1,1.499063253E0
3.078620908E0,-2.492330223E-1,-9.718865752E-1,1.505782843E0
3.080635604E0,-2.663372457E-1,-9.584475756E-1,1.516778350E0
3.082618070E0,-2.712241709E-1,-9.505063295E-1,1.519832730E0
3.084631919E0,-2.846632004E-1,-9.315695167E-1,1.530828357E0
3.086614692E0,-2.968805134E-1,-9.059131742E-1,1.541213036E0
3.088629850E0,-3.017674387E-1,-8.936958313E-1,1.544267297E0
3.090612930E0,-3.109304011E-1,-8.655960560E-1,1.555262923E0
3.092627396E0,-3.176499307E-1,-8.338310719E-1,1.566258430E0
3.094643630E0,-3.213151097E-1,-8.167268038E-1,1.571756244E0
3.096625557E0,-3.286454976E-1,-7.819074988E-1,1.585806131E0
3.098640638E0,-3.347541690E-1,-7.489207983E-1,1.591914773E0
3.100623026E0,-3.390302062E-1,-7.312057018E-1,1.601688623E0
3.102636953E0,-3.445279896E-1,-6.927211881E-1,1.611462474E0
3.104621265E0,-3.433062732E-1,-6.591235995E-1,1.621236324E0
3.106635114E0,-3.433062732E-1,-6.456845403E-1,1.625512362E0
3.108619118E0,-3.488040566E-1,-6.194173694E-1,1.631621122E0
3.110633276E0,-3.536909819E-1,-6.084218025E-1,1.638340592E0
3.112616587E0,-3.714060783E-1,-5.839871764E-1,1.651168704E0
3.114631052E0,-3.885102868E-1,-5.583308339E-1,1.668883801E0
3.116615056E0,-3.927863538E-1,-5.467243791E-1,1.673770785E0
3.118629829E0,-3.952298164E-1,-5.216789246E-1,1.692096710E0
3.120612064E0,-3.958406746E-1,-4.941899776E-1,1.708590150E0
3.122626452E0,-3.940080702E-1,-4.825835526E-1,1.715920448E0
3.124640609E0,-3.897320330E-1,-4.544837475E-1,1.726305127E0
3.126624613E0,-3.860668242E-1,-4.349360466E-1,1.730581284E0
3.128638771E0,-3.842342496E-1,-4.251621962E-1,1.730581284E0
3.130621620E0,-3.817907870E-1,-4.031710625E-1,1.729359508E0
3.132636317E0,-3.799581826E-1,-3.866777122E-1,1.722640038E0
3.134620705E0,-3.787364662E-1,-3.854559660E-1,1.715920448E0
3.136633940E0,-3.744603992E-1,-3.805690408E-1,1.701259732E0
3.138618789E0,-3.695734739E-1,-3.866777122E-1,1.684155464E0
3.140632101E0,-3.659082949E-1,-3.903428912E-1,1.674381614E0
3.142615797E0,-3.634648323E-1,-3.964515328E-1,1.656666517E0
3.144629032E0,-3.634648323E-1,-3.988949955E-1,1.648725271E0
3.146613343E0,-3.610213697E-1,-3.970624208E-1,1.627955914E0
3.148627731E0,-3.518583775E-1,-3.927863538E-1,1.605964780E0
3.150641658E0,-3.433062732E-1,-3.891211748E-1,1.593136549E0
3.152624969E0,-3.200933933E-1,-3.762930036E-1,1.563814998E0
3.154636435E0,-3.023782969E-1,-3.622430861E-1,1.529606581E0
3.156622593E0,-2.901609838E-1,-3.524692357E-1,1.509448051E0
3.158638827E0,-2.755002379E-1,-3.347541690E-1,1.470963478E0
3.160621292E0,-2.700024247E-1,-3.103195429E-1,1.426370382E0
3.162635527E0,-2.687807083E-1,-2.999348342E-1,1.406211853E0
3.164619146E0,-2.706133127E-1,-2.718350291E-1,1.357342601E0
3.166632765E0,-2.669481039E-1,-2.412917763E-1,1.309695125E0
3.168616153E0,-2.632829249E-1,-2.247984111E-1,1.289536476E0
3.170630619E0,-2.474004179E-1,-1.844813079E-1,1.241889000E0
3.172614315E0,-2.290744632E-1,-1.374446750E-1,1.193019867E0
3.174629011E0,-2.193006277E-1,-1.050688252E-1,1.166141748E0
3.176612399E0,-1.997529417E-1,-3.970624134E-2,1.123381138E0
3.178627864E0,-1.869247705E-1,-3.665191587E-3,1.100168347E0
3.180640407E0,-1.753183305E-1,7.635815442E-2,1.053131700E0
3.182624180E0,-1.740965992E-1,1.594358236E-1,1.008538485E0
3.184638337E0,-1.747074574E-1,1.997529417E-1,9.889908433E-1
3.186622264E0,-1.771509200E-1,2.846632004E-1,9.535606503E-1
3.188636422E0,-1.753183305E-1,3.720169365E-1,9.242390990E-1
3.190619580E0,-1.704314053E-1,4.147774875E-1,9.138544202E-1
3.192633737E0,-1.551597714E-1,5.021312237E-1,8.930850029E-1
3.194617741E0,-1.337794960E-1,5.858197808E-1,8.888089061E-1
3.196631206E0,-1.014036313E-1,7.031059265E-1,8.863654733E-1
3.198613978E0,-8.857546002E-2,7.342600226E-1,8.857545853E-1
3.200630675E0,-8.185594529E-2,7.660250068E-1,8.869763613E-1
3.202613448E0,-7.391469181E-2,7.965682745E-1,8.888089061E-1
3.204626990E0,-6.414084882E-2,8.472700715E-1,8.949176073E-1
3.206641147E0,-5.619960278E-2,8.930850029E-1,9.004153609E-1
3.208624844E0,-5.314527452E-2,9.095783234E-1,9.016370773E-1
3.210638924E0,-4.642575979E-2,9.401215911E-1,9.016370773E-1
3.212622082E0,-4.459316283E-2,9.553932548E-1,9.022479653E-1
3.214637470E0,-3.726277873E-2,9.761626720E-1,9.004153609E-1
3.216620243E0,-3.115412779E-2,9.908234477E-1,8.949176073E-1
3.218635016E0,-2.626720630E-2,9.957103729E-1,8.906415105E-1
3.220618636E0,-2.199114859E-2,9.999864101E-1,8.827002645E-1
3.222632870E0,-1.649336144E-2,1.006095052E0,8.710938692E-1
3.224616797E0,-1.527163107E-2,1.005484223E0,8.631525636E-1
3.226630416E0,-1.038470957E-2,1.006705880E0,8.533787727E-1
3.228614728E0,-4.886921961E-3,1.001819015E0,8.442157507E-1
3.230628577E0,-1.832595794E-3,9.975429177E-1,8.417723179E-1
3.232611889E0,6.108652335E-3,9.926560521E-1,8.387179971E-1
3.234625431E0,1.038470957E-2,9.816604257E-1,8.393288255E-1
3.236640512E0,1.160643995E-2,9.731083512E-1,8.442157507E-1
3.238625515E0,1.160643995E-2,9.596692920E-1,8.497135639E-1
3.240638750E0,1.160643995E-2,9.511171579E-1,8.527678847E-1
3.242622061E0,9.773843922E-3,9.376781583E-1,8.625417352E-1
3.244635989E0,7.330383174E-3,9.187413454E-1,8.723155856E-1
3.246619684E0,3.665191587E-3,9.071348906E-1,8.772025108E-1
3.248634380E0,-2.443460980E-3,8.888089061E-1,8.881980777E-1
3.250616923E0,-1.099557430E-2,8.643743396E-1,8.979719281E-1
3.252631696E0,-1.649336144E-2,8.527678847E-1,9.034696817E-1
3.254615391E0,-2.626720630E-2,8.307767510E-1,9.120218158E-1
3.256628857E0,-3.665191308E-2,8.045095205E-1,9.211847782E-1
3.258614092E0,-4.031710699E-2,7.904596329E-1,9.260717034E-1
3.260627402E0,-4.825835302E-2,7.635815740E-1,9.321803451E-1
3.262641560E0,-5.803219974E-2,7.397578359E-1,9.370672703E-1
3.264625256E0,-6.047565863E-2,7.275404930E-1,9.358455539E-1
3.266639645E0,-7.086037099E-2,7.031059265E-1,9.376781583E-1
3.268622417E0,-7.880161703E-2,6.786713004E-1,9.364564419E-1
3.270637498E0,-8.063421398E-2,6.676757336E-1,9.334021211E-1
3.272620656E0,-8.735372871E-2,6.444628239E-1,9.291260242E-1
3.274633891E0,-9.101892263E-2,6.365215778E-1,9.279043078E-1
3.276619125E0,-9.773843735E-2,6.157521605E-1,9.242390990E-1
3.278634513E0,-1.020144969E-1,5.974262357E-1,9.205739498E-1
3.280615671E0,-1.062905490E-1,5.870414972E-1,9.181304574E-1
3.282630521E0,-1.142318025E-1,5.723807216E-1,9.181304574E-1
3.284613601E0,-1.172861308E-1,5.564982295E-1,9.162978530E-1
3.286628374E0,-1.215621829E-1,5.516113043E-1,9.144652486E-1
3.288642455E0,-1.246165112E-1,5.424483418E-1,9.162978530E-1
3.290625921E0,-1.270599663E-1,5.338962078E-1,9.156870246E-1
3.292640308E0,-1.295034289E-1,5.271766782E-1,9.175195694E-1
3.294624620E0,-1.319468915E-1,5.210680366E-1,9.187413454E-1
3.296637624E0,-1.319468915E-1,5.143485069E-1,9.224064946E-1
3.298621936E0,-1.350012124E-1,5.131267905E-1,9.242390990E-1
3.300636323E0,-1.429424733E-1,5.070181489E-1,9.236282706E-1
3.302619097E0,-1.496619880E-1,5.033529401E-1,9.254608750E-1
3.304633255E0,-1.545489132E-1,5.021312237E-1,9.279043078E-1
3.306617642E0,-1.655444801E-1,4.996877611E-1,9.303477407E-1
3.308630569E0,-1.722639948E-1,4.984660447E-1,9.279043078E-1
3.310615727E0,-1.844813079E-1,4.966334403E-1,9.272934198E-1
3.312628731E0,-2.046398520E-1,4.954117239E-1,9.303477407E-1
3.314640350E0,-2.119702399E-1,4.966334403E-1,9.291260242E-1
3.316625892E0,-2.357939780E-1,4.966334403E-1,9.315695167E-1
3.318641665E0,-2.596177161E-1,4.923573732E-1,9.321803451E-1
3.320625285E0,-2.681698501E-1,4.886921942E-1,9.315695167E-1
3.322639749E0,-2.950479090E-1,4.844161272E-1,9.327912331E-1
3.324621984E0,-3.194825351E-1,4.795292318E-1,9.370672703E-1
3.326636680E0,-3.353650272E-1,4.770857692E-1,9.382890463E-1
3.328620684E0,-3.597996235E-1,4.703662395E-1,9.443976879E-1
3.330634226E0,-3.824016452E-1,4.630358517E-1,9.517280459E-1
3.332618845E0,-3.952298164E-1,4.624249935E-1,9.560040832E-1
3.334632464E0,-4.166100919E-1,4.544837475E-1,9.651671052E-1
3.336616084E0,-4.269948006E-1,4.532620013E-1,9.682214260E-1
3.338631471E0,-4.471533597E-1,4.416555762E-1,9.792169929E-1
3.340614014E0,-4.648684561E-1,4.337143302E-1,9.883799553E-1
3.342627556E0,-4.728097022E-1,4.269948006E-1,9.950994849E-1
3.344642560E0,-4.917465150E-1,4.098905921E-1,1.007316828E0
3.346625948E0,-5.045747161E-1,3.909537494E-1,1.014647126E0
3.348639567E0,-5.125159621E-1,3.793473244E-1,1.020755768E0
3.350623264E0,-5.271766782E-1,3.512475193E-1,1.030529618E0
3.352637729E0,-5.387831330E-1,3.170390725E-1,1.032362223E0
3.354621348E0,-5.430592299E-1,2.968805134E-1,1.034805775E0
3.356636736E0,-5.510004759E-1,2.528982162E-1,1.036027431E0
3.358621433E0,-5.583308339E-1,2.070833147E-1,1.034805775E0
3.360632513E0,-5.626068711E-1,1.783726513E-1,1.031140566E0
3.362618055E0,-5.668829679E-1,1.240056455E-1,1.023810148E0
3.364631213E0,-5.681046844E-1,6.963863969E-2,1.015868902E0
3.366614986E0,-5.674937963E-1,3.787364438E-2,1.006705880E0
3.368628835E0,-5.674937963E-1,-2.260201424E-2,9.950994849E-1
3.370613455E0,-5.668829679E-1,-5.436700583E-2,9.822713137E-1
3.372627228E0,-5.619960427E-1,-1.123992056E-1,9.645562172E-1
3.374641155E0,-5.558874011E-1,-1.679879427E-1,9.450085163E-1
3.376624773E0,-5.528330207E-1,-1.960877478E-1,9.327912331E-1
3.378640239E0,-5.485569835E-1,-2.510656118E-1,9.089674950E-1
3.380623012E0,-5.400048494E-1,-2.999348342E-1,8.833111525E-1
3.382636862E0,-5.351179838E-1,-3.219259977E-1,8.698720932E-1
3.384621096E0,-5.265658498E-1,-3.652974069E-1,8.466592431E-1
3.386634408E0,-5.155702829E-1,-4.062253833E-1,8.228355050E-1
3.388618104E0,-5.106833577E-1,-4.245513380E-1,8.118399382E-1
3.390632877E0,-5.015203953E-1,-4.526511431E-1,7.880161405E-1
3.392615880E0,-4.917465150E-1,-4.807509482E-1,7.678576112E-1
3.394626654E0,-4.838052690E-1,-4.923573732E-1,7.586946487E-1
3.396644504E0,-4.770857692E-1,-5.100724697E-1,7.409795523E-1
3.398629815E0,-4.667010605E-1,-5.241223574E-1,7.275404930E-1
3.400610972E0,-4.636467099E-1,-5.253441334E-1,7.183775306E-1
3.402625438E0,-4.532620013E-1,-5.302310586E-1,7.079927921E-1
3.404639980E0,-4.502076805E-1,-5.314527750E-1,7.055493593E-1
3.406623907E0,-4.422664344E-1,-5.277875662E-1,6.969972253E-1
3.408638449E0,-4.349360466E-1,-5.192354321E-1,6.939429045E-1
3.410621145E0,-4.306600094E-1,-5.100724697E-1,6.908885837E-1
3.412635303E0,-4.263839424E-1,-4.966334403E-1,6.890559793E-1
3.414619306E0,-4.202753007E-1,-4.801400900E-1,6.872233748E-1
3.416633772E0,-4.172209501E-1,-4.679227769E-1,6.878342628E-1
3.418617776E0,-4.117231667E-1,-4.465425014E-1,6.884451509E-1
3.420631395E0,-4.123340547E-1,-4.245513380E-1,6.884451509E-1
3.422615013E0,-4.105014503E-1,-4.147774875E-1,6.890559793E-1
3.424628863E0,-4.117231667E-1,-3.897320330E-1,6.890559793E-1
3.426642483E0,-4.147774875E-1,-3.671300113E-1,6.902777553E-1
3.428626718E0,-4.172209501E-1,-3.530801237E-1,6.921103001E-1
3.430641490E0,-4.208861589E-1,-3.304781020E-1,6.939429045E-1
3.432624648E0,-4.263839424E-1,-3.078760803E-1,6.927211881E-1
3.434638498E0,-4.306600094E-1,-2.956587672E-1,6.951646209E-1
3.436621886E0,-4.471533597E-1,-2.486221492E-1,6.908885837E-1
3.438634736E0,-4.471533597E-1,-2.486221492E-1,6.908885837E-1
3.440620586E0,-4.526511431E-1,-2.431243658E-1,6.908885837E-1
3.442633821E0,-4.612032473E-1,-2.254092693E-1,6.878342628E-1
3.444618209E0,-4.667010605E-1,-2.180788964E-1,6.841690540E-1
3.446631981E0,-4.764748812E-1,-1.991420686E-1,6.811147332E-1
3.448615755E0,-4.831944108E-1,-1.808161139E-1,6.750060916E-1
3.450629528E0,-4.880813360E-1,-1.722639948E-1,6.725626588E-1
3.452613609E0,-4.954117239E-1,-1.514945775E-1,6.670648456E-1
3.454628996E0,-4.984660447E-1,-1.325577646E-1,6.572909951E-1
3.456642154E0,-5.015203953E-1,-1.221730486E-1,6.530149579E-1
3.458626158E0,-5.027421117E-1,-1.044579595E-1,6.407976151E-1
3.460640393E0,-5.021312237E-1,-9.040805697E-2,6.285803318E-1
3.462623396E0,-5.027421117E-1,-8.796459436E-2,6.236934066E-1
3.464636939E0,-4.984660447E-1,-8.429940045E-2,6.078109145E-1
3.466620943E0,-4.966334403E-1,-9.224065393E-2,6.004805565E-1
3.468635407E0,-4.899139404E-1,-9.529497474E-2,5.876523852E-1
3.470619103E0,-4.831944108E-1,-1.087340117E-1,5.729916096E-1
3.472633338E0,-4.758640230E-1,-1.172861308E-1,5.656611919E-1
3.474615727E0,-4.660901725E-1,-1.380555481E-1,5.510004759E-1
3.476630499E0,-4.508185387E-1,-1.631010175E-1,5.375614166E-1
3.478615195E0,-4.422664344E-1,-1.759291887E-1,5.332853794E-1
3.480628969E0,-4.233296216E-1,-2.021963894E-1,5.229006410E-1
3.482643434E0,-4.050036669E-1,-2.284636050E-1,5.112941861E-1
3.484626591E0,-3.946189582E-1,-2.400700450E-1,5.082398653E-1
3.486640980E0,-3.726277947E-1,-2.663372457E-1,4.984660447E-1
3.488624061E0,-3.530801237E-1,-2.901609838E-1,4.899139404E-1
3.490638526E0,-3.445279896E-1,-3.011565804E-1,4.868595898E-1
3.492621375E0,-3.225368559E-1,-3.207042515E-1,4.764748812E-1
3.494636995E0,-2.987131178E-1,-3.439171314E-1,4.673119187E-1
3.496620076E0,-2.858849466E-1,-3.579670191E-1,4.642575979E-1
3.498635772E0,-2.687807083E-1,-3.769038618E-1,4.544837475E-1
3.500618621E0,-2.528982162E-1,-3.891211748E-1,4.495968223E-1
3.502632087E0,-2.327396572E-1,-4.153883755E-1,4.373795092E-1
3.504615860E0,-2.076941878E-1,-4.373795092E-1,4.239404798E-1
3.506630556E0,-1.966986060E-1,-4.489859641E-1,4.196644127E-1
3.508614021E0,-1.759291887E-1,-4.819726646E-1,4.037819207E-1
3.510627871E0,-1.588249654E-1,-5.143485069E-1,3.854559660E-1
3.512642029E0,-1.490511149E-1,-5.296201706E-1,3.775147200E-1
3.514625339E0,-1.343903542E-1,-5.571091175E-1,3.585779071E-1
3.516639882E0,-1.209513173E-1,-5.876523852E-1,3.371976018E-1
3.518624501E0,-1.160643995E-1,-6.035348773E-1,3.280346394E-1
3.520636813E0,-1.062905490E-1,-6.236934066E-1,3.042109013E-1
3.522621662E0,-9.590584040E-2,-6.414085031E-1,2.846632004E-1
3.524635589E0,-9.407325089E-2,-6.524040699E-1,2.712241709E-1
3.526619593E0,-8.552113175E-2,-6.615670323E-1,2.504547536E-1
3.528632136E0,-7.635815442E-2,-6.676757336E-1,2.290744632E-1
3.530616139E0,-7.330382615E-2,-6.725626588E-1,2.180788964E-1
3.532630373E0,-6.963863969E-2,-6.768386960E-1,1.960877478E-1
3.534615224E0,-6.719517708E-2,-6.798930168E-1,1.863138974E-1
3.536628843E0,-5.986479297E-2,-6.756169796E-1,1.649336219E-1
3.538644231E0,-5.619960278E-2,-6.695083380E-1,1.466076523E-1
3.540627004E0,-5.436700583E-2,-6.670648456E-1,1.392772794E-1
3.542641162E0,-5.192354694E-2,-6.615670323E-1,1.227839142E-1
3.544624473E0,-4.886921868E-2,-6.554583907E-1,1.075122803E-1
3.546637784E0,-4.764748737E-2,-6.511823535E-1,1.020144969E-1
3.548621480E0,-4.764748737E-2,-6.438519955E-1,8.674286306E-2
3.550635869E0,-4.276056588E-2,-6.316346526E-1,7.452555746E-2
3.552620181E0,-4.031710699E-2,-6.267477274E-1,6.963863969E-2
3.554630645E0,-3.543018550E-2,-6.102544069E-1,5.619960278E-2
3.556617188E0,-3.604105115E-2,-5.900958180E-1,4.825835302E-2
3.558632269E0,-3.298672289E-2,-5.778785348E-1,4.214970022E-2
3.560616196E0,-2.809980139E-2,-5.461135507E-1,3.298672289E-2
3.562630660E0,-2.748893574E-2,-5.125159621E-1,2.565634064E-2
3.564612587E0,-2.687807009E-2,-4.911356568E-1,2.076941915E-2
3.566627591E0,-2.809980139E-2,-4.520402849E-1,1.282817032E-2
3.568641518E0,-2.748893574E-2,-4.294382632E-1,1.282817032E-2
3.570625444E0,-2.748893574E-2,-3.842342496E-1,6.719517522E-3
3.572639295E0,-2.748893574E-2,-3.341432810E-1,0.000000000E0
3.574623991E0,-2.687807009E-2,-3.109304011E-1,-1.221730490E-3
3.576637456E0,-2.871066704E-2,-2.614503205E-1,-6.108652335E-3
3.578621229E0,-3.054326214E-2,-2.131919712E-1,-7.941247895E-3
3.580635310E0,-3.176499158E-2,-1.893682331E-1,-9.162978269E-3
3.582618698E0,-3.543018550E-2,-1.429424733E-1,-1.588249579E-2
3.584633471E0,-3.787364438E-2,-9.285151958E-2,-1.649336144E-2
3.586616013E0,-3.970624134E-2,-6.658431143E-2,-1.771509275E-2
3.588630709E0,-4.214970022E-2,-1.832595654E-2,-2.015855350E-2
3.590614713E0,-4.642575979E-2,3.237585723E-2,-1.954768784E-2
3.592628870E0,-4.642575979E-2,5.558873713E-2,-2.015855350E-2
3.594642105E0,-5.314527452E-2,1.081231460E-1,-2.076941915E-2
3.596627109E0,-5.742133409E-2,1.551597714E-1,-1.832595654E-2
3.598641882E0,-5.986479297E-2,1.808161139E-1,-1.588249579E-2
3.600624039E0,-6.597344577E-2,2.254092693E-1,-1.588249579E-2
3.602638812E0,-6.719517708E-2,2.480112910E-1,-1.404990070E-2
3.604621816E0,-7.452555746E-2,2.852740586E-1,-1.221730467E-2
3.606636359E0,-7.819075137E-2,3.188716471E-1,-7.941247895E-3
3.608619131E0,-8.124507964E-2,3.274237812E-1,-7.330383174E-3
3.610633827E0,-8.429940045E-2,3.500257730E-1,-2.443460980E-3
3.612616985E0,-8.613199741E-2,3.665191531E-1,6.108652451E-4
3.614632066E0,-8.613199741E-2,3.726277947E-1,0.000000000E0
3.616616377E0,-8.735372871E-2,3.830125034E-1,5.497787148E-3
3.618630458E0,-8.796459436E-2,3.872885704E-1,4.886921961E-3
3.620613923E0,-8.552113175E-2,3.885102868E-1,5.497787148E-3
3.622627695E0,-8.429940045E-2,3.915646076E-1,1.832595794E-3
3.624641930E0,-8.063421398E-2,3.891211748E-1,3.054326167E-3
3.626624627E0,-7.819075137E-2,3.866777122E-1,1.832595794E-3
3.628639169E0,-7.513642311E-2,3.842342496E-1,-2.443460980E-3
3.630623403E0,-7.024950534E-2,3.799581826E-1,-3.054326167E-3
3.632637022E0,-6.475171447E-2,3.775147200E-1,-6.108652335E-3
3.634620334E0,-5.619960278E-2,3.720169365E-1,-7.330383174E-3
3.636635107E0,-5.192354694E-2,3.707951903E-1,-9.773843922E-3
3.638619495E0,-4.276056588E-2,3.652974069E-1,-1.221730467E-2
3.640633037E0,-3.420845419E-2,3.591887653E-1,-1.466076635E-2
3.642616041E0,-3.237585723E-2,3.573561609E-1,-1.893682219E-2
3.644630584E0,-2.260201424E-2,3.469714522E-1,-1.893682219E-2
3.646613894E0,-1.404990070E-2,3.384193480E-1,-2.138028294E-2
3.648628129E0,-1.221730467E-2,3.359758854E-1,-2.321287990E-2
3.650642595E0,-6.108652335E-3,3.274237812E-1,-2.687807009E-2
3.652626599E0,0.000000000E0,3.170390725E-1,-2.809980139E-2
3.654641063E0,3.054326167E-3,3.115412891E-1,-2.809980139E-2
3.656623836E0,6.719517522E-3,3.017674387E-1,-3.054326214E-2
3.658639764E0,1.038470957E-2,2.919935882E-1,-3.115412779E-2
3.660621691E0,1.466076635E-2,2.828305960E-1,-3.237585723E-2
3.662635847E0,1.893682219E-2,2.736676335E-1,-3.665191308E-2
3.664619851E0,1.954768784E-2,2.693915665E-1,-3.909537569E-2
3.666633702E0,2.138028294E-2,2.547308207E-1,-3.848451003E-2
3.668617705E0,2.443460934E-2,2.431243658E-1,-4.459316283E-2
3.670632093E0,2.504547499E-2,2.382374406E-1,-4.337143153E-2
3.672615251E0,2.565634064E-2,2.272418737E-1,-4.825835302E-2
3.674628717E0,2.504547499E-2,2.131919712E-1,-5.436700583E-2
3.676643258E0,2.748893574E-2,1.850921661E-1,-6.475171447E-2
3.678625724E0,2.748893574E-2,1.765400618E-1,-6.658431143E-2
3.680641343E0,2.626720630E-2,1.679879427E-1,-6.963863969E-2
3.682624809E0,2.748893574E-2,1.594358236E-1,-7.024950534E-2
3.684638581E0,2.993239649E-2,1.453859210E-1,-7.452555746E-2
3.686622662E0,3.054326214E-2,1.380555481E-1,-7.452555746E-2
3.688637050E0,2.932153270E-2,1.362229437E-1,-7.819075137E-2
3.690620208E0,3.115412779E-2,1.313360333E-1,-7.819075137E-2
3.692634365E0,3.115412779E-2,1.313360333E-1,-7.574728876E-2
3.694619215E0,3.237585723E-2,1.307251602E-1,-7.513642311E-2
3.696633450E0,2.932153270E-2,1.282816976E-1,-7.147123665E-2
3.698616762E0,3.115412779E-2,1.264491081E-1,-7.024950534E-2
3.700630072E0,2.932153270E-2,1.203404516E-1,-6.536258012E-2
3.702614307E0,2.932153270E-2,1.111774743E-1,-6.230825558E-2
3.704627850E0,2.809980139E-2,1.062905490E-1,-6.230825558E-2
3.706642700E0,2.687807009E-2,8.918632567E-2,-5.497787148E-2
3.708626318E0,2.932153270E-2,6.780604273E-2,-5.253441259E-2
3.710640168E0,2.809980139E-2,6.108652428E-2,-5.131268129E-2
3.712623326E0,2.871066704E-2,4.031710699E-2,-4.948008433E-2
3.714637407E0,3.115412779E-2,2.321287990E-2,-4.886921868E-2
3.716622102E0,3.176499158E-2,1.404990070E-2,-4.703662544E-2
3.718637106E0,3.481931984E-2,-6.108652335E-3,-4.459316283E-2
3.720619649E0,3.604105115E-2,-2.138028294E-2,-4.337143153E-2
3.722633499E0,3.970624134E-2,-3.176499158E-2,-4.153883830E-2
3.724617810E0,3.909537569E-2,-4.642575979E-2,-3.970624134E-2
3.726631352E0,4.031710699E-2,-6.108652428E-2,-4.092797264E-2
3.728615279E0,4.337143153E-2,-6.597344577E-2,-4.398229718E-2
3.730629513E0,4.581489414E-2,-8.124507964E-2,-4.520402849E-2
3.732642979E0,4.703662544E-2,-8.674286306E-2,-4.642575979E-2
3.734627983E0,5.009094998E-2,-1.001819000E-1,-5.009094998E-2
3.736641217E0,5.253441259E-2,-1.081231460E-1,-5.131268129E-2
3.738625759E0,5.375614017E-2,-1.136209369E-1,-5.314527452E-2
3.740639994E0,5.497787148E-2,-1.197295859E-1,-5.803219974E-2
3.742622690E0,5.742133409E-2,-1.209513173E-1,-6.169738993E-2
3.744636848E0,5.803219974E-2,-1.227839142E-1,-6.291911751E-2
3.746620543E0,5.925392732E-2,-1.252273768E-1,-6.780604273E-2
3.748634393E0,5.925392732E-2,-1.246165112E-1,-7.208210230E-2
3.750618397E0,6.047565863E-2,-1.221730486E-1,-7.086037099E-2
3.752632247E0,5.742133409E-2,-1.215621829E-1,-7.330382615E-2
3.754615404E0,5.681046844E-2,-1.185078546E-1,-7.635815442E-2
3.756630408E0,5.436700583E-2,-1.172861308E-1,-7.696902007E-2
3.758615412E0,5.131268129E-2,-1.142318025E-1,-8.063421398E-2
3.760627647E0,4.642575979E-2,-1.130100712E-1,-7.880161703E-2
3.762643112E0,4.398229718E-2,-1.136209369E-1,-7.819075137E-2
3.764625577E0,3.909537569E-2,-1.069014147E-1,-7.696902007E-2
3.766640274E0,3.543018550E-2,-1.056796908E-1,-7.696902007E-2
3.768624047E0,2.565634064E-2,-1.020144969E-1,-7.635815442E-2
3.770637281E0,1.466076635E-2,-9.529497474E-2,-7.269296050E-2
3.772621592E0,1.343903504E-2,-9.346238524E-2,-7.269296050E-2
3.774636365E0,3.665191587E-3,-8.857546002E-2,-6.902777404E-2
3.776618830E0,-1.832595794E-3,-8.429940045E-2,-6.414084882E-2
3.778634219E0,-6.108652335E-3,-8.307767659E-2,-6.475171447E-2
3.780618146E0,-1.221730467E-2,-8.002334833E-2,-5.986479297E-2
3.782630842E0,-1.710422710E-2,-7.941248268E-2,-5.619960278E-2
3.784614845E0,-1.893682219E-2,-8.063421398E-2,-5.619960278E-2
3.786629311E0,-1.954768784E-2,-8.368854225E-2,-5.253441259E-2
3.788643084E0,-1.954768784E-2,-8.857546002E-2,-5.070181563E-2
3.790627165E0,-1.893682219E-2,-9.040805697E-2,-4.825835302E-2
3.792641245E0,-1.343903504E-2,-9.651670605E-2,-4.642575979E-2
3.794624095E0,-9.773843922E-3,-1.056796908E-1,-4.459316283E-2
3.796637945E0,-6.108652335E-3,-1.087340117E-1,-4.276056588E-2
3.798623487E0,0.000000000E0,-1.191187203E-1,-3.970624134E-2
3.800637029E0,4.276056774E-3,-1.227839142E-1,-3.909537569E-2
3.802620341E0,8.552113548E-3,-1.331686229E-1,-3.543018550E-2
3.804633960E0,1.038470957E-2,-1.435533315E-1,-3.420845419E-2
3.806618195E0,1.038470957E-2,-1.496619880E-1,-3.359758854E-2
3.808632659E0,1.649336144E-2,-1.600466967E-1,-3.298672289E-2
3.810615740E0,2.076941915E-2,-1.710422635E-1,-3.115412779E-2
3.812630206E0,2.199114859E-2,-1.777617931E-1,-2.871066704E-2
3.814614902E0,2.748893574E-2,-1.881465018E-1,-2.809980139E-2
3.816628367E0,3.054326214E-2,-1.960877478E-1,-2.626720630E-2
3.818643448E0,3.054326214E-2,-1.979203373E-1,-2.809980139E-2
3.820626221E0,3.115412779E-2,-2.040289938E-1,-3.054326214E-2
3.822640686E0,3.237585723E-2,-2.083050460E-1,-3.115412779E-2
3.824623535E0,3.115412779E-2,-2.070833147E-1,-3.176499158E-2
3.826637309E0,3.420845419E-2,-2.052507252E-1,-3.420845419E-2
3.828621620E0,3.604105115E-2,-2.003637999E-1,-3.665191308E-2
3.830635546E0,3.604105115E-2,-1.930334121E-1,-3.665191308E-2
3.832619243E0,3.604105115E-2,-1.832595766E-1,-3.848451003E-2
3.834632708E0,3.359758854E-2,-1.795943826E-1,-4.276056588E-2
3.836618020E0,3.665191308E-2,-1.655444801E-1,-4.276056588E-2
3.838632715E0,3.359758854E-2,-1.527163088E-1,-4.337143153E-2
3.840614642E0,3.420845419E-2,-1.459967941E-1,-4.337143153E-2
3.842629339E0,3.420845419E-2,-1.288925707E-1,-4.276056588E-2
3.844643497E0,3.665191308E-2,-1.160643995E-1,-4.092797264E-2
3.846627192E0,3.420845419E-2,-1.081231460E-1,-3.909537569E-2
3.848640811E0,3.604105115E-2,-9.224065393E-2,-3.298672289E-2
3.850623892E0,3.543018550E-2,-7.819075137E-2,-2.565634064E-2
3.852638896E0,3.665191308E-2,-7.269296050E-2,-2.382374369E-2
3.854622976E0,3.665191308E-2,-6.169738993E-2,-1.893682219E-2
3.856636519E0,3.298672289E-2,-4.948008433E-2,-1.038470957E-2
3.858621061E0,3.115412779E-2,-4.398229718E-2,-9.162978269E-3
3.860634911E0,2.871066704E-2,-3.237585723E-2,-4.276056774E-3
3.862617760E0,2.809980139E-2,-2.504547499E-2,-4.276056774E-3
3.864632457E0,2.443460934E-2,-1.527163107E-2,-3.054326167E-3
3.866615922E0,2.138028294E-2,-4.276056774E-3,-1.221730490E-3
3.868629772E0,1.893682219E-2,1.221730490E-3,-2.443460980E-3
3.870614006E0,1.404990070E-2,8.552113548E-3,-4.886921961E-3
3.872627856E0,9.162978269E-3,1.771509275E-2,-9.162978269E-3
3.874638937E0,6.719517522E-3,2.138028294E-2,-7.941247895E-3
3.876624480E0,-6.108652451E-4,2.809980139E-2,-1.282817032E-2
3.878641098E0,-7.941247895E-3,3.298672289E-2,-1.710422710E-2
3.880623256E0,-1.099557430E-2,3.420845419E-2,-1.588249579E-2
3.882637414E0,-1.649336144E-2,3.237585723E-2,-2.138028294E-2
3.884620494E0,-2.199114859E-2,3.054326214E-2,-2.809980139E-2
3.886635036E0,-2.382374369E-2,2.687807009E-2,-2.809980139E-2
3.888619271E0,-2.932153270E-2,2.138028294E-2,-2.993239649E-2
3.890632506E0,-3.176499158E-2,1.282817032E-2,-3.298672289E-2
3.892617124E0,-3.420845419E-2,6.108652335E-3,-3.481931984E-2
3.894632205E0,-3.787364438E-2,-9.773843922E-3,-3.359758854E-2
3.896615055E0,-3.970624134E-2,-1.710422710E-2,-3.543018550E-2
3.898629213E0,-4.398229718E-2,-3.359758854E-2,-3.604105115E-2
3.900642678E0,-4.459316283E-2,-5.253441259E-2,-4.092797264E-2
3.902627297E0,-4.520402849E-2,-5.864306539E-2,-4.031710699E-2
3.904641224E0,-4.642575979E-2,-7.208210230E-2,-3.909537569E-2
3.906625151E0,-4.642575979E-2,-8.552113175E-2,-4.092797264E-2
3.908638693E0,-4.459316283E-2,-8.857546002E-2,-4.214970022E-2
3.910622081E0,-4.276056588E-2,-9.651670605E-2,-4.276056588E-2
3.912636624E0,-3.726277873E-2,-1.032362282E-1,-4.581489414E-2
3.914619935E0,-3.604105115E-2,-1.069014147E-1,-5.009094998E-2
3.916634400E0,-1.893682219E-2,-1.111774743E-1,-5.558873713E-2
3.918616250E0,-1.893682219E-2,-1.111774743E-1,-5.558873713E-2
3.920628870E0,-1.893682219E-2,-1.111774743E-1,-5.558873713E-2
3.922647104E0,-1.221730467E-2,-1.050688252E-1,-6.047565863E-2
3.924630107E0,-4.886921961E-3,-1.014036313E-1,-5.925392732E-2
3.926613188E0,0.000000000E0,-9.773843735E-2,-6.414084882E-2
3.928627423E0,1.221730490E-3,-8.796459436E-2,-6.902777404E-2
3.930641504E0,6.108652335E-3,-8.246681094E-2,-7.147123665E-2
3.932625507E0,1.343903504E-2,-7.269296050E-2,-7.513642311E-2
3.934640973E0,1.649336144E-2,-5.314527452E-2,-7.819075137E-2
3.936623130E0,2.382374369E-2,-4.825835302E-2,-7.757988572E-2
3.938638133E0,2.993239649E-2,-3.115412779E-2,-7.819075137E-2
3.940620984E0,3.543018550E-2,-1.038470957E-2,-7.941248268E-2
3.942635757E0,3.787364438E-2,-1.221730490E-3,-8.246681094E-2
