"Time (s)","Gyroscope x (rad/s)","Gyroscope y (rad/s)","Gyroscope z (rad/s)"
6.225698000E-3,4.581489414E-2,-8.368854225E-2,-5.009094998E-2
8.331470000E-3,4.581489414E-2,-8.368854225E-2,-5.009094998E-2
1.031516600E-2,4.581489414E-2,-8.368854225E-2,-5.009094998E-2
1.232870700E-2,4.581489414E-2,-8.368854225E-2,-5.009094998E-2
1.431278700E-2,4.581489414E-2,-8.368854225E-2,-5.009094998E-2
1.632663600E-2,4.581489414E-2,-8.368854225E-2,-5.009094998E-2
1.831063900E-2,4.581489414E-2,-8.368854225E-2,-5.009094998E-2
2.032571900E-2,4.581489414E-2,-8.368854225E-2,-5.009094998E-2
2.230910700E-2,4.581489414E-2,-8.368854225E-2,-5.009094998E-2
2.432257100E-2,4.581489414E-2,-8.368854225E-2,-5.009094998E-2
2.630719000E-2,4.581489414E-2,-8.368854225E-2,-5.009094998E-2
2.832050000E-2,4.581489414E-2,-8.368854225E-2,-5.009094998E-2
3.030358000E-2,4.581489414E-2,-8.368854225E-2,-5.009094998E-2
3.231866000E-2,4.581489414E-2,-8.368854225E-2,-5.009094998E-2
3.433243300E-2,4.581489414E-2,-8.368854225E-2,-5.009094998E-2
3.631558900E-2,4.581489414E-2,-8.368854225E-2,-5.009094998E-2
3.833066900E-2,4.581489414E-2,-8.368854225E-2,-5.009094998E-2
4.031498000E-2,4.581489414E-2,-8.368854225E-2,-5.009094998E-2
4.232813700E-2,4.581489414E-2,-8.368854225E-2,-5.009094998E-2
4.431244800E-2,4.581489414E-2,-8.368854225E-2,-5.009094998E-2
4.632691200E-2,4.581489414E-2,-8.368854225E-2,-5.009094998E-2
4.830999200E-2,4.581489414E-2,-8.368854225E-2,-5.009094998E-2
5.032353400E-2,4.581489414E-2,-8.368854225E-2,-5.009094998E-2
5.230723000E-2,4.581489414E-2,-8.368854225E-2,-5.009094998E-2
5.432138700E-2,4.581489414E-2,-8.368854225E-2,-5.009094998E-2
5.630508200E-2,4.581489414E-2,-8.368854225E-2,-5.009094998E-2
5.831893100E-2,4.581489414E-2,-8.368854225E-2,-5.009094998E-2
6.033462600E-2,4.581489414E-2,-8.368854225E-2,-5.009094998E-2
6.231739900E-2,4.581489414E-2,-8.368854225E-2,-5.009094998E-2
6.433094000E-2,4.581489414E-2,-8.368854225E-2,-5.009094998E-2
6.631502000E-2,4.581489414E-2,-8.368854225E-2,-5.009094998E-2
6.832940800E-2,4.581489414E-2,-8.368854225E-2,-5.009094998E-2
7.031248800E-2,2.015855350E-2,-1.771509275E-2,-5.497787148E-3
7.232672100E-2,1.710422710E-2,-2.015855350E-2,-7.330383174E-3
7.431072400E-2,1.832595654E-2,-2.932153270E-2,-9.773843922E-3
7.632457400E-2,1.649336144E-2,-3.420845419E-2,-1.221730467E-2
7.830857700E-2,1.527163107E-2,-4.092797264E-2,-1.282817032E-2
8.032419500E-2,1.466076635E-2,-4.703662544E-2,-1.099557430E-2
8.230642900E-2,1.221730467E-2,-5.070181563E-2,-1.221730467E-2
8.432089300E-2,9.162978269E-3,-5.803219974E-2,-1.343903504E-2
8.630335800E-2,7.330383174E-3,-6.597344577E-2,-1.282817032E-2
8.831774500E-2,6.108652335E-3,-6.780604273E-2,-1.343903504E-2
9.033259500E-2,4.276056774E-3,-7.330382615E-2,-1.343903504E-2
9.231629000E-2,1.221730490E-3,-7.880161703E-2,-1.160643995E-2
9.433013900E-2,-1.221730490E-3,-8.063421398E-2,-1.099557430E-2
9.631406500E-2,-1.832595794E-3,-8.185594529E-2,-1.099557430E-2
9.832829900E-2,-4.276056774E-3,-8.124507964E-2,-7.941247895E-3
1.003129170E-1,-4.276056774E-3,-8.185594529E-2,-9.773843922E-3
1.023251510E-1,-7.330383174E-3,-7.819075137E-2,-9.162978269E-3
1.043085390E-1,-7.941247895E-3,-7.452555746E-2,-9.162978269E-3
1.063245420E-1,-9.162978269E-3,-7.147123665E-2,-1.160643995E-2
1.083073140E-1,-1.282817032E-2,-6.475171447E-2,-9.162978269E-3
1.103206250E-1,-1.282817032E-2,-6.169738993E-2,-7.330383174E-3
1.123054740E-1,-1.404990070E-2,-5.497787148E-2,-8.552113548E-3
1.143187080E-1,-1.588249579E-2,-4.337143153E-2,-6.108652335E-3
1.163334800E-1,-1.588249579E-2,-3.787364438E-2,-6.719517522E-3
1.183169440E-1,-1.954768784E-2,-2.504547499E-2,-5.497787148E-3
1.203323320E-1,-2.076941915E-2,-1.221730467E-2,-5.497787148E-3
1.223156430E-1,-2.076941915E-2,-4.886921961E-3,-4.886921961E-3
1.243301840E-1,-2.382374369E-2,9.162978269E-3,-6.108652335E-3
1.263125720E-1,-2.382374369E-2,2.443460934E-2,-3.665191587E-3
1.283274210E-1,-2.687807009E-2,3.054326214E-2,-3.665191587E-3
1.303108090E-1,-2.871066704E-2,4.886921868E-2,-2.443460980E-3
1.323245810E-1,-3.115412779E-2,6.291911751E-2,-2.443460980E-3
1.343083530E-1,-3.176499158E-2,7.024950534E-2,-4.886921961E-3
1.363221250E-1,-3.237585723E-2,8.368854225E-2,-3.054326167E-3
1.383061280E-1,-3.420845419E-2,9.773843735E-2,-3.054326167E-3
1.403215160E-1,-3.665191308E-2,1.026253626E-1,0.000000000E0
1.423040570E-1,-3.726277873E-2,1.136209369E-1,-1.221730490E-3
1.443175990E-1,-3.726277873E-2,1.166752651E-1,6.108652451E-4
1.463326790E-1,-3.665191308E-2,1.233947799E-1,6.108652451E-4
1.483157590E-1,-3.665191308E-2,1.313360333E-1,2.443460980E-3
1.503296090E-1,-3.604105115E-2,1.325577646E-1,3.054326167E-3
1.523135350E-1,-3.604105115E-2,1.331686229E-1,3.665191587E-3
1.543279990E-1,-3.481931984E-2,1.343903542E-1,3.665191587E-3
1.563113870E-1,-3.481931984E-2,1.374446750E-1,4.886921961E-3
1.583261590E-1,-3.543018550E-2,1.331686229E-1,3.665191587E-3
1.603099320E-1,-3.481931984E-2,1.295034289E-1,4.276056774E-3
1.623237040E-1,-3.543018550E-2,1.276708394E-1,6.108652335E-3
1.643074760E-1,-3.115412779E-2,1.227839142E-1,3.054326167E-3
1.663212480E-1,-2.748893574E-2,1.148426682E-1,5.497787148E-3
1.683046360E-1,-2.932153270E-2,1.130100712E-1,4.886921961E-3
1.703191770E-1,-2.626720630E-2,1.038470939E-1,2.443460980E-3
1.723324110E-1,-2.565634064E-2,9.590584040E-2,3.665191587E-3
1.743169530E-1,-2.443460934E-2,9.162978828E-2,1.221730490E-3
1.763308020E-1,-2.260201424E-2,8.063421398E-2,6.108652451E-4
1.783151120E-1,-2.138028294E-2,7.513642311E-2,0.000000000E0
1.803299620E-1,-1.954768784E-2,6.658431143E-2,-6.108652451E-4
1.823132720E-1,-2.015855350E-2,5.619960278E-2,6.108652451E-4
1.843261980E-1,-1.771509275E-2,5.070181563E-2,-2.443460980E-3
1.863112010E-1,-1.466076635E-2,4.092797264E-2,-1.832595794E-3
1.883247430E-1,-1.343903504E-2,3.176499158E-2,-1.221730490E-3
1.903077460E-1,-1.343903504E-2,2.809980139E-2,-3.054326167E-3
1.923225950E-1,-1.466076635E-2,2.076941915E-2,-3.054326167E-3
1.943059060E-1,-1.343903504E-2,1.343903504E-2,-4.886921961E-3
1.963206780E-1,-1.099557430E-2,1.160643995E-2,-5.497787148E-3
1.983041420E-1,-9.773843922E-3,6.108652335E-3,-4.276056774E-3
2.003188380E-1,-1.099557430E-2,3.054326167E-3,-5.497787148E-3
2.023318410E-1,-1.038470957E-2,-1.832595794E-3,-6.108652335E-3
2.043169980E-1,-1.221730467E-2,-1.832595794E-3,-6.108652335E-3
2.063300010E-1,-9.773843922E-3,-3.665191587E-3,-6.108652335E-3
2.083130810E-1,-7.941247895E-3,-2.443460980E-3,-6.108652335E-3
2.103277760E-1,-1.038470957E-2,-4.276056774E-3,-7.941247895E-3
2.123114710E-1,-1.038470957E-2,-4.886921961E-3,-8.552113548E-3
2.143259360E-1,-9.773843922E-3,-6.108652335E-3,-6.108652335E-3
2.163090930E-1,-9.162978269E-3,-1.832595794E-3,-4.886921961E-3
2.183231720E-1,-9.773843922E-3,-1.832595794E-3,-4.886921961E-3
2.203081760E-1,-9.773843922E-3,-6.108652451E-4,-4.276056774E-3
2.223213320E-1,-7.330383174E-3,0.000000000E0,-3.665191587E-3
2.243041820E-1,-4.886921961E-3,6.108652451E-4,-4.886921961E-3
2.263192610E-1,-5.497787148E-3,1.832595794E-3,-3.054326167E-3
2.283339570E-1,-4.886921961E-3,2.443460980E-3,-3.054326167E-3
2.303167290E-1,-3.665191587E-3,4.276056774E-3,-6.108652451E-4
2.323300400E-1,-3.665191587E-3,7.330383174E-3,-3.054326167E-3
2.343145810E-1,-1.832595794E-3,7.330383174E-3,-2.443460980E-3
2.363290460E-1,0.000000000E0,7.330383174E-3,-6.108652451E-4
2.383122030E-1,6.108652451E-4,9.162978269E-3,-3.665191587E-3
2.403275130E-1,2.443460980E-3,1.099557430E-2,-3.054326167E-3
2.423102850E-1,3.054326167E-3,1.404990070E-2,-6.108652335E-3
2.443251350E-1,5.497787148E-3,1.649336144E-2,-7.941247895E-3
2.463081380E-1,7.330383174E-3,1.832595654E-2,-6.719517522E-3
2.483222940E-1,7.941247895E-3,1.954768784E-2,-6.108652335E-3
2.503057590E-1,1.038470957E-2,2.443460934E-2,-6.108652335E-3
2.523201480E-1,1.221730467E-2,2.504547499E-2,-8.552113548E-3
2.543035350E-1,1.527163107E-2,2.932153270E-2,-9.773843922E-3
2.563176920E-1,1.710422710E-2,3.298672289E-2,-1.038470957E-2
2.583321570E-1,1.649336144E-2,3.665191308E-2,-1.221730467E-2
2.603165440E-1,1.832595654E-2,3.787364438E-2,-1.099557430E-2
2.623294700E-1,1.710422710E-2,4.703662544E-2,-1.343903504E-2
2.643122430E-1,1.832595654E-2,4.642575979E-2,-1.282817032E-2
2.663276300E-1,1.954768784E-2,5.192354694E-2,-1.527163107E-2
2.683116330E-1,2.138028294E-2,5.681046844E-2,-1.466076635E-2
2.703248670E-1,2.015855350E-2,6.108652428E-2,-1.771509275E-2
2.723091780E-1,1.832595654E-2,6.536258012E-2,-1.710422710E-2
2.743226420E-1,2.015855350E-2,6.719517708E-2,-1.893682219E-2
2.763063380E-1,1.832595654E-2,7.330382615E-2,-1.649336144E-2
2.783205710E-1,1.649336144E-2,7.696902007E-2,-2.076941915E-2
2.803048050E-1,1.588249579E-2,7.880161703E-2,-1.771509275E-2
2.823196540E-1,1.282817032E-2,8.368854225E-2,-2.199114859E-2
2.843344270E-1,1.160643995E-2,8.552113175E-2,-2.138028294E-2
2.863159680E-1,1.099557430E-2,8.491026610E-2,-2.015855350E-2
2.883306630E-1,7.941247895E-3,8.857546002E-2,-1.771509275E-2
2.903146660E-1,3.665191587E-3,9.162978828E-2,-1.954768784E-2
2.923279770E-1,3.054326167E-3,9.101892263E-2,-2.199114859E-2
2.943125950E-1,0.000000000E0,8.979719132E-2,-2.199114859E-2
2.963263680E-1,-3.665191587E-3,8.796459436E-2,-2.015855350E-2
2.983100630E-1,-3.665191587E-3,8.613199741E-2,-1.954768784E-2
3.003249120E-1,-6.108652335E-3,8.613199741E-2,-1.893682219E-2
3.023085300E-1,-6.719517522E-3,8.368854225E-2,-1.710422710E-2
3.043218410E-1,-9.162978269E-3,8.002334833E-2,-1.893682219E-2
3.063057670E-1,-1.221730467E-2,7.635815442E-2,-1.649336144E-2
3.083200010E-1,-1.649336144E-2,7.452555746E-2,-1.588249579E-2
3.103341580E-1,-1.649336144E-2,6.902777404E-2,-1.588249579E-2
3.123177760E-1,-1.771509275E-2,6.475171447E-2,-1.527163107E-2
3.143316250E-1,-1.954768784E-2,6.169738993E-2,-1.466076635E-2
3.163153210E-1,-2.138028294E-2,5.864306539E-2,-1.404990070E-2
3.183295550E-1,-2.199114859E-2,4.948008433E-2,-1.282817032E-2
3.203144040E-1,-2.382374369E-2,4.825835302E-2,-1.221730467E-2
3.223282530E-1,-2.626720630E-2,4.398229718E-2,-9.773843922E-3
3.243122560E-1,-2.687807009E-2,3.787364438E-2,-9.162978269E-3
3.263258740E-1,-2.748893574E-2,3.726277873E-2,-1.038470957E-2
3.283088770E-1,-2.748893574E-2,3.237585723E-2,-8.552113548E-3
3.303231110E-1,-2.932153270E-2,3.054326214E-2,-7.941247895E-3
3.323064220E-1,-2.932153270E-2,2.687807009E-2,-8.552113548E-3
3.343208860E-1,-3.054326214E-2,2.382374369E-2,-7.330383174E-3
3.363045820E-1,-3.359758854E-2,2.321287990E-2,-7.330383174E-3
3.383190460E-1,-3.298672289E-2,2.321287990E-2,-6.719517522E-3
3.403344340E-1,-3.298672289E-2,2.015855350E-2,-4.886921961E-3
3.423166670E-1,-3.298672289E-2,2.076941915E-2,-7.941247895E-3
3.443310550E-1,-3.176499158E-2,2.138028294E-2,-6.108652335E-3
3.463153660E-1,-3.420845419E-2,2.138028294E-2,-4.276056774E-3
3.483289080E-1,-3.298672289E-2,2.260201424E-2,-4.886921961E-3
3.503116800E-1,-3.298672289E-2,2.443460934E-2,-3.054326167E-3
3.523265300E-1,-3.359758854E-2,2.748893574E-2,-4.276056774E-3
3.543098400E-1,-3.237585723E-2,2.932153270E-2,0.000000000E0
3.563243820E-1,-3.359758854E-2,3.298672289E-2,-1.221730490E-3
3.583076930E-1,-3.237585723E-2,4.092797264E-2,-6.108652451E-4
3.603224650E-1,-3.176499158E-2,4.214970022E-2,1.832595794E-3
3.623064680E-1,-3.359758854E-2,5.009094998E-2,1.221730490E-3
3.643197780E-1,-3.420845419E-2,5.375614017E-2,1.832595794E-3
3.663342430E-1,-3.420845419E-2,5.497787148E-2,2.443460980E-3
3.683172460E-1,-3.298672289E-2,6.291911751E-2,5.497787148E-3
3.703317870E-1,-3.298672289E-2,6.414084882E-2,5.497787148E-3
3.723148670E-1,-3.237585723E-2,6.841690838E-2,6.719517522E-3
3.743296400E-1,-3.237585723E-2,7.147123665E-2,6.108652335E-3
3.763129500E-1,-2.993239649E-2,7.024950534E-2,7.941247895E-3
3.783274150E-1,-2.871066704E-2,7.269296050E-2,7.330383174E-3
3.803124180E-1,-2.932153270E-2,7.513642311E-2,9.773843922E-3
3.823253440E-1,-2.932153270E-2,7.452555746E-2,1.221730467E-2
3.843083470E-1,-2.871066704E-2,7.513642311E-2,9.162978269E-3
3.863231960E-1,-2.748893574E-2,7.147123665E-2,1.038470957E-2
3.883062760E-1,-2.687807009E-2,7.024950534E-2,1.160643995E-2
3.903210480E-1,-2.687807009E-2,6.780604273E-2,1.221730467E-2
3.923043590E-1,-2.687807009E-2,6.597344577E-2,1.282817032E-2
3.943182850E-1,-2.687807009E-2,6.414084882E-2,1.038470957E-2
3.963327500E-1,-2.504547499E-2,5.742133409E-2,1.160643995E-2
3.983157530E-1,-2.504547499E-2,5.253441259E-2,9.162978269E-3
4.003318330E-1,-2.687807009E-2,5.131268129E-2,1.038470957E-2
4.023148360E-1,-2.504547499E-2,4.276056588E-2,1.099557430E-2
4.043283770E-1,-2.565634064E-2,3.909537569E-2,1.099557430E-2
4.063112260E-1,-2.382374369E-2,3.176499158E-2,1.221730467E-2
4.083265370E-1,-2.443460934E-2,2.504547499E-2,8.552113548E-3
4.103100010E-1,-2.504547499E-2,2.199114859E-2,1.038470957E-2
4.123234660E-1,-2.504547499E-2,1.466076635E-2,1.221730467E-2
4.143074690E-1,-2.382374369E-2,9.773843922E-3,1.160643995E-2
4.163213180E-1,-2.321287990E-2,4.276056774E-3,9.773843922E-3
4.183057060E-1,-2.321287990E-2,-1.221730490E-3,9.773843922E-3
4.203207860E-1,-2.138028294E-2,-8.552113548E-3,1.099557430E-2
4.223031730E-1,-2.138028294E-2,-1.099557430E-2,1.099557430E-2
4.243170220E-1,-2.076941915E-2,-1.466076635E-2,9.162978269E-3
4.263321020E-1,-2.076941915E-2,-2.199114859E-2,7.941247895E-3
4.283148750E-1,-2.199114859E-2,-2.565634064E-2,1.038470957E-2
4.303290310E-1,-1.954768784E-2,-2.932153270E-2,9.773843922E-3
4.323136500E-1,-1.954768784E-2,-3.115412779E-2,7.941247895E-3
4.343271910E-1,-1.771509275E-2,-3.481931984E-2,6.108652335E-3
4.363108870E-1,-1.771509275E-2,-3.848451003E-2,7.330383174E-3
4.383253510E-1,-1.466076635E-2,-3.909537569E-2,6.108652335E-3
4.403094310E-1,-1.343903504E-2,-4.031710699E-2,5.497787148E-3
4.423225880E-1,-1.038470957E-2,-4.031710699E-2,5.497787148E-3
4.443078220E-1,-9.773843922E-3,-3.787364438E-2,4.886921961E-3
4.463205170E-1,-1.160643995E-2,-3.604105115E-2,3.665191587E-3
4.483041350E-1,-8.552113548E-3,-3.543018550E-2,3.054326167E-3
4.503180620E-1,-8.552113548E-3,-3.298672289E-2,1.221730490E-3
4.523322190E-1,-9.773843922E-3,-2.932153270E-2,1.221730490E-3
4.543158380E-1,-9.162978269E-3,-2.504547499E-2,0.000000000E0
4.563303790E-1,-9.162978269E-3,-2.076941915E-2,-1.221730490E-3
4.583146130E-1,-6.108652335E-3,-1.588249579E-2,0.000000000E0
4.603288470E-1,-6.108652335E-3,-7.941247895E-3,1.832595794E-3
4.623118500E-1,-7.941247895E-3,-3.665191587E-3,-1.221730490E-3
4.643253910E-1,-6.108652335E-3,4.276056774E-3,1.221730490E-3
4.663097790E-1,-6.108652335E-3,7.330383174E-3,-1.221730490E-3
4.683235510E-1,-5.497787148E-3,1.282817032E-2,3.665191587E-3
4.703076310E-1,-6.719517522E-3,2.015855350E-2,3.054326167E-3
4.723214800E-1,-5.497787148E-3,2.443460934E-2,2.443460980E-3
4.743057140E-1,-3.665191587E-3,2.871066704E-2,5.497787148E-3
4.763199480E-1,-6.108652335E-3,3.543018550E-2,5.497787148E-3
4.783331050E-1,-6.108652335E-3,3.787364438E-2,7.330383174E-3
4.803184150E-1,-3.665191587E-3,4.520402849E-2,7.941247895E-3
4.823315720E-1,-5.497787148E-3,4.825835302E-2,1.038470957E-2
4.843158830E-1,-4.886921961E-3,4.764748737E-2,1.099557430E-2
4.863300400E-1,-3.665191587E-3,5.192354694E-2,1.282817032E-2
4.883131200E-1,-1.832595794E-3,5.436700583E-2,1.771509275E-2
4.903266610E-1,-2.443460980E-3,5.558873713E-2,1.710422710E-2
4.923110490E-1,-2.443460980E-3,5.558873713E-2,1.893682219E-2
4.943245130E-1,-6.108652451E-4,5.375614017E-2,2.138028294E-2
4.963088240E-1,-2.443460980E-3,5.375614017E-2,2.382374369E-2
4.983226730E-1,0.000000000E0,4.886921868E-2,2.504547499E-2
5.003075990E-1,-1.221730490E-3,4.642575979E-2,2.932153270E-2
5.023206020E-1,1.221730490E-3,4.031710699E-2,3.054326214E-2
5.043036050E-1,2.443460980E-3,3.237585723E-2,3.176499158E-2
5.063190700E-1,1.832595794E-3,2.809980139E-2,3.359758854E-2
5.083325340E-1,4.886921961E-3,1.771509275E-2,4.031710699E-2
5.103150760E-1,7.941247895E-3,7.941247895E-3,4.153883830E-2
5.123303860E-1,7.941247895E-3,-6.108652451E-4,4.092797264E-2
5.143137740E-1,1.221730467E-2,-1.527163107E-2,4.214970022E-2
5.163277000E-1,1.649336144E-2,-3.054326214E-2,4.459316283E-2
5.183113950E-1,1.710422710E-2,-3.726277873E-2,4.581489414E-2
5.203270140E-1,2.076941915E-2,-5.497787148E-2,4.520402849E-2
5.223092480E-1,2.260201424E-2,-7.024950534E-2,4.764748737E-2
5.243242510E-1,2.565634064E-2,-8.002334833E-2,4.886921868E-2
5.263070230E-1,2.809980139E-2,-9.773843735E-2,4.825835302E-2
5.283214870E-1,3.176499158E-2,-1.160643995E-1,4.642575979E-2
5.303049520E-1,3.543018550E-2,-1.264491081E-1,4.642575979E-2
5.323190320E-1,3.909537569E-2,-1.429424733E-1,4.764748737E-2
5.343341120E-1,3.909537569E-2,-1.521054506E-1,4.703662544E-2
5.363163460E-1,4.398229718E-2,-1.710422635E-1,4.886921868E-2
5.383313490E-1,4.703662544E-2,-1.899790913E-1,4.703662544E-2
5.403162750E-1,5.070181563E-2,-1.985312104E-1,4.703662544E-2
5.423292780E-1,5.558873713E-2,-2.131919712E-1,5.009094998E-2
5.443092040E-1,5.864306539E-2,-2.296853364E-1,4.886921868E-2
5.463273610E-1,5.864306539E-2,-2.364048511E-1,4.825835302E-2
5.483105170E-1,5.925392732E-2,-2.480112910E-1,5.436700583E-2
5.503245980E-1,6.169738993E-2,-2.590068579E-1,5.375614017E-2
5.523082930E-1,6.108652428E-2,-2.651155293E-1,5.436700583E-2
5.543224510E-1,6.230825558E-2,-2.724458873E-1,5.619960278E-2
5.563059150E-1,6.352998316E-2,-2.779437006E-1,5.742133409E-2
5.583203030E-1,6.169738993E-2,-2.791654170E-1,5.803219974E-2
5.603348440E-1,6.169738993E-2,-2.840523422E-1,6.047565863E-2
5.623182320E-1,5.864306539E-2,-2.883284092E-1,6.291911751E-2
5.643320810E-1,5.619960278E-2,-2.864958048E-1,6.352998316E-2
5.663156990E-1,5.253441259E-2,-2.871066630E-1,6.597344577E-2
5.683302410E-1,5.131268129E-2,-2.864958048E-1,6.963863969E-2
5.703133210E-1,4.703662544E-2,-2.846632004E-1,7.086037099E-2
5.723280160E-1,4.276056588E-2,-2.779437006E-1,7.330382615E-2
5.743110960E-1,3.970624134E-2,-2.748893499E-1,7.147123665E-2
5.763255610E-1,3.420845419E-2,-2.645046413E-1,7.513642311E-2
5.783093330E-1,2.993239649E-2,-2.547308207E-1,7.696902007E-2
5.803237200E-1,2.565634064E-2,-2.492330223E-1,7.757988572E-2
5.823074930E-1,2.076941915E-2,-2.376265824E-1,8.185594529E-2
5.843201110E-1,1.527163107E-2,-2.241875380E-1,8.185594529E-2
5.863358060E-1,1.282817032E-2,-2.168571651E-1,8.124507964E-2
5.883191940E-1,6.719517522E-3,-2.052507252E-1,8.246681094E-2
5.903326580E-1,1.832595794E-3,-1.918116808E-1,8.429940045E-2
5.923170460E-1,6.108652451E-4,-1.844813079E-1,8.429940045E-2
5.943315110E-1,-5.497787148E-3,-1.698205322E-1,8.429940045E-2
5.963142830E-1,-7.941247895E-3,-1.655444801E-1,8.613199741E-2
5.983284400E-1,-1.527163107E-2,-1.563815027E-1,8.307767659E-2
6.003126730E-1,-2.076941915E-2,-1.453859210E-1,8.307767659E-2
6.023266000E-1,-2.321287990E-2,-1.404990107E-1,8.246681094E-2
6.043099100E-1,-2.871066704E-2,-1.307251602E-1,8.307767659E-2
6.063244520E-1,-3.176499158E-2,-1.252273768E-1,8.124507964E-2
6.083084550E-1,-3.481931984E-2,-1.215621829E-1,8.002334833E-2
6.103226120E-1,-3.909537569E-2,-1.160643995E-1,8.002334833E-2
6.123053070E-1,-4.337143153E-2,-1.136209369E-1,7.880161703E-2
6.143201560E-1,-4.459316283E-2,-1.148426682E-1,7.635815442E-2
6.163336980E-1,-4.948008433E-2,-1.123992056E-1,7.574728876E-2
6.183182390E-1,-5.436700583E-2,-1.130100712E-1,7.452555746E-2
6.203333190E-1,-5.375614017E-2,-1.136209369E-1,7.513642311E-2
6.223149370E-1,-5.864306539E-2,-1.221730486E-1,7.269296050E-2
6.243293250E-1,-5.986479297E-2,-1.258382350E-1,7.024950534E-2
6.263137130E-1,-6.108652428E-2,-1.301143020E-1,6.780604273E-2
6.283275620E-1,-6.414084882E-2,-1.398881376E-1,6.841690838E-2
6.303112570E-1,-6.414084882E-2,-1.490511149E-1,6.963863969E-2
6.323253370E-1,-6.963863969E-2,-1.569923609E-1,6.902777404E-2
6.343091090E-1,-7.086037099E-2,-1.679879427E-1,6.841690838E-2
6.363228810E-1,-6.963863969E-2,-1.740965992E-1,6.902777404E-2
6.383071920E-1,-7.452555746E-2,-1.850921661E-1,6.902777404E-2
6.403222720E-1,-7.635815442E-2,-1.948660165E-1,7.024950534E-2
6.423050440E-1,-7.757988572E-2,-2.003637999E-1,6.963863969E-2
6.443195090E-1,-7.941248268E-2,-2.107485086E-1,7.208210230E-2
6.463333580E-1,-8.307767659E-2,-2.193006277E-1,7.391469181E-2
6.483170530E-1,-8.796459436E-2,-2.229658216E-1,7.208210230E-2
6.503309800E-1,-8.735372871E-2,-2.302961946E-1,7.513642311E-2
6.523139830E-1,-8.918632567E-2,-2.406809032E-1,8.185594529E-2
6.543287560E-1,-9.162978828E-2,-2.431243658E-1,8.063421398E-2
6.563119120E-1,-9.529497474E-2,-2.467895597E-1,8.674286306E-2
6.583263770E-1,-9.590584040E-2,-2.498438805E-1,8.979719132E-2
6.603112260E-1,-9.957103431E-2,-2.516764700E-1,9.224065393E-2
6.623256910E-1,-1.020144969E-1,-2.535090744E-1,9.590584040E-2
6.643070010E-1,-1.032362282E-1,-2.535090744E-1,1.020144969E-1
6.663223890E-1,-1.056796908E-1,-2.522873580E-1,1.044579595E-1
6.683060840E-1,-1.062905490E-1,-2.492330223E-1,1.130100712E-1
6.703195490E-1,-1.062905490E-1,-2.474004179E-1,1.142318025E-1
6.723347060E-1,-1.105666086E-1,-2.443460971E-1,1.221730486E-1
6.743168630E-1,-1.123992056E-1,-2.327396572E-1,1.264491081E-1
6.763321730E-1,-1.123992056E-1,-2.284636050E-1,1.301143020E-1
6.783155610E-1,-1.148426682E-1,-2.217440903E-1,1.343903542E-1
6.803303330E-1,-1.142318025E-1,-2.144137025E-1,1.368338168E-1
6.823131820E-1,-1.160643995E-1,-2.138028294E-1,1.417207420E-1
6.843279550E-1,-1.166752651E-1,-2.028072625E-1,1.435533315E-1
6.863107270E-1,-1.160643995E-1,-1.979203373E-1,1.472185254E-1
6.883257300E-1,-1.172861308E-1,-1.954768747E-1,1.478293836E-1
6.903088100E-1,-1.172861308E-1,-1.863138974E-1,1.539380401E-1
6.923232740E-1,-1.172861308E-1,-1.783726513E-1,1.533271819E-1
6.943073540E-1,-1.172861308E-1,-1.765400618E-1,1.569923609E-1
6.963205880E-1,-1.172861308E-1,-1.716531366E-1,1.569923609E-1
6.983349760E-1,-1.160643995E-1,-1.716531366E-1,1.576032341E-1
7.003199790E-1,-1.160643995E-1,-1.704314053E-1,1.594358236E-1
7.023329050E-1,-1.142318025E-1,-1.722639948E-1,1.582140923E-1
7.043159850E-1,-1.105666086E-1,-1.747074574E-1,1.588249654E-1
7.063297570E-1,-1.117883399E-1,-1.795943826E-1,1.576032341E-1
7.083140680E-1,-1.062905490E-1,-1.887573600E-1,1.569923609E-1
7.103285320E-1,-1.056796908E-1,-1.918116808E-1,1.582140923E-1
7.123125350E-1,-1.020144969E-1,-2.003637999E-1,1.569923609E-1
7.143270770E-1,-1.026253626E-1,-2.058615834E-1,1.569923609E-1
7.163097720E-1,-1.014036313E-1,-2.107485086E-1,1.576032341E-1
7.183240060E-1,-9.712757170E-2,-2.186897546E-1,1.551597714E-1
7.203088550E-1,-9.590584040E-2,-2.254092693E-1,1.557706445E-1
7.223221650E-1,-9.529497474E-2,-2.309070677E-1,1.533271819E-1
7.243052450E-1,-9.529497474E-2,-2.364048511E-1,1.527163088E-1
7.263197100E-1,-9.407325089E-2,-2.467895597E-1,1.533271819E-1
7.283338670E-1,-9.407325089E-2,-2.492330223E-1,1.521054506E-1
7.303175620E-1,-9.346238524E-2,-2.547308207E-1,1.521054506E-1
7.323314110E-1,-9.101892263E-2,-2.596177161E-1,1.490511149E-1
7.343156450E-1,-8.918632567E-2,-2.632829249E-1,1.514945775E-1
7.363298790E-1,-8.674286306E-2,-2.675589919E-1,1.502728462E-1
7.383128820E-1,-8.613199741E-2,-2.663372457E-1,1.472185254E-1
7.403283460E-1,-8.368854225E-2,-2.657263875E-1,1.459967941E-1
7.423114260E-1,-8.185594529E-2,-2.596177161E-1,1.478293836E-1
7.443248910E-1,-8.185594529E-2,-2.535090744E-1,1.472185254E-1
7.463101250E-1,-7.880161703E-2,-2.504547536E-1,1.435533315E-1
7.483236660E-1,-7.696902007E-2,-2.443460971E-1,1.429424733E-1
7.503058230E-1,-7.819075137E-2,-2.400700450E-1,1.453859210E-1
7.523205960E-1,-7.452555746E-2,-2.345722616E-1,1.404990107E-1
7.543345220E-1,-7.635815442E-2,-2.254092693E-1,1.386664063E-1
7.563188330E-1,-7.513642311E-2,-2.211332172E-1,1.386664063E-1
7.583317590E-1,-7.391469181E-2,-2.113593817E-1,1.350012124E-1
7.603176080E-1,-7.391469181E-2,-2.070833147E-1,1.362229437E-1
7.623308420E-1,-7.452555746E-2,-1.966986060E-1,1.343903542E-1
7.643144600E-1,-7.269296050E-2,-1.844813079E-1,1.337794960E-1
7.663283860E-1,-7.086037099E-2,-1.820378453E-1,1.313360333E-1
7.683117740E-1,-6.841690838E-2,-1.722639948E-1,1.282816976E-1
7.703259310E-1,-6.536258012E-2,-1.649336219E-1,1.264491081E-1
7.723098570E-1,-6.536258012E-2,-1.624901593E-1,1.258382350E-1
7.743246290E-1,-6.352998316E-2,-1.576032341E-1,1.227839142E-1
7.763070940E-1,-6.230825558E-2,-1.514945775E-1,1.209513173E-1
7.783216350E-1,-6.169738993E-2,-1.484402567E-1,1.191187203E-1
7.803068690E-1,-5.864306539E-2,-1.429424733E-1,1.185078546E-1
7.823203340E-1,-5.497787148E-2,-1.417207420E-1,1.148426682E-1
7.843327210E-1,-5.375614017E-2,-1.398881376E-1,1.142318025E-1
7.863175700E-1,-5.009094998E-2,-1.386664063E-1,1.136209369E-1
7.883318040E-1,-4.886921868E-2,-1.417207420E-1,1.136209369E-1
7.903151150E-1,-4.337143153E-2,-1.423316002E-1,1.117883399E-1
7.923290410E-1,-4.153883830E-2,-1.459967941E-1,1.093448773E-1
7.943129670E-1,-3.970624134E-2,-1.496619880E-1,1.075122803E-1
7.963265080E-1,-3.848451003E-2,-1.502728462E-1,1.044579595E-1
7.983102810E-1,-3.604105115E-2,-1.490511149E-1,1.032362282E-1
8.003255910E-1,-3.543018550E-2,-1.478293836E-1,1.026253626E-1
8.023087480E-1,-3.787364438E-2,-1.429424733E-1,1.014036313E-1
8.043231360E-1,-3.359758854E-2,-1.380555481E-1,1.014036313E-1
8.063059080E-1,-3.420845419E-2,-1.356120855E-1,9.896016866E-2
8.083201420E-1,-3.237585723E-2,-1.313360333E-1,1.026253626E-1
8.103336830E-1,-3.543018550E-2,-1.264491081E-1,1.050688252E-1
8.123179940E-1,-3.420845419E-2,-1.246165112E-1,1.062905490E-1
8.143321510E-1,-3.543018550E-2,-1.270599663E-1,1.130100712E-1
8.163163850E-1,-4.092797264E-2,-1.258382350E-1,1.148426682E-1
8.183308490E-1,-4.398229718E-2,-1.270599663E-1,1.166752651E-1
8.203152370E-1,-5.131268129E-2,-1.276708394E-1,1.221730486E-1
8.223281630E-1,-5.803219974E-2,-1.252273768E-1,1.270599663E-1
8.243108580E-1,-6.536258012E-2,-1.270599663E-1,1.295034289E-1
8.263271690E-1,-7.208210230E-2,-1.252273768E-1,1.343903542E-1
8.283102490E-1,-7.635815442E-2,-1.252273768E-1,1.356120855E-1
8.303231750E-1,-8.307767659E-2,-1.227839142E-1,1.392772794E-1
8.323081010E-1,-8.796459436E-2,-1.246165112E-1,1.417207420E-1
8.343216420E-1,-9.162978828E-2,-1.227839142E-1,1.447750628E-1
8.363047990E-1,-9.834930301E-2,-1.172861308E-1,1.484402567E-1
8.383195720E-1,-1.020144969E-1,-1.148426682E-1,1.521054506E-1
8.403339590E-1,-1.026253626E-1,-1.130100712E-1,1.539380401E-1
8.423179620E-1,-1.099557430E-1,-1.093448773E-1,1.582140923E-1
8.443321960E-1,-1.148426682E-1,-1.062905490E-1,1.631010175E-1
8.463152760E-1,-1.166752651E-1,-1.075122803E-1,1.643227488E-1
8.483290480E-1,-1.172861308E-1,-1.099557430E-1,1.685988009E-1
8.503127430E-1,-1.191187203E-1,-1.148426682E-1,1.710422635E-1
8.523272090E-1,-1.191187203E-1,-1.178969890E-1,1.728748679E-1
8.543105970E-1,-1.166752651E-1,-1.258382350E-1,1.765400618E-1
8.563247530E-1,-1.148426682E-1,-1.417207420E-1,1.844813079E-1
8.583082180E-1,-1.154535338E-1,-1.453859210E-1,1.850921661E-1
8.603229130E-1,-1.136209369E-1,-1.576032341E-1,1.912008226E-1
8.623066850E-1,-1.105666086E-1,-1.661553532E-1,1.918116808E-1
8.643201500E-1,-1.056796908E-1,-1.863138974E-1,1.985312104E-1
8.663340760E-1,-1.044579595E-1,-2.076941878E-1,2.028072625E-1
8.683183100E-1,-1.044579595E-1,-2.168571651E-1,2.046398520E-1
8.703322360E-1,-1.001819000E-1,-2.406809032E-1,2.070833147E-1
8.723164700E-1,-9.529497474E-2,-2.675589919E-1,2.107485086E-1
8.743303960E-1,-9.162978828E-2,-2.822197378E-1,2.131919712E-1
8.763134760E-1,-8.979719132E-2,-3.072652221E-1,2.144137025E-1
8.783282480E-1,-8.552113175E-2,-3.359758854E-1,2.144137025E-1
8.803124820E-1,-8.429940045E-2,-3.500257730E-1,2.144137025E-1
8.823264080E-1,-7.819075137E-2,-3.830125034E-1,2.119702399E-1
8.843104110E-1,-7.208210230E-2,-4.123340547E-1,2.125810981E-1
8.863239520E-1,-6.780604273E-2,-4.251621962E-1,2.119702399E-1
8.883076480E-1,-5.986479297E-2,-4.502076805E-1,2.113593817E-1
8.903211120E-1,-5.314527452E-2,-4.630358517E-1,2.089159191E-1
8.923057310E-1,-4.764748737E-2,-4.752531648E-1,2.089159191E-1
8.943187340E-1,-3.909537569E-2,-4.862487316E-1,2.076941878E-1
8.963328900E-1,-3.543018550E-2,-4.905247986E-1,2.095267773E-1
8.983180470E-1,-2.687807009E-2,-4.917465150E-1,2.070833147E-1
9.003325890E-1,-2.076941915E-2,-4.923573732E-1,2.046398520E-1
9.023149760E-1,-1.893682219E-2,-4.917465150E-1,2.070833147E-1
9.043285180E-1,-1.588249579E-2,-4.838052690E-1,2.089159191E-1
9.063128290E-1,-9.773843922E-3,-4.776966274E-1,2.101376504E-1
9.083267550E-1,-7.941247895E-3,-4.752531648E-1,2.119702399E-1
9.103095270E-1,-4.276056774E-3,-4.630358517E-1,2.119702399E-1
9.123246070E-1,-1.221730490E-3,-4.514294267E-1,2.162462920E-1
9.143086100E-1,2.443460980E-3,-4.459316432E-1,2.174680233E-1
9.163224590E-1,5.497787148E-3,-4.306600094E-1,2.162462920E-1
9.183055390E-1,6.719517522E-3,-4.117231667E-1,2.217440903E-1
9.203209260E-1,8.552113548E-3,-3.988949955E-1,2.254092693E-1
9.223343910E-1,1.160643995E-2,-3.799581826E-1,2.278527319E-1
9.243187790E-1,1.221730467E-2,-3.677408695E-1,2.333505303E-1
9.263320120E-1,1.466076635E-2,-3.439171314E-1,2.327396572E-1
9.283159380E-1,1.771509275E-2,-3.219259977E-1,2.339613885E-1
9.303291720E-1,1.893682219E-2,-3.097086847E-1,2.357939780E-1
9.323137910E-1,2.076941915E-2,-2.858849466E-1,2.357939780E-1
9.343276400E-1,2.504547499E-2,-2.693915665E-1,2.376265824E-1
9.363117200E-1,2.321287990E-2,-2.571742535E-1,2.357939780E-1
9.383258770E-1,2.626720630E-2,-2.370157093E-1,2.357939780E-1
9.403101100E-1,2.687807009E-2,-2.223549485E-1,2.302961946E-1
9.423236520E-1,2.932153270E-2,-2.144137025E-1,2.290744632E-1
9.443064240E-1,2.993239649E-2,-1.960877478E-1,2.247984111E-1
9.463215810E-1,3.237585723E-2,-1.832595766E-1,2.199114859E-1
9.483051990E-1,3.543018550E-2,-1.789835095E-1,2.150245607E-1
9.503187410E-1,3.787364438E-2,-1.679879427E-1,2.150245607E-1
9.523332060E-1,4.031710699E-2,-1.600466967E-1,2.076941878E-1
9.543169020E-1,4.214970022E-2,-1.600466967E-1,2.034181207E-1
9.563314430E-1,4.642575979E-2,-1.569923609E-1,1.991420686E-1
9.583151380E-1,4.764748737E-2,-1.545489132E-1,1.948660165E-1
9.603299110E-1,5.070181563E-2,-1.545489132E-1,1.887573600E-1
9.623135290E-1,5.681046844E-2,-1.594358236E-1,1.857030392E-1
9.643267630E-1,5.619960278E-2,-1.624901593E-1,1.814269722E-1
9.663105350E-1,5.925392732E-2,-1.710422635E-1,1.783726513E-1
9.683246150E-1,6.841690838E-2,-1.838704348E-1,1.747074574E-1
9.703083100E-1,6.902777404E-2,-1.893682331E-1,1.728748679E-1
9.723222360E-1,7.513642311E-2,-2.052507252E-1,1.685988009E-1
9.743062390E-1,8.185594529E-2,-2.241875380E-1,1.643227488E-1
9.763200890E-1,8.429940045E-2,-2.327396572E-1,1.667662114E-1
9.783338610E-1,9.285151958E-2,-2.522873580E-1,1.631010175E-1
9.803188640E-1,9.896016866E-2,-2.730567753E-1,1.637118906E-1
9.823323280E-1,1.032362282E-1,-2.809980214E-1,1.594358236E-1
9.843148700E-1,1.105666086E-1,-3.036000133E-1,1.600466967E-1
9.863295650E-1,1.136209369E-1,-3.231477141E-1,1.624901593E-1
9.883136450E-1,1.203404516E-1,-3.335324228E-1,1.618792862E-1
9.903274170E-1,1.252273768E-1,-3.561344445E-1,1.661553532E-1
9.923111130E-1,1.295034289E-1,-3.677408695E-1,1.679879427E-1
9.943253460E-1,1.350012124E-1,-3.903428912E-1,1.740965992E-1
9.963087340E-1,1.374446750E-1,-4.123340547E-1,1.747074574E-1
9.983231220E-1,1.404990107E-1,-4.257730842E-1,1.783726513E-1
1.000307202E0,1.441642046E-1,-4.477642179E-1,1.814269722E-1
1.002321281E0,1.496619880E-1,-4.715879560E-1,1.850921661E-1
1.004305592E0,1.508837193E-1,-4.831944108E-1,1.850921661E-1
1.006318826E0,1.539380401E-1,-5.039638281E-1,1.930334121E-1
1.008332752E0,1.563815027E-1,-5.265658498E-1,1.960877478E-1
1.010316678E0,1.588249654E-1,-5.351179838E-1,2.015855312E-1
1.012330604E0,1.594358236E-1,-5.528330207E-1,2.040289938E-1
1.014314299E0,1.582140923E-1,-5.699372888E-1,2.070833147E-1
1.016328995E0,1.563815027E-1,-5.778785348E-1,2.101376504E-1
1.018312459E0,1.588249654E-1,-5.992587805E-1,2.144137025E-1
1.020328155E0,1.557706445E-1,-6.133087277E-1,2.174680233E-1
1.022310004E0,1.563815027E-1,-6.230825782E-1,2.199114859E-1
1.024323853E0,1.582140923E-1,-6.365215778E-1,2.229658216E-1
1.026307779E0,1.563815027E-1,-6.426302195E-1,2.260201424E-1
1.028321705E0,1.545489132E-1,-6.585127115E-1,2.284636050E-1
1.030306016E0,1.514945775E-1,-6.682865620E-1,2.321287990E-1
1.032320173E0,1.521054506E-1,-6.756169796E-1,2.345722616E-1
1.034333406E0,1.490511149E-1,-6.878342628E-1,2.370157093E-1
1.036318256E0,1.453859210E-1,-6.976081133E-1,2.382374406E-1
1.038331797E0,1.441642046E-1,-7.049384713E-1,2.412917763E-1
1.040316108E0,1.435533315E-1,-7.183775306E-1,2.412917763E-1
1.042330034E0,1.423316002E-1,-7.269296646E-1,2.467895597E-1
1.044314268E0,1.404990107E-1,-7.318165898E-1,2.437352389E-1
1.046327271E0,1.404990107E-1,-7.428121567E-1,2.455678284E-1
1.048311581E0,1.374446750E-1,-7.495316267E-1,2.474004179E-1
1.050325123E0,1.404990107E-1,-7.538077235E-1,2.474004179E-1
1.052309049E0,1.398881376E-1,-7.593054771E-1,2.480112910E-1
1.054322976E0,1.380555481E-1,-7.623597980E-1,2.480112910E-1
1.056306594E0,1.368338168E-1,-7.678576112E-1,2.461786866E-1
1.058320828E0,1.386664063E-1,-7.727445364E-1,2.474004179E-1
1.060336139E0,1.374446750E-1,-7.745771408E-1,2.467895597E-1
1.062318603E0,1.362229437E-1,-7.782423496E-1,2.461786866E-1
1.064332837E0,1.362229437E-1,-7.843509912E-1,2.437352389E-1
1.066317071E0,1.331686229E-1,-7.843509912E-1,2.431243658E-1
1.068330920E0,1.325577646E-1,-7.886270285E-1,2.412917763E-1
1.070313462E0,1.282816976E-1,-7.929030657E-1,2.443460971E-1
1.072328541E0,1.288925707E-1,-7.922922373E-1,2.394591719E-1
1.074312544E0,1.240056455E-1,-7.965682745E-1,2.394591719E-1
1.076326086E0,1.185078546E-1,-7.977899909E-1,2.406809032E-1
1.078310089E0,1.154535338E-1,-7.996225953E-1,2.382374406E-1
1.080324553E0,1.099557430E-1,-8.008443117E-1,2.351831198E-1
1.082307941E0,1.038470939E-1,-8.002334833E-1,2.339613885E-1
1.084322636E0,1.014036313E-1,-8.002334833E-1,2.321287990E-1
1.086306332E0,9.346238524E-2,-7.959573865E-1,2.315179259E-1
1.088319335E0,8.918632567E-2,-7.959573865E-1,2.327396572E-1
1.090333799E0,8.185594529E-2,-7.947356701E-1,2.302961946E-1
1.092317495E0,7.269296050E-2,-7.935139537E-1,2.278527319E-1
1.094331344E0,6.902777404E-2,-7.922922373E-1,2.260201424E-1
1.096315347E0,5.986479297E-2,-7.935139537E-1,2.229658216E-1
1.098329504E0,4.948008433E-2,-7.959573865E-1,2.211332172E-1
1.100315045E0,4.581489414E-2,-7.977899909E-1,2.217440903E-1
1.102327587E0,3.665191308E-2,-7.996225953E-1,2.186897546E-1
1.104310743E0,2.871066704E-2,-8.069530129E-1,2.180788964E-1
1.106325208E0,2.260201424E-2,-8.106181622E-1,2.144137025E-1
1.108309749E0,1.404990070E-2,-8.167268038E-1,2.144137025E-1
1.110323060E0,6.108652335E-3,-8.271115422E-1,2.138028294E-1
1.112306755E0,3.054326167E-3,-8.326093554E-1,2.107485086E-1
1.114320220E0,-6.108652335E-3,-8.417723179E-1,2.107485086E-1
1.116334684E0,-1.527163107E-2,-8.509352803E-1,2.113593817E-1
1.118318764E0,-1.893682219E-2,-8.558222055E-1,2.113593817E-1
1.120333152E0,-2.504547499E-2,-8.662069440E-1,2.113593817E-1
1.122316847E0,-2.809980139E-2,-8.704829812E-1,2.113593817E-1
1.124331697E0,-3.604105115E-2,-8.820894361E-1,2.144137025E-1
1.126314469E0,-3.787364438E-2,-8.955284357E-1,2.162462920E-1
1.128328626E0,-4.337143153E-2,-9.016370773E-1,2.186897546E-1
1.130312859E0,-4.276056588E-2,-9.156870246E-1,2.205223590E-1
1.132326093E0,-4.398229718E-2,-9.272934198E-1,2.223549485E-1
1.134309481E0,-4.337143153E-2,-9.309586287E-1,2.235766798E-1
1.136324253E0,-4.092797264E-2,-9.425650835E-1,2.241875380E-1
1.138308256E0,-3.787364438E-2,-9.547823668E-1,2.247984111E-1
1.140323413E0,-3.909537569E-2,-9.584475756E-1,2.254092693E-1
1.142305800E0,-3.726277873E-2,-9.700540304E-1,2.247984111E-1
1.144319342E0,-4.092797264E-2,-9.859365225E-1,2.223549485E-1
1.146334730E0,-4.153883830E-2,-9.920451641E-1,2.217440903E-1
1.148317809E0,-4.642575979E-2,-1.007927656E0,2.174680233E-1
1.150330812E0,-4.642575979E-2,-1.023810148E0,2.168571651E-1
1.152315662E0,-4.703662544E-2,-1.031751394E0,2.150245607E-1
1.154328973E0,-5.131268129E-2,-1.050077319E0,2.113593817E-1
1.156312592E0,-5.070181563E-2,-1.060462117E0,2.113593817E-1
1.158327056E0,-5.436700583E-2,-1.074512005E0,2.058615834E-1
1.160311982E0,-5.619960278E-2,-1.091616154E0,2.076941878E-1
1.162325293E0,-5.497787148E-2,-1.100168347E0,2.052507252E-1
1.164309527E0,-5.558873713E-2,-1.114829063E0,2.052507252E-1
1.166322838E0,-5.558873713E-2,-1.123992085E0,2.046398520E-1
1.168306148E0,-5.864306539E-2,-1.126435518E0,2.046398520E-1
1.170320613E0,-6.352998316E-2,-1.129489779E0,2.052507252E-1
1.172335154E0,-6.902777404E-2,-1.134376764E0,2.076941878E-1
1.174317926E0,-7.147123665E-2,-1.129489779E0,2.083050460E-1
1.176332006E0,-7.635815442E-2,-1.128878951E0,2.144137025E-1
1.178316086E0,-8.307767659E-2,-1.117272496E0,2.180788964E-1
1.180330859E0,-8.979719132E-2,-1.112385631E0,2.235766798E-1
1.182313631E0,-9.896016866E-2,-1.103833556E0,2.321287990E-1
1.184327403E0,-1.026253626E-1,-1.100168347E0,2.345722616E-1
1.186312098E0,-1.136209369E-1,-1.086118460E0,2.474004179E-1
1.188325948E0,-1.203404516E-1,-1.076955438E0,2.583959997E-1
1.190308951E0,-1.221730486E-1,-1.071457624E0,2.638937831E-1
1.192324338E0,-1.313360333E-1,-1.060462117E0,2.773328125E-1
1.194307726E0,-1.368338168E-1,-1.045801282E0,2.938261926E-1
1.196321883E0,-1.429424733E-1,-1.036638379E0,3.005456924E-1
1.198304116E0,-1.521054506E-1,-1.021977544E0,3.133738637E-1
1.200319812E0,-1.576032341E-1,-1.006095052E0,3.268128932E-1
1.202333969E0,-1.637118906E-1,-9.975429177E-1,3.335324228E-1
1.204317972E0,-1.740965992E-1,-9.804387093E-1,3.457497358E-1
1.206331821E0,-1.826487035E-1,-9.688322544E-1,3.543018401E-1
1.208315131E0,-1.869247705E-1,-9.596692920E-1,3.610213697E-1
1.210328981E0,-1.954768747E-1,-9.486737251E-1,3.677408695E-1
1.212312445E0,-2.015855312E-1,-9.388998747E-1,3.756821156E-1
1.214326833E0,-2.064724565E-1,-9.352346659E-1,3.744603992E-1
1.216310836E0,-2.125810981E-1,-9.297369123E-1,3.793473244E-1
1.218324993E0,-2.162462920E-1,-9.266825914E-1,3.830125034E-1
1.220309073E0,-2.193006277E-1,-9.224064946E-1,3.860668242E-1
1.222322537E0,-2.223549485E-1,-9.211847782E-1,3.836233616E-1
1.224305617E0,-2.223549485E-1,-9.224064946E-1,3.842342496E-1
1.226321312E0,-2.254092693E-1,-9.211847782E-1,3.878994286E-1
1.228334315E0,-2.247984111E-1,-9.230173826E-1,3.854559660E-1
1.230317934E0,-2.266310006E-1,-9.260717034E-1,3.842342496E-1
1.232333014E0,-2.254092693E-1,-9.285151958E-1,3.799581826E-1
1.234316170E0,-2.247984111E-1,-9.340129495E-1,3.762930036E-1
1.236330250E0,-2.247984111E-1,-9.382890463E-1,3.756821156E-1
1.238313715E0,-2.199114859E-1,-9.462302923E-1,3.714060783E-1
1.240329333E0,-2.174680233E-1,-9.584475756E-1,3.659082949E-1
1.242312490E0,-2.144137025E-1,-9.608910084E-1,3.622430861E-1
1.244326647E0,-2.076941878E-1,-9.682214260E-1,3.561344445E-1
1.246309419E0,-1.997529417E-1,-9.810495973E-1,3.488040566E-1
1.248323884E0,-1.966986060E-1,-9.865473509E-1,3.420845270E-1
1.250307502E0,-1.875356287E-1,-9.926560521E-1,3.323107064E-1
1.252322274E0,-1.808161139E-1,-9.975429177E-1,3.286454976E-1
1.254304508E0,-1.734857261E-1,-1.003040791E0,3.170390725E-1
1.256319512E0,-1.624901593E-1,-1.008538485E0,3.048217595E-1
1.258333054E0,-1.600466967E-1,-1.010371089E0,2.999348342E-1
1.260317980E0,-1.514945775E-1,-1.014036298E0,2.840523422E-1
1.262332137E0,-1.447750628E-1,-1.016479731E0,2.712241709E-1
1.264314678E0,-1.404990107E-1,-1.017701507E0,2.645046413E-1
1.266328450E0,-1.331686229E-1,-1.017701507E0,2.528982162E-1
1.268313069E0,-1.264491081E-1,-1.020144939E0,2.370157093E-1
1.270326918E0,-1.246165112E-1,-1.020755768E0,2.321287990E-1
1.272309998E0,-1.142318025E-1,-1.023810148E0,2.217440903E-1
1.274324770E0,-1.117883399E-1,-1.018923283E0,2.107485086E-1
1.276308235E0,-1.075122803E-1,-1.018312335E0,2.046398520E-1
1.278322622E0,-1.038470939E-1,-1.010982037E0,1.942551434E-1
1.280307010E0,-1.044579595E-1,-1.007316828E0,1.924225539E-1
1.282320474E0,-1.020144969E-1,-9.969320893E-1,1.857030392E-1
1.284334939E0,-9.834930301E-2,-9.834930301E-1,1.814269722E-1
1.286318403E0,-9.957103431E-2,-9.761626720E-1,1.783726513E-1
1.288331945E0,-9.712757170E-2,-9.566149712E-1,1.740965992E-1
1.290315871E0,-9.896016866E-2,-9.370672703E-1,1.740965992E-1
1.292330336E0,-9.957103431E-2,-9.254608750E-1,1.728748679E-1
1.294313415E0,-1.032362282E-1,-9.016370773E-1,1.704314053E-1
1.296327649E0,-1.038470939E-1,-8.759807348E-1,1.722639948E-1
1.298311345E0,-1.056796908E-1,-8.631525636E-1,1.698205322E-1
1.300326040E0,-1.087340117E-1,-8.387179971E-1,1.685988009E-1
1.302310351E0,-1.130100712E-1,-8.130616546E-1,1.692096740E-1
1.304323046E0,-1.117883399E-1,-8.020660877E-1,1.704314053E-1
1.306307972E0,-1.178969890E-1,-7.770205736E-1,1.710422635E-1
1.308322052E0,-1.203404516E-1,-7.538077235E-1,1.692096740E-1
1.310304593E0,-1.233947799E-1,-7.422012687E-1,1.667662114E-1
1.312319289E0,-1.301143020E-1,-7.214318514E-1,1.667662114E-1
1.314333138E0,-1.313360333E-1,-6.994407177E-1,1.649336219E-1
1.316316602E0,-1.368338168E-1,-6.908885837E-1,1.643227488E-1
1.318330759E0,-1.392772794E-1,-6.731734872E-1,1.655444801E-1
1.320315916E0,-1.411098689E-1,-6.646214128E-1,1.655444801E-1
1.322328611E0,-1.447750628E-1,-6.481280327E-1,1.612684280E-1
1.324313153E0,-1.496619880E-1,-6.359107494E-1,1.606575549E-1
1.326326771E0,-1.514945775E-1,-6.279694438E-1,1.618792862E-1
1.328310082E0,-1.545489132E-1,-6.181956530E-1,1.637118906E-1
1.330324239E0,-1.563815027E-1,-6.120869517E-1,1.631010175E-1
1.332308242E0,-1.606575549E-1,-6.102544069E-1,1.624901593E-1
1.334321860E0,-1.618792862E-1,-6.072000265E-1,1.618792862E-1
1.336305248E0,-1.637118906E-1,-6.065891981E-1,1.606575549E-1
1.338319943E0,-1.643227488E-1,-6.139195561E-1,1.624901593E-1
1.340334485E0,-1.661553532E-1,-6.181956530E-1,1.624901593E-1
1.342317564E0,-1.643227488E-1,-6.285803318E-1,1.612684280E-1
1.344331106E0,-1.655444801E-1,-6.334672570E-1,1.612684280E-1
1.346315647E0,-1.649336219E-1,-6.469063163E-1,1.606575549E-1
1.348329881E0,-1.679879427E-1,-6.572909951E-1,1.594358236E-1
1.350312884E0,-1.661553532E-1,-6.780604124E-1,1.569923609E-1
1.352327349E0,-1.649336219E-1,-7.012733221E-1,1.551597714E-1
1.354311044E0,-1.655444801E-1,-7.128797174E-1,1.539380401E-1
1.356325510E0,-1.649336219E-1,-7.415903807E-1,1.514945775E-1
1.358309590E0,-1.643227488E-1,-7.715228200E-1,1.453859210E-1
1.360323977E0,-1.631010175E-1,-7.880161405E-1,1.453859210E-1
1.362307365E0,-1.606575549E-1,-8.216137290E-1,1.417207420E-1
1.364322214E0,-1.600466967E-1,-8.613200188E-1,1.343903542E-1
1.366304678E0,-1.588249654E-1,-8.827002645E-1,1.307251602E-1
1.368318835E0,-1.545489132E-1,-9.205739498E-1,1.221730486E-1
1.370332377E0,-1.563815027E-1,-9.633345008E-1,1.142318025E-1
1.372316918E0,-1.563815027E-1,-9.847147465E-1,1.136209369E-1
1.374330537E0,-1.527163088E-1,-1.025031924E0,1.099557430E-1
1.376314540E0,-1.533271819E-1,-1.064738154E0,1.075122803E-1
1.378329235E0,-1.514945775E-1,-1.084896684E0,1.062905490E-1
1.380313930E0,-1.508837193E-1,-1.123992085E0,1.020144969E-1
1.382327164E0,-1.514945775E-1,-1.142928839E0,1.014036313E-1
1.384309244E0,-1.484402567E-1,-1.180802464E0,1.007927656E-1
1.386324401E0,-1.502728462E-1,-1.217454433E0,9.590584040E-2
1.388308404E0,-1.514945775E-1,-1.237002134E0,9.957103431E-2
1.390321868E0,-1.490511149E-1,-1.270599723E0,9.529497474E-2
1.392306179E0,-1.459967941E-1,-1.302975535E0,9.285151958E-2
1.394320413E0,-1.472185254E-1,-1.318858027E0,9.040805697E-2
1.396334800E0,-1.466076523E-1,-1.346957922E0,8.918632567E-2
1.398317265E0,-1.459967941E-1,-1.376890302E0,8.613199741E-2
1.400332422E0,-1.453859210E-1,-1.386664152E0,8.735372871E-2
1.402315733E0,-1.472185254E-1,-1.406822681E0,8.979719132E-2
1.404330889E0,-1.484402567E-1,-1.425148606E0,8.918632567E-2
1.406313892E0,-1.472185254E-1,-1.432479024E0,8.918632567E-2
1.408327742E0,-1.502728462E-1,-1.445307136E0,8.979719132E-2
1.410311129E0,-1.472185254E-1,-1.453859329E0,9.101892263E-2
1.412324978E0,-1.484402567E-1,-1.455080986E0,9.224065393E-2
1.414308366E0,-1.447750628E-1,-1.454470158E0,9.590584040E-2
1.416322907E0,-1.441642046E-1,-1.456302762E0,9.712757170E-2
1.418306910E0,-1.404990107E-1,-1.447750688E0,1.001819000E-1
1.420322298E0,-1.386664063E-1,-1.437976837E0,1.038470939E-1
1.422304763E0,-1.356120855E-1,-1.431868076E0,1.050688252E-1
1.424317612E0,-1.319468915E-1,-1.420261741E0,1.069014147E-1
1.426333692E0,-1.295034289E-1,-1.403157473E0,1.081231460E-1
1.428316695E0,-1.282816976E-1,-1.395216227E0,1.111774743E-1
1.430331236E0,-1.240056455E-1,-1.379333735E0,1.105666086E-1
1.432314624E0,-1.209513173E-1,-1.357342601E0,1.123992056E-1
1.434328165E0,-1.197295859E-1,-1.348790407E0,1.105666086E-1
1.436312168E0,-1.172861308E-1,-1.327410221E0,1.105666086E-1
1.438326017E0,-1.148426682E-1,-1.299921274E0,1.099557430E-1
1.440311174E0,-1.117883399E-1,-1.288925648E0,1.081231460E-1
1.442324485E0,-1.123992056E-1,-1.261436701E0,1.075122803E-1
1.444309026E0,-1.136209369E-1,-1.246165156E0,1.056796908E-1
1.446321645E0,-1.105666086E-1,-1.215621829E0,1.026253626E-1
1.448336494E0,-1.111774743E-1,-1.180802464E0,9.712757170E-2
1.450319266E0,-1.087340117E-1,-1.166752577E0,9.651670605E-2
1.452334346E0,-1.062905490E-1,-1.131933331E0,9.346238524E-2
1.454317349E0,-1.062905490E-1,-1.094059706E0,9.407325089E-2
1.456331584E0,-1.026253626E-1,-1.075733662E0,9.285151958E-2
1.458315279E0,-9.957103431E-2,-1.037249207E0,8.857546002E-2
1.460329975E0,-9.529497474E-2,-1.000597239E0,8.613199741E-2
1.462313670E0,-9.407325089E-2,-9.779952765E-1,8.857546002E-2
1.464327288E0,-9.346238524E-2,-9.370672703E-1,8.674286306E-2
1.466311522E0,-8.918632567E-2,-8.979719281E-1,8.368854225E-2
1.468325679E0,-8.796459436E-2,-8.741481900E-1,8.368854225E-2
1.470307836E0,-8.429940045E-2,-8.344419003E-1,8.735372871E-2
1.472323608E0,-7.941248268E-2,-7.971791625E-1,8.552113175E-2
1.474306380E0,-8.002334833E-2,-7.770205736E-1,8.368854225E-2
1.476321152E0,-7.574728876E-2,-7.367035151E-1,8.857546002E-2
1.478335002E0,-7.391469181E-2,-7.195992470E-1,8.857546002E-2
1.480319005E0,-7.574728876E-2,-6.847799420E-1,9.040805697E-2
1.482333085E0,-7.208210230E-2,-6.511823535E-1,9.285151958E-2
1.484316549E0,-7.086037099E-2,-6.334672570E-1,9.346238524E-2
1.486330398E0,-6.902777404E-2,-6.017022729E-1,1.001819000E-1
1.488314632E0,-6.841690838E-2,-5.729916096E-1,1.044579595E-1
1.490328481E0,-6.841690838E-2,-5.583308339E-1,1.050688252E-1
1.492312176E0,-6.902777404E-2,-5.290092826E-1,1.105666086E-1
1.494326718E0,-6.658431143E-2,-4.990769029E-1,1.160643995E-1
1.496309490E0,-6.475171447E-2,-4.838052690E-1,1.203404516E-1
1.498323647E0,-6.536258012E-2,-4.563163519E-1,1.252273768E-1
1.500308804E0,-6.352998316E-2,-4.239404798E-1,1.337794960E-1
1.502322115E0,-6.169738993E-2,-4.092797041E-1,1.343903542E-1
1.504305425E0,-6.047565863E-2,-3.769038618E-1,1.441642046E-1
1.506320505E0,-5.864306539E-2,-3.457497358E-1,1.496619880E-1
1.508334124E0,-5.742133409E-2,-3.274237812E-1,1.533271819E-1
1.510317204E0,-5.803219974E-2,-2.938261926E-1,1.576032341E-1
1.512331976E0,-5.436700583E-2,-2.803871334E-1,1.618792862E-1
1.514315286E0,-5.436700583E-2,-2.455678284E-1,1.704314053E-1
1.516329136E0,-5.131268129E-2,-2.138028294E-1,1.747074574E-1
1.518313139E0,-4.948008433E-2,-1.979203373E-1,1.789835095E-1
1.520327680E0,-5.009094998E-2,-1.667662114E-1,1.832595766E-1
1.522311606E0,-4.886921868E-2,-1.356120855E-1,1.912008226E-1
1.524325225E0,-5.009094998E-2,-1.240056455E-1,1.942551434E-1
1.526308535E0,-4.581489414E-2,-9.834930301E-2,1.991420686E-1
1.528323077E0,-4.459316283E-2,-7.147123665E-2,2.015855312E-1
1.530306157E0,-4.459316283E-2,-6.230825558E-2,2.009746730E-1
1.532320313E0,-3.665191308E-2,-6.536258012E-2,1.991420686E-1
1.534334470E0,-3.481931984E-2,-3.115412779E-2,2.046398520E-1
1.536319089E0,-3.604105115E-2,-2.199114859E-2,2.034181207E-1
1.538332553E0,-3.848451003E-2,1.221730490E-3,2.076941878E-1
1.540316864E0,-3.604105115E-2,1.954768784E-2,2.028072625E-1
1.542330482E0,-3.726277873E-2,3.054326214E-2,2.028072625E-1
1.544313793E0,-3.237585723E-2,4.764748737E-2,2.015855312E-1
1.546328873E0,-3.176499158E-2,5.619960278E-2,1.985312104E-1
1.548312953E0,-3.054326214E-2,7.024950534E-2,1.966986060E-1
1.550324956E0,-2.932153270E-2,8.368854225E-2,1.899790913E-1
1.552310190E0,-2.504547499E-2,8.796459436E-2,1.881465018E-1
1.554323347E0,-2.138028294E-2,9.651670605E-2,1.802052408E-1
1.556307350E0,-2.199114859E-2,1.014036313E-1,1.728748679E-1
1.558321815E0,-1.771509275E-2,1.056796908E-1,1.685988009E-1
1.560336280E0,-1.710422710E-2,1.044579595E-1,1.563815027E-1
1.562319744E0,-1.160643995E-2,1.062905490E-1,1.459967941E-1
1.564334209E0,-1.099557430E-2,1.056796908E-1,1.441642046E-1
1.566317212E0,-7.941247895E-3,1.062905490E-1,1.295034289E-1
1.568331676E0,-4.886921961E-3,1.081231460E-1,1.209513173E-1
1.570314833E0,-1.221730490E-3,1.105666086E-1,1.160643995E-1
1.572329913E0,1.832595794E-3,1.111774743E-1,1.007927656E-1
1.574313531E0,3.665191587E-3,1.148426682E-1,9.651670605E-2
1.576327150E0,6.108652335E-3,1.178969890E-1,8.552113175E-2
1.578311076E0,1.099557430E-2,1.258382350E-1,7.391469181E-2
1.580326156E0,1.404990070E-2,1.301143020E-1,6.963863969E-2
1.582308005E0,1.649336144E-2,1.441642046E-1,5.742133409E-2
1.584322470E0,2.199114859E-2,1.588249654E-1,4.886921868E-2
1.586305934E0,1.893682219E-2,1.673770845E-1,4.337143153E-2
1.588321322E0,2.199114859E-2,1.832595766E-1,3.298672289E-2
1.590334786E0,2.199114859E-2,1.991420686E-1,2.443460934E-2
1.592319097E0,2.138028294E-2,2.101376504E-1,2.076941915E-2
1.594333023E0,2.138028294E-2,2.266310006E-1,1.282817032E-2
1.596316026E0,2.321287990E-2,2.455678284E-1,7.330383174E-3
1.598330183E0,2.199114859E-2,2.547308207E-1,2.443460980E-3
1.600315186E0,2.260201424E-2,2.742784917E-1,-1.221730490E-3
1.602327804E0,2.382374369E-2,2.962696552E-1,-2.443460980E-3
1.604312423E0,2.076941915E-2,3.078760803E-1,-4.276056774E-3
1.606326810E0,2.199114859E-2,3.304781020E-1,-4.276056774E-3
1.608309583E0,2.260201424E-2,3.414736688E-1,-7.330383174E-3
1.610323739E0,2.199114859E-2,3.659082949E-1,-6.719517522E-3
1.612307742E0,2.199114859E-2,3.866777122E-1,-7.941247895E-3
1.614321976E0,2.076941915E-2,3.976732790E-1,-6.108652335E-3
1.616305287E0,1.893682219E-2,4.214970171E-1,-4.886921961E-3
1.618320367E0,2.076941915E-2,4.398229718E-1,-5.497787148E-3
1.620334293E0,1.954768784E-2,4.508185387E-1,-4.886921961E-3
1.622317680E0,2.015855350E-2,4.673119187E-1,-6.108652335E-3
1.624331145E0,2.138028294E-2,4.819726646E-1,-3.054326167E-3
1.626315148E0,2.138028294E-2,4.905247986E-1,-4.276056774E-3
1.628329920E0,2.199114859E-2,5.039638281E-1,-5.497787148E-3
1.630312769E0,1.954768784E-2,5.100724697E-1,-6.719517522E-3
1.632326926E0,2.076941915E-2,5.137376785E-1,-4.276056774E-3
1.634310314E0,1.893682219E-2,5.174028873E-1,-1.099557430E-2
1.636324778E0,1.893682219E-2,5.180137157E-1,-9.773843922E-3
1.638308704E0,2.138028294E-2,5.186246037E-1,-7.941247895E-3
1.640323554E0,1.832595654E-2,5.167919993E-1,-1.038470957E-2
1.642306634E0,1.771509275E-2,5.137376785E-1,-9.773843922E-3
1.644321406E0,1.832595654E-2,5.076290369E-1,-1.160643995E-2
1.646334947E0,1.832595654E-2,5.002986193E-1,-1.160643995E-2
1.648318027E0,1.710422710E-2,4.966334403E-1,-1.099557430E-2
1.650332107E0,1.588249579E-2,4.905247986E-1,-1.221730467E-2
1.652316418E0,1.710422710E-2,4.789183438E-1,-1.160643995E-2
1.654329959E0,1.466076635E-2,4.752531648E-1,-1.343903504E-2
1.656313732E0,1.588249579E-2,4.630358517E-1,-1.343903504E-2
1.658327812E0,1.710422710E-2,4.520402849E-1,-1.099557430E-2
1.660312431E0,1.832595654E-2,4.453207552E-1,-9.773843922E-3
1.662325972E0,2.076941915E-2,4.324925840E-1,-7.941247895E-3
1.664308514E0,1.954768784E-2,4.214970171E-1,-7.330383174E-3
1.666323824E0,2.076941915E-2,4.135557711E-1,-4.886921961E-3
1.668307212E0,2.382374369E-2,4.007275999E-1,-1.221730490E-3
1.670321369E0,2.932153270E-2,3.897320330E-1,-6.108652451E-4
1.672335910E0,2.871066704E-2,3.848451078E-1,1.221730490E-3
1.674318990E0,3.420845419E-2,3.738495409E-1,4.276056774E-3
1.676333686E0,3.604105115E-2,3.646865487E-1,4.886921961E-3
1.678316766E0,3.604105115E-2,3.567453027E-1,7.941247895E-3
1.680331230E0,4.153883830E-2,3.463605940E-1,1.160643995E-2
1.682314695E0,4.459316283E-2,3.390302062E-1,9.773843922E-3
1.684330005E0,4.581489414E-2,3.286454976E-1,1.282817032E-2
1.686312778E0,4.886921868E-2,3.158173263E-1,1.466076635E-2
1.688326934E0,5.253441259E-2,3.115412891E-1,1.221730467E-2
1.690309707E0,5.375614017E-2,2.987131178E-1,1.466076635E-2
1.692324248E0,5.803219974E-2,2.877175212E-1,1.588249579E-2
1.694308482E0,6.108652428E-2,2.797762752E-1,1.649336144E-2
1.696322331E0,6.414084882E-2,2.693915665E-1,1.771509275E-2
1.698336180E0,6.719517708E-2,2.541199327E-1,1.832595654E-2
1.700321414E0,7.147123665E-2,2.504547536E-1,1.832595654E-2
1.702334109E0,7.208210230E-2,2.394591719E-1,1.710422710E-2
1.704317497E0,7.513642311E-2,2.254092693E-1,1.832595654E-2
1.706332577E0,7.696902007E-2,2.180788964E-1,1.832595654E-2
1.708315965E0,8.002334833E-2,2.046398520E-1,1.649336144E-2
1.710329198E0,8.185594529E-2,1.985312104E-1,1.771509275E-2
1.712314432E0,8.613199741E-2,1.844813079E-1,1.771509275E-2
1.714327666E0,8.674286306E-2,1.692096740E-1,1.466076635E-2
1.716311361E0,8.857546002E-2,1.600466967E-1,1.710422710E-2
1.718325518E0,9.285151958E-2,1.447750628E-1,1.710422710E-2
1.720309829E0,9.407325089E-2,1.301143020E-1,1.282817032E-2
1.722323986E0,9.529497474E-2,1.203404516E-1,1.282817032E-2
1.724307296E0,9.957103431E-2,1.026253626E-1,1.038470957E-2
1.726321530E0,1.014036313E-1,8.674286306E-2,8.552113548E-3
1.728335379E0,1.001819000E-1,7.635815442E-2,8.552113548E-3
1.730319382E0,1.026253626E-1,6.352998316E-2,1.832595794E-3
1.732333231E0,1.050688252E-1,5.131268129E-2,2.443460980E-3
1.734316619E0,1.075122803E-1,4.214970022E-2,0.000000000E0
1.736331391E0,1.069014147E-1,3.237585723E-2,-4.276056774E-3
1.738314087E0,1.081231460E-1,2.015855350E-2,-7.330383174E-3
1.740329859E0,1.087340117E-1,1.832595654E-2,-1.160643995E-2
1.742312246E0,1.136209369E-1,1.221730467E-2,-1.588249579E-2
1.744325865E0,1.099557430E-1,9.162978269E-3,-1.832595654E-2
1.746309868E0,1.093448773E-1,7.330383174E-3,-2.260201424E-2
1.748324640E0,1.099557430E-1,1.832595794E-3,-2.504547499E-2
1.750307951E0,1.105666086E-1,2.443460980E-3,-2.809980139E-2
1.752321261E0,1.087340117E-1,6.719517522E-3,-2.932153270E-2
1.754336572E0,1.099557430E-1,1.038470957E-2,-3.237585723E-2
1.756319729E0,1.069014147E-1,1.466076635E-2,-3.481931984E-2
1.758334194E0,1.069014147E-1,1.893682219E-2,-3.604105115E-2
1.760319121E0,1.075122803E-1,2.993239649E-2,-3.543018550E-2
1.762332354E0,1.069014147E-1,3.726277873E-2,-3.604105115E-2
1.764316357E0,1.075122803E-1,4.886921868E-2,-3.420845419E-2
1.766329899E0,1.081231460E-1,6.536258012E-2,-3.359758854E-2
1.768312902E0,1.081231460E-1,7.330382615E-2,-3.359758854E-2
1.770327443E0,1.056796908E-1,8.796459436E-2,-3.115412779E-2
1.772310831E0,1.056796908E-1,9.590584040E-2,-2.993239649E-2
1.774324911E0,1.075122803E-1,1.117883399E-1,-2.687807009E-2
1.776309222E0,1.075122803E-1,1.288925707E-1,-2.687807009E-2
1.778323686E0,1.069014147E-1,1.337794960E-1,-2.443460934E-2
1.780308381E0,1.062905490E-1,1.539380401E-1,-2.443460934E-2
1.782321538E0,1.075122803E-1,1.685988009E-1,-2.199114859E-2
1.784334772E0,1.099557430E-1,1.783726513E-1,-2.199114859E-2
1.786319698E0,1.093448773E-1,1.930334121E-1,-2.015855350E-2
1.788333240E0,1.117883399E-1,2.070833147E-1,-2.138028294E-2
1.790315781E0,1.117883399E-1,2.144137025E-1,-1.954768784E-2
1.792330246E0,1.160643995E-1,2.278527319E-1,-1.954768784E-2
1.794314556E0,1.166752651E-1,2.425135076E-1,-2.199114859E-2
1.796329252E0,1.154535338E-1,2.455678284E-1,-2.138028294E-2
1.798312408E0,1.197295859E-1,2.577851415E-1,-2.321287990E-2
1.800327488E0,1.203404516E-1,2.675589919E-1,-2.260201424E-2
1.802310261E0,1.197295859E-1,2.675589919E-1,-2.382374369E-2
1.804324956E0,1.209513173E-1,2.706133127E-1,-2.443460934E-2
1.806307805E0,1.221730486E-1,2.730567753E-1,-2.809980139E-2
1.808322193E0,1.197295859E-1,2.736676335E-1,-2.809980139E-2
1.810336350E0,1.209513173E-1,2.706133127E-1,-3.054326214E-2
1.812320122E0,1.197295859E-1,2.693915665E-1,-3.115412779E-2
1.814334279E0,1.209513173E-1,2.638937831E-1,-3.543018550E-2
1.816317359E0,1.197295859E-1,2.590068579E-1,-3.420845419E-2
1.818331823E0,1.191187203E-1,2.559525371E-1,-3.848451003E-2
1.820315826E0,1.191187203E-1,2.510656118E-1,-3.909537569E-2
1.822330214E0,1.178969890E-1,2.425135076E-1,-3.909537569E-2
1.824313063E0,1.178969890E-1,2.376265824E-1,-4.031710699E-2
1.826327527E0,1.154535338E-1,2.284636050E-1,-3.970624134E-2
1.828310915E0,1.148426682E-1,2.162462920E-1,-4.214970022E-2
1.830324456E0,1.142318025E-1,2.095267773E-1,-4.092797264E-2
1.832308383E0,1.105666086E-1,1.997529417E-1,-4.398229718E-2
1.834322847E0,1.111774743E-1,1.869247705E-1,-4.520402849E-2
1.836306619E0,1.099557430E-1,1.795943826E-1,-4.459316283E-2
1.838320776E0,1.056796908E-1,1.661553532E-1,-4.703662544E-2
1.840336472E0,1.038470939E-1,1.624901593E-1,-4.581489414E-2
1.842318859E0,1.032362282E-1,1.453859210E-1,-4.764748737E-2
1.844333093E0,9.834930301E-2,1.343903542E-1,-4.886921868E-2
1.846317019E0,9.834930301E-2,1.288925707E-1,-5.009094998E-2
1.848330868E0,9.834930301E-2,1.123992056E-1,-5.070181563E-2
1.850314025E0,9.529497474E-2,9.834930301E-2,-5.253441259E-2
1.852329028E0,9.529497474E-2,8.857546002E-2,-5.192354694E-2
1.854311262E0,9.468411654E-2,7.391469181E-2,-5.375614017E-2
1.856326265E0,9.407325089E-2,6.169738993E-2,-5.497787148E-2
1.858310652E0,9.285151958E-2,5.192354694E-2,-5.681046844E-2
1.860325118E0,9.346238524E-2,3.604105115E-2,-5.986479297E-2
1.862308121E0,9.101892263E-2,2.443460934E-2,-6.108652428E-2
1.864321355E0,9.224065393E-2,1.832595654E-2,-6.169738993E-2
1.866336819E0,9.101892263E-2,6.108652335E-3,-6.536258012E-2
1.868320438E0,9.162978828E-2,-4.276056774E-3,-6.902777404E-2
1.870333364E0,8.979719132E-2,-9.162978269E-3,-6.841690838E-2
1.872317751E0,9.040805697E-2,-1.466076635E-2,-7.208210230E-2
1.874331524E0,8.979719132E-2,-1.954768784E-2,-7.269296050E-2
1.876315219E0,8.918632567E-2,-2.504547499E-2,-7.880161703E-2
1.878329453E0,8.735372871E-2,-2.993239649E-2,-8.307767659E-2
1.880313994E0,9.162978828E-2,-3.298672289E-2,-8.674286306E-2
1.882327613E0,9.101892263E-2,-3.665191308E-2,-9.101892263E-2
1.884311846E0,8.979719132E-2,-3.481931984E-2,-9.529497474E-2
1.886325465E0,9.468411654E-2,-3.665191308E-2,-1.001819000E-1
1.888308852E0,9.712757170E-2,-3.665191308E-2,-1.069014147E-1
1.890323009E0,1.020144969E-1,-3.665191308E-2,-1.136209369E-1
1.892306089E0,1.038470939E-1,-3.726277873E-2,-1.178969890E-1
1.894320554E0,1.075122803E-1,-3.665191308E-2,-1.252273768E-1
1.896335326E0,1.123992056E-1,-3.543018550E-2,-1.319468915E-1
1.898318944E0,1.148426682E-1,-3.237585723E-2,-1.362229437E-1
1.900333409E0,1.197295859E-1,-3.298672289E-2,-1.435533315E-1
1.902316566E0,1.227839142E-1,-3.298672289E-2,-1.453859210E-1
1.904329723E0,1.270599663E-1,-2.932153270E-2,-1.551597714E-1
1.906314649E0,1.362229437E-1,-3.115412779E-2,-1.661553532E-1
1.908328267E0,1.411098689E-1,-3.237585723E-2,-1.704314053E-1
1.910311885E0,1.472185254E-1,-3.543018550E-2,-1.808161139E-1
1.912325504E0,1.545489132E-1,-4.092797264E-2,-1.912008226E-1
1.914310045E0,1.600466967E-1,-4.337143153E-2,-1.985312104E-1
1.916323587E0,1.710422635E-1,-5.070181563E-2,-2.101376504E-1
1.918307282E0,1.826487035E-1,-5.925392732E-2,-2.254092693E-1
1.920322054E0,1.863138974E-1,-6.597344577E-2,-2.321287990E-1
1.922335980E0,2.015855312E-1,-7.941248268E-2,-2.492330223E-1
1.924320214E0,2.125810981E-1,-9.346238524E-2,-2.638937831E-1
1.926333832E0,2.168571651E-1,-1.001819000E-1,-2.736676335E-1
1.928317528E0,2.266310006E-1,-1.197295859E-1,-2.926044464E-1
1.930331685E0,2.425135076E-1,-1.398881376E-1,-3.072652221E-1
1.932315611E0,2.498438805E-1,-1.533271819E-1,-3.194825351E-1
1.934328921E0,2.614503205E-1,-1.808161139E-1,-3.359758854E-1
1.936312848E0,2.706133127E-1,-1.936442852E-1,-3.500257730E-1
1.938327620E0,2.803871334E-1,-2.254092693E-1,-3.701843321E-1
1.940312238E0,2.932153046E-1,-2.614503205E-1,-3.915646076E-1
1.942324933E0,3.005456924E-1,-2.809980214E-1,-4.037819207E-1
1.944308244E0,3.109304011E-1,-3.158173263E-1,-4.227187634E-1
1.946323632E0,3.207042515E-1,-3.585779071E-1,-4.483750761E-1
1.948306096E0,3.310889602E-1,-3.793473244E-1,-4.624249935E-1
1.950319330E0,3.402519524E-1,-4.239404798E-1,-4.917465150E-1
1.952335025E0,3.512475193E-1,-4.685336351E-1,-5.192354321E-1
1.954318721E0,3.567453027E-1,-4.954117239E-1,-5.314527750E-1
1.956332339E0,3.652974069E-1,-5.375614166E-1,-5.632177591E-1
1.958316034E0,3.775147200E-1,-5.827654600E-1,-5.894849896E-1
1.960331654E0,3.848451078E-1,-6.059783101E-1,-6.047565937E-1
1.962314195E0,3.982841372E-1,-6.481280327E-1,-6.359107494E-1
1.964329198E0,4.129449129E-1,-6.860016584E-1,-6.621779203E-1
1.966311432E0,4.221078753E-1,-7.037167549E-1,-6.774495840E-1
1.968325820E0,4.398229718E-1,-7.318165898E-1,-7.055493593E-1
1.970309823E0,4.489859641E-1,-7.409795523E-1,-7.171558142E-1
1.972323980E0,4.691445231E-1,-7.568620443E-1,-7.440338731E-1
1.974307752E0,4.838052690E-1,-7.678576112E-1,-7.660250068E-1
1.976321832E0,4.954117239E-1,-7.709119320E-1,-7.770205736E-1
1.978335142E0,5.161811113E-1,-7.751879692E-1,-8.002334833E-1
1.980320068E0,5.369505286E-1,-7.788531780E-1,-8.185594082E-1
1.982334148E0,5.467243791E-1,-7.794640660E-1,-8.283332586E-1
1.984316690E0,5.687155724E-1,-7.800748944E-1,-8.454375267E-1
1.986331693E0,5.900958180E-1,-7.819074988E-1,-8.619308472E-1
1.988314850E0,6.010913849E-1,-7.819074988E-1,-8.710938692E-1
1.990329545E0,6.243042946E-1,-7.825183868E-1,-8.839219809E-1
1.992312317E0,6.420193911E-1,-7.849618196E-1,-8.991936445E-1
1.994326782E0,6.524040699E-1,-7.843509912E-1,-9.071348906E-1
1.996310785E0,6.707300544E-1,-7.849618196E-1,-9.217956662E-1
1.998324711E0,6.896668673E-1,-7.867944241E-1,-9.395107627E-1
2.000308637E0,6.969972253E-1,-7.867944241E-1,-9.480628371E-1
2.002322794E0,7.147123218E-1,-7.898487449E-1,-9.682214260E-1
2.004337028E0,7.250970602E-1,-7.904596329E-1,-9.761626720E-1
2.006320415E0,7.434229851E-1,-7.941248417E-1,-9.987646937E-1
2.008334495E0,7.617489696E-1,-7.990117669E-1,-1.019534111E0
2.010317883E0,7.678576112E-1,-8.014551997E-1,-1.032362223E0
2.012332732E0,7.855727077E-1,-8.087855577E-1,-1.056185961E0
2.014316350E0,8.014551997E-1,-8.197811842E-1,-1.081842303E0
2.016330507E0,8.100073338E-1,-8.252789378E-1,-1.096503139E0
2.018314202E0,8.271115422E-1,-8.411614299E-1,-1.122770309E0
2.020328436E0,8.399397135E-1,-8.631525636E-1,-1.153924465E0
2.022311747E0,8.466592431E-1,-8.753699064E-1,-1.167974353E0
2.024325981E0,8.607091308E-1,-9.022479653E-1,-1.199128509E0
2.026310291E0,8.723155856E-1,-9.352346659E-1,-1.231504321E0
2.028323756E0,8.820894361E-1,-9.517280459E-1,-1.245554209E0
2.030306836E0,8.955284357E-1,-9.926560521E-1,-1.278540969E0
2.032321608E0,9.004153609E-1,-1.015868902E0,-1.295034289E0
2.034335457E0,9.108000994E-1,-1.062294602E0,-1.325577617E0
2.036319153E0,9.217956662E-1,-1.113607287E0,-1.359175205E0
2.038333386E0,9.260717034E-1,-1.136820197E0,-1.370781660E0
2.040317928E0,9.388998747E-1,-1.194241524E0,-1.404990077E0
2.042330854E0,9.486737251E-1,-1.250441194E0,-1.437365890E0
2.044316395E0,9.553932548E-1,-1.280373573E0,-1.452026725E0
2.046329321E0,9.663888216E-1,-1.339016676E0,-1.484402537E0
2.048313401E0,9.773843884E-1,-1.398270488E0,-1.514334917E0
2.050326635E0,9.828822017E-1,-1.422094345E0,-1.529606581E0
2.052310330E0,9.950994849E-1,-1.473407030E0,-1.557706356E0
2.054324795E0,1.007927656E0,-1.518610954E0,-1.590693116E0
2.056308183E0,1.012203693E0,-1.539991260E0,-1.605964780E0
2.058322647E0,1.022588372E0,-1.579697490E0,-1.640784025E0
2.060337344E0,1.031140566E0,-1.609629869E0,-1.672549009E0
2.062320500E0,1.038470864E0,-1.621847272E0,-1.686598897E0
2.064334042E0,1.048244715E0,-1.637729764E0,-1.716531396E0
2.066318353E0,1.054964304E0,-1.638340592E0,-1.734246373E0
2.068332125E0,1.067181587E0,-1.634064555E0,-1.762957096E0
2.070316205E0,1.078788042E0,-1.611462474E0,-1.788002610E0
2.072330054E0,1.084896684E0,-1.599245191E0,-1.801441550E0
2.074313672E0,1.096503139E0,-1.566258430E0,-1.825265408E0
2.076327829E0,1.107498646E0,-1.533271790E0,-1.849699974E0
2.078311294E0,1.112385631E0,-1.515556693E0,-1.860084653E0
2.080326681E0,1.122159481E0,-1.473407030E0,-1.881464958E0
2.082309377E0,1.136209369E0,-1.433089852E0,-1.897347450E0
2.084324533E0,1.140485406E0,-1.411709547E0,-1.904677868E0
2.086307229E0,1.149037480E0,-1.369559884E0,-1.921782017E0
2.088321693E0,1.156978726E0,-1.324355841E0,-1.930945039E0
2.090335619E0,1.162476540E0,-1.301142931E0,-1.935831904E0
2.092318622E0,1.170417786E0,-1.253495455E0,-1.946827531E0
2.094333164E0,1.178359032E0,-1.205237150E0,-1.955379605E0
2.096317398E0,1.179580808E0,-1.180802464E0,-1.955379605E0
2.098332170E0,1.183856845E0,-1.128268123E0,-1.962099195E0
2.100316250E0,1.186911225E0,-1.103833556E0,-1.964542627E0
2.102329407E0,1.190576315E0,-1.053742528E0,-1.969429493E0
2.104312256E0,1.195463300E0,-1.002429843E0,-1.973705649E0
2.106326951E0,1.195463300E0,-9.786061049E-1,-1.974316478E0
2.108310416E0,1.199739337E0,-9.297369123E-1,-1.977981687E0
2.110323342E0,1.205847979E0,-8.857545853E-1,-1.983479500E0
2.112308499E0,1.207680583E0,-8.655960560E-1,-1.989588141E0
2.114322040E0,1.208291411E0,-8.258898258E-1,-1.995696783E0
2.116336505E0,1.211956620E0,-7.947356701E-1,-2.004859686E0
2.118320200E0,1.210734963E0,-7.800748944E-1,-2.014022827E0
2.120334972E0,1.213178396E0,-7.611380816E-1,-2.024407387E0
2.122317437E0,1.212567568E0,-7.507534027E-1,-2.037846565E0
2.124332901E0,1.211956620E0,-7.470881939E-1,-2.044565916E0
2.126315597E0,1.212567568E0,-7.495316267E-1,-2.061059237E0
2.128330061E0,1.213789225E0,-7.611380816E-1,-2.077552795E0
2.130314064E0,1.213789225E0,-7.715228200E-1,-2.086715698E0
2.132327913E0,1.212567568E0,-7.929030657E-1,-2.103209019E0
2.134311609E0,1.213178396E0,-8.057312369E-1,-2.114204645E0
2.136325150E0,1.213178396E0,-8.374962807E-1,-2.131308794E0
2.138309230E0,1.215621829E0,-8.759807348E-1,-2.148413181E0
2.140324310E0,1.212567568E0,-8.979719281E-1,-2.158186913E0
2.142307621E0,1.211345792E0,-9.462302923E-1,-2.176512957E0
2.144320547E0,1.210124016E0,-9.950994849E-1,-2.197282314E0
2.146335627E0,1.208902359E0,-1.022588372E0,-2.208277941E0
2.148318399E0,1.208291411E0,-1.079398870E0,-2.228436470E0
2.150333171E0,1.207069755E0,-1.133154988E0,-2.248594999E0
2.152316328E0,1.205237150E0,-1.160033107E0,-2.258368731E0
2.154330792E0,1.198517561E0,-1.219897866E0,-2.277305603E0
2.156314488E0,1.194852471E0,-1.275486588E0,-2.301740170E0
2.158328568E0,1.195463300E0,-1.305419087E0,-2.312735796E0
2.160313186E0,1.190576315E0,-1.361007810E0,-2.337170362E0
2.162326805E0,1.184467673E0,-1.414763927E0,-2.365881205E0
2.164311116E0,1.182635069E0,-1.440420270E0,-2.386039734E0
2.166323735E0,1.178969979E0,-1.488678575E0,-2.425745964E0
2.168307968E0,1.175304770E0,-1.513113260E0,-2.441017628E0
2.170322202E0,1.167363524E0,-1.561982393E0,-2.469117403E0
2.172336667E0,1.158200502E0,-1.602910399E0,-2.495995283E0
2.174319977E0,1.155146122E0,-1.621847272E0,-2.513099670E0
2.176333826E0,1.145983219E0,-1.657888293E0,-2.539977789E0
2.178317522E0,1.137431145E0,-1.689042449E0,-2.565023184E0
2.180333217E0,1.131933331E0,-1.703092337E0,-2.580905676E0
2.182315759E0,1.122159481E0,-1.725083470E0,-2.604729414E0
2.184328992E0,1.110553026E0,-1.739744186E0,-2.625498772E0
2.186314149E0,1.106276989E0,-1.744020224E0,-2.632218361E0
2.188327768E0,1.097724795E0,-1.751961470E0,-2.652987719E0
2.190310232E0,1.088561893E0,-1.755626678E0,-2.667037725E0
2.192325543E0,1.082453251E0,-1.753183246E0,-2.674978971E0
2.194308700E0,1.073290229E0,-1.749518037E0,-2.684141874E0
2.196323164E0,1.069625020E0,-1.750739813E0,-2.691472292E0
2.198306783E0,1.056796908E0,-1.748907208E0,-2.698191881E0
2.200321632E0,1.041525245E0,-1.745242000E0,-2.703689575E0
2.202334866E0,1.037860036E0,-1.749518037E0,-2.707965612E0
2.204318869E0,1.027475357E0,-1.752572417E0,-2.714074373E0
2.206332948E0,1.014647126E0,-1.759291887E0,-2.714685202E0
2.208316028E0,1.008538485E0,-1.762957096E0,-2.715906858E0
2.210330878E0,9.944885969E-1,-1.769065738E0,-2.724458933E0
2.212314265E0,9.828822017E-1,-1.783115625E0,-2.726902485E0
2.214328653E0,9.761626720E-1,-1.789835215E0,-2.725680828E0
2.216312425E0,9.621127844E-1,-1.803274155E0,-2.729956865E0
2.218326813E0,9.450085163E-1,-1.810604572E0,-2.733622074E0
2.220311739E0,9.382890463E-1,-1.814880610E0,-2.737898111E0
2.222324126E0,9.260717034E-1,-1.821600199E0,-2.740952253E0
2.224307514E0,9.114109278E-1,-1.821600199E0,-2.750726223E0
2.226322825E0,9.089674950E-1,-1.825876236E0,-2.753780603E0
2.228335828E0,9.004153609E-1,-1.829541445E0,-2.764775991E0
2.230319523E0,8.943067193E-1,-1.825876236E0,-2.770273924E0
2.232333680E0,8.839219809E-1,-1.817324162E0,-2.777604342E0
2.234317606E0,8.747590184E-1,-1.799609065E0,-2.789210796E0
2.236332070E0,8.717046976E-1,-1.785559058E0,-2.793486834E0
2.238314843E0,8.625417352E-1,-1.754405022E0,-2.806314945E0
2.240330615E0,8.564330935E-1,-1.717142224E0,-2.816088676E0
2.242313695E0,8.521569967E-1,-1.695151091E0,-2.824029922E0
2.244327544E0,8.472700715E-1,-1.653612256E0,-2.833803892E0
2.246311162E0,8.417723179E-1,-1.605353832E0,-2.849075556E0
2.248325396E0,8.368853927E-1,-1.581530094E0,-2.854573250E0
2.250309015E0,8.332201838E-1,-1.535715222E0,-2.864958048E0
2.252322864E0,8.332201838E-1,-1.488678575E0,-2.875953674E0
2.254337328E0,8.326093554E-1,-1.467909217E0,-2.880840540E0
2.256320408E0,8.301658630E-1,-1.423316002E0,-2.891225100E0
2.258334950E0,8.289441466E-1,-1.392161846E0,-2.893057823E0
2.260320491E0,8.283332586E-1,-1.375057697E0,-2.894890308E0
2.262333341E0,8.252789378E-1,-1.350623012E0,-2.897333860E0
2.264315883E0,8.240572214E-1,-1.342681766E0,-2.895501375E0
2.266330886E0,8.197811842E-1,-1.331686258E0,-2.895501375E0
2.268315196E0,8.118399382E-1,-1.333518863E0,-2.899166346E0
2.270327892E0,8.100073338E-1,-1.335351467E0,-2.897333860E0
2.272311895E0,8.020660877E-1,-1.345736146E0,-2.895501375E0
2.274326359E0,7.929030657E-1,-1.359786034E0,-2.890003443E0
2.276309978E0,7.867944241E-1,-1.370170712E0,-2.889392614E0
2.278323827E0,7.684684992E-1,-1.417818189E0,-2.879007816E0
2.280308138E0,7.568620443E-1,-1.447750688E0,-2.855794907E0
2.282321448E0,7.562511563E-1,-1.450194120E0,-2.854573250E0
2.284337067E0,7.489207983E-1,-1.456302762E0,-2.855184078E0
2.286319300E0,7.415903807E-1,-1.470963478E0,-2.858238459E0
2.288333688E0,7.348709106E-1,-1.478904724E0,-2.866179705E0
2.290317691E0,7.195992470E-1,-1.482569933E0,-2.876564503E0
2.292331848E0,7.104362845E-1,-1.491732955E0,-2.894279480E0
2.294315543E0,7.018841505E-1,-1.494176388E0,-2.906496763E0
2.296329469E0,6.902777553E-1,-1.498452425E0,-2.929709673E0
2.298313088E0,6.841690540E-1,-1.498452425E0,-2.943148851E0
2.300328475E0,6.676757336E-1,-1.500285029E0,-2.970026731E0
2.302310401E0,6.487388611E-1,-1.503339410E0,-2.999348402E0
2.304324174E0,6.426302195E-1,-1.501506805E0,-3.014620066E0
2.306309177E0,6.273586154E-1,-1.497230768E0,-3.042719841E0
2.308323333E0,6.114761233E-1,-1.489900351E0,-3.078150034E0
2.310306952E0,6.047565937E-1,-1.482569933E0,-3.099530220E0
2.312319955E0,5.907067060E-1,-1.466076612E0,-3.135571241E0
2.314335035E0,5.766568184E-1,-1.452026725E0,-3.163671017E0
2.316317730E0,5.699372888E-1,-1.441641927E0,-3.172834158E0
2.318332502E0,5.595525503E-1,-1.421483397E0,-3.194825172E0
2.320317736E0,5.479460955E-1,-1.396438003E0,-3.211929560E0
2.322330662E0,5.400048494E-1,-1.382387996E0,-3.216205597E0
2.324314742E0,5.296201706E-1,-1.354288220E0,-3.229644537E0
2.326327591E0,5.247332454E-1,-1.340238333E0,-3.235753298E0
2.328311287E0,5.161811113E-1,-1.310916781E0,-3.244916201E0
2.330326136E0,5.082398653E-1,-1.276097536E0,-3.252246618E0
2.332310139E0,5.051855445E-1,-1.260825872E0,-3.252857447E0
2.334323911E0,4.996877611E-1,-1.230282545E0,-3.260187864E0
2.336307376E0,4.941899776E-1,-1.193630695E0,-3.262020350E0
2.338322148E0,4.899139404E-1,-1.176526427E0,-3.263853073E0
2.340336535E0,4.813618064E-1,-1.143539786E0,-3.266907215E0
2.342319692E0,4.752531648E-1,-1.109331250E0,-3.269350767E0
2.344333157E0,4.703662395E-1,-1.094670534E0,-3.270572424E0
2.346317852E0,4.636467099E-1,-1.064738154E0,-3.269961596E0
2.348331624E0,4.557054639E-1,-1.042747021E0,-3.273626804E0
2.350314781E0,4.514294267E-1,-1.032362223E0,-3.274237633E0
2.352330092E0,4.428772926E-1,-1.020755768E0,-3.279735565E0
2.354312633E0,4.312708676E-1,-1.016479731E0,-3.281568050E0
2.356327021E0,4.263839424E-1,-1.015868902E0,-3.285233259E0
2.358310486E0,4.153883755E-1,-1.023199320E0,-3.285844088E0
2.360325796E0,4.129449129E-1,-1.029918790E0,-3.291342020E0
2.362308338E0,3.970624208E-1,-1.043968678E0,-3.295007229E0
2.364323034E0,3.872885704E-1,-1.064127207E0,-3.301726580E0
2.366337268E0,3.811798990E-1,-1.078177214E0,-3.306002617E0
2.368320578E0,3.665191531E-1,-1.117272496E0,-3.310278654E0
2.370334120E0,3.530801237E-1,-1.160033107E0,-3.305391788E0
2.372318123E0,3.475823104E-1,-1.186300278E0,-3.303559303E0
2.374332587E0,3.316998184E-1,-1.231504321E0,-3.298672438E0
2.376315744E0,3.231477141E-1,-1.244332552E0,-3.302948475E0
2.378330824E0,3.170390725E-1,-1.251662850E0,-3.311500549E0
2.380315058E0,3.023782969E-1,-1.267545342E0,-3.324939489E0
2.382328907E0,2.889392674E-1,-1.268156290E0,-3.339600325E0
2.384311141E0,2.816088796E-1,-1.268767118E0,-3.351817608E0
2.386325221E0,2.712241709E-1,-1.269988894E0,-3.379306555E0
2.388309839E0,2.596177161E-1,-1.274875760E0,-3.406184673E0
2.390323765E0,2.522873580E-1,-1.274264932E0,-3.419012785E0
2.392306845E0,2.394591719E-1,-1.279762745E0,-3.451999426E0
2.394321310E0,2.357939780E-1,-1.280984402E0,-3.468492746E0
2.396335774E0,2.217440903E-1,-1.279151797E0,-3.513696909E0
2.398318854E0,2.113593817E-1,-1.282817006E0,-3.544851065E0
2.400334550E0,2.028072625E-1,-1.285871387E0,-3.558900833E0
2.402317245E0,1.881465018E-1,-1.295645237E0,-3.581502914E0
2.404331171E0,1.722639948E-1,-1.301753879E0,-3.601050615E0
2.406315097E0,1.631010175E-1,-1.302364707E0,-3.604715824E0
2.408328715E0,1.466076523E-1,-1.302975535E0,-3.621209145E0
2.410312642E0,1.301143020E-1,-1.298699498E0,-3.633426428E0
2.412327183E0,1.233947799E-1,-1.295645237E0,-3.640756845E0
2.414310263E0,1.020144969E-1,-1.282206178E0,-3.648087263E0
2.416324420E0,8.674286306E-2,-1.260215044E0,-3.658472061E0
2.418308115E0,8.002334833E-2,-1.246165156E0,-3.662748098E0
2.420323734E0,6.108652428E-2,-1.215011001E0,-3.668856621E0
2.422306198E0,4.642575979E-2,-1.176526427E0,-3.673743486E0
2.424320124E0,3.848451003E-2,-1.155146122E0,-3.677408695E0
2.426335204E0,2.565634064E-2,-1.115439892E0,-3.679852247E0
2.428318207E0,2.260201424E-2,-1.097113967E0,-3.680463076E0
2.430331441E0,7.941247895E-3,-1.060462117E0,-3.687182665E0
2.432316136E0,-1.832595794E-3,-1.024420977E0,-3.689625978E0
2.434329908E0,-5.497787148E-3,-1.013425469E0,-3.693291187E0
2.436314219E0,-1.466076635E-2,-9.896016717E-1,-3.698789120E0
2.438327837E0,-2.809980139E-2,-9.688322544E-1,-3.706119537E0
2.440312379E0,-3.115412779E-2,-9.627236128E-1,-3.707341194E0
2.442325382E0,-4.276056588E-2,-9.462302923E-1,-3.714060783E0
2.444309923E0,-5.619960278E-2,-9.364564419E-1,-3.720780134E0
2.446323542E0,-6.414084882E-2,-9.309586287E-1,-3.723223686E0
2.448306622E0,-8.124507964E-2,-9.187413454E-1,-3.731775761E0
2.450321394E0,-9.590584040E-2,-9.150761366E-1,-3.737273455E0
2.452336089E0,-1.032362282E-1,-9.108000994E-1,-3.742160559E0
2.454319477E0,-1.227839142E-1,-9.040805697E-1,-3.746436596E0
2.456333326E0,-1.429424733E-1,-8.991936445E-1,-3.753156185E0
2.458316483E0,-1.527163088E-1,-8.936958313E-1,-3.753156185E0
2.460332102E0,-1.734857261E-1,-8.875871897E-1,-3.758653879E0
2.462314643E0,-1.893682331E-1,-8.820894361E-1,-3.760486364E0
2.464328416E0,-2.076941878E-1,-8.759807348E-1,-3.767205954E0
2.466312727E0,-2.296853364E-1,-8.643743396E-1,-3.776979923E0
2.468326345E0,-2.400700450E-1,-8.607091308E-1,-3.781866789E0
2.470310579E0,-2.596177161E-1,-8.515461683E-1,-3.791640520E0
2.472324505E0,-2.797762752E-1,-8.423831463E-1,-3.805690527E0
2.474307277E0,-2.907718420E-1,-8.362745047E-1,-3.811799049E0
2.476322280E0,-3.078760803E-1,-8.258898258E-1,-3.822794676E0
2.478337052E0,-3.243694305E-1,-8.106181622E-1,-3.834401131E0
2.480321132E0,-3.323107064E-1,-8.051204085E-1,-3.841731548E0
2.482334674E0,-3.463605940E-1,-7.886270285E-1,-3.850283623E0
2.484318908E0,-3.573561609E-1,-7.666358948E-1,-3.861279249E0
2.486332834E0,-3.640756905E-1,-7.556403279E-1,-3.864333630E0
2.488316221E0,-3.775147200E-1,-7.305948138E-1,-3.875329018E0
2.490330378E0,-3.830125034E-1,-7.147123218E-1,-3.878383398E0
2.492313766E0,-3.927863538E-1,-6.866125464E-1,-3.883270264E0
2.494327230E0,-4.031710625E-1,-6.597344875E-1,-3.889379025E0
2.496311541E0,-4.050036669E-1,-6.432411075E-1,-3.891211510E0
2.498325390E0,-4.141666293E-1,-6.114761233E-1,-3.893655062E0
2.500311239E0,-4.214970171E-1,-5.772676468E-1,-3.894876719E0
2.502323550E0,-4.251621962E-1,-5.601634383E-1,-3.899763823E0
2.504306322E0,-4.349360466E-1,-5.283984542E-1,-3.904650688E0
2.506321479E0,-4.410447180E-1,-5.015203953E-1,-3.901596308E0
2.508335944E0,-4.471533597E-1,-4.874704778E-1,-3.897931099E0
2.510318639E0,-4.569272101E-1,-4.654793143E-1,-3.892433405E0
2.512332796E0,-4.667010605E-1,-4.428772926E-1,-3.889379025E0
2.514316491E0,-4.715879560E-1,-4.331034720E-1,-3.888768196E0
2.516330956E0,-4.825835526E-1,-4.153883755E-1,-3.886324644E0
2.518314420E0,-4.960225821E-1,-4.031710625E-1,-3.885102987E0
2.520330039E0,-5.021312237E-1,-3.982841372E-1,-3.886324644E0
2.522312195E0,-5.119050741E-1,-3.903428912E-1,-3.885713816E0
2.524326737E0,-5.186246037E-1,-3.897320330E-1,-3.885102987E0
2.526310355E0,-5.326744914E-1,-3.817907870E-1,-3.887546301E0
2.528324204E0,-5.455026627E-1,-3.775147200E-1,-3.888157368E0
2.530307977E0,-5.540547967E-1,-3.750712574E-1,-3.890600681E0
2.532321749E0,-5.705481172E-1,-3.695734739E-1,-3.893044233E0
2.534335983E0,-5.882632136E-1,-3.652974069E-1,-3.893044233E0
2.536320216E0,-5.986479521E-1,-3.604104817E-1,-3.896098614E0
2.538334373E0,-6.194173694E-1,-3.604104817E-1,-3.895487785E0
2.540318376E0,-6.365215778E-1,-3.555235863E-1,-3.896709442E0
2.542332302E0,-6.462954283E-1,-3.561344445E-1,-3.894876719E0
2.544312305E0,-6.658431292E-1,-3.628539443E-1,-3.891822577E0
2.546330078E0,-6.847799420E-1,-3.665191531E-1,-3.888157368E0
2.548313850E0,-6.939429045E-1,-3.720169365E-1,-3.885713816E0
2.550327084E0,-7.086036801E-1,-3.543018401E-1,-3.888768196E0
2.552311087E0,-7.232644558E-1,-3.341432810E-1,-3.894876719E0
2.554325244E0,-7.287622094E-1,-3.213151097E-1,-3.896709442E0
2.556309247E0,-7.391469479E-1,-2.968805134E-1,-3.902817965E0
2.558323634E0,-7.428121567E-1,-2.828305960E-1,-3.907094002E0
2.560308329E0,-7.513642311E-1,-2.608394623E-1,-3.913202763E0
2.562320948E0,-7.593054771E-1,-2.321287990E-1,-3.915035248E0
2.564335952E0,-7.629706860E-1,-2.205223590E-1,-3.916257143E0
2.566319032E0,-7.703011036E-1,-1.979203373E-1,-3.914424419E0
2.568333266E0,-7.776314616E-1,-1.759291887E-1,-3.911981106E0
2.570316345E0,-7.831292152E-1,-1.655444801E-1,-3.908926725E0
2.572330425E0,-7.892379165E-1,-1.472185254E-1,-3.902207136E0
2.574314121E0,-8.008443117E-1,-1.282816976E-1,-3.894265890E0
2.576328662E0,-8.045095205E-1,-1.203404516E-1,-3.888768196E0
2.578312973E0,-8.106181622E-1,-1.069014147E-1,-3.873496532E0
2.580326745E0,-8.197811842E-1,-9.162978828E-2,-3.863111734E0
2.582310210E0,-8.228355050E-1,-8.857546002E-2,-3.852727175E0
2.584324597E0,-8.295549750E-1,-7.696902007E-2,-3.836844683E0
2.586308600E0,-8.344419003E-1,-7.024950534E-2,-3.827070713E0
2.588322757E0,-8.393288255E-1,-6.291911751E-2,-3.811799049E0
2.590335683E0,-8.466592431E-1,-5.253441259E-2,-3.789197206E0
2.592320071E0,-8.515461683E-1,-4.948008433E-2,-3.779423237E0
2.594333612E0,-8.576548100E-1,-4.642575979E-2,-3.761708260E0
2.596317615E0,-8.668177724E-1,-3.909537569E-2,-3.739717007E0
2.598331695E0,-8.710938692E-1,-3.665191308E-2,-3.729943275E0
2.600316314E0,-8.765916228E-1,-3.787364438E-2,-3.709173679E0
2.602329855E0,-8.839219809E-1,-3.481931984E-2,-3.685349941E0
2.604313935E0,-8.888089061E-1,-3.481931984E-2,-3.676797867E0
2.606328400E0,-8.949176073E-1,-3.481931984E-2,-3.652363300E0
2.608310864E0,-9.004153609E-1,-3.909537569E-2,-3.632815599E0
2.610325252E0,-9.022479653E-1,-4.092797264E-2,-3.623041868E0
2.612308409E0,-9.138544202E-1,-4.948008433E-2,-3.603494167E0
2.614322796E0,-9.230173826E-1,-5.803219974E-2,-3.585778952E0
2.616337030E0,-9.285151958E-1,-6.414084882E-2,-3.576616049E0
2.618320956E0,-9.388998747E-1,-7.757988572E-2,-3.560122728E0
2.620335421E0,-9.450085163E-1,-9.346238524E-2,-3.553403139E0
2.622319116E0,-9.553932548E-1,-1.032362282E-1,-3.537520647E0
2.624332042E0,-9.645562172E-1,-1.191187203E-1,-3.522248983E0
2.626316353E0,-9.712757468E-1,-1.307251602E-1,-3.515529394E0
2.628330510E0,-9.786061049E-1,-1.496619880E-1,-3.500257969E0
2.630314282E0,-9.883799553E-1,-1.667662114E-1,-3.486207962E0
2.632328054E0,-9.938777685E-1,-1.740965992E-1,-3.479488373E0
2.634312365E0,-1.000597239E0,-1.844813079E-1,-3.466049433E0
2.636326906E0,-1.004873276E0,-1.899790913E-1,-3.451999426E0
2.638310294E0,-1.009760261E0,-1.893682331E-1,-3.444669008E0
2.640324989E0,-1.010982037E0,-1.893682331E-1,-3.426343203E0
2.642308069E0,-1.012203693E0,-1.820378453E-1,-3.408017159E0
2.644322534E0,-1.012814522E0,-1.765400618E-1,-3.398854256E0
2.646336690E0,-1.012814522E0,-1.600466967E-1,-3.376252174E0
2.648319770E0,-1.012814522E0,-1.435533315E-1,-3.351817608E0
2.650334004E0,-1.010371089E0,-1.313360333E-1,-3.339600325E0
2.652317084E0,-1.006095052E0,-1.130100712E-1,-3.312111378E0
2.654331472E0,-1.000597239E0,-1.007927656E-1,-3.299894094E0
2.656315782E0,-9.938777685E-1,-7.819075137E-2,-3.268129110E0
2.658329324E0,-9.889908433E-1,-5.375614017E-2,-3.235142231E0
2.660314558E0,-9.816604257E-1,-3.909537569E-2,-3.218038082E0
2.662326869E0,-9.731083512E-1,-1.343903504E-2,-3.185051441E0
2.664310333E0,-9.633345008E-1,1.343903504E-2,-3.146566868E0
2.666325337E0,-9.560040832E-1,2.443460934E-2,-3.128851891E0
2.668309109E0,-9.474520087E-1,4.948008433E-2,-3.092810631E0
2.670321958E0,-9.395107627E-1,7.330382615E-2,-3.059213161E0
2.672337038E0,-9.334021211E-1,8.246681094E-2,-3.042719841E0
2.674321041E0,-9.285151958E-1,1.026253626E-1,-3.007289648E0
2.676334660E0,-9.205739498E-1,1.172861308E-1,-2.976135492E0
2.678318047E0,-9.187413454E-1,1.227839142E-1,-2.961474657E0
2.680333435E0,-9.138544202E-1,1.319468915E-1,-2.934596539E0
2.682316438E0,-9.095783234E-1,1.356120855E-1,-2.905885935E0
2.684330979E0,-9.065240026E-1,1.368338168E-1,-2.894279480E0
2.686314290E0,-9.065240026E-1,1.362229437E-1,-2.874120951E0
2.688328524E0,-9.065240026E-1,1.350012124E-1,-2.860682011E0
2.690311604E0,-9.077457786E-1,1.282816976E-1,-2.839912415E0
2.692326299E0,-9.089674950E-1,1.191187203E-1,-2.816088676E0
2.694310379E0,-9.095783234E-1,1.117883399E-1,-2.804482222E0
2.696323920E0,-9.120218158E-1,9.896016866E-2,-2.777604342E0
2.698307308E0,-9.132435322E-1,8.796459436E-2,-2.753780603E0
2.700322926E0,-9.156870246E-1,8.368854225E-2,-2.739730597E0
2.702336160E0,-9.150761366E-1,7.147123665E-2,-2.709187269E0
2.704319240E0,-9.156870246E-1,5.925392732E-2,-2.678033352E0
2.706333474E0,-9.175195694E-1,5.131268129E-2,-2.660318136E0
2.708318323E0,-9.199630618E-1,3.665191308E-2,-2.626720667E0
2.710330711E0,-9.199630618E-1,2.138028294E-2,-2.589457750E0
2.712315329E0,-9.230173826E-1,1.099557430E-2,-2.565634012E0
2.714329486E0,-9.224064946E-1,-3.665191587E-3,-2.528982162E0
2.716313412E0,-9.230173826E-1,-2.321287990E-2,-2.510656118E0
2.718327030E0,-9.224064946E-1,-3.420845419E-2,-2.467895508E0
2.720311956E0,-9.236282706E-1,-5.314527452E-2,-2.423913240E0
2.722325190E0,-9.254608750E-1,-6.291911751E-2,-2.403754711E0
2.724309193E0,-9.260717034E-1,-8.368854225E-2,-2.362826824E0
2.726322350E0,-9.260717034E-1,-1.007927656E-1,-2.318844557E0
2.728336507E0,-9.254608750E-1,-1.099557430E-1,-2.299907684E0
2.730320587E0,-9.291260242E-1,-1.288925707E-1,-2.257757902E0
2.732334744E0,-9.315695167E-1,-1.508837193E-1,-2.218051672E0
2.734318439E0,-9.303477407E-1,-1.612684280E-1,-2.197893143E0
2.736332904E0,-9.327912331E-1,-1.808161139E-1,-2.158186913E0
2.738316291E0,-9.358455539E-1,-2.009746730E-1,-2.123367548E0
2.740330987E0,-9.358455539E-1,-2.089159191E-1,-2.105041742E0
2.742314682E0,-9.364564419E-1,-2.315179259E-1,-2.067778826E0
2.744328223E0,-9.352346659E-1,-2.492330223E-1,-2.036013842E0
2.746312919E0,-9.370672703E-1,-2.571742535E-1,-2.017687798E0
2.748327306E0,-9.358455539E-1,-2.712241709E-1,-1.989588141E0
2.750308617E0,-9.358455539E-1,-2.779437006E-1,-1.970651269E0
2.752323389E0,-9.364564419E-1,-2.895501256E-1,-1.941329718E0
2.754337546E0,-9.388998747E-1,-3.011565804E-1,-1.911397338E0
2.756321780E0,-9.437867999E-1,-3.066543639E-1,-1.894904017E0
2.758335321E0,-9.468411207E-1,-3.145956099E-1,-1.868636727E0
2.760319401E0,-9.547823668E-1,-3.274237812E-1,-1.844812989E0
2.762334405E0,-9.541715384E-1,-3.341432810E-1,-1.831984878E0
2.764318408E0,-9.584475756E-1,-3.414736688E-1,-1.807550311E0
2.766331642E0,-9.621127844E-1,-3.475823104E-1,-1.781893969E0
2.768314799E0,-9.615018964E-1,-3.506366611E-1,-1.769065738E0
2.770329494E0,-9.572258592E-1,-3.506366611E-1,-1.746463776E0
2.772312343E0,-9.529497623E-1,-3.439171314E-1,-1.718974829E0
2.774327039E0,-9.498954415E-1,-3.402519524E-1,-1.706146598E0
2.776310195E0,-9.456194043E-1,-3.262020350E-1,-1.679268599E0
2.778325506E0,-9.352346659E-1,-3.078760803E-1,-1.654833913E0
2.780309586E0,-9.303477407E-1,-2.993239760E-1,-1.642005801E0
2.782323051E0,-9.224064946E-1,-2.791654170E-1,-1.612073421E0
2.784335977E0,-9.169087410E-1,-2.693915665E-1,-1.597412586E0
2.786320672E0,-9.077457786E-1,-2.480112910E-1,-1.571145415E0
2.788334521E0,-8.961393237E-1,-2.290744632E-1,-1.545489073E0
2.790317909E0,-8.906415105E-1,-2.193006277E-1,-1.530828357E0
2.792332373E0,-8.833111525E-1,-2.064724565E-1,-1.502117634E0
2.794316299E0,-8.717046976E-1,-1.985312104E-1,-1.475850463E0
2.796330149E0,-8.668177724E-1,-1.954768747E-1,-1.460578799E0
2.798313536E0,-8.539896011E-1,-1.936442852E-1,-1.434311628E0
2.800328308E0,-8.417723179E-1,-1.985312104E-1,-1.406211853E0
2.802312004E0,-8.356636763E-1,-2.021963894E-1,-1.393383622E0
2.804326238E0,-8.222246170E-1,-2.174680233E-1,-1.367727280E0
2.806308702E0,-8.087855577E-1,-2.364048511E-1,-1.340849161E0
2.808323167E0,-8.063421249E-1,-2.474004179E-1,-1.329242826E0
2.810337631E0,-7.977899909E-1,-2.730567753E-1,-1.302364707E0
2.812321019E0,-7.861835957E-1,-2.987131178E-1,-1.274264932E0
2.814335714E0,-7.812966704E-1,-3.158173263E-1,-1.260825872E0
2.816319409E0,-7.733554244E-1,-3.512475193E-1,-1.233947754E0
2.818333643E0,-7.715228200E-1,-3.683517575E-1,-1.219287038E0
2.820317954E0,-7.641924024E-1,-4.050036669E-1,-1.191798091E0
2.822331803E0,-7.580837607E-1,-4.471533597E-1,-1.164309144E0
2.824314268E0,-7.568620443E-1,-4.685336351E-1,-1.150259256E0
2.826329347E0,-7.525860071E-1,-5.143485069E-1,-1.123381138E0
2.828313274E0,-7.452555895E-1,-5.589417219E-1,-1.093448758E0
2.830326277E0,-7.476990819E-1,-5.815436840E-1,-1.078788042E0
2.832310818E0,-7.470881939E-1,-6.243042946E-1,-1.051299095E0
2.834325283E0,-7.476990819E-1,-6.676757336E-1,-1.020144939E0
2.836308055E0,-7.495316267E-1,-6.878342628E-1,-1.007316828E0
2.838322289E0,-7.501425147E-1,-7.214318514E-1,-9.773843884E-1
2.840337369E0,-7.519751191E-1,-7.495316267E-1,-9.505063295E-1
2.842320372E0,-7.556403279E-1,-7.611380816E-1,-9.370672703E-1
2.844334528E0,-7.531968355E-1,-7.812966704E-1,-9.108000994E-1
2.846317685E0,-7.525860071E-1,-7.953465581E-1,-8.851437569E-1
2.848332381E0,-7.531968355E-1,-7.959573865E-1,-8.723155856E-1
2.850316153E0,-7.489207983E-1,-7.935139537E-1,-8.515461683E-1
2.852330233E0,-7.483099103E-1,-7.904596329E-1,-8.368853927E-1
2.854313313E0,-7.354817390E-1,-7.727445364E-1,-8.142833710E-1
2.856327777E0,-7.269296646E-1,-7.409795523E-1,-7.880161405E-1
2.858311780E0,-7.195992470E-1,-7.220427394E-1,-7.745771408E-1
2.860326245E0,-7.024950385E-1,-6.774495840E-1,-7.446447611E-1
2.862309632E0,-6.884451509E-1,-6.218608022E-1,-7.128797174E-1
2.864322636E0,-6.792821288E-1,-5.913175344E-1,-6.933320761E-1
2.866338024E0,-6.579018831E-1,-5.296201706E-1,-6.591235995E-1
2.868320719E0,-6.407976151E-1,-4.654793143E-1,-6.188064814E-1
2.870334953E0,-6.279694438E-1,-4.355469346E-1,-5.955936313E-1
2.872319187E0,-6.090326309E-1,-3.744603992E-1,-5.546656251E-1
2.874333113E0,-5.870414972E-1,-3.158173263E-1,-5.155702829E-1
2.876316424E0,-5.766568184E-1,-2.883284092E-1,-4.948008358E-1
2.878331273E0,-5.583308339E-1,-2.382374406E-1,-4.587597847E-1
2.880316199E0,-5.442809463E-1,-2.156354338E-1,-4.410447180E-1
2.882329663E0,-5.229006410E-1,-1.765400618E-1,-4.056145251E-1
2.884313359E0,-5.057964325E-1,-1.429424733E-1,-3.750712574E-1
2.886326054E0,-4.972442985E-1,-1.288925707E-1,-3.597996235E-1
2.888310365E0,-4.776966274E-1,-1.075122803E-1,-3.335324228E-1
2.890324522E0,-4.624249935E-1,-9.346238524E-2,-3.097086847E-1
2.892308140E0,-4.557054639E-1,-8.918632567E-2,-2.987131178E-1
2.894322681E0,-4.434881806E-1,-8.429940045E-2,-2.809980214E-1
2.896336454E0,-4.318817258E-1,-9.101892263E-2,-2.626720667E-1
2.898320534E0,-4.288274050E-1,-9.834930301E-2,-2.553416789E-1
2.900335229E0,-4.208861589E-1,-1.154535338E-1,-2.400700450E-1
2.902317770E0,-4.129449129E-1,-1.435533315E-1,-2.278527319E-1
2.904331004E0,-4.086688459E-1,-1.600466967E-1,-2.217440903E-1
2.906316776E0,-4.050036669E-1,-2.009746730E-1,-2.095267773E-1
2.908330010E0,-3.995058835E-1,-2.455678284E-1,-1.966986060E-1
2.910313090E0,-3.952298164E-1,-2.712241709E-1,-1.918116808E-1
2.912327939E0,-3.964515328E-1,-3.231477141E-1,-1.777617931E-1
2.914311019E0,-3.952298164E-1,-3.518583775E-1,-1.734857261E-1
2.916325407E0,-3.964515328E-1,-4.019493461E-1,-1.588249654E-1
2.918309102E0,-3.988949955E-1,-4.587597847E-1,-1.447750628E-1
2.920324182E0,-3.988949955E-1,-4.917465150E-1,-1.374446750E-1
2.922337416E0,-4.043927789E-1,-5.448917747E-1,-1.227839142E-1
2.924321188E0,-4.080579877E-1,-6.010913849E-1,-1.087340117E-1
2.926335268E0,-4.111123085E-1,-6.285803318E-1,-1.001819000E-1
2.928318963E0,-4.147774875E-1,-6.805039048E-1,-8.796459436E-2
2.930332812E0,-4.202753007E-1,-7.238753438E-1,-7.452555746E-2
2.932316200E0,-4.233296216E-1,-7.440338731E-1,-7.208210230E-2
2.934330742E0,-4.257730842E-1,-7.843509912E-1,-6.169738993E-2
2.936314437E0,-4.288274050E-1,-8.167268038E-1,-5.375614017E-2
2.938328209E0,-4.282165468E-1,-8.326093554E-1,-5.314527452E-2
2.940312904E0,-4.337143302E-1,-8.558222055E-1,-4.703662544E-2
2.942326754E0,-4.324925840E-1,-8.747590184E-1,-4.337143153E-2
2.944309526E0,-4.318817258E-1,-8.808676600E-1,-4.214970022E-2
2.946324298E0,-4.276056588E-1,-8.967501521E-1,-4.276056588E-2
2.948308609E0,-4.257730842E-1,-8.998045325E-1,-4.214970022E-2
2.950322381E0,-4.208861589E-1,-9.016370773E-1,-4.520402849E-2
2.952335922E0,-4.147774875E-1,-8.985827565E-1,-4.703662544E-2
2.954320310E0,-4.098905921E-1,-8.949176073E-1,-4.642575979E-2
2.956334082E0,-4.025602043E-1,-8.839219809E-1,-5.070181563E-2
2.958317854E0,-3.970624208E-1,-8.631525636E-1,-5.375614017E-2
2.960332934E0,-3.921754956E-1,-8.564330935E-1,-5.253441259E-2
2.962315707E0,-3.817907870E-1,-8.326093554E-1,-5.375614017E-2
2.964330403E0,-3.775147200E-1,-8.081747293E-1,-5.131268129E-2
2.966314098E0,-3.726277947E-1,-7.947356701E-1,-4.886921868E-2
2.968327332E0,-3.652974069E-1,-7.672467232E-1,-4.825835302E-2
2.970310720E0,-3.591887653E-1,-7.391469479E-1,-4.214970022E-2
2.972324953E0,-3.561344445E-1,-7.281513810E-1,-4.276056588E-2
2.974308880E0,-3.524692357E-1,-7.067710757E-1,-3.726277873E-2
2.976324036E0,-3.488040566E-1,-6.878342628E-1,-3.604105115E-2
2.978337501E0,-3.500257730E-1,-6.737843752E-1,-3.237585723E-2
2.980321581E0,-3.494149148E-1,-6.548475623E-1,-2.748893574E-2
2.982335122E0,-3.512475193E-1,-6.462954283E-1,-2.687807009E-2
2.984318125E0,-3.518583775E-1,-6.249151230E-1,-2.260201424E-2
2.986333513E0,-3.543018401E-1,-6.047565937E-1,-2.504547499E-2
2.988317285E0,-3.530801237E-1,-5.974262357E-1,-2.382374369E-2
2.990330134E0,-3.555235863E-1,-5.723807216E-1,-2.443460934E-2
2.992314214E0,-3.506366611E-1,-5.528330207E-1,-2.565634064E-2
2.994328371E0,-3.512475193E-1,-5.430592299E-1,-2.871066704E-2
2.996312374E0,-3.475823104E-1,-5.204572082E-1,-3.237585723E-2
2.998326146E0,-3.463605940E-1,-4.984660447E-1,-3.359758854E-2
3.000310534E0,-3.469714522E-1,-4.874704778E-1,-3.604105115E-2
3.002324614E0,-3.463605940E-1,-4.660901725E-1,-4.337143153E-2
3.004308617E0,-3.500257730E-1,-4.459316432E-1,-4.703662544E-2
3.006321620E0,-3.518583775E-1,-4.361577928E-1,-4.825835302E-2
3.008335777E0,-3.579670191E-1,-4.178318381E-1,-5.497787148E-2
3.010319472E0,-3.591887653E-1,-4.043927789E-1,-5.619960278E-2
3.012333937E0,-3.659082949E-1,-3.946189582E-1,-6.536258012E-2
3.014317247E0,-3.677408695E-1,-3.866777122E-1,-7.024950534E-2
3.016331404E0,-3.738495409E-1,-3.775147200E-1,-7.513642311E-2
3.018315099E0,-3.756821156E-1,-3.695734739E-1,-8.307767659E-2
3.020331487E0,-3.787364662E-1,-3.579670191E-1,-8.796459436E-2
3.022313567E0,-3.787364662E-1,-3.555235863E-1,-9.040805697E-2
3.024326570E0,-3.836233616E-1,-3.457497358E-1,-9.529497474E-2
3.026312112E0,-3.842342496E-1,-3.323107064E-1,-1.007927656E-1
3.028325345E0,-3.854559660E-1,-3.292563558E-1,-1.020144969E-1
3.030308733E0,-3.872885704E-1,-3.170390725E-1,-1.069014147E-1
3.032323197E0,-3.885102868E-1,-3.072652221E-1,-1.123992056E-1
3.034336739E0,-3.915646076E-1,-3.023782969E-1,-1.136209369E-1
3.036320434E0,-3.921754956E-1,-2.938261926E-1,-1.166752651E-1
3.038334591E0,-3.927863538E-1,-2.858849466E-1,-1.227839142E-1
3.040318902E0,-3.915646076E-1,-2.822197378E-1,-1.252273768E-1
3.042332982E0,-3.946189582E-1,-2.779437006E-1,-1.337794960E-1
3.044317292E0,-3.915646076E-1,-2.773328125E-1,-1.343903542E-1
3.046330603E0,-3.915646076E-1,-2.712241709E-1,-1.398881376E-1
3.048314914E0,-3.897320330E-1,-2.663372457E-1,-1.453859210E-1
3.050328686E0,-3.866777122E-1,-2.663372457E-1,-1.466076523E-1
3.052312151E0,-3.842342496E-1,-2.626720667E-1,-1.496619880E-1
3.054326307E0,-3.781255782E-1,-2.626720667E-1,-1.521054506E-1
3.056309387E0,-3.744603992E-1,-2.645046413E-1,-1.521054506E-1
3.058323852E0,-3.695734739E-1,-2.675589919E-1,-1.521054506E-1
3.060338855E0,-3.616322279E-1,-2.718350291E-1,-1.508837193E-1
3.062322319E0,-3.591887653E-1,-2.755002379E-1,-1.533271819E-1
3.064335477E0,-3.512475193E-1,-2.822197378E-1,-1.533271819E-1
3.066319865E0,-3.439171314E-1,-2.907718420E-1,-1.521054506E-1
3.068334329E0,-3.371976018E-1,-2.962696552E-1,-1.502728462E-1
3.070316794E0,-3.280346394E-1,-3.054326177E-1,-1.502728462E-1
3.072332105E0,-3.158173263E-1,-3.200933933E-1,-1.490511149E-1
3.074314569E0,-3.090978265E-1,-3.280346394E-1,-1.472185254E-1
3.076330034E0,-2.962696552E-1,-3.445279896E-1,-1.447750628E-1
3.078312421E0,-2.926044464E-1,-3.488040566E-1,-1.447750628E-1
3.080328117E0,-2.797762752E-1,-3.683517575E-1,-1.380555481E-1
3.082310581E0,-2.681698501E-1,-3.854559660E-1,-1.319468915E-1
3.084325969E0,-2.638937831E-1,-3.933972120E-1,-1.288925707E-1
3.086309049E0,-2.541199327E-1,-4.105014503E-1,-1.209513173E-1
3.088322667E0,-2.455678284E-1,-4.282165468E-1,-1.136209369E-1
3.090337055E0,-2.412917763E-1,-4.355469346E-1,-1.075122803E-1
3.092320442E0,-2.333505303E-1,-4.489859641E-1,-1.007927656E-1
3.094334984E0,-2.254092693E-1,-4.636467099E-1,-8.979719132E-2
3.096318602E0,-2.223549485E-1,-4.709770977E-1,-8.674286306E-2
3.098333067E0,-2.168571651E-1,-4.789183438E-1,-8.002334833E-2
3.100316839E0,-2.101376504E-1,-4.844161272E-1,-7.147123665E-2
3.102330688E0,-2.076941878E-1,-4.850270152E-1,-6.719517708E-2
3.104312845E0,-2.009746730E-1,-4.801400900E-1,-5.986479297E-2
3.106327925E0,-1.905899495E-1,-4.728097022E-1,-5.070181563E-2
3.108311543E0,-1.912008226E-1,-4.660901725E-1,-4.703662544E-2
3.110326700E0,-1.850921661E-1,-4.477642179E-1,-3.543018550E-2
3.112309396E0,-1.802052408E-1,-4.379903674E-1,-3.237585723E-2
3.114323245E0,-1.722639948E-1,-4.153883755E-1,-2.382374369E-2
3.116337786E0,-1.655444801E-1,-3.872885704E-1,-1.527163107E-2
3.118322328E0,-1.631010175E-1,-3.732386529E-1,-9.773843922E-3
3.120336792E0,-1.569923609E-1,-3.439171314E-1,-1.832595794E-3
3.122320564E0,-1.508837193E-1,-3.103195429E-1,6.719517522E-3
3.124334337E0,-1.472185254E-1,-2.944370508E-1,1.221730467E-2
3.126316878E0,-1.392772794E-1,-2.583959997E-1,1.710422710E-2
3.128331881E0,-1.325577646E-1,-2.205223590E-1,2.321287990E-2
3.130314653E0,-1.295034289E-1,-2.015855312E-1,2.809980139E-2
3.132329118E0,-1.191187203E-1,-1.649336219E-1,3.359758854E-2
3.134312506E0,-1.087340117E-1,-1.282816976E-1,3.726277873E-2
3.136326355E0,-1.026253626E-1,-1.099557430E-1,3.970624134E-2
3.138310435E0,-9.712757170E-2,-7.574728876E-2,4.581489414E-2
3.140325438E0,-9.040805697E-2,-4.642575979E-2,5.009094998E-2
3.142308210E0,-8.735372871E-2,-3.420845419E-2,5.131268129E-2
3.144321828E0,-8.307767659E-2,-1.038470957E-2,5.497787148E-2
3.146338062E0,-8.124507964E-2,-6.108652451E-4,5.986479297E-2
3.148320834E0,-7.819075137E-2,1.527163107E-2,5.986479297E-2
3.150333760E0,-7.086037099E-2,2.809980139E-2,6.352998316E-2
3.152318686E0,-6.963863969E-2,3.420845419E-2,6.047565863E-2
3.154332305E0,-6.475171447E-2,4.153883830E-2,6.291911751E-2
3.156316000E0,-6.108652428E-2,4.581489414E-2,6.475171447E-2
3.158329542E0,-5.986479297E-2,4.886921868E-2,6.291911751E-2
3.160314698E0,-5.497787148E-2,4.948008433E-2,6.475171447E-2
3.162327932E0,-5.131268129E-2,4.398229718E-2,6.475171447E-2
3.164312551E0,-4.886921868E-2,4.276056588E-2,6.475171447E-2
3.166325785E0,-4.276056588E-2,3.237585723E-2,6.597344577E-2
3.168309250E0,-4.031710699E-2,1.832595654E-2,6.780604273E-2
3.170323099E0,-4.276056588E-2,7.941247895E-3,6.963863969E-2
3.172338179E0,-4.031710699E-2,-1.527163107E-2,6.963863969E-2
3.174320874E0,-4.214970022E-2,-2.565634064E-2,6.902777404E-2
3.176335031E0,-4.398229718E-2,-5.436700583E-2,6.658431143E-2
3.178319034E0,-4.642575979E-2,-8.429940045E-2,6.780604273E-2
3.180333806E0,-4.642575979E-2,-1.007927656E-1,6.719517708E-2
3.182317502E0,-4.825835302E-2,-1.331686229E-1,5.925392732E-2
3.184330735E0,-4.948008433E-2,-1.655444801E-1,5.681046844E-2
3.186315046E0,-4.948008433E-2,-1.826487035E-1,5.497787148E-2
3.188328895E0,-5.192354694E-2,-2.125810981E-1,4.886921868E-2
3.190312898E0,-5.070181563E-2,-2.412917763E-1,4.642575979E-2
3.192326440E0,-5.253441259E-2,-2.571742535E-1,4.520402849E-2
3.194310212E0,-5.497787148E-2,-2.773328125E-1,3.848451003E-2
3.196324677E0,-5.253441259E-2,-3.011565804E-1,3.604105115E-2
3.198308064E0,-5.009094998E-2,-3.133738637E-1,3.726277873E-2
3.200322529E0,-4.886921868E-2,-3.286454976E-1,3.481931984E-2
3.202336686E0,-4.886921868E-2,-3.408628106E-1,3.359758854E-2
3.204321842E0,-4.948008433E-2,-3.463605940E-1,3.420845419E-2
3.206334538E0,-4.948008433E-2,-3.530801237E-1,3.420845419E-2
3.208318541E0,-4.825835302E-2,-3.573561609E-1,3.420845419E-2
3.210331467E0,-4.764748737E-2,-3.579670191E-1,3.298672289E-2
3.212316085E0,-4.337143153E-2,-3.561344445E-1,3.604105115E-2
3.214330781E0,-4.520402849E-2,-3.543018401E-1,3.726277873E-2
3.216313553E0,-4.276056588E-2,-3.445279896E-1,3.909537569E-2
3.218328017E0,-4.092797264E-2,-3.329215646E-1,3.726277873E-2
3.220312636E0,-3.787364438E-2,-3.298672438E-1,3.787364438E-2
3.222325870E0,-3.787364438E-2,-3.158173263E-1,4.092797264E-2
3.224308949E0,-3.481931984E-2,-2.956587672E-1,4.031710699E-2
3.226324722E0,-3.237585723E-2,-2.864958048E-1,4.031710699E-2
3.228307494E0,-2.932153270E-2,-2.645046413E-1,3.970624134E-2
3.230320728E0,-2.443460934E-2,-2.394591719E-1,3.909537569E-2
3.232335115E0,-2.382374369E-2,-2.278527319E-1,3.848451003E-2
3.234318811E0,-2.076941915E-2,-1.997529417E-1,3.970624134E-2
3.236333044E0,-1.893682219E-2,-1.734857261E-1,4.153883830E-2
3.238316355E0,-1.588249579E-2,-1.600466967E-1,4.092797264E-2
3.240332358E0,-1.160643995E-2,-1.331686229E-1,4.581489414E-2
3.242315438E0,-1.099557430E-2,-1.197295859E-1,4.459316283E-2
3.244329903E0,-5.497787148E-3,-9.101892263E-2,4.703662544E-2
3.246312444E0,-1.221730490E-3,-6.414084882E-2,4.886921868E-2
3.248327216E0,2.443460980E-3,-5.253441259E-2,4.886921868E-2
3.250309988E0,4.276056774E-3,-2.748893574E-2,5.192354694E-2
3.252324453E0,6.719517522E-3,-3.054326167E-3,5.497787148E-2
3.254339148E0,1.038470957E-2,7.330383174E-3,5.925392732E-2
3.256321998E0,1.588249579E-2,2.565634064E-2,6.230825558E-2
3.258336154E0,1.649336144E-2,4.337143153E-2,6.475171447E-2
3.260321311E0,1.832595654E-2,4.825835302E-2,6.658431143E-2
3.262333699E0,2.076941915E-2,6.169738993E-2,6.841690838E-2
3.264316779E0,2.138028294E-2,6.902777404E-2,6.780604273E-2
3.266332167E0,2.076941915E-2,7.269296050E-2,6.963863969E-2
3.268315786E0,2.015855350E-2,7.819075137E-2,7.086037099E-2
3.270329943E0,2.199114859E-2,8.124507964E-2,7.086037099E-2
3.272314023E0,2.138028294E-2,8.063421398E-2,7.208210230E-2
3.274327872E0,1.771509275E-2,8.307767659E-2,7.147123665E-2
3.276311490E0,1.710422710E-2,8.429940045E-2,7.208210230E-2
3.278325032E0,1.466076635E-2,8.491026610E-2,7.147123665E-2
3.280309650E0,1.466076635E-2,8.307767659E-2,7.208210230E-2
3.282323191E0,1.160643995E-2,8.368854225E-2,7.208210230E-2
3.284337656E0,1.099557430E-2,8.185594529E-2,7.208210230E-2
3.286322274E0,1.710422710E-2,7.880161703E-2,7.330382615E-2
3.288334970E0,1.649336144E-2,7.757988572E-2,7.024950534E-2
3.290318665E0,1.771509275E-2,7.086037099E-2,7.635815442E-2
3.292333360E0,2.199114859E-2,6.291911751E-2,7.635815442E-2
3.294316517E0,2.138028294E-2,5.681046844E-2,7.757988572E-2
3.296330597E0,2.260201424E-2,4.276056588E-2,8.124507964E-2
3.298314908E0,1.893682219E-2,2.871066704E-2,8.674286306E-2
3.300329372E0,1.832595654E-2,2.321287990E-2,9.162978828E-2
3.302312760E0,1.832595654E-2,5.497787148E-3,9.040805697E-2
3.304326378E0,1.466076635E-2,-1.282817032E-2,9.285151958E-2
3.306310612E0,1.343903504E-2,-2.321287990E-2,9.101892263E-2
3.308324769E0,1.099557430E-2,-4.276056588E-2,9.407325089E-2
3.310337772E0,7.941247895E-3,-5.070181563E-2,9.346238524E-2
3.312322313E0,4.276056774E-3,-7.024950534E-2,9.529497474E-2
3.314336470E0,1.221730490E-3,-8.613199741E-2,9.651670605E-2
3.316319627E0,-1.832595794E-3,-9.285151958E-2,9.285151958E-2
3.318334015E0,-2.443460980E-3,-1.062905490E-1,9.285151958E-2
3.320318402E0,-6.719517522E-3,-1.172861308E-1,9.101892263E-2
3.322332175E0,-7.941247895E-3,-1.209513173E-1,9.346238524E-2
3.324315870E0,-1.404990070E-2,-1.295034289E-1,9.468411654E-2
3.326329719E0,-1.771509275E-2,-1.343903542E-1,9.896016866E-2
3.328313184E0,-1.893682219E-2,-1.368338168E-1,9.834930301E-2
3.330327571E0,-2.443460934E-2,-1.380555481E-1,1.032362282E-1
3.332311959E0,-2.809980139E-2,-1.398881376E-1,1.069014147E-1
3.334325423E0,-2.993239649E-2,-1.411098689E-1,1.117883399E-1
3.336309196E0,-3.420845419E-2,-1.398881376E-1,1.172861308E-1
3.338323660E0,-3.604105115E-2,-1.380555481E-1,1.172861308E-1
3.340337202E0,-4.092797264E-2,-1.380555481E-1,1.252273768E-1
3.342321435E0,-4.520402849E-2,-1.337794960E-1,1.282816976E-1
3.344334131E0,-4.825835302E-2,-1.301143020E-1,1.270599663E-1
3.346318441E0,-5.558873713E-2,-1.258382350E-1,1.264491081E-1
3.348333137E0,-6.230825558E-2,-1.185078546E-1,1.276708394E-1
3.350316524E0,-6.536258012E-2,-1.142318025E-1,1.282816976E-1
3.352331066E0,-7.024950534E-2,-1.032362282E-1,1.264491081E-1
3.354314761E0,-7.269296050E-2,-9.407325089E-2,1.221730486E-1
3.356328610E0,-7.391469181E-2,-8.674286306E-2,1.227839142E-1
3.358311690E0,-7.635815442E-2,-7.819075137E-2,1.221730486E-1
3.360327078E0,-8.307767659E-2,-6.475171447E-2,1.209513173E-1
3.362309850E0,-8.307767659E-2,-5.986479297E-2,1.215621829E-1
3.364324007E0,-8.796459436E-2,-4.948008433E-2,1.203404516E-1
3.366338703E0,-9.224065393E-2,-3.848451003E-2,1.178969890E-1
3.368321168E0,-9.468411654E-2,-3.298672289E-2,1.185078546E-1
3.370336017E0,-9.712757170E-2,-2.626720630E-2,1.185078546E-1
3.372319097E0,-9.834930301E-2,-2.321287990E-2,1.172861308E-1
3.374334177E0,-1.020144969E-1,-1.588249579E-2,1.160643995E-1
3.376317487E0,-1.056796908E-1,-1.343903504E-2,1.160643995E-1
3.378331644E0,-1.069014147E-1,-1.099557430E-2,1.136209369E-1
3.380315724E0,-1.123992056E-1,-1.160643995E-2,1.111774743E-1
3.382329881E0,-1.142318025E-1,-1.343903504E-2,1.062905490E-1
3.384312269E0,-1.160643995E-1,-1.588249579E-2,1.038470939E-1
3.386327733E0,-1.191187203E-1,-1.588249579E-2,9.773843735E-2
3.388311352E0,-1.203404516E-1,-2.260201424E-2,8.735372871E-2
3.390324893E0,-1.203404516E-1,-2.504547499E-2,8.613199741E-2
3.392339665E0,-1.221730486E-1,-3.054326214E-2,6.963863969E-2
3.394322745E0,-1.240056455E-1,-3.970624134E-2,6.108652428E-2
3.396337287E0,-1.240056455E-1,-4.092797264E-2,5.436700583E-2
3.398320367E0,-1.270599663E-1,-5.070181563E-2,3.909537569E-2
3.400336062E0,-1.288925707E-1,-5.864306539E-2,2.687807009E-2
3.402318757E0,-1.288925707E-1,-6.536258012E-2,1.832595654E-2
3.404333222E0,-1.295034289E-1,-7.330382615E-2,3.054326167E-3
3.406315686E0,-1.313360333E-1,-7.819075137E-2,-6.108652335E-3
3.408330151E0,-1.307251602E-1,-8.552113175E-2,-2.076941915E-2
3.410314539E0,-1.276708394E-1,-9.285151958E-2,-3.665191308E-2
3.412328311E0,-1.270599663E-1,-9.162978828E-2,-4.337143153E-2
3.414311468E0,-1.264491081E-1,-9.773843735E-2,-5.558873713E-2
3.416325932E0,-1.252273768E-1,-9.896016866E-2,-6.841690838E-2
3.418309551E0,-1.227839142E-1,-1.007927656E-1,-7.513642311E-2
3.420325015E0,-1.178969890E-1,-1.014036313E-1,-8.674286306E-2
3.422308018E0,-1.154535338E-1,-9.834930301E-2,-9.651670605E-2
3.424321560E0,-1.136209369E-1,-9.712757170E-2,-9.896016866E-2
3.426336409E0,-1.111774743E-1,-9.407325089E-2,-1.075122803E-1
3.428319489E0,-1.056796908E-1,-9.224065393E-2,-1.130100712E-1
3.430333646E0,-1.026253626E-1,-8.979719132E-2,-1.148426682E-1
3.432317341E0,-1.014036313E-1,-8.735372871E-2,-1.166752651E-1
3.434331805E0,-9.529497474E-2,-8.185594529E-2,-1.142318025E-1
3.436315731E0,-9.468411654E-2,-7.880161703E-2,-1.117883399E-1
3.438329350E0,-8.979719132E-2,-7.208210230E-2,-1.093448773E-1
3.440314199E0,-8.857546002E-2,-6.841690838E-2,-1.056796908E-1
3.442326894E0,-8.613199741E-2,-5.986479297E-2,-1.038470939E-1
3.444311513E0,-8.063421398E-2,-5.436700583E-2,-9.590584040E-2
3.446325054E0,-7.696902007E-2,-4.825835302E-2,-9.407325089E-2
3.448308750E0,-7.513642311E-2,-4.153883830E-2,-8.429940045E-2
3.450322599E0,-7.086037099E-2,-3.298672289E-2,-7.880161703E-2
3.452336986E0,-6.902777404E-2,-2.748893574E-2,-7.696902007E-2
3.454320451E0,-6.352998316E-2,-2.015855350E-2,-6.780604273E-2
3.456334838E0,-6.108652428E-2,-9.773843922E-3,-6.230825558E-2
3.458317995E0,-5.864306539E-2,-4.276056774E-3,-5.864306539E-2
3.460333306E0,-5.558873713E-2,4.276056774E-3,-5.253441259E-2
3.462316386E0,-4.825835302E-2,1.649336144E-2,-4.642575979E-2
3.464330004E0,-4.886921868E-2,1.771509275E-2,-4.276056588E-2
3.466314315E0,-4.459316283E-2,2.748893574E-2,-3.787364438E-2
3.468328704E0,-4.276056588E-2,3.481931984E-2,-3.543018550E-2
3.470311245E0,-4.214970022E-2,3.970624134E-2,-3.115412779E-2
3.472326633E0,-4.214970022E-2,4.886921868E-2,-2.321287990E-2
3.474309405E0,-3.726277873E-2,5.009094998E-2,-1.954768784E-2
3.476323562E0,-3.665191308E-2,5.619960278E-2,-1.771509275E-2
3.478338873E0,-3.115412779E-2,5.803219974E-2,-7.941247895E-3
3.480322952E0,-3.237585723E-2,6.230825558E-2,-5.497787148E-3
3.482335879E0,-3.115412779E-2,6.597344577E-2,1.221730490E-3
3.484319574E0,-2.871066704E-2,6.902777404E-2,8.552113548E-3
3.486333423E0,-3.054326214E-2,7.086037099E-2,1.038470957E-2
3.488317349E0,-3.115412779E-2,7.391469181E-2,1.771509275E-2
3.490331275E0,-2.871066704E-2,7.696902007E-2,2.626720630E-2
3.492315278E0,-2.748893574E-2,7.819075137E-2,2.809980139E-2
3.494329435E0,-2.504547499E-2,8.124507964E-2,3.665191308E-2
3.496313053E0,-2.382374369E-2,8.491026610E-2,4.398229718E-2
3.498327826E0,-2.443460934E-2,8.491026610E-2,4.948008433E-2
3.500311521E0,-2.321287990E-2,8.368854225E-2,5.558873713E-2
3.502325139E0,-2.076941915E-2,8.185594529E-2,5.742133409E-2
3.504307912E0,-2.076941915E-2,7.757988572E-2,6.291911751E-2
3.506322915E0,-1.588249579E-2,7.147123665E-2,6.902777404E-2
3.508336764E0,-1.588249579E-2,6.536258012E-2,6.963863969E-2
3.510320844E0,-1.832595654E-2,5.497787148E-2,7.208210230E-2
3.512334693E0,-1.649336144E-2,4.520402849E-2,7.452555746E-2
3.514318311E0,-1.893682219E-2,3.909537569E-2,7.208210230E-2
3.516333160E0,-2.015855350E-2,2.871066704E-2,6.963863969E-2
3.518316779E0,-2.260201424E-2,1.527163107E-2,6.841690838E-2
3.520330936E0,-2.260201424E-2,1.099557430E-2,6.719517708E-2
3.522313708E0,-2.504547499E-2,0.000000000E0,6.230825558E-2
3.524328865E0,-2.565634064E-2,-9.773843922E-3,5.803219974E-2
3.526312483E0,-2.321287990E-2,-1.466076635E-2,5.864306539E-2
3.528326640E0,-2.504547499E-2,-2.321287990E-2,5.375614017E-2
3.530309489E0,-2.504547499E-2,-3.176499158E-2,5.131268129E-2
3.532324261E0,-2.626720630E-2,-3.359758854E-2,4.948008433E-2
3.534337803E0,-2.687807009E-2,-4.276056588E-2,4.520402849E-2
3.536321190E0,-2.748893574E-2,-4.520402849E-2,4.459316283E-2
3.538336578E0,-2.687807009E-2,-5.314527452E-2,4.214970022E-2
3.540320889E0,-3.176499158E-2,-5.558873713E-2,3.726277873E-2
3.542332892E0,-2.993239649E-2,-5.803219974E-2,3.848451003E-2
3.544316587E0,-2.993239649E-2,-6.047565863E-2,3.665191308E-2
3.546332205E0,-3.054326214E-2,-6.169738993E-2,3.298672289E-2
3.548315670E0,-3.176499158E-2,-5.864306539E-2,3.237585723E-2
3.550328827E0,-3.298672289E-2,-5.681046844E-2,2.809980139E-2
3.552313138E0,-2.993239649E-2,-5.070181563E-2,2.504547499E-2
3.554326987E0,-2.809980139E-2,-5.009094998E-2,2.504547499E-2
3.556310144E0,-2.932153270E-2,-4.337143153E-2,2.382374369E-2
3.558323993E0,-2.809980139E-2,-3.481931984E-2,1.832595654E-2
3.560340303E0,-2.687807009E-2,-3.054326214E-2,1.771509275E-2
3.562322768E0,-2.443460934E-2,-2.015855350E-2,1.649336144E-2
3.564337232E0,-2.565634064E-2,-1.160643995E-2,1.404990070E-2
3.566320928E0,-2.260201424E-2,-4.886921961E-3,1.160643995E-2
3.568334701E0,-2.260201424E-2,4.276056774E-3,8.552113548E-3
3.570318473E0,-2.382374369E-2,1.038470957E-2,7.330383174E-3
3.572332630E0,-2.199114859E-2,1.893682219E-2,6.108652335E-3
3.574316018E0,-1.893682219E-2,2.932153270E-2,4.276056774E-3
3.576329867E0,-1.832595654E-2,3.481931984E-2,3.665191587E-3
3.578313485E0,-1.343903504E-2,4.214970022E-2,1.221730490E-3
3.580328258E0,-1.282817032E-2,5.375614017E-2,1.221730490E-3
3.582311645E0,-1.160643995E-2,5.558873713E-2,1.832595794E-3
3.584324648E0,-6.719517522E-3,6.108652428E-2,6.108652451E-4
3.586340267E0,-7.330383174E-3,6.719517708E-2,6.108652451E-4
3.588324270E0,-1.832595794E-3,6.902777404E-2,4.886921961E-3
3.590338196E0,-3.054326167E-3,6.963863969E-2,1.221730490E-3
3.592321276E0,-1.832595794E-3,6.841690838E-2,4.886921961E-3
3.594335663E0,0.000000000E0,6.963863969E-2,3.054326167E-3
3.596319358E0,-6.108652451E-4,6.352998316E-2,5.497787148E-3
3.598333515E0,-1.832595794E-3,5.864306539E-2,6.719517522E-3
3.600317903E0,-4.276056774E-3,5.436700583E-2,6.719517522E-3
3.602331137E0,-4.276056774E-3,4.825835302E-2,6.719517522E-3
3.604315755E0,-5.497787148E-3,4.337143153E-2,6.719517522E-3
3.606329604E0,-8.552113548E-3,3.543018550E-2,6.719517522E-3
3.608312300E0,-7.330383174E-3,2.565634064E-2,7.941247895E-3
3.610326149E0,-9.773843922E-3,2.321287990E-2,7.941247895E-3
3.612310459E0,-1.343903504E-2,1.404990070E-2,6.108652335E-3
3.614324616E0,-1.527163107E-2,7.330383174E-3,7.941247895E-3
3.616338542E0,-1.527163107E-2,6.108652451E-4,9.773843922E-3
3.618322238E0,-1.710422710E-2,-7.330383174E-3,7.941247895E-3
3.620336933E0,-2.076941915E-2,-1.282817032E-2,9.773843922E-3
3.622319705E0,-2.321287990E-2,-1.404990070E-2,9.773843922E-3
3.624333631E0,-2.382374369E-2,-2.076941915E-2,1.343903504E-2
3.626318480E0,-2.871066704E-2,-2.199114859E-2,1.282817032E-2
3.628332407E0,-2.809980139E-2,-2.626720630E-2,1.282817032E-2
3.630315410E0,-3.298672289E-2,-2.871066704E-2,1.404990070E-2
3.632330182E0,-3.298672289E-2,-2.871066704E-2,1.466076635E-2
3.634313339E0,-3.787364438E-2,-2.809980139E-2,1.282817032E-2
3.636328111E0,-3.665191308E-2,-2.687807009E-2,1.466076635E-2
3.638311422E0,-3.909537569E-2,-2.565634064E-2,1.343903504E-2
3.640326271E0,-4.337143153E-2,-2.504547499E-2,1.343903504E-2
3.642309889E0,-4.398229718E-2,-2.260201424E-2,1.588249579E-2
3.644324431E0,-4.214970022E-2,-1.893682219E-2,1.343903504E-2
3.646337895E0,-4.520402849E-2,-1.282817032E-2,1.221730467E-2
3.648320975E0,-4.703662544E-2,-7.330383174E-3,9.162978269E-3
3.650335517E0,-4.825835302E-2,-4.886921961E-3,1.099557430E-2
3.652318596E0,-4.703662544E-2,1.832595794E-3,9.773843922E-3
3.654333369E0,-4.703662544E-2,5.497787148E-3,7.941247895E-3
3.656316756E0,-4.948008433E-2,7.941247895E-3,1.099557430E-2
3.658330836E0,-4.642575979E-2,1.527163107E-2,7.941247895E-3
3.660314608E0,-4.581489414E-2,1.954768784E-2,8.552113548E-3
3.662329688E0,-4.581489414E-2,1.954768784E-2,9.773843922E-3
3.664311461E0,-4.337143153E-2,2.382374369E-2,1.099557430E-2
3.666326848E0,-4.214970022E-2,2.687807009E-2,1.038470957E-2
3.668310005E0,-4.092797264E-2,2.932153270E-2,1.038470957E-2
3.670324163E0,-3.787364438E-2,3.237585723E-2,1.099557430E-2
3.672338243E0,-3.726277873E-2,2.993239649E-2,9.162978269E-3
3.674322861E0,-3.726277873E-2,3.176499158E-2,7.941247895E-3
3.676336095E0,-3.420845419E-2,3.176499158E-2,4.886921961E-3
3.678319560E0,-3.359758854E-2,2.993239649E-2,2.443460980E-3
3.680334947E0,-2.993239649E-2,3.054326214E-2,-6.108652451E-4
3.682318027E0,-2.626720630E-2,2.626720630E-2,0.000000000E0
3.684332492E0,-2.565634064E-2,2.748893574E-2,-1.832595794E-3
3.686316110E0,-2.565634064E-2,2.321287990E-2,-4.276056774E-3
3.688329652E0,-2.138028294E-2,2.321287990E-2,-7.941247895E-3
3.690313962E0,-1.832595654E-2,2.015855350E-2,-7.330383174E-3
3.692327196E0,-1.710422710E-2,1.160643995E-2,-7.941247895E-3
3.694311507E0,-1.466076635E-2,7.941247895E-3,-9.162978269E-3
3.696325356E0,-1.466076635E-2,4.886921961E-3,-9.162978269E-3
3.698339282E0,-1.466076635E-2,1.221730490E-3,-9.162978269E-3
3.700324439E0,-1.404990070E-2,-1.221730490E-3,-9.773843922E-3
3.702337057E0,-1.038470957E-2,-6.108652335E-3,-8.552113548E-3
3.704320829E0,-7.941247895E-3,-6.719517522E-3,-9.773843922E-3
3.706335217E0,-8.552113548E-3,-9.162978269E-3,-9.773843922E-3
3.708319605E0,-7.330383174E-3,-7.330383174E-3,-1.038470957E-2
3.710331915E0,-4.276056774E-3,-1.282817032E-2,-1.099557430E-2
3.712316534E0,-3.054326167E-3,-1.038470957E-2,-1.221730467E-2
3.714331229E0,-2.443460980E-3,-9.162978269E-3,-1.038470957E-2
3.716314386E0,-6.108652451E-4,-6.719517522E-3,-1.221730467E-2
3.718328235E0,6.108652451E-4,-7.330383174E-3,-1.099557430E-2
3.720314007E0,3.665191587E-3,-6.719517522E-3,-1.343903504E-2
3.722326395E0,1.832595794E-3,-2.443460980E-3,-1.466076635E-2
3.724310629E0,3.054326167E-3,6.108652451E-4,-1.343903504E-2
3.726323939E0,3.665191587E-3,3.665191587E-3,-1.466076635E-2
3.728338635E0,3.665191587E-3,7.941247895E-3,-1.160643995E-2
3.730321792E0,3.665191587E-3,1.099557430E-2,-1.649336144E-2
3.732336871E0,7.330383174E-3,1.588249579E-2,-1.771509275E-2
3.734320259E0,7.941247895E-3,1.771509275E-2,-1.466076635E-2
3.736334647E0,6.719517522E-3,2.565634064E-2,-1.588249579E-2
3.738317804E0,1.099557430E-2,2.687807009E-2,-1.527163107E-2
3.740333422E0,1.099557430E-2,3.420845419E-2,-1.466076635E-2
3.742316194E0,1.282817032E-2,3.481931984E-2,-1.160643995E-2
3.744328890E0,1.466076635E-2,3.970624134E-2,-1.160643995E-2
3.746313200E0,1.466076635E-2,3.970624134E-2,-9.162978269E-3
3.748327280E0,1.893682219E-2,4.214970022E-2,-6.719517522E-3
3.750310975E0,1.954768784E-2,4.459316283E-2,-4.886921961E-3
3.752324286E0,1.893682219E-2,4.398229718E-2,-2.443460980E-3
3.754339289E0,1.832595654E-2,4.703662544E-2,1.832595794E-3
3.756322677E0,2.015855350E-2,4.153883830E-2,2.443460980E-3
3.758337141E0,2.076941915E-2,3.970624134E-2,5.497787148E-3
3.760321760E0,2.382374369E-2,3.604105115E-2,7.330383174E-3
3.762334763E0,2.260201424E-2,3.054326214E-2,1.099557430E-2
3.764318996E0,2.260201424E-2,2.626720630E-2,1.160643995E-2
3.766332923E0,2.382374369E-2,1.832595654E-2,1.466076635E-2
3.768316849E0,2.260201424E-2,1.466076635E-2,1.649336144E-2
3.770331083E0,2.260201424E-2,5.497787148E-3,1.832595654E-2
3.772314394E0,2.260201424E-2,-1.832595794E-3,2.015855350E-2
3.774328859E0,2.138028294E-2,-5.497787148E-3,2.321287990E-2
3.776311708E0,2.138028294E-2,-1.221730467E-2,2.443460934E-2
3.778326711E0,2.260201424E-2,-1.954768784E-2,2.626720630E-2
3.780311637E0,2.138028294E-2,-2.321287990E-2,2.687807009E-2
3.782324332E0,2.015855350E-2,-2.871066704E-2,3.054326214E-2
3.784337797E0,1.893682219E-2,-3.420845419E-2,3.054326214E-2
3.786323031E0,1.893682219E-2,-3.787364438E-2,3.176499158E-2
3.788336880E0,1.893682219E-2,-4.092797264E-2,3.543018550E-2
3.790319113E0,1.893682219E-2,-4.337143153E-2,3.787364438E-2
3.792334424E0,2.015855350E-2,-4.520402849E-2,3.909537569E-2
3.794317812E0,2.076941915E-2,-4.459316283E-2,4.214970022E-2
3.796331430E0,2.199114859E-2,-4.459316283E-2,4.398229718E-2
3.798315741E0,2.076941915E-2,-4.459316283E-2,4.642575979E-2
3.800330436E0,2.260201424E-2,-4.276056588E-2,4.886921868E-2
3.802313208E0,2.382374369E-2,-3.848451003E-2,5.131268129E-2
3.804327442E0,2.565634064E-2,-3.604105115E-2,5.314527452E-2
3.806310830E0,2.748893574E-2,-3.420845419E-2,5.558873713E-2
3.808325294E0,2.626720630E-2,-2.993239649E-2,5.497787148E-2
3.810339144E0,2.809980139E-2,-2.626720630E-2,5.803219974E-2
3.812323070E0,2.809980139E-2,-2.199114859E-2,5.619960278E-2
3.814336611E0,2.871066704E-2,-2.138028294E-2,5.619960278E-2
3.816320306E0,3.115412779E-2,-1.466076635E-2,5.742133409E-2
3.818334540E0,3.481931984E-2,-1.099557430E-2,5.803219974E-2
3.820319159E0,3.481931984E-2,-7.941247895E-3,5.803219974E-2
3.822332623E0,3.604105115E-2,0.000000000E0,5.803219974E-2
3.824315472E0,3.909537569E-2,6.108652335E-3,5.925392732E-2
3.826330552E0,4.092797264E-2,8.552113548E-3,5.864306539E-2
3.828314171E0,4.337143153E-2,1.710422710E-2,5.986479297E-2
3.830328097E0,4.581489414E-2,1.771509275E-2,6.169738993E-2
3.832311792E0,4.581489414E-2,2.015855350E-2,6.414084882E-2
3.834326487E0,4.825835302E-2,2.382374369E-2,6.475171447E-2
3.836309336E0,5.131268129E-2,2.076941915E-2,6.475171447E-2
3.838323724E0,5.558873713E-2,2.565634064E-2,6.475171447E-2
3.840339189E0,5.681046844E-2,2.504547499E-2,6.780604273E-2
3.842321269E0,5.803219974E-2,2.687807009E-2,6.291911751E-2
3.844336118E0,6.230825558E-2,2.809980139E-2,6.658431143E-2
3.846319505E0,6.352998316E-2,3.237585723E-2,6.597344577E-2
3.848333047E0,6.780604273E-2,3.481931984E-2,6.536258012E-2
3.850317281E0,7.147123665E-2,3.420845419E-2,6.536258012E-2
3.852331130E0,7.757988572E-2,3.970624134E-2,6.414084882E-2
3.854315133E0,7.819075137E-2,3.970624134E-2,6.658431143E-2
3.856329674E0,8.735372871E-2,4.276056588E-2,6.902777404E-2
3.858312677E0,8.918632567E-2,4.153883830E-2,6.597344577E-2
3.860328372E0,8.979719132E-2,4.214970022E-2,6.658431143E-2
3.862311145E0,9.346238524E-2,4.031710699E-2,6.475171447E-2
3.864324994E0,9.590584040E-2,4.153883830E-2,6.414084882E-2
3.866340074E0,9.651670605E-2,3.909537569E-2,6.352998316E-2
3.868322615E0,9.957103431E-2,3.298672289E-2,6.352998316E-2
3.870336696E0,9.773843735E-2,3.237585723E-2,5.986479297E-2
3.872320776E0,1.032362282E-1,3.237585723E-2,5.436700583E-2
3.874334625E0,1.050688252E-1,3.298672289E-2,4.948008433E-2
3.876317705E0,1.087340117E-1,2.993239649E-2,4.581489414E-2
3.878332401E0,1.099557430E-1,3.420845419E-2,4.092797264E-2
3.880317096E0,1.154535338E-1,3.543018550E-2,3.787364438E-2
3.882331253E0,1.166752651E-1,3.359758854E-2,3.481931984E-2
3.884314640E0,1.240056455E-1,3.665191308E-2,2.871066704E-2
3.886327566E0,1.258382350E-1,4.092797264E-2,2.260201424E-2
3.888311800E0,1.313360333E-1,4.214970022E-2,2.138028294E-2
3.890325726E0,1.343903542E-1,4.214970022E-2,1.710422710E-2
3.892309422E0,1.362229437E-1,4.031710699E-2,1.404990070E-2
3.894323271E0,1.404990107E-1,4.398229718E-2,9.773843922E-3
3.896337966E0,1.466076523E-1,4.398229718E-2,5.497787148E-3
3.898321969E0,1.484402567E-1,4.459316283E-2,4.886921961E-3
3.900336511E0,1.521054506E-1,4.520402849E-2,0.000000000E0
3.902320206E0,1.563815027E-1,4.337143153E-2,-3.054326167E-3
3.904332517E0,1.569923609E-1,3.970624134E-2,-4.886921961E-3
3.906316827E0,1.612684280E-1,3.787364438E-2,-4.886921961E-3
3.908331215E0,1.631010175E-1,3.543018550E-2,-9.162978269E-3
3.910314679E0,1.655444801E-1,3.176499158E-2,-9.162978269E-3
3.912329144E0,1.667662114E-1,2.932153270E-2,-1.343903504E-2
3.914312839E0,1.685988009E-1,2.199114859E-2,-1.527163107E-2
3.916327227E0,1.698205322E-1,1.771509275E-2,-1.343903504E-2
3.918310614E0,1.685988009E-1,1.221730467E-2,-1.771509275E-2
3.920326387E0,1.667662114E-1,1.221730490E-3,-1.710422710E-2
3.922308774E0,1.667662114E-1,-3.665191587E-3,-2.015855350E-2
3.924322931E0,1.637118906E-1,-1.099557430E-2,-2.260201424E-2
3.926337088E0,1.624901593E-1,-1.832595654E-2,-2.565634064E-2
3.928319937E0,1.563815027E-1,-2.443460934E-2,-2.687807009E-2
3.930334402E0,1.551597714E-1,-3.604105115E-2,-2.871066704E-2
3.932318405E0,1.527163088E-1,-4.031710699E-2,-2.932153270E-2
3.934332177E0,1.490511149E-1,-4.825835302E-2,-3.604105115E-2
3.936315949E0,1.453859210E-1,-5.497787148E-2,-3.909537569E-2
3.938329721E0,1.435533315E-1,-5.742133409E-2,-3.909537569E-2
3.940315032E0,1.398881376E-1,-6.230825558E-2,-4.031710699E-2
3.942328189E0,1.374446750E-1,-6.597344577E-2,-4.031710699E-2
3.944311038E0,1.343903542E-1,-6.414084882E-2,-4.153883830E-2
3.946326041E0,1.288925707E-1,-6.414084882E-2,-3.909537569E-2
3.948309736E0,1.264491081E-1,-6.352998316E-2,-4.031710699E-2
3.950322663E0,1.258382350E-1,-6.352998316E-2,-3.787364438E-2
3.952337742E0,1.209513173E-1,-5.986479297E-2,-3.909537569E-2
3.954321438E0,1.178969890E-1,-5.925392732E-2,-3.420845419E-2
3.956335595E0,1.160643995E-1,-5.925392732E-2,-3.237585723E-2
