"Time (s)","Linear Acceleration x (m/s^2)","Linear Acceleration y (m/s^2)","Linear Acceleration z (m/s^2)"
1.431278700E-2,-2.262032032E-2,1.224184036E-1,-7.458639145E-2
2.230910700E-2,4.730701447E-2,2.658557892E-2,-7.659101486E-2
3.030358000E-2,7.102966309E-3,2.651405334E-2,1.717662811E-2
3.833066900E-2,-2.982640266E-2,5.428504944E-2,8.642005920E-2
4.632691200E-2,-8.510696888E-2,7.707214355E-2,1.340689659E-1
5.432138700E-2,-6.246566772E-2,9.388732910E-2,1.017823219E-1
6.231739900E-2,-4.109871387E-2,8.661270142E-2,6.710863113E-2
7.031248800E-2,-6.663668156E-2,1.412477493E-1,3.573656082E-2
7.830857700E-2,-1.136112213E-1,1.535625458E-1,-9.366512299E-3
8.630335800E-2,-1.096038818E-1,1.940193176E-1,-5.751991272E-2
9.433013900E-2,-8.452463150E-2,2.255511284E-1,-9.591388702E-2
1.023251510E-1,-4.063975811E-2,1.896400452E-1,-9.715986252E-2
1.103206250E-1,5.869865417E-2,2.162427902E-1,-1.004858017E-1
1.183169440E-1,1.142735481E-1,1.812667847E-1,-6.514167786E-2
1.263125720E-1,1.728831530E-1,1.661119461E-1,-4.746341705E-2
1.343083530E-1,1.601785421E-1,1.496973038E-1,-1.332330704E-2
1.423040570E-1,7.976698875E-2,1.090860367E-1,1.061391830E-2
1.503296090E-1,-2.751374245E-2,8.402729034E-2,5.068588257E-2
1.583261590E-1,-1.190644503E-1,4.253578186E-2,4.557180405E-2
1.663212480E-1,-1.351673603E-1,-2.260589600E-2,5.734634399E-2
1.743169530E-1,-1.705160141E-1,-5.486488342E-2,3.369379044E-2
1.823132720E-1,-1.649650335E-1,-7.327556610E-2,1.136779785E-2
1.903077460E-1,-1.027441025E-1,-1.117162704E-1,-6.199836731E-3
1.983041420E-1,-4.257321358E-2,-1.171236038E-1,-2.833843231E-2
2.063300010E-1,-7.194995880E-3,-1.127157211E-1,-4.680109024E-2
2.143259360E-1,3.466963768E-3,-9.458732605E-2,-2.534627914E-2
2.223213320E-1,2.218210697E-2,-7.509613037E-2,1.362323761E-2
2.303167290E-1,2.199149132E-2,-6.053924561E-2,3.792333603E-2
2.383122030E-1,5.567073822E-2,-8.201122284E-2,3.320932388E-2
2.463081380E-1,5.941510201E-2,-9.366607666E-2,6.612491608E-2
2.543035350E-1,6.944012642E-2,-8.455944061E-2,3.651714325E-2
2.623294700E-1,6.317579746E-2,-4.218387604E-2,-8.962154388E-3
2.703248670E-1,2.688705921E-2,1.290798187E-2,-5.388975143E-2
2.783205710E-1,-1.161336899E-3,6.172943115E-2,-1.055274010E-1
2.863159680E-1,-3.339636326E-2,8.980655670E-2,-1.184277534E-1
2.943125950E-1,-9.808766842E-2,1.276149750E-1,-1.079330444E-1
3.023085300E-1,-9.728753567E-2,1.660346985E-1,-5.867815018E-2
3.103341580E-1,-1.190960407E-1,1.806459427E-1,-2.058553696E-2
3.183295550E-1,-1.077669859E-1,1.691913605E-1,4.438877106E-2
3.263258740E-1,-1.087499857E-1,1.818475723E-1,4.748106003E-2
3.343208860E-1,-6.695580482E-2,1.658391953E-1,3.161334991E-2
3.423166670E-1,-4.689776897E-2,1.475391388E-1,2.793693542E-2
3.503116800E-1,-1.969933510E-2,9.811019897E-2,1.708602905E-2
3.583076930E-1,-2.794420719E-2,3.924942017E-2,-2.958202362E-2
3.663342430E-1,-2.574944496E-2,2.125263214E-2,-6.665182114E-2
3.743296400E-1,-4.661655426E-2,1.056098938E-2,-4.392194748E-2
3.823253440E-1,-7.648599148E-2,-4.945755005E-3,-6.209135056E-2
3.903210480E-1,-1.228129864E-1,5.884170532E-3,-8.034563065E-2
3.983157530E-1,-1.334031820E-1,-2.435684204E-3,-9.614276886E-2
4.063112260E-1,-1.660808325E-1,-1.310443878E-2,-9.256076813E-2
4.143074690E-1,-1.658270359E-1,-9.342193604E-3,-7.673597336E-2
4.223031730E-1,-1.470630169E-1,-1.988983154E-2,-9.415960312E-2
4.303290310E-1,-1.074466705E-1,-2.322387695E-2,-9.697055817E-2
4.383253510E-1,-7.816898823E-2,-5.086898804E-3,-9.969186783E-2
4.463205170E-1,-3.983211517E-2,-1.352310181E-2,-1.218008995E-1
4.543158380E-1,-6.439924240E-3,-1.243591309E-2,-1.583175659E-1
4.623118500E-1,-2.289640903E-2,3.026962280E-3,-1.781773567E-1
4.703076310E-1,-3.121316433E-2,-4.835128784E-2,-1.955957413E-1
4.783331050E-1,-5.981063843E-2,-1.137609482E-1,-1.697254181E-1
4.863300400E-1,-1.371719837E-1,-1.810712814E-1,-1.362957954E-1
4.943245130E-1,-2.317317724E-1,-2.716150284E-1,-1.046524048E-1
5.023206020E-1,-3.123167753E-1,-2.823457718E-1,-7.703495026E-2
5.103150760E-1,-4.054881334E-1,-2.304162979E-1,-1.570224762E-2
5.183113950E-1,-4.589275718E-1,-1.448078156E-1,-1.911687851E-2
5.263070230E-1,-5.038831234E-1,-4.475593567E-2,-5.145597458E-2
5.343341120E-1,-5.451238751E-1,3.139305115E-2,-8.883666992E-2
5.423292780E-1,-5.756967664E-1,6.220149994E-2,-1.788883209E-1
5.503245980E-1,-5.717035532E-1,6.007099152E-2,-3.017382622E-1
5.583203030E-1,-5.269139409E-1,3.723430634E-2,-3.800835609E-1
5.663156990E-1,-3.782309890E-1,1.285743713E-2,-4.565920830E-1
5.743110960E-1,-2.642624378E-1,-8.183479309E-3,-4.354157448E-1
5.823074930E-1,-1.143281460E-1,-1.950931549E-2,-3.630809784E-1
5.903326580E-1,-4.554831982E-2,3.069686890E-2,-2.530288696E-1
5.983284400E-1,-9.621381760E-3,7.757091522E-2,-2.039103508E-1
6.063244520E-1,-5.644631386E-2,2.072362900E-1,-1.082105637E-1
6.143201560E-1,-1.660041809E-1,2.858867645E-1,-3.753566742E-2
6.223149370E-1,-2.520451546E-1,3.618178368E-1,-3.910875320E-2
6.303112570E-1,-3.313762546E-1,3.992266655E-1,-7.389545441E-3
6.383071920E-1,-3.797309399E-1,3.719310760E-1,-3.797340393E-2
6.463333580E-1,-3.706377745E-1,2.705612183E-1,-5.871820450E-2
6.543287560E-1,-3.398751020E-1,1.768140793E-1,-1.002898216E-1
6.623256910E-1,-2.870703340E-1,9.075069427E-2,-8.845329285E-2
6.703195490E-1,-2.334845066E-1,1.056041718E-1,-4.744958878E-2
6.783155610E-1,-1.195087433E-1,1.826992035E-1,2.216386795E-2
6.863107270E-1,-3.138458729E-2,2.140111923E-1,1.199202538E-1
6.943073540E-1,-1.207160950E-2,2.448148727E-1,1.712002754E-1
7.023329050E-1,1.959836483E-2,2.436666489E-1,2.449464798E-1
7.103285320E-1,-2.105903625E-2,2.005510330E-1,2.879500389E-1
7.183240060E-1,-9.130561352E-2,1.253623962E-1,2.385783195E-1
7.263197100E-1,-2.681016922E-2,-2.691268921E-3,1.677494049E-1
7.343156450E-1,8.577609062E-2,-1.208915710E-1,1.649489403E-1
7.423114260E-1,2.415456772E-1,-2.242336273E-1,1.012835503E-1
7.503058230E-1,3.816853762E-1,-2.482919693E-1,9.824037552E-2
7.583317590E-1,4.775915146E-1,-2.365455627E-1,1.072635651E-1
7.663283860E-1,4.813297987E-1,-2.108697891E-1,1.469497681E-1
7.743246290E-1,4.573031664E-1,-1.452941895E-1,1.784367561E-1
7.823203340E-1,3.910992146E-1,-3.501892090E-2,1.538629532E-1
7.903151150E-1,3.211841583E-1,8.380889893E-2,1.589932442E-1
7.983102810E-1,2.644819021E-1,1.350164413E-1,3.652572632E-2
8.063059080E-1,1.842763424E-1,9.799766541E-2,-7.105302811E-2
8.143321510E-1,2.035070658E-1,1.636219025E-2,-1.750450134E-1
8.223281630E-1,2.997345924E-1,-6.382465363E-2,-2.957997322E-1
8.303231750E-1,4.043064117E-1,-8.003997803E-2,-2.768135071E-1
8.383195720E-1,4.495333433E-1,-1.964569092E-3,-1.456189156E-1
8.463152760E-1,4.741554260E-1,5.220222473E-2,7.588386536E-3
8.543105970E-1,4.169307947E-1,1.167478561E-1,3.689045906E-1
8.623066850E-1,3.072645664E-1,1.098661423E-1,4.849390984E-1
8.703322360E-1,2.405321598E-1,9.821891785E-2,6.137118340E-1
8.783282480E-1,2.580384016E-1,1.275081635E-1,5.477786064E-1
8.863239520E-1,3.297951221E-1,1.263189316E-1,5.372028351E-1
8.943187340E-1,3.314958811E-1,1.073436737E-1,3.366231918E-1
9.023149760E-1,4.195539951E-1,7.114315033E-2,1.575050354E-1
9.103095270E-1,6.017270088E-1,2.325344086E-2,3.213071823E-2
9.183055390E-1,7.133589983E-1,-3.104305267E-2,-7.232046127E-2
9.263320120E-1,7.722539902E-1,-5.563449860E-2,-1.222805977E-1
9.343276400E-1,8.244624138E-1,-6.268978119E-2,-1.206579208E-1
9.423236520E-1,8.004086018E-1,-4.779529572E-2,-9.438562393E-2
9.503187410E-1,7.044836283E-1,-1.849174500E-3,-3.937339783E-2
9.583151380E-1,5.776506662E-1,3.637218475E-2,3.631496429E-2
9.663105350E-1,4.059647322E-1,1.180458069E-2,9.185791016E-2
9.743062390E-1,2.378060818E-1,-1.566791534E-2,1.391091347E-1
9.823323280E-1,1.100029945E-1,-1.712512970E-2,1.445569992E-1
9.903274170E-1,-3.907203674E-2,-3.460311890E-2,7.307910919E-2
9.983231220E-1,-8.201682568E-2,-2.269554138E-2,6.501197815E-3
1.006318826E0,-9.488070011E-2,-4.609203339E-2,-7.621574402E-2
1.014314299E0,-2.622604370E-4,-1.240329742E-1,-1.986379623E-1
1.022310004E0,2.177286148E-2,-1.366004944E-1,-2.357554436E-1
1.030306016E0,1.119447947E-1,-1.531238556E-1,-2.781949043E-1
1.038331797E0,1.553500891E-1,-1.660709381E-1,-2.894430161E-1
1.046327271E0,1.545414925E-1,-1.301746368E-1,-2.603402138E-1
1.054322976E0,1.360439062E-1,-1.007528305E-1,-2.727637291E-1
1.062318603E0,1.239938736E-1,-8.969116211E-2,-3.314104080E-1
1.070313462E0,1.040183306E-1,-3.681182861E-2,-4.285278320E-1
1.078310089E0,1.098184586E-1,-2.560615540E-2,-5.037899017E-1
1.086306332E0,1.124399900E-1,-9.696006775E-3,-6.656885147E-1
1.094331344E0,1.195421219E-1,6.439208984E-3,-7.342476845E-1
1.102327587E0,7.381713390E-2,2.959346771E-2,-7.508091927E-1
1.110323060E0,-3.604054451E-2,9.230422974E-2,-6.909213066E-1
1.118318764E0,-2.189388275E-1,1.626977921E-1,-6.375169754E-1
1.126314469E0,-4.186954498E-1,2.208118439E-1,-4.895100594E-1
1.134309481E0,-5.184592009E-1,2.636661530E-1,-2.885098457E-1
1.142305800E0,-4.329138994E-1,2.317247391E-1,-3.425011635E-1
1.150330812E0,-2.695420980E-1,2.496032715E-1,-4.349493980E-1
1.158327056E0,-9.969258308E-2,2.288293839E-1,-5.049834251E-1
1.166322838E0,1.194119453E-2,1.219367981E-1,-5.637512207E-1
1.174317926E0,-1.958489418E-3,2.133178711E-2,-7.914125919E-1
1.182313631E0,-6.389474869E-2,-8.585262299E-2,-8.872449398E-1
1.190308951E0,-1.480554342E-1,-1.711959839E-1,-7.687456608E-1
1.198304116E0,-1.572161913E-1,-3.353071213E-1,-6.496672630E-1
1.206331821E0,-3.813600540E-2,-5.517330170E-1,-4.246168137E-1
1.214326833E0,1.210250854E-1,-7.184381485E-1,-1.853260994E-1
1.222322537E0,1.796183586E-1,-7.078094482E-1,1.148595810E-1
1.230317934E0,1.471321583E-1,-5.797529221E-1,3.547320366E-1
1.238313715E0,6.921315193E-2,-3.805112839E-1,5.755944252E-1
1.246309419E0,-3.185677528E-2,-1.615123749E-1,7.675309181E-1
1.254304508E0,-6.674933434E-2,1.399993896E-2,7.054090500E-1
1.262332137E0,-1.468944550E-2,2.096452713E-1,5.334367752E-1
1.270326918E0,4.640555382E-2,3.560218811E-1,3.575673103E-1
1.278322622E0,-3.364205360E-2,5.734901428E-1,1.261172295E-1
1.286318403E0,-1.171908379E-1,6.773047447E-1,-6.637048721E-2
1.294313415E0,-1.173865795E-1,7.442412376E-1,-2.460370064E-1
1.302310351E0,-6.879758835E-2,7.313752174E-1,-2.958683968E-1
1.310304593E0,1.716279984E-2,6.287069321E-1,-2.385735512E-1
1.318330759E0,4.935503006E-2,5.171461105E-1,-1.349582672E-1
1.326326771E0,-1.023364067E-2,4.511766434E-1,2.318191528E-2
1.334321860E0,-1.396083832E-1,4.181184769E-1,2.173376083E-1
1.342317564E0,-2.501829863E-1,3.740596771E-1,3.978762627E-1
1.350312884E0,-3.495868444E-1,3.025541306E-1,5.201721191E-1
1.358309590E0,-4.268698692E-1,2.324962616E-1,5.898957253E-1
1.366304678E0,-4.664266109E-1,1.614198685E-1,6.218595505E-1
1.374330537E0,-5.667520761E-1,6.090450287E-2,5.809869766E-1
1.382327164E0,-5.459824800E-1,-3.009605408E-2,5.094084740E-1
1.390321868E0,-5.116360188E-1,-4.859828949E-2,3.654441833E-1
1.398317265E0,-3.883289099E-1,-1.284637451E-1,2.459945679E-1
1.406313892E0,-2.861444950E-1,-1.566753387E-1,8.263444901E-2
1.414308366E0,-1.739325523E-1,-1.186704636E-1,-4.996728897E-2
1.422304763E0,-2.498030663E-2,-1.224222183E-1,-1.692190170E-1
1.430331236E0,2.291901112E-1,-1.158409119E-1,-2.638146877E-1
1.438326017E0,4.558689594E-1,-1.061620712E-1,-3.472726345E-1
1.446321645E0,5.609455109E-1,-6.285762787E-2,-3.319752216E-1
1.454317349E0,6.054649353E-1,-5.796337128E-2,-2.849538326E-1
1.462313670E0,6.238369942E-1,-9.408760071E-2,-2.253823280E-1
1.470307836E0,6.499614716E-1,-1.882724762E-1,-1.781466007E-1
1.478335002E0,6.453816891E-1,-3.429088593E-1,-1.384663582E-1
1.486330398E0,6.049630642E-1,-4.594058990E-1,-1.411726475E-1
1.494326718E0,5.725176334E-1,-5.995454788E-1,-1.474153996E-1
1.502322115E0,5.008881092E-1,-6.983652115E-1,-1.593861580E-1
1.510317204E0,4.862699509E-1,-7.702369690E-1,-1.295335293E-1
1.518313139E0,5.500497818E-1,-8.559818268E-1,-1.035573483E-1
1.526308535E0,6.557807922E-1,-8.481283188E-1,-1.950168610E-2
1.534334470E0,6.854343414E-1,-7.855567932E-1,1.768267155E-1
1.542330482E0,6.305766106E-1,-6.635160446E-1,1.054658890E-1
1.550324956E0,5.505137444E-1,-5.539627075E-1,1.734592915E-1
1.558321815E0,4.821155071E-1,-4.262084961E-1,2.011713982E-1
1.566317212E0,3.857584000E-1,-3.211832047E-1,2.296006680E-1
1.574313531E0,2.966935635E-1,-2.485561371E-1,1.990985870E-1
1.582308005E0,2.177674770E-1,-1.554517746E-1,8.589506149E-2
1.590334786E0,2.019040585E-1,-3.939437866E-2,-5.252146721E-2
1.598330183E0,1.732265949E-1,1.071453094E-1,-9.610795975E-2
1.606326810E0,1.469552517E-1,1.863508224E-1,-1.643283367E-1
1.614321976E0,8.636021614E-2,2.511949539E-1,-1.713001728E-1
1.622317680E0,1.325607300E-4,2.278118134E-1,-1.530907154E-1
1.630312769E0,-3.765034676E-2,1.975221634E-1,-1.265501976E-1
1.638308704E0,-1.064138412E-1,1.173601151E-1,-1.078553200E-1
1.646334947E0,-1.826679707E-1,3.284072876E-2,-9.424304962E-2
1.654329959E0,-2.694680691E-1,-2.735614777E-2,-7.104063034E-2
1.662325972E0,-3.149566650E-1,-1.064662933E-1,-4.044032097E-2
1.670321369E0,-3.099756241E-1,-1.471815109E-1,1.423668861E-2
1.678316766E0,-2.666532993E-1,-1.496009827E-1,-5.080699921E-4
1.686312778E0,-2.043018341E-1,-1.711626053E-1,8.842706680E-3
1.694308482E0,-2.023375034E-1,-1.186151505E-1,-1.520442963E-2
1.702334109E0,-2.390091419E-1,-1.282815933E-1,-5.807805061E-2
1.710329198E0,-2.712888718E-1,-1.257944107E-1,-9.067940712E-2
1.718325518E0,-2.728095055E-1,-1.277713776E-1,-1.270897388E-1
1.726321530E0,-2.441198826E-1,-1.509284973E-1,-1.692817211E-1
1.734316619E0,-2.190027237E-1,-2.141532898E-1,-2.332708836E-1
1.742312246E0,-1.451475620E-1,-2.241401672E-1,-2.759158611E-1
1.750307951E0,-6.338286400E-2,-2.190532684E-1,-3.662567139E-1
1.758334194E0,-6.844043732E-3,-1.629133224E-1,-4.038152695E-1
1.766329899E0,2.519607544E-2,-8.940601349E-2,-4.229054451E-1
1.774324911E0,8.359646797E-2,-4.925727844E-2,-3.889522552E-1
1.782321538E0,1.205489635E-1,-9.685516357E-3,-3.084592819E-1
1.790315781E0,1.362967491E-1,-2.612113953E-2,-2.302834988E-1
1.798312408E0,1.354427338E-1,-3.386402130E-2,-1.973035336E-1
1.806307805E0,1.225574017E-1,-4.250907898E-2,-1.543474197E-1
1.814334279E0,3.047871590E-2,-1.366615295E-2,-1.059701443E-1
1.822330214E0,-8.085894585E-2,1.878738403E-4,-1.020324230E-1
1.830324456E0,-1.348652840E-1,3.997230530E-2,-9.892916679E-2
1.838320776E0,-1.916801929E-1,5.808830261E-2,-1.221930981E-1
1.846317019E0,-2.299609184E-1,8.348560333E-2,-1.448702812E-1
1.854311262E0,-1.998772621E-1,8.247375488E-2,-1.120231152E-1
1.862308121E0,-1.617829800E-1,5.245494843E-2,-6.214094162E-2
1.870333364E0,-6.823301315E-2,3.160762787E-2,-5.270886421E-2
1.878329453E0,1.068623066E-1,3.170585632E-2,-5.291223526E-2
1.886325465E0,2.029020786E-1,1.900863647E-2,-5.670309067E-3
1.894320554E0,3.229873180E-1,-4.753017426E-2,9.296512604E-2
1.902316566E0,4.310493469E-1,-1.273279190E-1,1.781959534E-1
1.910311885E0,5.675442219E-1,-2.373056412E-1,3.168742657E-1
1.918307282E0,6.711454391E-1,-3.829984665E-1,5.561316013E-1
1.926333832E0,7.356574535E-1,-4.838094711E-1,7.538516521E-1
1.934328921E0,8.366327286E-1,-5.784616470E-1,9.889204502E-1
1.942324933E0,8.847081661E-1,-6.694831848E-1,1.175560951E0
1.950319330E0,9.654200077E-1,-7.683887482E-1,1.315471888E0
1.958316034E0,9.384810925E-1,-7.910099030E-1,1.403512955E0
1.966311432E0,8.067827225E-1,-8.659744263E-1,1.486695290E0
1.974307752E0,7.510838509E-1,-9.935245514E-1,1.360659599E0
1.982334148E0,9.140310287E-1,-1.050715446E0,1.328121662E0
1.990329545E0,1.288164616E0,-1.102483749E0,1.394695282E0
1.998324711E0,1.582212210E0,-1.115318298E0,1.380659580E0
2.006320415E0,1.857848644E0,-1.141921997E0,1.430441380E0
2.014316350E0,1.982948065E0,-1.187178612E0,1.439297676E0
2.022311747E0,1.924094439E0,-1.220684052E0,1.499038696E0
2.030306836E0,1.801396132E0,-1.252215385E0,1.549299240E0
2.038333386E0,1.593676090E0,-1.241381645E0,1.589611053E0
2.046329321E0,1.383599281E0,-1.219370842E0,1.638676643E0
2.054324795E0,1.294872522E0,-1.232170105E0,1.534749508E0
2.062320500E0,1.328253746E0,-1.191975594E0,1.408950806E0
2.070316205E0,1.582046986E0,-1.160301208E0,1.147179604E0
2.078311294E0,1.900215626E0,-1.073166847E0,1.008577824E0
2.086307229E0,2.308048248E0,-9.060649872E-1,8.810706139E-1
2.094333164E0,2.482473850E0,-7.204809189E-1,7.709069252E-1
2.102329407E0,2.451613426E0,-6.112189293E-1,7.161989212E-1
2.110323342E0,2.341099262E0,-5.894284248E-1,7.504448891E-1
2.118320200E0,2.163959980E0,-6.845612526E-1,7.300353050E-1
2.126315597E0,1.860692024E0,-7.356390953E-1,7.634487152E-1
2.134311609E0,1.508174896E0,-8.514242172E-1,7.729678154E-1
2.142307621E0,1.082008362E0,-9.436492920E-1,7.954645157E-1
2.150333171E0,7.924919128E-1,-9.934682846E-1,8.178210258E-1
2.158328568E0,6.097693443E-1,-1.065827370E0,8.732042313E-1
2.166323735E0,6.152181625E-1,-1.158810616E0,7.444634438E-1
2.174319977E0,6.212849617E-1,-1.157112122E0,5.608024597E-1
2.182315759E0,6.008219719E-1,-1.106683254E0,3.285698891E-1
2.190310232E0,5.659456253E-1,-9.835190773E-1,1.678709984E-1
2.198306783E0,5.756297112E-1,-9.061923027E-1,9.478521347E-2
2.206332948E0,6.485948563E-1,-8.133759499E-1,5.847501755E-2
2.214328653E0,6.770567894E-1,-7.689008713E-1,5.122661591E-3
2.222324126E0,6.368002892E-1,-8.107576370E-1,-2.593612671E-2
2.230319523E0,6.282739639E-1,-8.873996735E-1,-1.991748810E-3
2.238314843E0,6.298694611E-1,-9.793419838E-1,-3.171443939E-2
2.246311162E0,8.208937645E-1,-1.020737648E0,-8.204317093E-2
2.254337328E0,9.012398720E-1,-1.031212330E0,-1.313447952E-2
2.262333341E0,8.995661736E-1,-9.218068123E-1,9.122037888E-2
2.270327892E0,7.380580902E-1,-9.254000187E-1,1.485326290E-1
2.278323827E0,1.604642868E-1,-8.540966511E-1,3.275089264E-1
2.286319300E0,3.468465805E-1,-1.025916576E0,2.958877087E-1
2.294315543E0,5.861206055E-1,-1.246184826E0,1.669325829E-1
2.302310401E0,8.471097946E-1,-1.361825943E0,-2.384209633E-2
2.310306952E0,9.341659546E-1,-1.453133345E0,-9.558153152E-2
2.318332502E0,9.021263123E-1,-1.287241697E0,-1.376950741E-1
2.326327591E0,8.728971481E-1,-1.187344790E0,-1.434001923E-1
2.334323911E0,8.486518860E-1,-1.141340017E0,-9.345269203E-2
2.342319692E0,8.964538574E-1,-1.178774118E0,-8.985018730E-2
2.350314781E0,9.398202896E-1,-1.252964258E0,-4.447746277E-2
2.358310486E0,9.695959091E-1,-1.380503893E0,-3.234004974E-2
2.366337268E0,8.860359192E-1,-1.543838978E0,2.610111237E-2
2.374332587E0,4.901084900E-1,-1.551056027E0,4.180145264E-2
2.382328907E0,1.003087044E0,-1.730393291E0,3.677010536E-2
2.390323765E0,1.373877525E0,-1.797963619E0,7.843971252E-2
2.398318854E0,1.517633438E0,-1.701265931E0,2.156066895E-2
2.406315097E0,1.404032707E0,-1.513299704E0,4.393100739E-3
2.414310263E0,1.165222168E0,-1.290482998E0,-7.866954803E-2
2.422306198E0,9.222364426E-1,-1.119678974E0,-1.006669998E-1
2.430331441E0,8.601865768E-1,-1.080578566E0,-4.610991478E-2
2.438327837E0,8.293542862E-1,-1.092684984E0,-1.897764206E-2
2.446323542E0,7.439746857E-1,-1.198228359E0,-6.643915176E-2
2.454319477E0,5.323505402E-1,-1.208853006E0,-2.104138136E-1
2.462314643E0,3.691711426E-1,-1.193101645E0,-3.717980385E-1
2.470310579E0,4.284181595E-1,-1.169446230E0,-4.705991745E-1
2.478337052E0,4.923362732E-1,-1.054322362E0,-4.014776945E-1
2.486332834E0,4.700050354E-1,-9.987338781E-1,-3.494781256E-1
2.494327230E0,4.088764191E-1,-8.225976229E-1,-2.875030041E-1
2.502323550E0,2.287845612E-1,-7.311789989E-1,-2.558913231E-1
2.510318639E0,7.701110840E-2,-4.625694752E-1,-3.114905357E-1
2.518314420E0,2.591419220E-2,-2.662472725E-1,-3.654547930E-1
2.526310355E0,-8.419609070E-2,-1.169431210E-1,-4.398843050E-1
2.534335983E0,-4.097480774E-1,1.361918449E-2,-5.728642941E-1
2.542332302E0,-7.029466629E-1,6.758522987E-2,-5.983972549E-1
2.550327084E0,-9.093198776E-1,5.062651634E-2,-6.721534729E-1
2.558323634E0,-1.052033901E0,-1.095588207E-1,-5.239828825E-1
2.566319032E0,-1.436195374E0,-1.766686440E-1,-5.283393860E-1
2.574314121E0,-1.783615589E0,-1.134004593E-1,-5.924135447E-1
2.582310210E0,-1.943761349E0,-1.018729210E-1,-5.746231079E-1
2.590335683E0,-2.123563766E0,-2.496242523E-2,-6.272855997E-1
2.598331695E0,-2.310131550E0,-4.648256302E-2,-7.131611109E-1
2.606328400E0,-2.475557804E0,-1.495404243E-1,-6.443891525E-1
2.614322796E0,-2.561033726E0,-3.265724182E-1,-6.066168547E-1
2.622319116E0,-2.556622982E0,-5.098094940E-1,-6.394102573E-1
2.630314282E0,-2.595659733E0,-6.741733551E-1,-5.499340296E-1
2.638310294E0,-2.694578648E0,-7.345924377E-1,-3.909504414E-1
2.646336690E0,-2.987317562E0,-7.389621735E-1,-2.101520300E-1
2.654331472E0,-3.184893131E0,-7.269644737E-1,-1.055207253E-1
2.662326869E0,-3.393435478E0,-6.982636452E-1,-3.643393517E-2
2.670321958E0,-3.456671953E0,-6.732268333E-1,-1.728215218E-1
2.678318047E0,-3.269212484E0,-7.557120323E-1,-3.081552982E-1
2.686314290E0,-3.026266098E0,-8.739733696E-1,-3.613407612E-1
2.694310379E0,-2.923485041E0,-1.012884140E0,-4.532307386E-1
2.702336160E0,-3.160622597E0,-1.160446644E0,-3.840730190E-1
2.710330711E0,-3.555138588E0,-1.296745777E0,-3.330798149E-1
2.718327030E0,-3.826338768E0,-1.387706757E0,-3.404593468E-1
2.726322350E0,-3.949284792E0,-1.354187012E0,-5.063812733E-1
2.734318439E0,-3.814296007E0,-1.311528206E0,-6.322751045E-1
2.742314682E0,-3.570422411E0,-1.085357666E0,-6.077642441E-1
2.750308617E0,-3.291110039E0,-8.372597694E-1,-6.340665817E-1
2.758335321E0,-2.864767790E0,-7.144517899E-1,-7.385230064E-1
2.766331642E0,-2.494493008E0,-7.866764069E-1,-7.114956379E-1
2.774327039E0,-2.383219242E0,-1.006747246E0,-6.463770866E-1
2.782323051E0,-2.417335987E0,-1.322779655E0,-4.454231262E-1
2.790317909E0,-2.553157568E0,-1.536417961E0,-1.833968163E-1
2.798313536E0,-2.734238625E0,-1.604562759E0,1.862936020E-1
2.806308702E0,-2.978403568E0,-1.542017460E0,5.629057884E-1
2.814335714E0,-3.184119463E0,-1.459251404E0,7.475655079E-1
2.822331803E0,-3.280278683E0,-1.392271996E0,8.532552719E-1
2.830326277E0,-3.206365585E0,-1.314475536E0,8.114240170E-1
2.838322289E0,-2.921918392E0,-1.185030937E0,6.116886139E-1
2.846317685E0,-2.428624630E0,-1.113986969E0,3.384292126E-1
2.854313313E0,-1.927681684E0,-1.140295506E0,3.609342575E-1
2.862309632E0,-2.088893890E0,-1.104444981E0,4.978711605E-1
2.870334953E0,-2.497052670E0,-9.272131920E-1,7.209808826E-1
2.878331273E0,-2.880009890E0,-6.202549934E-1,8.963470459E-1
2.886326054E0,-2.967459202E0,-4.210672379E-1,9.918665886E-1
2.894322681E0,-2.955906868E0,-2.848577499E-1,9.830923080E-1
2.902317770E0,-2.867070198E0,-2.313022614E-1,1.019844532E0
2.910313090E0,-2.910700798E0,-2.319183350E-1,1.022940159E0
2.918309102E0,-2.984942436E0,-1.956062317E-1,8.160727024E-1
2.926335268E0,-2.866341114E0,-1.647462845E-1,7.105574608E-1
2.934330742E0,-2.470494270E0,-9.611225128E-2,6.622848511E-1
2.942326754E0,-1.869476557E0,-8.125495911E-2,5.863792896E-1
2.950322381E0,-1.371463537E0,-8.924961090E-2,7.639486790E-1
2.958317854E0,-1.057661057E0,-5.610656738E-2,8.055834770E-1
2.966314098E0,-9.638535976E-1,-7.638168335E-2,7.950048447E-1
2.974308880E0,-8.834764957E-1,-7.420158386E-2,6.495690346E-1
2.982335122E0,-7.179033756E-1,-5.318927765E-2,3.453946114E-1
2.990330134E0,-5.145890713E-1,2.311134338E-2,1.732785702E-1
2.998326146E0,-4.777741432E-1,2.039041519E-1,5.497074127E-2
3.006321620E0,-5.373151302E-1,3.994464874E-1,-1.344156265E-1
3.014317247E0,-5.686678886E-1,5.377464294E-1,-1.980934143E-1
3.022313567E0,-6.102962494E-1,5.852346420E-1,-1.164922714E-1
3.030308733E0,-6.883132458E-1,4.923133850E-1,-1.162741184E-1
3.038334591E0,-5.209243298E-1,2.584762573E-1,-3.330731392E-2
3.046330603E0,-4.095852375E-1,7.181930542E-2,9.791851044E-2
3.054326307E0,-4.661152363E-1,-7.666206360E-2,3.735134602E-1
3.062322319E0,-5.823261738E-1,-1.415681839E-1,5.465736389E-1
3.070316794E0,-7.624645233E-1,-2.782821655E-1,8.028085232E-1
3.078312421E0,-9.626820087E-1,-3.413972855E-1,9.370272160E-1
3.086309049E0,-1.156691790E0,-3.819270134E-1,8.886060715E-1
3.094334984E0,-1.135644913E0,-3.667674065E-1,6.791486740E-1
3.102330688E0,-9.753966331E-1,-3.557419777E-1,5.013735294E-1
3.110326700E0,-8.353474140E-1,-2.823143005E-1,3.074393272E-1
3.118322328E0,-6.785016060E-1,-2.302293777E-1,2.302875519E-1
3.126316878E0,-4.324994087E-1,-2.110195160E-1,2.397894859E-1
3.134312506E0,-3.357264996E-1,-2.674407959E-1,3.487510681E-1
3.142308210E0,-2.564265728E-1,-2.992787361E-1,3.183951378E-1
3.150333760E0,-1.956102848E-1,-3.540010452E-1,3.258423805E-1
3.158329542E0,-2.275850773E-1,-3.458580971E-1,3.289284706E-1
3.166325785E0,-3.941583633E-1,-2.611818314E-1,3.447937965E-1
3.174320874E0,-4.711167812E-1,-1.440124512E-1,1.676006317E-1
3.182317502E0,-4.308331013E-1,-8.747673035E-2,9.929990768E-2
3.190312898E0,-4.049825668E-1,-1.287269592E-2,7.097291946E-2
3.198308064E0,-4.001052380E-1,1.519966125E-2,8.439731598E-2
3.206334538E0,-3.440799713E-1,3.029632568E-2,4.108476639E-2
3.214330781E0,-2.559549809E-1,4.947662354E-2,-1.176881790E-2
3.222325870E0,-1.041007042E-1,7.796669006E-2,-7.603979111E-2
3.230320728E0,2.341961861E-2,1.352138519E-1,-5.932188034E-2
3.238316355E0,-4.725217819E-3,1.800889969E-1,-8.249902725E-2
3.246312444E0,-9.381937981E-2,1.432161331E-1,-6.046390533E-2
3.254339148E0,-1.947534084E-1,1.249036789E-1,-4.389905930E-2
3.262333699E0,-2.414391041E-1,8.224773407E-2,-6.599998474E-2
3.270329943E0,-2.180757523E-1,8.231067657E-2,-1.500592232E-1
3.278325032E0,-1.900150776E-1,1.203870773E-1,-1.831917763E-1
3.286322274E0,-2.612416744E-1,2.420158386E-1,4.900503159E-2
3.294316517E0,-3.898625374E-1,3.338136673E-1,1.211748123E-1
3.302312760E0,-4.759719372E-1,3.551769257E-1,1.126279831E-1
3.310337772E0,-4.185118675E-1,2.995891571E-1,7.610654831E-2
3.318334015E0,-3.764259815E-1,2.249727249E-1,3.051614761E-2
3.326329719E0,-4.366111755E-1,1.664466858E-1,-8.842611313E-2
3.334325423E0,-4.199252129E-1,1.171054840E-1,-1.851949692E-1
3.342321435E0,-2.174584866E-1,1.330394745E-1,-2.879676819E-1
3.350316524E0,3.700137138E-2,1.699628830E-1,-3.138484955E-1
3.358311690E0,1.490118504E-1,2.013826370E-1,-2.902030945E-1
3.366338703E0,1.971914768E-1,2.812871933E-1,-3.336534500E-1
3.374334177E0,1.825344563E-1,3.423318863E-1,-2.934660912E-1
3.382329881E0,2.767312527E-1,3.751478195E-1,-2.533516884E-1
3.390324893E0,4.218914509E-1,3.776187897E-1,-1.872096062E-1
3.398320367E0,6.084086895E-1,2.897853851E-1,-1.403074265E-1
3.406315686E0,7.052333355E-1,2.429380417E-1,-8.357667923E-2
3.414311468E0,6.629874706E-1,1.746788025E-1,4.179000854E-3
3.422308018E0,5.287511349E-1,8.975028992E-2,1.266918182E-1
3.430333646E0,2.615261078E-1,4.536437988E-2,2.374320030E-1
3.438329350E0,-1.400017738E-1,-1.813888550E-3,2.858085632E-1
3.446325054E0,-3.901064396E-1,-1.093006134E-2,2.846298218E-1
3.454320451E0,-5.079004765E-1,-8.105278015E-3,3.213715553E-1
3.462316386E0,-5.127258301E-1,2.593898773E-2,3.264908791E-1
3.470311245E0,-4.725210667E-1,1.205062866E-2,3.135719299E-1
3.478338873E0,-4.587194920E-1,-4.135131836E-3,2.820620537E-1
3.486333423E0,-4.125375748E-1,-2.981472015E-2,2.136178017E-1
3.494329435E0,-4.770104885E-1,-7.439899445E-2,2.128424644E-1
3.502325139E0,-4.471733570E-1,-7.092189789E-2,1.823954582E-1
3.510320844E0,-2.732493877E-1,2.101898193E-3,1.220316887E-1
3.518316779E0,-7.738304138E-2,6.812667847E-2,4.045820236E-2
3.526312483E0,1.195454597E-2,9.835433960E-2,2.340269089E-2
3.534337803E0,8.164834976E-2,9.017372131E-2,-4.891872406E-2
3.542332892E0,1.586487293E-1,7.963085175E-2,-1.053695679E-1
3.550328827E0,2.675747871E-1,1.422500610E-2,-1.251997948E-1
3.558323993E0,3.288524151E-1,-3.448963165E-2,-1.737856865E-1
3.566320928E0,3.695099354E-1,-3.568172455E-2,-1.816110611E-1
3.574316018E0,3.388664722E-1,-2.993011475E-2,-1.199011803E-1
3.582311645E0,2.108922005E-1,-5.311012268E-3,-6.539726257E-2
3.590338196E0,3.625488281E-2,3.331375122E-2,-1.343584061E-2
3.598333515E0,-6.102085114E-2,7.884502411E-2,-2.370595932E-2
3.606329604E0,-8.193230629E-2,9.810066223E-2,-2.913284302E-2
3.614324616E0,-1.129775047E-1,1.246376038E-1,-4.633331299E-2
3.622319705E0,-1.017305851E-1,1.249694824E-1,-7.041740417E-2
3.630315410E0,-3.610658646E-2,1.135578156E-1,-7.770395279E-2
3.638311422E0,5.061650276E-2,6.177902222E-2,-7.096242905E-2
3.646337895E0,9.901666641E-2,3.171920776E-3,-3.855705261E-2
3.654333369E0,7.392740250E-2,-7.339477539E-3,-4.665374756E-3
3.662329688E0,6.626939774E-2,1.572418213E-2,1.188945770E-2
3.670324163E0,3.024482727E-2,-3.303337097E-2,2.818679810E-2
3.678319560E0,6.650924683E-3,-5.352020264E-3,6.605148315E-2
3.686316110E0,-2.356410027E-2,3.900527954E-4,1.066794395E-1
3.694311507E0,-7.032799721E-2,3.311157227E-3,5.700778961E-2
3.702337057E0,-6.479811668E-2,5.970001221E-3,4.162168503E-2
3.710331915E0,1.698970795E-2,-1.072216034E-2,7.709503174E-3
3.718328235E0,5.809617043E-2,-2.527618408E-2,-4.727315903E-2
3.726323939E0,8.982920647E-2,-4.722309113E-2,-8.283996582E-2
3.734320259E0,7.655239105E-2,-6.448173523E-2,-4.432010651E-2
3.742316194E0,-3.190994263E-3,-9.623908997E-2,-1.072931290E-2
3.750310975E0,-1.114220619E-1,-1.161193848E-1,8.512973785E-3
3.758337141E0,-1.816718578E-1,-1.120033264E-1,1.111602783E-2
3.766332923E0,-2.001659870E-1,-8.383941650E-2,-3.373718262E-2
3.774328859E0,-1.719453335E-1,-1.724338531E-2,-4.450607300E-2
3.782324332E0,-1.567449570E-1,2.789306641E-2,-8.584642410E-2
3.790319113E0,-1.327753067E-1,6.114196777E-2,-5.735635757E-2
3.798315741E0,-9.507703781E-2,5.372047424E-2,-6.200361252E-2
3.806310830E0,-5.307865143E-2,-1.453399658E-3,-3.783464432E-2
3.814336611E0,2.993345261E-3,-6.844425201E-2,-2.332925797E-2
3.822332623E0,-6.532669067E-4,-1.425647736E-1,4.365444183E-2
3.830328097E0,-2.527475357E-2,-1.904230118E-1,8.165359497E-2
3.838323724E0,3.387999535E-2,-2.549772263E-1,1.051855087E-1
3.846319505E0,1.072161198E-1,-2.644481659E-1,1.096639633E-1
3.854315133E0,6.817960739E-2,-1.734695435E-1,1.070604324E-1
3.862311145E0,1.032748222E-1,-4.130363464E-3,-2.829599380E-2
3.870336696E0,2.339892387E-1,1.357975006E-1,-1.263093948E-1
3.878332401E0,3.312959671E-1,2.607612610E-1,-1.442193985E-1
3.886327566E0,3.309710026E-1,3.034505844E-1,-1.392474174E-1
3.894323271E0,2.619106770E-1,2.206735611E-1,-1.400408745E-1
3.902320206E0,1.385972500E-1,9.626960754E-2,-1.563377380E-1
3.910314679E0,1.601052284E-2,-3.843688965E-2,-1.812763214E-1
3.918310614E0,-7.504200935E-2,-1.760387421E-1,-2.270264626E-1
3.926337088E0,-4.661154747E-2,-1.988792419E-1,-2.770481110E-1
3.934332177E0,1.244449615E-2,-2.071971893E-1,-2.647280693E-1
3.942328189E0,9.189128876E-3,-1.243972778E-1,-2.262601852E-1
3.950322663E0,-2.503633499E-2,-1.010398865E-1,-1.431961060E-1
3.958319675E0,-4.466795921E-2,-2.454757690E-2,-1.090703011E-1
3.966314994E0,-8.594751358E-2,-2.150821686E-2,-9.074831009E-2
3.974309777E0,-1.393136978E-1,-5.742073059E-3,-7.145071030E-2
3.982336942E0,-1.549069881E-1,-2.980995178E-2,-4.871129990E-2
3.990332031E0,-1.904873848E-1,-8.165931702E-2,8.640766144E-3
3.998327966E0,-2.363293171E-1,-1.374979019E-1,6.009101868E-2
4.006323671E0,-3.209609985E-1,-1.636953354E-1,1.292147636E-1
4.014319144E0,-3.482902050E-1,-1.626586914E-1,1.966362000E-1
4.022314772E0,-2.894370556E-1,-1.056642532E-1,2.502918243E-1
4.030309861E0,-2.301216125E-1,1.180744171E-2,3.071441650E-1
4.038336642E0,-2.365386486E-1,1.009798050E-1,3.573813438E-1
4.046332346E0,-1.994142532E-1,1.329450607E-1,2.822961807E-1
4.054327435E0,-9.892511368E-2,1.150646210E-1,2.288308144E-1
4.062322909E0,-6.698369980E-2,1.023368835E-1,2.092723846E-1
4.070318536E0,-6.920862198E-2,6.105422974E-2,1.970343590E-1
4.078314549E0,-9.318566322E-2,1.511287689E-2,1.847047806E-1
4.086310638E0,-1.480891705E-1,-2.113437653E-2,1.887674332E-1
4.094336189E0,-2.283663750E-1,-8.847332001E-2,1.705298424E-1
4.102331816E0,-2.787556648E-1,-1.485795975E-1,1.824855804E-1
4.110326597E0,-3.519167900E-1,-2.061872482E-1,1.957879066E-1
4.118323225E0,-4.402060509E-1,-2.493295670E-1,2.340636253E-1
4.126318698E0,-5.805056095E-1,-2.783317566E-1,2.274913788E-1
4.134314326E0,-7.535083294E-1,-3.197588921E-1,2.021012306E-1
4.142310645E0,-8.972809315E-1,-3.950328827E-1,2.177338600E-1
4.150335888E0,-1.169570804E0,-4.803795815E-1,2.146668434E-1
4.158331977E0,-1.368466377E0,-5.635972023E-1,1.528835297E-1
4.166327604E0,-1.520225525E0,-7.184057236E-1,1.096715927E-1
4.174322464E0,-1.611357450E0,-9.105606079E-1,4.045438766E-2
4.182318783E0,-1.732382655E0,-1.065382481E0,4.629230499E-2
4.190313565E0,-1.917273045E0,-1.294831753E0,1.880893707E-1
4.198309884E0,-2.195127487E0,-1.411754608E0,6.203746796E-2
4.206336358E0,-2.438825846E0,-1.474572182E0,4.760122299E-2
4.214332293E0,-2.536555052E0,-1.445276737E0,2.943563461E-2
4.222327382E0,-2.472974777E0,-1.417190552E0,1.936483383E-2
4.230322471E0,-2.221387863E0,-1.464305878E0,2.222061157E-2
4.238318175E0,-2.055372000E0,-1.531953812E0,4.774713516E-2
4.246314803E0,-1.827551484E0,-1.663395405E0,2.545833588E-3
4.254309661E0,-1.692953110E0,-1.695560932E0,3.653526306E-3
4.262335827E0,-1.583017826E0,-1.743322849E0,1.917934418E-2
4.270330608E0,-1.461794853E0,-1.868540287E0,-2.522563934E-2
4.278327236E0,-1.446245909E0,-2.022919178E0,-1.988720894E-2
4.286323171E0,-1.474364758E0,-2.122115612E0,8.778333664E-3
4.294317645E0,-1.582861423E0,-2.101593494E0,1.030752659E-1
4.302314580E0,-1.571136951E0,-2.020630836E0,2.128496170E-1
4.310339900E0,-1.513373137E0,-1.922101974E0,2.881376743E-1
4.318335604E0,-1.463913918E0,-1.827688694E0,3.267564774E-1
4.326331924E0,-1.369587660E0,-1.775732040E0,3.504838943E-1
4.334326628E0,-1.297125816E0,-1.756615639E0,3.069658279E-1
4.342323025E0,-1.100450993E0,-1.803572178E0,1.988146305E-1
4.350317421E0,-8.496346474E-1,-1.900601387E0,6.168270111E-2
4.358313818E0,-4.293756485E-1,-2.066979408E0,-1.520278454E-1
4.366309522E0,-6.519317627E-3,-2.171457767E0,-2.816443443E-1
4.374334997E0,2.524919510E-1,-2.166839123E0,-3.751606941E-1
4.382331701E0,4.687237740E-1,-2.108919621E0,-5.338764191E-1
4.390326713E0,5.039958954E-1,-1.940338135E0,-6.440360546E-1
4.398323033E0,5.060911179E-1,-1.794007778E0,-6.949656010E-1
4.406318430E0,5.032711029E-1,-1.613268852E0,-7.347259521E-1
4.414313595E0,4.281635284E-1,-1.464661121E0,-7.306716442E-1
4.422340069E0,2.544646263E-1,-1.348517418E0,-7.041289806E-1
4.430334773E0,6.596040726E-2,-1.305831432E0,-6.740360260E-1
4.438330785E0,-7.563161850E-2,-1.331504345E0,-7.071113586E-1
4.446326490E0,-4.865980148E-2,-1.404141426E0,-6.990795135E-1
4.454322579E0,6.489849091E-2,-1.449654579E0,-6.672406197E-1
4.462317898E0,2.323760986E-1,-1.500896931E0,-6.605501175E-1
4.470313603E0,3.479466438E-1,-1.464678764E0,-6.294535398E-1
4.478339539E0,3.445158005E-1,-1.374605179E0,-5.760205984E-1
4.486335551E0,2.267971039E-1,-1.335604191E0,-5.871189833E-1
4.494330024E0,8.406639099E-2,-1.175352097E0,-6.362333298E-1
4.502326959E0,1.039867401E-1,-1.178549528E0,-7.405874729E-1
4.510321433E0,1.717653275E-1,-1.253529549E0,-8.465310335E-1
4.518317753E0,1.935663223E-1,-1.378264189E0,-8.923842907E-1
4.526313457E0,5.502510071E-2,-1.397191048E0,-7.608791590E-1
4.534339238E0,-3.511276245E-1,-1.334930420E0,-6.853333712E-1
4.542334635E0,-1.023582458E0,-1.225358725E0,-6.801742315E-1
4.550330339E0,-1.527936935E0,-1.045261621E0,-6.684101820E-1
4.558326428E0,-2.086385250E0,-9.550242424E-1,-7.024101019E-1
4.566322671E0,-2.058408737E0,-1.012806892E0,-9.334669113E-1
4.574317144E0,-1.567250729E0,-1.260374308E0,-1.178757429E0
4.582313234E0,-1.170207977E0,-1.539569497E0,-1.348679066E0
4.590338400E0,-6.959800720E-1,-1.963342905E0,-1.462485433E0
4.598334489E0,-4.170761108E-1,-2.284010410E0,-1.538412452E0
4.606330194E0,-3.519268036E-1,-2.377081633E0,-1.488490343E0
4.614326513E0,-3.201665878E-1,-2.371005774E0,-1.322704673E0
4.622322833E0,-4.556922913E-1,-2.237543821E0,-1.080408096E0
4.630317230E0,-8.507509232E-1,-2.047145367E0,-7.935831547E-1
4.638312934E0,-9.810638428E-1,-1.870789170E0,-5.049281120E-1
4.646339100E0,-9.232044220E-1,-1.748445272E0,-4.067290425E-1
4.654334266E0,-3.605012894E-1,-1.918052435E0,-2.913180590E-1
4.662330508E0,4.421329498E-2,-2.126338482E0,-2.615097761E-1
4.670325290E0,3.764371872E-1,-2.418147564E0,-3.148234487E-1
4.678321610E0,4.936752319E-1,-2.628603458E0,-4.551490545E-1
4.686317084E0,3.624553680E-1,-2.830077648E0,-6.052771211E-1
4.694312404E0,1.386852264E-1,-2.919076443E0,-8.717565536E-1
4.702339570E0,-5.251598358E-2,-2.801481962E0,-1.030531883E0
4.710334582E0,-6.949520111E-2,-2.591880322E0,-1.206193089E0
4.718330055E0,-1.250810623E-1,-2.249135017E0,-1.225811481E0
4.726326067E0,-1.712827682E-1,-1.907119513E0,-1.194965601E0
4.734321464E0,7.700061798E-2,-1.704916596E0,-1.087460279E0
4.742317784E0,4.329023361E-1,-1.670893788E0,-9.139362574E-1
4.750311949E0,6.824731827E-1,-1.729360700E0,-6.700614095E-1
4.758338654E0,7.818708420E-1,-1.793576717E0,-4.812257886E-1
4.766333820E0,7.619867325E-1,-1.857212543E0,-2.775555253E-1
4.774329833E0,6.945772171E-1,-1.852607965E0,-1.837643385E-1
4.782325768E0,6.969614029E-1,-1.835001230E0,-2.775081992E-1
4.790320549E0,7.310152054E-1,-1.859970331E0,-4.041296840E-1
4.798316253E0,5.756034851E-1,-1.787934303E0,-4.587152600E-1
4.806312650E0,3.170042038E-1,-1.687269926E0,-5.365197659E-1
4.814338431E0,3.617057800E-1,-1.558819532E0,-6.255372167E-1
4.822334135E0,6.466751099E-1,-1.497298479E0,-7.576052547E-1
4.830329609E0,1.041572571E0,-1.583599091E0,-8.370487690E-1
4.838325929E0,1.305985451E0,-1.649153233E0,-8.502607346E-1
4.846320941E0,1.313107491E0,-1.705042362E0,-7.606231570E-1
4.854315799E0,1.247143745E0,-1.631536484E0,-6.259820461E-1
4.862312349E0,1.198009491E0,-1.519200802E0,-4.650917947E-1
4.870338592E0,1.269360542E0,-1.491114140E0,-4.093313515E-1
4.878334298E0,1.322984695E0,-1.426344395E0,-4.417833984E-1
4.886329925E0,1.354058266E0,-1.423141003E0,-5.260428190E-1
4.894325322E0,1.300030708E0,-1.338198662E0,-5.896201134E-1
4.902320718E0,1.261208534E0,-1.269890785E0,-6.582838297E-1
4.910316192E0,1.467889786E0,-1.266193390E0,-7.147551775E-1
4.918312127E0,1.640997410E0,-1.314020634E0,-7.491589189E-1
4.926338677E0,1.510777950E0,-1.283129692E0,-7.596838474E-1
4.934333689E0,1.364225388E0,-1.213967800E0,-7.532669306E-1
4.942329471E0,1.336340904E0,-1.193524837E0,-6.568494439E-1
4.950326021E0,1.393785954E0,-1.125531673E0,-5.603238344E-1
4.958320802E0,1.424728394E0,-1.076116085E0,-4.785533547E-1
4.966315968E0,1.450168610E0,-9.859728813E-1,-3.401251137E-1
4.974311903E0,1.439726830E0,-8.709540367E-1,-3.146925569E-1
4.982338993E0,1.437017441E0,-7.783250809E-1,-3.410749435E-1
4.990333851E0,1.367990494E0,-6.814932823E-1,-3.928332031E-1
4.998328863E0,1.182563305E0,-5.418276787E-1,-3.969336152E-1
5.006324875E0,9.776301384E-1,-4.156637192E-1,-4.267179370E-1
5.014320657E0,7.553668022E-1,-2.912006378E-1,-3.803122044E-1
5.022316361E0,6.533083916E-1,-2.273802757E-1,-3.123655915E-1
5.030311450E0,6.499471664E-1,-1.907372475E-1,-2.270861864E-1
5.038337847E0,7.235898972E-1,-2.676539421E-1,-1.119137406E-1
5.046333936E0,8.446278572E-1,-3.727064133E-1,-3.827100992E-2
5.054329563E0,9.663853645E-1,-4.900312424E-1,-3.922200203E-2
5.062325575E0,1.042800426E0,-5.960154533E-1,-1.770555973E-3
5.070319433E0,1.028929710E0,-6.032075882E-1,-2.562665939E-2
5.078316369E0,8.987112045E-1,-6.404552460E-1,-1.176566482E-1
5.086311227E0,8.034138680E-1,-6.019039154E-1,-1.938970089E-1
5.094337932E0,6.928839684E-1,-6.022024155E-1,-2.611649632E-1
5.102333098E0,6.659593582E-1,-5.942878723E-1,-2.608867288E-1
5.110328802E0,6.392288208E-1,-6.064491272E-1,-2.531809807E-1
5.118325045E0,6.757049561E-1,-5.806140900E-1,-2.623053193E-1
5.126320518E0,7.219014168E-1,-5.387077332E-1,-2.383475900E-1
5.134316223E0,7.422213554E-1,-4.804735184E-1,-1.796095967E-1
5.142311312E0,7.526111603E-1,-3.583726883E-1,-1.103273630E-1
5.150337170E0,6.421313286E-1,-2.923545837E-1,-6.146538258E-2
5.158332874E0,5.790214539E-1,-2.484865189E-1,6.188392639E-2
5.166327963E0,6.002850533E-1,-2.573928833E-1,1.720639467E-1
5.174324513E0,6.547112465E-1,-3.135385513E-1,2.494008541E-1
5.182320834E0,7.136583328E-1,-4.025001526E-1,2.675075531E-1
5.190315923E0,7.275590897E-1,-4.950723648E-1,2.272837162E-1
5.198342166E0,7.006201744E-1,-5.482482910E-1,1.874194145E-1
5.206337563E0,6.467394829E-1,-5.667934418E-1,1.182026863E-1
5.214333575E0,5.724775791E-1,-5.819759369E-1,8.718955517E-2
5.222329202E0,5.663537979E-1,-6.152324677E-1,1.282955408E-1
5.230324060E0,6.943356991E-1,-7.067489624E-1,1.834867001E-1
5.238319995E0,8.314950466E-1,-8.016929626E-1,2.066652775E-1
5.246316315E0,1.057617426E0,-9.142436981E-1,1.514419317E-1
5.254341942E0,1.232407808E0,-9.204111099E-1,1.041302681E-1
5.262336954E0,1.316366196E0,-8.876256943E-1,4.309678078E-2
5.270333043E0,1.403040648E0,-8.213443756E-1,-2.911567688E-2
5.278328979E0,1.415583372E0,-7.509994507E-1,-4.281973839E-2
5.286323838E0,1.424046993E0,-6.546907425E-1,-4.864394665E-2
5.294319465E0,1.454338074E0,-6.018323898E-1,-4.193437099E-2
5.302315862E0,1.420674324E0,-5.562658310E-1,9.758472443E-4
5.310340797E0,1.349661350E0,-5.608272552E-1,8.036184311E-2
5.318337655E0,1.277268410E0,-5.315866470E-1,1.530873775E-1
5.326332821E0,1.139704704E0,-5.304489136E-1,2.286938429E-1
5.334327910E0,9.919521809E-1,-5.118389130E-1,2.690811157E-1
5.342324460E0,8.627979755E-1,-4.428434372E-1,2.934881449E-1
5.350319626E0,7.399511337E-1,-3.761415482E-1,3.115814924E-1
5.358315946E0,6.450924873E-1,-2.637529373E-1,2.874951363E-1
5.366311265E0,5.644509792E-1,-1.725196838E-1,2.331373692E-1
5.374337124E0,5.181870461E-1,-1.428251266E-1,1.869175434E-1
5.382332521E0,5.246179104E-1,-1.143751144E-1,1.368348598E-1
5.390327379E0,5.487668514E-1,-1.012563705E-1,7.097673416E-2
5.398323391E0,5.418071747E-1,-1.079120636E-1,6.317806244E-2
5.406319942E0,5.545256138E-1,-6.244945526E-2,3.396749496E-2
5.414315416E0,5.657918453E-1,-2.947235107E-2,4.036676884E-2
5.422310197E0,5.307462215E-1,1.023769379E-2,7.687807083E-2
5.430336593E0,5.098083019E-1,1.844692230E-2,1.142283678E-1
5.438332990E0,4.531826973E-1,5.504989624E-2,1.589618921E-1
5.446328310E0,3.588593006E-1,6.746196747E-2,1.845799685E-1
5.454323783E0,2.894651890E-1,5.823326111E-2,1.793667078E-1
5.462319411E0,2.020156384E-1,6.341171265E-2,1.726522446E-1
5.470314577E0,1.347026825E-1,7.833862305E-2,1.079527140E-1
5.478340667E0,6.609416008E-2,7.445812225E-2,6.503295898E-2
5.486336448E0,-3.127813339E-3,7.209205627E-2,1.629436016E-2
5.494332152E0,-3.289222717E-2,8.066177368E-2,-3.575873375E-2
5.502328472E0,-8.362388611E-2,7.360839844E-2,-4.354953766E-2
5.510323484E0,-1.246049404E-1,3.162574768E-2,-8.145451546E-2
5.518320111E0,-1.470248699E-1,-3.599548340E-2,-9.468340874E-2
5.526314892E0,-1.563074589E-1,-6.725978851E-2,-8.113014698E-2
5.534341058E0,-1.769182682E-1,-1.054544449E-1,-8.882212639E-2
5.542337147E0,-1.926205158E-1,-1.674995422E-1,-6.747484207E-2
5.550331313E0,-2.225701809E-1,-1.767530441E-1,-4.564559460E-2
5.558327864E0,-2.188780308E-1,-1.667375565E-1,5.856752396E-4
5.566323645E0,-2.222802639E-1,-1.374673843E-1,4.244327545E-2
5.574318965E0,-2.376284599E-1,-1.225433350E-1,6.044447422E-2
5.582314439E0,-2.290468216E-1,-1.004667282E-1,5.436491966E-2
5.590340297E0,-2.608468533E-1,-9.266757965E-2,3.147387505E-2
5.598336540E0,-3.063230515E-1,-6.066036224E-2,2.325344086E-2
5.606332629E0,-3.507266045E-1,-4.505825043E-2,2.233660221E-2
5.614327103E0,-3.959145546E-1,-3.133010864E-2,-2.026557922E-6
5.622322499E0,-4.269595146E-1,-3.605556488E-2,-1.017498970E-2
5.630318204E0,-4.370732307E-1,-5.931377411E-2,-3.905487061E-2
5.638314446E0,-4.736723900E-1,-9.617137909E-2,-2.911794186E-2
5.646340689E0,-4.604866505E-1,-1.108560562E-1,-2.072930336E-3
5.654336086E0,-4.788475037E-1,-1.272830963E-1,-1.528203487E-2
5.662331713E0,-4.905843735E-1,-1.000556946E-1,-6.713151932E-3
5.670327494E0,-4.723782539E-1,-9.883117676E-2,6.737232208E-3
5.678322199E0,-4.302611351E-1,-5.217933655E-2,1.775634289E-2
5.686318827E0,-3.958179951E-1,-3.693771362E-2,4.983568192E-2
5.694313916E0,-3.882946968E-1,-3.400325775E-2,7.408249378E-2
5.702340697E0,-3.577747345E-1,-1.469326019E-2,5.007803440E-2
5.710334940E0,-3.475840092E-1,1.133918762E-2,5.915534496E-2
5.718330952E0,-3.549528122E-1,2.270889282E-2,3.453266621E-2
5.726326964E0,-3.439397812E-1,3.145027161E-2,2.436554432E-2
5.734322976E0,-3.427810669E-1,-6.446838379E-4,2.363193035E-2
5.742318681E0,-3.725655079E-1,1.041412354E-2,3.931522369E-3
5.750314000E0,-3.667013645E-1,5.972766876E-2,-1.788783073E-2
5.758340474E0,-3.917551041E-1,7.324028015E-2,-3.926205635E-2
5.766335640E0,-3.974597454E-1,2.235698700E-2,-9.294164181E-2
5.774330959E0,-3.740098476E-1,-1.167354584E-1,-1.163309813E-1
5.782327665E0,-3.758862019E-1,-1.906766891E-1,-1.023600101E-1
5.790322446E0,-3.413045406E-1,-1.901559830E-1,-7.331812382E-2
5.798318458E0,-3.206756115E-1,-1.679553986E-1,-4.874908924E-2
5.806313470E0,-2.649409771E-1,-7.190322876E-2,1.111209393E-2
5.814339405E0,-1.917936802E-1,-2.854347229E-3,5.087208748E-2
5.822336032E0,-1.778733730E-1,6.070709229E-2,5.835807323E-2
5.830331352E0,-1.462776661E-1,7.102012634E-2,6.729769707E-2
5.838326518E0,-1.400132179E-1,9.992027283E-2,7.761669159E-2
5.846322761E0,-1.230082512E-1,9.723186493E-2,7.523417473E-2
5.854318542E0,-1.118974686E-1,1.013517380E-1,6.043457985E-2
5.862313939E0,-7.109189034E-2,1.122417450E-1,1.193034649E-2
5.870339182E0,-8.403706551E-2,7.256984711E-2,1.716732979E-3
5.878335809E0,-1.050140858E-1,2.551174164E-2,-2.037441730E-2
5.886331130E0,-1.050400734E-1,-1.448059082E-2,-5.421495438E-2
5.894326911E0,-1.175961494E-1,-3.301429749E-2,-6.861782074E-2
5.902322615E0,-1.160631180E-1,-5.392742157E-2,-6.577885151E-2
5.910317935E0,-1.269540787E-1,-5.093765259E-2,-4.815781116E-2
5.918313332E0,-1.092808247E-1,-6.708621979E-2,-2.065062523E-2
5.926339574E0,-9.411048889E-2,-5.692577362E-2,-2.689719200E-3
5.934335279E0,-5.770301819E-2,-6.118965149E-2,3.396630287E-3
5.942330368E0,-9.661674500E-3,-9.190845490E-2,-2.691745758E-4
5.950326072E0,4.021859169E-2,-8.929634094E-2,-6.593704224E-3
5.958322084E0,3.947257996E-2,-1.179342270E-1,-2.508735657E-2
5.966318404E0,8.877038956E-2,-1.275472641E-1,-3.437161446E-2
5.974313416E0,6.852579117E-2,-1.467723846E-1,-6.284832954E-2
5.982340198E0,4.344820976E-2,-1.563987732E-1,-5.522477627E-2
5.990334671E0,5.174922943E-2,-1.540861130E-1,-7.153403759E-2
5.998331299E0,2.632904053E-2,-1.278343201E-1,-6.842911243E-2
6.006327080E0,1.258873940E-2,-1.159429550E-1,-7.686984539E-2
6.014322169E0,3.141403198E-3,-1.064682007E-1,-7.040178776E-2
6.022317566E0,-2.338504791E-2,-9.939575195E-2,-4.439938068E-2
6.030312885E0,-1.674628258E-2,-7.800674438E-2,-3.494858742E-2
6.038339359E0,-4.153060913E-2,-3.751468658E-2,-1.578819752E-2
6.046335448E0,-4.740858078E-2,-2.583026886E-2,-1.345312595E-2
6.054330845E0,-4.379773140E-2,5.012512207E-3,-1.339983940E-2
6.062327164E0,-5.478262901E-2,3.577327728E-2,-6.269931793E-3
6.070322176E0,-5.869507790E-2,5.929851532E-2,-6.464600563E-3
6.078317573E0,-6.277155876E-2,6.842803955E-2,-1.138353348E-2
6.086313047E0,-9.302711487E-2,9.673500061E-2,-1.159489155E-2
6.094339136E0,-9.201121330E-2,9.873199463E-2,-7.079124451E-3
6.102335148E0,-1.052422523E-1,1.175251007E-1,7.055997849E-3
6.110329699E0,-1.304156780E-1,8.843326569E-2,1.876366138E-2
6.118326249E0,-1.314845085E-1,1.000900269E-1,2.329754829E-2
6.126321646E0,-1.349492073E-1,1.117210388E-1,4.448330402E-2
6.134317350E0,-1.194100380E-1,1.065187454E-1,4.631841183E-2
6.142313362E0,-1.206204891E-1,7.736587524E-2,4.328477383E-2
6.150339605E0,-1.409103870E-1,8.647251129E-2,3.033530712E-2
6.158334386E0,-1.443738937E-1,7.641410828E-2,3.879821301E-2
6.166330091E0,-1.689701080E-1,9.274578094E-2,6.133306026E-2
6.174325718E0,-1.573319435E-1,7.317638397E-2,7.633471489E-2
6.182322653E0,-1.549675465E-1,6.561183929E-2,5.998480320E-2
6.190316820E0,-1.905541420E-1,5.090045929E-2,6.488633156E-2
6.198313217E0,-1.850326061E-1,4.582309723E-2,4.801559448E-2
6.206338152E0,-2.032439709E-1,3.840923309E-2,2.158260345E-2
6.214334702E0,-1.997172832E-1,3.105545044E-2,9.600877762E-3
6.222330407E0,-2.196125984E-1,1.908111572E-2,1.695120335E-2
6.230326188E0,-2.034757137E-1,3.589057922E-2,1.246559620E-2
6.238321815E0,-2.061834335E-1,3.365898132E-2,2.014291286E-2
6.246317597E0,-1.776964664E-1,2.663421631E-2,3.008687496E-2
6.254343147E0,-1.539089680E-1,1.485157013E-2,1.854813099E-2
6.262338467E0,-1.588063240E-1,-3.999328613E-2,-4.845023155E-3
6.270333556E0,-1.421024799E-1,-3.255844116E-2,-9.000778198E-3
6.278329952E0,-1.681237221E-1,-4.657459259E-2,-1.072657108E-2
6.286325581E0,-1.652214527E-1,-3.043174744E-3,-2.661919594E-2
6.294321285E0,-1.667840481E-1,-2.481460571E-3,-2.311408520E-2
6.302317297E0,-1.465728283E-1,-2.338409424E-2,-1.466858387E-2
6.310343463E0,-1.264231205E-1,-4.667377472E-2,-1.305222511E-3
6.318338321E0,-1.137700081E-1,-1.741313934E-2,9.427547455E-3
6.326334256E0,-1.205873489E-1,-5.007743835E-3,1.769173145E-2
6.334329961E0,-1.181988716E-1,1.685619354E-2,3.540241718E-2
6.342325973E0,-1.185283661E-1,9.907722473E-3,2.825856209E-3
6.350320831E0,-1.216845512E-1,1.963901520E-2,-1.044511795E-2
6.358316535E0,-1.252951622E-1,1.256275177E-2,-2.577781677E-2
6.366343239E0,-1.316652298E-1,-1.708030701E-3,-3.112375736E-2
6.374338636E0,-1.311154366E-1,-2.792453766E-2,-4.556620121E-2
6.382334417E0,-1.377887726E-1,-3.731441498E-2,-4.764556885E-2
6.390329430E0,-1.394712925E-1,-2.988052368E-2,-6.558895111E-3
6.398325442E0,-1.006321907E-1,6.233215332E-3,-3.804564476E-3
6.406322070E0,-9.759712219E-2,2.318477631E-2,-1.242637634E-3
6.414316851E0,-7.540106773E-2,7.361888885E-2,1.070725918E-2
6.422312325E0,-6.760883331E-2,6.892395020E-2,1.520407200E-2
6.430337260E0,-4.307842255E-2,9.290695190E-2,1.704144478E-2
6.438334502E0,-5.695223808E-2,1.096391678E-1,1.867640018E-2
6.446329899E0,-8.274531364E-2,1.024351120E-1,1.547408104E-2
6.454325296E0,-7.728838921E-2,9.766769409E-2,-4.430055618E-3
6.462320000E0,-9.805083275E-2,1.001262665E-1,2.122747898E-2
6.470317012E0,-8.759999275E-2,1.026048660E-1,4.448938370E-2
6.478342486E0,-7.475256920E-2,9.788417816E-2,7.005786896E-2
6.486338191E0,-4.271173477E-2,6.681728363E-2,9.552586079E-2
6.494333895E0,-2.524995804E-2,5.485343933E-2,1.042335033E-1
6.502328753E0,-1.967549324E-2,1.175403595E-2,1.008222103E-1
6.510324150E0,1.448488235E-2,3.804206848E-2,1.236951351E-1
6.518321316E0,5.568814278E-2,3.549766541E-2,1.581929922E-1
6.526316097E0,8.480143547E-2,3.763008118E-2,1.539598703E-1
6.534342955E0,6.574296951E-2,3.960704803E-2,1.325268745E-1
6.540325041E0,9.429693222E-2,1.033782959E-2,1.060431004E-1
6.542338583E0,1.014795303E-1,3.155708313E-3,8.688950539E-2
6.550333979E0,1.224775314E-1,9.059906006E-5,7.694876194E-2
6.558329684E0,1.335027218E-1,6.477355957E-3,5.729746819E-2
6.566324234E0,1.416738033E-1,-1.362323761E-2,6.140041351E-2
6.574320246E0,1.685876846E-1,-5.158424377E-3,5.799329281E-2
6.582316181E0,1.756615639E-1,5.474090576E-3,4.235529900E-2
6.590341733E0,1.485695839E-1,1.114082336E-2,5.056107044E-2
6.598338437E0,1.305170059E-1,-7.915496826E-5,2.770340443E-2
6.606333834E0,1.047902107E-1,-1.377868652E-2,2.180290222E-2
6.614328615E0,1.122097969E-1,-1.079273224E-2,-1.271951199E-2
6.622324319E0,9.058904648E-2,-1.498222351E-2,-3.722238541E-2
6.630320947E0,5.197095871E-2,-2.361297607E-3,-2.761685848E-2
6.638316343E0,3.507304192E-2,-1.353549957E-2,-2.705168724E-2
6.646342432E0,1.861357689E-2,6.572723389E-3,-1.426851749E-2
6.654337906E0,4.300379753E-2,-1.633548737E-2,-1.083230972E-2
6.662333610E0,6.776738167E-2,1.553535461E-3,-1.996755600E-4
6.670328084E0,4.282617569E-2,2.914428711E-2,3.190815449E-2
6.678324096E0,4.242730141E-2,8.556842804E-2,4.461371899E-2
6.686319492E0,3.563141823E-2,9.903049469E-2,6.658029556E-2
6.694316044E0,3.191637993E-2,1.030092239E-1,6.658673286E-2
6.702342594E0,2.388739586E-2,1.070537567E-1,6.155133247E-2
6.710337376E0,-1.251244545E-2,9.919834137E-2,5.162298679E-2
6.718333388E0,-4.396295547E-2,9.861183167E-2,8.413314819E-3
6.726329092E0,-7.766556740E-2,1.124563217E-1,1.265168190E-3
6.734324412E0,-6.086802483E-2,7.373809814E-2,-1.519405842E-2
6.742320116E0,-8.228135109E-2,6.383895874E-2,-1.457273960E-2
6.750314666E0,-4.846930504E-2,5.882072449E-2,-1.368284225E-2
6.758341448E0,-2.406191826E-2,3.233337402E-2,-7.839083672E-3
6.766337075E0,-1.749038696E-3,3.464412689E-2,1.233601570E-2
6.774332472E0,3.042125702E-2,1.305198669E-2,1.230359077E-3
6.782328561E0,3.418397903E-2,1.307773590E-2,-3.597736359E-4
6.790324266E0,5.005121231E-2,1.548194885E-2,2.057552338E-4
6.798320586E0,3.988790512E-2,2.990341187E-2,1.019203663E-2
6.806315059E0,2.515053749E-2,2.758693695E-2,2.242231369E-2
6.814341456E0,1.047229767E-2,4.442214966E-2,2.499735355E-2
6.822337468E0,-3.278923035E-2,4.692077637E-2,1.556181908E-2
6.830332865E0,-4.722619057E-2,7.099151611E-2,1.810443401E-2
6.838328261E0,-2.814865112E-2,3.999900818E-2,1.530289650E-3
6.846323966E0,-2.136445045E-2,3.525257111E-2,1.123392582E-2
6.854319670E0,-1.258349419E-2,1.848030090E-2,-7.542133331E-3
6.862315451E0,-2.096271515E-2,1.840686798E-2,-1.655662060E-2
6.870341309E0,-1.055479050E-2,1.583576202E-2,-1.844322681E-2
6.878336398E0,-1.452279091E-2,1.566410065E-2,-2.747488022E-2
6.886332950E0,-1.136231422E-2,2.262306213E-2,-2.471339703E-2
6.894328346E0,6.230831146E-3,2.239894867E-2,-3.879213333E-2
6.902324974E0,-4.876375198E-3,5.808353424E-2,-3.378570080E-2
6.910318524E0,5.443096161E-3,6.979560852E-2,-3.115272522E-2
6.918315844E0,2.508664131E-2,1.101455688E-1,-1.669275761E-2
6.926341010E0,1.592111588E-2,1.073732376E-1,-1.184117794E-2
6.934336791E0,3.296828270E-2,8.541393280E-2,-2.376723289E-2
6.942333111E0,1.628947258E-2,1.064720154E-1,-3.102183342E-2
6.950327584E0,-6.389617920E-4,1.107168198E-1,-5.978488922E-2
6.958324135E0,-1.535081863E-2,1.101446152E-1,-5.014622211E-2
6.966318916E0,-4.437589645E-2,1.191911697E-1,-7.149899006E-2
6.974314928E0,-8.296036720E-2,1.211051941E-1,-9.023475647E-2
6.982341786E0,-8.818721771E-2,1.182823181E-1,-8.937251568E-2
6.990336261E0,-9.830236435E-2,1.155443192E-1,-9.038174152E-2
6.998331965E0,-8.227109909E-2,9.850311279E-2,-9.802544117E-2
7.006327362E0,-5.678892136E-2,8.870697021E-2,-1.052393913E-1
7.014323297E0,-1.699399948E-2,6.702995300E-2,-1.119575500E-1
7.022319001E0,-6.054639816E-3,2.626514435E-2,-9.664714336E-2
7.030314782E0,1.209759712E-2,3.106594086E-2,-1.121337414E-1
7.038341179E0,4.953074455E-2,1.916503906E-2,-1.107435226E-1
7.046336960E0,8.224844933E-2,-2.252578735E-3,-1.259007454E-1
7.054332049E0,6.956624985E-2,3.145217896E-2,-1.361143589E-1
7.062327369E0,7.130408287E-2,3.647136688E-2,-1.126537323E-1
7.070322535E0,3.482937813E-2,4.153060913E-2,-1.082768440E-1
7.078319162E0,2.987265587E-2,3.471565247E-2,-8.954000473E-2
7.086314790E0,1.308178902E-2,4.949569702E-2,-8.030366898E-2
7.094340957E0,-1.066064835E-2,6.429767609E-2,-5.449175835E-2
7.102336430E0,-1.515555382E-2,7.433891296E-2,-5.738866329E-2
7.110331442E0,-1.962518692E-2,1.059360504E-1,-6.027507782E-2
7.118327762E0,-2.177977562E-2,9.448719025E-2,-7.718062401E-2
7.126323466E0,-1.204371452E-2,8.782482147E-2,-7.245182991E-2
7.134319170E0,-1.663064957E-2,9.318542480E-2,-7.469809055E-2
7.142315182E0,-6.783008575E-3,8.663463593E-2,-7.434618473E-2
7.150339887E0,1.751780510E-2,5.616378784E-2,-5.004477501E-2
7.158336207E0,1.340985298E-2,7.125854492E-2,-5.928051472E-2
7.166331834E0,5.247235298E-2,3.128147125E-2,-4.469370842E-2
7.174326923E0,4.157662392E-2,2.246475220E-2,-3.270459175E-2
7.182322704E0,4.763031006E-2,1.126384735E-2,-2.569532394E-2
7.190318640E0,5.170011520E-2,-4.660606384E-3,-9.291648865E-3
7.198314652E0,2.507996559E-2,-3.488922119E-2,6.886601448E-3
7.206340510E0,1.558589935E-2,-1.958274841E-2,2.522683144E-2
7.214335984E0,1.447916031E-3,2.445316315E-2,3.860092163E-2
7.222331688E0,-3.423547745E-2,2.061176300E-2,4.243314266E-2
7.230326700E0,-7.029032707E-2,2.151584625E-2,1.300191879E-2
7.238323097E0,-9.948325157E-2,-6.303787231E-3,-2.796995640E-2
7.246319032E0,-1.314480305E-1,-4.849243164E-2,-4.214847088E-2
7.254344583E0,-1.133322716E-1,-4.273223877E-2,-2.702915668E-2
7.262340902E0,-9.268116951E-2,-2.966976166E-2,-6.691098213E-3
7.270336068E0,-5.725932121E-2,2.880096436E-4,1.861321926E-2
7.278331157E0,-1.649594307E-2,1.598930359E-2,5.097270012E-2
7.286327092E0,3.445768356E-2,4.614830017E-2,9.500646591E-2
7.294323182E0,4.056477547E-2,5.003929138E-2,8.833003044E-2
7.302318502E0,4.706406593E-2,5.869483948E-2,1.026118994E-1
7.310343821E0,3.722238541E-2,1.032371521E-1,1.114560366E-1
7.318339757E0,2.299547195E-2,1.238098145E-1,1.125041246E-1
7.326335461E0,-1.022863388E-2,1.467161179E-1,1.202569008E-1
7.334331550E0,-1.232385635E-2,1.479606628E-1,1.370066404E-1
7.342326946E0,-1.446795464E-2,1.395254135E-1,1.197998524E-1
7.350322574E0,-4.959821701E-3,1.045465469E-1,1.594189405E-1
7.358318586E0,4.137992859E-3,9.092617035E-2,1.459147930E-1
7.366314367E0,1.258850098E-2,6.031894684E-2,1.464487314E-1
7.374339302E0,2.527928352E-2,3.906631470E-2,1.680821180E-1
7.382336545E0,2.306246758E-2,2.953529358E-2,1.819554567E-1
7.390331327E0,7.036757469E-2,3.404331207E-2,1.855306625E-1
7.398326955E0,1.046152115E-1,4.051780701E-2,1.906896830E-1
7.406322121E0,1.163635254E-1,2.982616425E-2,2.093442678E-1
7.414318133E0,1.176128387E-1,9.158134460E-3,2.032033205E-1
7.422344529E0,1.133394241E-1,1.693725586E-2,1.774046421E-1
7.430339926E0,1.250991821E-1,-9.006500244E-3,1.634646654E-1
7.438335015E0,1.027441025E-1,-1.598644257E-2,1.565232277E-1
7.444317870E0,9.930419922E-2,-1.587581635E-2,1.638085842E-1
7.446331104E0,9.212160110E-2,-2.066421509E-2,1.638085842E-1
7.454326808E0,6.692600250E-2,-1.821613312E-2,1.327884197E-1
7.462322435E0,5.845499039E-2,-4.211616516E-2,1.401001215E-1
7.470317294E0,3.807926178E-2,-9.946823120E-2,1.165599823E-1
7.478343998E0,3.914308548E-2,-9.218692780E-2,1.146839857E-1
7.486339164E0,1.842737198E-3,-1.279802322E-1,1.034404039E-1
7.494335408E0,7.539749146E-3,-1.087093353E-1,8.273839951E-2
7.502331727E0,-6.213188171E-3,-7.751941681E-2,5.977869034E-2
7.510326509E0,-1.775956154E-2,-3.202342987E-2,4.159045219E-2
7.518322290E0,-3.219413757E-2,-2.493286133E-2,2.352905273E-2
7.526317917E0,-2.795219421E-2,-2.990341187E-2,3.254055977E-3
7.534343775E0,-6.245183945E-2,-2.538967133E-2,-7.345438004E-3
7.542339787E0,-7.808279991E-2,-1.377868652E-2,5.981922150E-3
7.550335184E0,-6.509923935E-2,-1.656532288E-2,4.954695702E-3
7.558330888E0,-8.543395996E-2,4.623413086E-3,-8.083343506E-3
7.566326285E0,-9.594249725E-2,1.387882233E-2,-1.161384583E-2
7.574322297E0,-1.083881855E-1,-1.506423950E-2,-2.232027054E-2
7.582317463E0,-1.108624935E-1,-1.992702484E-2,-5.436778069E-2
7.590343630E0,-1.199052334E-1,-4.851436615E-2,-7.173657417E-2
7.598339565E0,-1.186366081E-1,-3.615760803E-2,-8.882546425E-2
7.606335269E0,-1.214563847E-1,-3.307437897E-2,-1.196827888E-1
7.614329743E0,-1.235556602E-1,-2.728748322E-2,-1.236107349E-1
7.622326370E0,-1.489920616E-1,-1.640033722E-2,-1.483613253E-1
7.630320844E0,-1.307501793E-1,-1.958179474E-2,-1.365232468E-1
7.638317548E0,-1.146752834E-1,2.525329590E-2,-1.386961937E-1
7.646343637E0,-1.152570248E-1,1.757621765E-2,-1.426761150E-1
7.654339341E0,-9.673523903E-2,1.718235016E-2,-1.580933332E-1
7.662335123E0,-8.792424202E-2,1.918792725E-2,-1.493852139E-1
7.670330519E0,-7.204771042E-2,2.363491058E-2,-1.714614630E-1
7.678326147E0,-5.397725105E-2,2.331256866E-2,-1.716679335E-1
7.686321928E0,-6.950378418E-2,3.032302856E-2,-2.189851999E-1
7.694317249E0,-6.588983536E-2,3.743839264E-2,-2.083536386E-1
7.702343414E0,-1.098632812E-1,3.524112701E-2,-2.255972624E-1
7.710338580E0,-7.949018478E-2,3.793525696E-2,-2.018088102E-1
7.718335208E0,-9.676504135E-2,5.509948730E-2,-1.921936274E-1
7.726329604E0,-6.368255615E-2,4.835128784E-2,-1.873077154E-1
7.734325386E0,-7.597565651E-2,7.035541534E-2,-1.656969786E-1
7.742321936E0,-6.436300278E-2,1.066513062E-1,-1.443852186E-1
7.750317025E0,-7.431817055E-2,1.476306915E-1,-1.187248230E-1
7.758343575E0,-7.723093033E-2,1.765022278E-1,-9.832715988E-2
7.766339511E0,-3.735542297E-2,2.075548172E-1,-7.134890556E-2
7.774334676E0,-2.162313461E-2,1.953372955E-1,-4.015254974E-2
7.782329765E0,2.021932602E-2,1.709470749E-1,-3.833627701E-2
7.790325393E0,5.214428902E-2,1.463451385E-1,1.219034195E-3
7.798321406E0,5.726408958E-2,1.382570267E-1,-2.889871597E-3
7.806317495E0,5.975651741E-2,1.299791336E-1,2.114343643E-2
7.814342738E0,2.862167358E-2,1.143693924E-1,1.110839844E-2
7.822338750E0,2.118945122E-2,8.426284790E-2,-6.414651871E-3
7.830333838E0,6.336212158E-3,4.927062988E-2,-3.367090225E-2
7.838330081E0,-4.494357109E-2,-7.390022278E-3,-5.845975876E-2
7.846325786E0,-6.567811966E-2,-9.065628052E-3,-7.335877419E-2
7.854321259E0,-7.239270210E-2,-6.816864014E-2,-7.572102547E-2
7.862317271E0,-7.684063911E-2,-6.968116760E-2,-8.450794220E-2
7.870342206E0,-8.129835129E-2,-7.344245911E-2,-8.783602715E-2
7.878339064E0,-5.474209785E-2,-6.989288330E-2,-1.024100780E-1
7.886333846E0,-4.003524780E-2,-5.659294128E-2,-1.187312603E-1
7.894329628E0,-5.371642113E-2,-5.744934082E-2,-9.860181808E-2
7.902326255E0,-3.602910042E-2,-2.223777771E-2,-1.211380959E-1
7.910321267E0,-6.595802307E-2,1.554965973E-2,-1.383700371E-1
7.918316664E0,-9.302520752E-2,4.161262512E-2,-1.526538134E-1
7.926342907E0,-1.196079254E-1,5.834007263E-2,-1.472530365E-1
7.934338227E0,-1.216607094E-1,5.861473083E-2,-1.794704199E-1
7.942334315E0,-1.185550690E-1,7.588291168E-2,-1.751476526E-1
7.950328712E0,-1.389765739E-1,9.340953827E-2,-2.060371637E-1
7.958325647E0,-1.492800713E-1,8.970642090E-2,-2.169698477E-1
7.966321659E0,-1.544039249E-1,1.125812531E-1,-1.865512133E-1
7.974316517E0,-1.447441578E-1,1.380329132E-1,-1.797140837E-1
7.982343222E0,-1.202621460E-1,7.984352112E-2,-1.535340548E-1
7.990338388E0,-1.050941944E-1,8.392333984E-2,-1.060141325E-1
7.998334401E0,-8.266377449E-2,7.837104797E-2,-1.019155979E-1
8.006329490E0,-5.543279648E-2,3.927040100E-2,-9.556388855E-2
8.014325425E0,-4.279494286E-2,3.360557556E-2,-9.646749496E-2
8.022320898E0,-5.192923546E-2,6.377601624E-2,-8.547294140E-2
8.030316218E0,-7.302665710E-2,3.654003143E-2,-9.814655781E-2
8.038342768E0,-6.536936760E-2,1.649475098E-2,-7.488894463E-2
8.046338396E0,-5.285358429E-2,-8.344650269E-3,-3.255748749E-2
8.054334100E0,-6.184530258E-2,-9.262084961E-3,-1.190817356E-2
8.062329189E0,-3.726148605E-2,-3.416728973E-2,1.566815376E-2
8.070324663E0,-4.846692085E-2,-1.837253571E-2,3.112721443E-2
8.078321290E0,-1.159691811E-2,-9.772300720E-3,4.390633106E-2
8.086316071E0,-2.002501488E-2,-2.749156952E-2,3.260028362E-2
8.094342469E0,-2.343440056E-2,2.726554871E-3,1.410079002E-2
8.102338250E0,-4.312968254E-2,-2.858161926E-3,1.470196247E-2
8.110333031E0,-1.711797714E-2,1.797103882E-2,5.849599838E-3
8.118329351E0,-2.676558495E-2,3.412246704E-2,9.198427200E-3
8.126324748E0,-9.809017181E-3,5.754661560E-2,-1.845836639E-2
8.134320144E0,2.644777298E-3,4.995346069E-2,1.153671741E-2
8.142316079E0,-1.090693474E-2,1.857185364E-2,1.794254780E-2
8.150341938E0,1.933622360E-2,1.372528076E-2,2.925419807E-2
8.158337334E0,3.579926491E-2,-5.308151245E-3,3.594458103E-2
8.166333731E0,6.011962891E-2,6.913185120E-3,6.878602505E-2
8.174329128E0,6.112408638E-2,2.490043640E-3,7.270956039E-2
8.182325370E0,7.221651077E-2,4.362583160E-2,7.157468796E-2
8.190319844E0,2.628302574E-2,7.043266296E-2,7.488369942E-2
8.198346318E0,1.897263527E-2,6.854152679E-2,6.603384018E-2
8.206342023E0,3.088259697E-2,9.060096741E-2,4.760921001E-2
8.214338342E0,1.399683952E-2,1.006269455E-1,6.490933895E-2
8.222333201E0,1.381039619E-2,1.081905365E-1,7.002365589E-2
8.230328828E0,2.545332909E-2,7.258605957E-2,5.583202839E-2
8.238324302E0,6.314945221E-2,7.751655579E-2,7.233047485E-2
8.246319621E0,7.656717300E-2,7.507228851E-2,8.830082417E-2
8.254345787E0,9.198331833E-2,7.952785492E-2,1.225117445E-1
8.262342415E0,1.139559746E-1,7.647895813E-2,1.199854612E-1
8.270336657E0,1.446738243E-1,8.498287201E-2,1.283508539E-1
8.278332977E0,1.290907860E-1,9.552001953E-2,1.287266016E-1
8.286328681E0,9.849858284E-2,9.862422943E-2,1.310299635E-1
8.294324309E0,6.263709068E-2,1.063194275E-1,1.544855833E-1
8.302320091E0,4.064726830E-2,1.138229370E-1,1.751958132E-1
8.310315411E0,2.288126945E-2,5.409908295E-2,1.932457685E-1
8.318341884E0,1.661229134E-2,1.096820831E-2,1.942877769E-1
8.326337358E0,3.613853455E-2,-4.191684723E-2,2.022988796E-1
8.334333370E0,3.622055054E-2,-7.091426849E-2,1.744803190E-1
8.342329074E0,5.752968788E-2,-8.077526093E-2,1.445937157E-1
8.350324086E0,8.810544014E-2,-8.594989777E-2,1.600561142E-1
8.358319791E0,9.450435638E-2,-3.621482849E-2,1.726373434E-1
8.366345726E0,1.126861572E-1,-1.542091370E-2,1.771688461E-1
8.374341968E0,1.068141460E-1,2.197360992E-2,1.547194719E-1
8.382336827E0,8.391571045E-2,3.524971008E-2,1.436774731E-1
8.390332839E0,6.821751595E-2,1.019954681E-2,1.157616377E-1
8.398328544E0,5.253505707E-2,-2.917671204E-2,9.762275219E-2
8.406323633E0,1.319575310E-2,-3.969287872E-2,8.457016945E-2
8.414319260E0,2.182722092E-2,-5.494117737E-2,9.324967861E-2
8.422346119E0,1.145839691E-2,-7.010650635E-2,6.625330448E-2
8.430340592E0,8.272647858E-3,-9.961318970E-2,8.726763725E-2
8.438336912E0,9.841680527E-3,-1.051349640E-1,6.066489220E-2
8.446332308E0,2.096343040E-2,-1.130247116E-1,5.576252937E-2
8.454328244E0,8.301734924E-4,-7.304096222E-2,4.859685898E-2
8.462323717E0,-2.167940140E-2,-5.696392059E-2,4.875624180E-2
8.470319344E0,-3.410816193E-3,-2.649307251E-2,1.307392120E-2
8.478346126E0,-1.912355423E-3,2.073764801E-2,2.528464794E-2
8.486340984E0,-7.530450821E-3,4.641723633E-2,2.303183079E-2
8.494337227E0,-2.029275894E-2,6.730079651E-2,-1.282680035E-2
8.502332701E0,5.303144455E-3,8.817577362E-2,-2.005374432E-2
8.510327482E0,4.600286484E-3,8.511924744E-2,-3.206217289E-2
8.518323802E0,8.807897568E-3,8.684253693E-2,-6.340742111E-2
8.526319737E0,3.529787064E-3,8.379554749E-2,-8.041059971E-2
8.534345057E0,8.116722107E-3,2.812385559E-2,-6.161856651E-2
8.542340992E0,6.068515778E-2,3.951168060E-2,-7.394957542E-2
8.550336389E0,6.070590019E-2,1.739215851E-2,-6.484222412E-2
8.558331785E0,5.584597588E-2,3.115940094E-2,-6.292402744E-2
8.566327874E0,7.952475548E-2,1.808166504E-3,-7.523262501E-2
8.574323502E0,7.420635223E-2,-6.033897400E-3,-8.022701740E-2
8.582319514E0,7.801938057E-2,1.958274841E-2,-9.453415871E-2
8.590344833E0,7.657885551E-2,4.273128510E-2,-1.014544964E-1
8.598340770E0,5.820107460E-2,4.193019867E-2,-1.057890654E-1
8.606336858E0,3.958487511E-2,5.544281006E-2,-7.895803452E-2
8.614332178E0,1.373672485E-2,2.826881409E-2,-8.789801598E-2
8.622327575E0,2.614545822E-2,-6.072998047E-3,-8.472585678E-2
8.630323587E0,2.659893036E-2,-2.601337433E-2,-8.379757404E-2
8.638318676E0,4.841065407E-2,-3.160476685E-2,-7.791328430E-2
8.646344919E0,7.968187332E-3,-1.324081421E-2,-6.716942787E-2
8.654340546E0,-2.731680870E-2,1.240634918E-2,-5.877661705E-2
8.662336020E0,-7.371902466E-3,2.852344513E-2,-6.711506844E-2
8.670331724E0,3.172397614E-3,3.509807587E-2,-4.438102245E-2
8.686322825E0,2.169203758E-2,2.662658691E-2,-3.495943546E-2
8.694318221E0,1.299667358E-2,1.639080048E-2,-5.065882206E-2
8.702345311E0,2.821326256E-2,1.331806183E-2,-4.487669468E-2
8.710340708E0,1.707506180E-2,-4.183769226E-3,-3.937399387E-2
8.718335797E0,3.945231438E-2,-2.607345581E-3,-2.704322338E-2
8.726331732E0,1.624774933E-2,1.084041595E-2,-2.466762066E-2
8.734327821E0,9.695053101E-3,-4.560470581E-3,-5.953669548E-3
8.742323833E0,-3.516173363E-2,-1.044273376E-2,1.248252392E-2
8.750318307E0,-1.785588264E-2,2.768516541E-3,3.790652752E-2
8.758345703E0,-5.353713036E-2,2.308177948E-2,2.983462811E-2
8.766341023E0,-7.987928391E-2,1.705455780E-2,6.034862995E-2
8.774336420E0,-7.525753975E-2,4.453659058E-2,5.989503860E-2
8.782331585E0,-9.712505341E-2,3.607940674E-2,6.908869743E-2
8.790327290E0,-1.022512913E-1,2.044487000E-2,6.396853924E-2
8.798323225E0,-5.241155624E-2,2.151298523E-2,5.153465271E-2
8.806318623E0,-2.923440933E-2,1.055049896E-2,-2.063393593E-2
8.814344865E0,-4.687643051E-2,4.352569580E-3,-5.923902988E-2
8.822340570E0,-1.180005074E-2,4.837036133E-2,-6.227850914E-2
8.830335043E0,-5.274057388E-3,3.244209290E-2,-2.525341511E-2
8.838331901E0,-1.066780090E-2,6.900691986E-2,3.689169884E-3
8.846326452E0,-3.533506393E-2,1.029901505E-1,3.191399574E-2
8.854322695E0,-7.186222076E-2,1.105480194E-1,6.199312210E-2
8.862318168E0,-1.129798889E-1,1.396055222E-1,7.966113091E-2
8.870344334E0,-1.466310024E-1,1.136398315E-1,9.722423553E-2
8.878340346E0,-1.754655838E-1,1.044807434E-1,8.147406578E-2
8.886335973E0,-1.684758663E-1,1.025848389E-1,6.861877441E-2
8.894331370E0,-1.998097897E-1,7.686996460E-2,5.877113342E-2
8.902327152E0,-1.952855587E-1,6.559753418E-2,6.371998787E-2
8.910321857E0,-1.597616673E-1,1.369476318E-2,2.368068695E-2
8.918318253E0,-9.601116180E-2,-1.426124573E-2,-1.811075211E-2
8.926344650E0,-5.452179909E-2,-4.465198517E-2,-4.485106468E-2
8.934340431E0,-1.153516769E-2,-6.080818176E-2,-9.265255928E-2
8.942335520E0,-1.938343048E-4,-8.659076691E-2,-1.041193008E-1
8.950331532E0,-3.212642670E-2,-6.689357758E-2,-1.177875996E-1
8.958326852E0,-3.059220314E-2,-7.828235626E-2,-1.144490242E-1
8.966322325E0,-3.843259811E-2,-8.480262756E-2,-1.133615971E-1
8.974318261E0,-6.027650833E-2,-7.921218872E-2,-1.072659492E-1
8.982344503E0,-7.705426216E-2,-5.434036255E-2,-7.937741280E-2
8.990339285E0,-9.355521202E-2,-3.897285461E-2,-3.710222244E-2
8.998335221E0,-1.170930862E-1,3.625583649E-2,-1.892256737E-2
9.006331310E0,-9.544420242E-2,5.627918243E-2,6.199836731E-3
9.014326706E0,-9.811186790E-2,8.575916290E-2,9.702920914E-3
9.022322641E0,-9.147286415E-2,7.446575165E-2,1.242399216E-3
9.030318346E0,-5.668759346E-2,6.778430939E-2,9.482622147E-3
9.038344281E0,-8.925986290E-2,5.623340607E-2,2.733993530E-2
9.046339600E0,-3.351807594E-2,2.774143219E-2,1.117746830E-1
9.054335382E0,6.934905052E-2,-2.747821808E-2,1.666626930E-1
9.062331394E0,2.688705921E-1,-9.045219421E-2,2.065060139E-1
9.070325790E0,4.851531982E-1,-1.901607513E-1,2.815654278E-1
9.078321802E0,7.087023258E-1,-2.507238388E-1,3.914771080E-1
9.086317891E0,9.357385635E-1,-3.284225464E-1,5.260920525E-1
9.094343673E0,1.212412119E0,-4.440813065E-1,8.176040649E-1
9.102339686E0,1.567163944E0,-6.360254288E-1,1.185711861E0
9.110335390E0,1.971315145E0,-9.268074036E-1,1.473964691E0
9.118330556E0,2.373850584E0,-1.133454323E0,1.616087675E0
9.126326876E0,2.885648489E0,-1.325041771E0,1.764336824E0
9.134321580E0,3.320668221E0,-1.369375229E0,1.781978369E0
9.142318592E0,3.779698372E0,-1.372086525E0,1.674741983E0
9.150342527E0,4.070979118E0,-1.376980782E0,1.447694063E0
9.158339154E0,4.338595390E0,-1.419934273E0,1.116748095E0
9.166335166E0,4.597662449E0,-1.516091347E0,6.974782944E-1
9.174330332E0,4.782333851E0,-1.625180244E0,4.050395489E-1
9.182326267E0,4.954699993E0,-1.739930153E0,5.503249168E-2
9.190321741E0,4.935492516E0,-1.841907501E0,-1.420664787E-1
9.198317061E0,4.955506802E0,-1.926837921E0,-3.374922276E-1
9.206343304E0,4.975218296E0,-2.007214546E0,-5.394520760E-1
9.214338932E0,5.039602280E0,-2.035075188E0,-6.021294594E-1
9.222334713E0,5.094226360E0,-2.034775734E0,-5.469799042E-1
9.230329802E0,4.979031563E0,-2.047964096E0,-4.111620188E-1
9.238325506E0,4.694755077E0,-2.030588150E0,-2.025707960E-1
9.246322134E0,4.335312843E0,-2.028742313E0,-6.119537354E-2
9.254347300E0,3.926363945E0,-2.072881222E0,6.133580208E-2
9.262343004E0,3.453863144E0,-2.081738949E0,8.926343918E-2
9.270338477E0,3.078403950E0,-2.131587505E0,1.092641354E-1
9.278334182E0,2.718379974E0,-2.243955612E0,7.630634308E-2
9.286330502E0,2.460938931E0,-2.369732380E0,3.878951073E-2
9.294325898E0,2.180454731E0,-2.457576275E0,-4.393553734E-2
9.302322450E0,1.890703201E0,-2.427228928E0,-1.061043739E-1
9.310316692E0,1.624507427E0,-2.443137646E0,-1.861467361E-1
9.318343166E0,1.448759556E0,-2.468093395E0,-2.901076078E-1
9.326339101E0,1.309655666E0,-2.566024780E0,-3.898177147E-1
9.334334498E0,1.153407574E0,-2.645098686E0,-5.101343393E-1
9.342330510E0,1.056321144E0,-2.809205055E0,-5.888473988E-1
9.350326522E0,9.149961472E-1,-2.981902599E0,-6.122359037E-1
9.358321072E0,7.002058029E-1,-3.010892868E0,-6.181167364E-1
9.366347161E0,5.036592484E-1,-3.024489403E0,-6.013543606E-1
9.374342942E0,5.370264053E-1,-2.904472351E0,-6.018097401E-1
9.382338339E0,6.644353867E-1,-2.844294548E0,-5.371961594E-1
9.390333043E0,7.642040253E-1,-2.704941988E0,-4.427187443E-1
9.398329748E0,7.786951065E-1,-2.645581245E0,-3.458884954E-1
9.406325684E0,7.258863449E-1,-2.716356516E0,-2.483311892E-1
9.414321388E0,6.532278061E-1,-2.789008379E0,-2.025414705E-1
9.422346939E0,6.325225830E-1,-2.949587345E0,-1.696703434E-1
9.430342720E0,5.559806824E-1,-3.066456079E0,-1.608142853E-1
9.438337809E0,3.661060333E-1,-3.060391665E0,-1.816904545E-1
9.446333821E0,9.168434143E-2,-3.018724442E0,-2.779706717E-1
9.454329525E0,-2.576093674E-1,-2.840389490E0,-3.459236026E-1
9.462325153E0,-5.759534836E-1,-2.671909094E0,-3.335118294E-1
9.470320318E0,-8.442955017E-1,-2.436617851E0,-3.019629121E-1
9.478347407E0,-7.204847336E-1,-2.305893183E0,-3.720627427E-1
9.486343342E0,-3.371267319E-1,-2.233098269E0,-2.974193692E-1
9.494338508E0,4.794597626E-2,-2.217839241E0,-9.723466635E-2
9.502333829E0,1.634435654E-1,-2.177742481E0,1.107154489E-1
9.510329918E0,1.308889389E-1,-2.142932892E0,2.991846204E-1
9.518325315E0,-1.640291214E-1,-2.094311237E0,4.412876964E-1
9.526321019E0,-6.307973862E-1,-1.925068259E0,4.056897759E-1
9.534346569E0,-1.082180023E0,-1.783743143E0,3.295925856E-1
9.542342889E0,-1.343623161E0,-1.717054009E0,1.368026733E-1
9.550337670E0,-1.580619812E0,-1.583351731E0,1.874095201E-2
9.558333375E0,-1.675768852E0,-1.436829329E0,-3.078907728E-2
9.566328771E0,-1.819420815E0,-1.215882301E0,5.550390482E-2
9.574325706E0,-1.923758030E0,-1.040900588E0,1.201373339E-1
9.582320795E0,-1.698760986E0,-9.812963009E-1,1.780190468E-1
9.590347269E0,-1.319671154E0,-1.076958418E0,2.447030544E-1
9.598342589E0,-1.387593269E0,-1.189517260E0,2.877689004E-1
9.606337755E0,-1.634828568E0,-1.265865326E0,2.970387936E-1
9.614334383E0,-1.775038242E0,-1.364756823E0,3.251491189E-1
9.622329472E0,-2.033593655E0,-1.415261269E0,4.269236922E-1
9.630323945E0,-2.381236076E0,-1.348064661E0,4.650760293E-1
9.638320804E0,-2.653073788E0,-1.274378300E0,4.858148098E-1
9.646346431E0,-2.983837128E0,-1.129670143E0,5.218757391E-1
9.654341751E0,-3.209491730E0,-1.044749737E0,4.515875578E-1
9.670333775E0,-3.326878548E0,-1.005306721E0,1.247690916E-1
9.678328633E0,-3.252834797E0,-1.139953613E0,1.107054949E-1
9.686324876E0,-3.172921658E0,-1.268246174E0,-2.168416977E-4
9.694319965E0,-3.048983574E0,-1.398115635E0,-1.101175547E-1
9.702347362E0,-2.837992668E0,-1.520743370E0,-3.955817223E-2
9.710341836E0,-2.659914017E0,-1.524463654E0,-9.546351433E-2
9.718337232E0,-2.493583679E0,-1.443459511E0,-5.572485924E-2
9.726333860E0,-2.401546001E0,-1.345580101E0,-6.194889545E-2
9.734328949E0,-2.393307686E0,-1.286901474E0,-3.614151478E-2
9.742325269E0,-2.510423660E0,-1.216698647E0,2.089667320E-2
9.750320127E0,-2.576001167E0,-1.185356617E0,7.708668709E-3
9.758346293E0,-2.623731136E0,-1.209632874E0,-5.582582951E-2
9.766342612E0,-2.550792217E0,-1.296712875E0,-7.314348221E-2
9.774337317E0,-2.428746223E0,-1.394251823E0,-3.620767593E-2
9.782333329E0,-2.371753216E0,-1.493268013E0,6.274843216E-2
9.790328110E0,-2.254935741E0,-1.517485142E0,1.053460836E-1
9.798323814E0,-2.108144760E0,-1.464089394E0,1.669417620E-1
9.806320443E0,-1.972125530E0,-1.400615215E0,2.391009331E-1
9.814346070E0,-1.954544067E0,-1.332601547E0,2.733856440E-1
9.822342082E0,-2.010328531E0,-1.229243755E0,2.091332674E-1
9.830337709E0,-2.051376104E0,-1.181804180E0,2.274650335E-1
9.838333414E0,-2.189911842E0,-1.095242500E0,2.599152327E-1
9.846328580E0,-2.380618334E0,-1.032115936E0,2.976619005E-1
9.854324515E0,-2.614921570E0,-9.367289543E-1,3.783786297E-1
9.862320296E0,-2.745066881E0,-8.280310631E-1,4.518857002E-1
9.870345539E0,-2.713889360E0,-7.728605270E-1,4.981482029E-1
9.878341551E0,-2.504689932E0,-6.849722862E-1,3.941910267E-1
9.886337255E0,-2.126684427E0,-5.717144012E-1,1.629741192E-1
9.894332959E0,-1.707635880E0,-4.051861763E-1,-9.369945526E-2
9.902328664E0,-1.399240255E0,-2.124800682E-1,-2.597855330E-1
9.910324061E0,-1.145066738E0,-1.570034027E-2,-3.390934467E-1
9.918320381E0,-1.025797844E0,1.394042969E-1,-2.798274755E-1
9.926345855E0,-1.024427891E0,1.544561386E-1,-1.990898848E-1
9.934341559E0,-1.095600128E0,3.179836273E-2,-7.722640038E-2
9.942337033E0,-1.126996517E0,-9.919452667E-2,2.842187881E-2
9.950332352E0,-1.094310284E0,-1.956758499E-1,1.730113029E-1
9.958328441E0,-1.200734377E0,-1.287107468E-1,3.835175037E-1
9.966324069E0,-1.447885990E0,-7.131958008E-2,5.504705906E-1
9.974319773E0,-1.702617407E0,4.750156403E-2,6.306734085E-1
9.982345631E0,-1.776567936E0,7.482051849E-2,6.392011642E-1
9.990341105E0,-1.629473448E0,7.293701172E-2,5.242056847E-1
9.998336424E0,-1.361108780E0,8.928775787E-2,4.580845833E-1
1.000633282E1,-1.044997931E0,1.260356903E-1,2.703559399E-1
1.001432845E1,-8.008203506E-1,1.856184006E-1,1.021692753E-1
1.002232423E1,-6.998391151E-1,2.705411911E-1,3.356337547E-2
1.003031894E1,-7.653462887E-1,3.331556320E-1,1.942937374E-1
1.003834518E1,-8.558962345E-1,3.640270233E-1,2.821469307E-1
1.004634119E1,-8.389079571E-1,3.018569946E-1,3.879008293E-1
1.005433712E1,-9.008159637E-1,2.806463242E-1,5.258808136E-1
1.006233260E1,-1.080479383E0,2.214660645E-1,5.510656834E-1
1.007032823E1,-1.297960281E0,1.270399094E-1,5.153694153E-1
1.007832362E1,-1.411120653E0,6.964397430E-2,4.821119308E-1
1.008631902E1,-1.441380262E0,-3.899669647E-2,2.910523415E-1
1.009434526E1,-1.248194695E0,-2.194328308E-1,1.565823555E-1
1.010234158E1,-9.830811024E-1,-2.941379547E-1,1.809935570E-1
1.011033598E1,-8.619096279E-1,-2.255325317E-1,2.457985878E-1
1.011833261E1,-7.941577435E-1,-9.578990936E-2,2.928209305E-1
1.012632808E1,-6.875786781E-1,1.101684570E-2,3.927092552E-1
1.013432309E1,-6.489739418E-1,6.107997894E-2,4.898848534E-1
1.014231980E1,-7.047603130E-1,5.164146423E-2,4.108026028E-1
1.015034566E1,-8.503828049E-1,-6.694793701E-4,3.333134651E-1
1.015834067E1,-9.480524063E-1,-6.442260742E-2,2.602887154E-1
1.016633645E1,-9.269292355E-1,-1.799974442E-1,1.488614082E-1
1.017433177E1,-6.832604408E-1,-2.677812576E-1,1.597905159E-2
1.018232747E1,-2.487130165E-1,-3.293552399E-1,1.063239574E-1
1.019032264E1,-3.108406067E-2,-3.194131851E-1,3.152496815E-1
1.019834996E1,7.114219666E-2,-3.195638657E-1,4.074630737E-1
1.020634512E1,1.633148193E-1,-3.466749191E-1,4.120130539E-1
1.021434021E1,2.999041080E-1,-3.478870392E-1,4.201362133E-1
1.022233623E1,3.215599060E-1,-3.072490692E-1,2.516782284E-1
1.023033185E1,3.897771835E-1,-2.804174423E-1,1.439933777E-1
1.023832763E1,3.671953678E-1,-2.192535400E-1,2.667231560E-1
1.024632272E1,1.403911114E-1,-1.487417221E-1,2.211813927E-1
1.025431835E1,-7.227921486E-2,-1.149091721E-1,1.304218769E-1
1.026234582E1,-1.207973957E-1,-1.510534286E-1,6.795167923E-3
1.027033968E1,-1.854503155E-1,-1.539535522E-1,-1.399562359E-1
1.027833592E1,4.313278198E-2,-2.712268829E-1,-4.725480080E-1
1.028633194E1,4.364888668E-1,-3.544082642E-1,-3.512275219E-1
1.029432795E1,6.247124672E-1,-2.911319733E-1,-2.080552578E-1
1.030232273E1,5.752854347E-1,-1.840162277E-1,-1.043980122E-1
1.031034867E1,5.062134266E-1,-2.346611023E-2,-4.285931587E-2
1.031834552E1,5.683662891E-1,1.283082962E-1,8.415770531E-2
1.032634061E1,5.952839851E-1,2.130699158E-1,1.792278290E-1
1.033433547E1,3.913242817E-1,2.698440552E-1,1.927402020E-1
1.034233233E1,1.071619987E-2,2.617979050E-1,1.921913624E-1
1.035032688E1,-2.857024670E-1,2.088041306E-1,4.240465164E-2
1.035832282E1,-4.104793072E-1,1.029634476E-1,-1.226048470E-1
1.036634875E1,-2.709672451E-1,6.682395935E-3,-2.855365276E-1
1.037434469E1,-1.976823807E-2,-2.278041840E-2,-3.963773251E-1
1.038234039E1,1.715373993E-1,3.848838806E-2,-3.172736168E-1
1.039033517E1,2.844738960E-1,1.427192688E-1,-2.074983120E-1
1.039833157E1,4.126820564E-1,2.160339355E-1,-8.278346062E-2
1.040632727E1,5.065617561E-1,2.582082748E-1,-4.397773743E-2
1.041432236E1,4.137907028E-1,2.425870895E-1,6.731987000E-3
1.042234968E1,2.237272263E-1,2.695636749E-1,9.268760681E-2
1.043034354E1,3.879880905E-2,2.194786072E-1,1.306886673E-1
1.043833963E1,-1.343011856E-1,1.452579498E-1,3.553454876E-1
1.044633464E1,-2.875983715E-1,1.162376404E-1,3.693003654E-1
1.045433127E1,-3.718254566E-1,8.442783356E-2,3.681552410E-1
1.046232705E1,-3.556311131E-1,1.023511887E-1,3.208904266E-1
1.047032237E1,-2.438194752E-1,1.436710358E-1,2.610123158E-1
1.047834830E1,-1.177921295E-1,2.154817581E-1,1.576426029E-1
1.048634455E1,7.956981659E-3,2.581281662E-1,7.261943817E-2
1.049433994E1,9.750270844E-2,2.551326752E-1,-2.594232559E-2
1.050233626E1,7.993459702E-2,1.921262741E-1,-2.913141251E-2
1.051033051E1,-8.589267731E-3,1.122694016E-1,-4.279279709E-2
1.051832706E1,-1.010150909E-1,4.426193237E-2,-1.027588844E-1
1.052632253E1,-1.403594017E-1,2.891826630E-2,-1.009778976E-1
1.053434839E1,-1.198825836E-1,2.559566498E-2,-1.112356186E-1
1.054234432E1,-1.736731529E-1,5.787754059E-2,-1.468920708E-1
1.055034011E1,-2.224497795E-1,6.311702728E-2,-2.431302071E-1
1.055833573E1,-2.519457340E-1,9.635543823E-2,-2.441234589E-1
1.056633113E1,-2.645149231E-1,1.380481720E-1,-3.619220257E-1
1.057432683E1,-1.964659691E-1,1.218910217E-1,-3.459224701E-1
1.058232223E1,-8.421659470E-2,7.959651947E-2,-3.479321003E-1
1.059034755E1,2.392363548E-2,6.967544556E-3,-3.403022289E-1
1.059834295E1,8.754229546E-2,-3.598785400E-2,-3.118681908E-1
1.060633919E1,8.088088036E-2,-3.488922119E-2,-2.275381088E-1
1.061433528E1,9.722661972E-2,-4.476642609E-2,-1.758825779E-1
1.062233091E1,8.445286751E-2,-4.413890839E-2,-9.518361092E-2
1.063032630E1,2.859234810E-2,-4.511070251E-2,1.920914650E-2
1.063832139E1,-3.402614594E-2,-4.874229431E-3,8.135604858E-2
1.064634817E1,-8.175611496E-2,9.408950806E-3,2.040255070E-1
1.065434365E1,-1.629314423E-1,1.431369781E-2,2.542324066E-1
1.066233843E1,-1.511514187E-1,1.452541351E-2,2.329173088E-1
1.067033444E1,-2.048349380E-2,-2.578163147E-2,1.930232048E-1
1.067833107E1,8.580017090E-2,-4.448604584E-2,1.559638977E-1
1.068632670E1,1.514635086E-1,-9.207534790E-2,1.288087368E-1
1.069432179E1,1.555044651E-1,-9.920024872E-2,1.182720661E-1
1.070234772E1,1.336092949E-1,-9.439754486E-2,8.819627762E-2
1.071034335E1,1.313033104E-1,-8.002948761E-2,5.761098862E-2
1.071833905E1,8.882546425E-2,-8.491420746E-2,5.296301842E-2
1.072633476E1,-2.232575417E-2,-6.130981445E-2,5.999588966E-2
1.073433023E1,-5.406427383E-2,-4.979038239E-2,2.853345871E-2
1.074232686E1,-6.183338165E-2,-4.069709778E-2,4.024028778E-2
1.075032125E1,-9.132575989E-2,-5.076313019E-2,5.698847771E-2
1.075834842E1,-1.615421772E-1,-5.608940125E-2,6.912779808E-2
1.076634312E1,-1.912782192E-1,-7.815456390E-2,4.319906235E-2
1.077433829E1,-1.975812912E-1,-8.815383911E-2,3.443360329E-2
1.078233484E1,-1.971178055E-1,-1.316261292E-1,6.929636002E-3
1.079033024E1,-1.109142303E-1,-1.414709091E-1,-3.944349289E-2
1.079832602E1,1.207113266E-3,-1.368408203E-1,-6.402444839E-2
1.080632172E1,5.798864365E-2,-1.032953262E-1,-3.845977783E-2
1.081434720E1,6.488323212E-2,-6.028270721E-2,-3.703236580E-2
1.082234359E1,9.607434273E-2,1.858043671E-2,-9.522914886E-3
1.083033838E1,9.189677238E-2,6.611251831E-2,-1.087045670E-2
1.083833408E1,6.444287300E-2,5.595684052E-2,1.869416237E-2
1.084633040E1,1.376390457E-2,5.753040314E-2,4.802370071E-2
1.085432541E1,-8.907938004E-2,4.211807251E-2,6.057333946E-2
1.086232142E1,-1.295106411E-1,-1.409626007E-2,7.320547104E-2
1.087034736E1,-1.843559742E-1,-5.123996735E-2,1.076683998E-1
1.087834360E1,-2.154150009E-1,-6.462097168E-2,1.068944931E-1
1.088633877E1,-2.297873497E-1,-7.090091705E-2,1.303701401E-1
1.089433470E1,-1.916368008E-1,-3.656959534E-2,1.111819744E-1
1.090233010E1,-1.634156704E-1,-3.089523315E-2,6.351041794E-2
1.091032550E1,-1.449337006E-1,-3.235435486E-2,6.139802933E-2
1.091832159E1,-1.125361919E-1,-4.323196411E-2,1.634073257E-2
1.092634714E1,-4.001307487E-2,-6.821346283E-2,-2.150750160E-2
1.093434338E1,1.032733917E-2,-1.001052856E-1,-4.213333130E-3
1.094233847E1,-3.487658501E-2,-1.224622726E-1,1.052594185E-2
1.095033417E1,-9.915184975E-2,-1.065216064E-1,2.999281883E-2
1.095832957E1,-1.084322929E-1,-7.142925262E-2,-1.509237289E-2
1.096632597E1,-9.874105453E-2,-2.918338776E-2,-1.199269295E-2
1.097432136E1,-1.009631157E-1,9.565353394E-4,-1.100420952E-2
1.098234776E1,-4.101991653E-2,2.858734131E-2,-7.228374481E-3
1.099034223E1,-1.936697960E-2,1.298427582E-2,2.083349228E-2
1.099833824E1,-1.914191246E-2,3.310108185E-2,4.205989838E-2
1.100633403E1,3.599619865E-2,5.305290222E-3,3.241586685E-2
1.101432912E1,2.879428864E-2,-2.248954773E-2,7.316112518E-2
1.102232536E1,1.709771156E-2,-4.090976715E-2,9.970140457E-2
1.103032052E1,-3.016662598E-2,-4.993534088E-2,1.143271923E-1
1.103834692E1,-5.559420586E-2,-6.868743896E-2,1.002559662E-1
1.104634239E1,-6.893610954E-2,-2.287864685E-2,8.626151085E-2
1.105433841E1,-8.686041832E-2,-2.503204346E-2,8.180093765E-2
1.106233350E1,-1.165599823E-1,-1.526069641E-2,1.059539318E-1
1.107032851E1,-1.388001442E-1,3.991127014E-3,6.059384346E-2
1.107832452E1,-1.658933163E-1,6.488800049E-3,4.881691933E-2
1.108632092E1,-9.273815155E-2,-1.496410370E-2,1.109552383E-2
1.109434701E1,-4.636073112E-2,-4.529953003E-4,2.164840698E-2
1.110234217E1,-3.128218651E-2,5.226325989E-2,-5.642890930E-3
1.111033811E1,1.454401016E-2,5.705547333E-2,-4.674959183E-2
1.111833320E1,5.540323257E-2,5.702877045E-2,-5.644559860E-2
1.112632952E1,3.164005280E-2,5.212020874E-2,-5.874395370E-2
1.113432499E1,2.493548393E-2,3.506660461E-2,-8.251237869E-2
1.114232062E1,1.127815247E-2,4.187870026E-2,-6.565594673E-2
1.115034648E1,-2.612948418E-2,1.508426666E-2,-5.838561058E-2
1.115834256E1,-4.666614532E-2,-1.179122925E-2,-6.779170036E-2
1.116633758E1,-6.728315353E-2,-3.860569000E-2,-5.810904503E-2
1.117433397E1,-5.721521378E-2,-8.441352844E-2,-1.081657410E-1
1.118232837E1,-3.329324722E-2,-1.037521362E-1,-1.028864384E-1
1.119032469E1,-7.428407669E-3,-8.472251892E-2,-1.068091393E-1
1.119832078E1,3.237080574E-2,-7.040214539E-2,-9.365677834E-2
1.120634694E1,6.693649292E-2,4.687213898E-2,-1.206920147E-1
1.121434203E1,1.084136963E-1,5.393600464E-2,-1.160831451E-1
1.122233797E1,1.232237816E-1,1.183996201E-1,-1.396579742E-1
1.123033283E1,1.021611691E-1,1.181488037E-1,-1.199994087E-1
1.123832907E1,1.003632545E-1,7.959079742E-2,-1.196258068E-1
1.124632485E1,7.458162308E-2,6.029319763E-2,-8.834457397E-2
1.125435009E1,7.244062424E-2,3.889369965E-2,-7.419800758E-2
1.126234695E1,6.773209572E-2,4.396820068E-2,-6.498599052E-2
1.127034266E1,4.849839211E-2,5.163288116E-2,-5.368089676E-2
1.127833744E1,-1.641988754E-2,7.156658173E-2,-3.092885017E-2
1.128633414E1,-4.329371452E-2,7.020473480E-2,-1.806831360E-2
1.129432885E1,-6.576633453E-2,5.714321136E-2,-7.832050323E-3
1.130232424E1,-1.077702045E-1,1.317977905E-2,3.102779388E-2
1.131035018E1,-1.335926056E-1,-1.141262054E-2,4.608964920E-2
1.131834588E1,-1.574051380E-1,-3.110980988E-2,4.698228836E-2
1.132634190E1,-1.747677326E-1,-3.624534607E-2,2.193474770E-2
1.133433722E1,-1.259148121E-1,-7.659912109E-3,-9.807825089E-3
1.134233361E1,1.275420189E-2,2.846717834E-2,-6.498432159E-2
1.135032809E1,1.194586754E-1,8.397388458E-2,-7.659983635E-2
1.135832348E1,2.209022045E-1,1.085948944E-1,-1.121661663E-1
1.136632034E1,2.481424809E-1,1.260795593E-1,-1.215033531E-1
1.137434589E1,2.611951828E-1,8.853721619E-2,-1.311349869E-1
1.138234190E1,2.125539780E-1,6.535720825E-2,-9.113216400E-2
1.139033699E1,1.380305290E-1,4.208087921E-2,-1.064946651E-1
1.139833300E1,3.515863419E-2,4.986095428E-2,-1.053636074E-1
1.140632848E1,-5.368709564E-3,2.178001404E-2,-8.052539825E-2
1.141432357E1,-9.111690521E-2,4.626560211E-2,-6.052422523E-2
1.142235066E1,-1.596941948E-1,9.446430206E-2,-5.479145050E-2
1.143034513E1,-1.872215271E-1,8.975124359E-2,-4.648113251E-2
1.143834145E1,-1.831808090E-1,9.668254852E-2,-6.660223007E-2
1.144633715E1,-1.833748817E-1,8.893680573E-2,-6.745624542E-2
1.145433317E1,-1.354379654E-1,6.905364990E-2,-8.733916283E-2
1.146232879E1,-8.517169952E-2,6.348991394E-2,-1.285567284E-1
1.147032396E1,-4.718780518E-2,3.654003143E-2,-1.195182800E-1
1.147835012E1,-1.673078537E-2,1.935195923E-2,-1.176929474E-1
1.148634606E1,1.796674728E-2,9.468078613E-3,-1.561753750E-1
1.149434123E1,4.979705811E-2,2.607631683E-2,-1.417722702E-1
1.150233662E1,4.768323898E-2,-2.180576324E-2,-1.343896389E-1
1.151033225E1,1.167249680E-2,-2.880477905E-2,-1.197907925E-1
1.151832826E1,-1.502084732E-2,-1.648235321E-2,-8.132743835E-2
1.152632435E1,-5.385780334E-2,5.498886108E-3,-5.001807213E-2
1.153434959E1,-1.023716927E-1,3.576278687E-3,-5.695819855E-2
1.154234553E1,-9.118652344E-2,8.976936340E-3,-3.531265259E-2
1.155034062E1,-8.046007156E-2,9.818077087E-3,-2.560567856E-2
1.155833663E1,-5.799770355E-2,3.719520569E-2,-1.607894897E-2
1.156633326E1,-3.841781616E-2,3.620624542E-2,9.927988052E-3
1.157432804E1,9.498596191E-3,1.154899597E-2,-2.886199951E-2
1.158232382E1,5.214405060E-2,-3.660869598E-2,-8.270978928E-3
1.159035022E1,1.062426567E-1,-8.436489105E-2,-4.545593262E-2
1.159834531E1,1.144700050E-1,-1.581153870E-1,8.223056793E-4
1.160634070E1,6.270313263E-2,-1.861753464E-1,9.230542183E-2
1.161433648E1,9.398460388E-4,-2.333688736E-1,8.616948128E-2
1.162233242E1,-4.493188858E-2,-2.803440094E-1,9.264850616E-2
1.163032697E1,-7.742309570E-2,-3.080186844E-1,9.052824974E-2
1.163832321E1,-7.971000671E-2,-2.757916451E-1,7.521915436E-2
1.164634969E1,1.752901077E-2,-2.338533401E-1,3.947377205E-2
1.165434601E1,1.138763428E-1,-1.439495087E-1,3.832817078E-2
1.166234171E1,1.714429855E-1,-1.114692688E-1,-4.746913910E-4
1.167033595E1,2.265400887E-1,-1.292886734E-1,-1.028180122E-2
1.167833227E1,2.148003578E-1,-1.518707275E-1,-2.748894691E-2
1.168632790E1,1.532902718E-1,-1.935901642E-1,-2.232789993E-3
1.169432337E1,9.937763214E-2,-2.472090721E-1,-1.569986343E-3
1.170235039E1,5.516433716E-2,-2.648711205E-1,-3.940558434E-2
1.171034424E1,4.195880890E-2,-2.943782806E-1,-3.420495987E-2
1.171834064E1,-4.959583282E-3,-2.640419006E-1,-6.452059746E-2
1.172633719E1,-3.314018250E-2,-2.455935478E-1,-8.717465401E-2
1.173433236E1,-6.818294525E-3,-2.413034439E-1,-9.270119667E-2
1.174232768E1,1.903343201E-2,-2.056684494E-1,-1.027901173E-1
1.175032284E1,1.813888550E-2,-2.055916786E-1,-6.760239601E-2
1.175834963E1,-1.186418533E-2,-2.003602982E-1,-6.620883942E-2
1.176634525E1,-8.741855621E-3,-1.923151016E-1,-2.450370789E-2
1.177434103E1,-2.960109711E-2,-1.767487526E-1,3.567814827E-2
1.178233635E1,-4.551219940E-2,-1.155190468E-1,6.658005714E-2
1.179033090E1,-5.871629715E-2,-5.660629272E-2,1.113185883E-1
1.179832661E1,-3.075933456E-2,-4.560279846E-2,1.005091667E-1
1.180632293E1,-9.774208069E-3,-4.410934448E-2,8.455109596E-2
1.181434940E1,3.287315369E-2,-4.015064240E-2,6.835818291E-2
1.182234480E1,6.844186783E-2,-4.092216492E-2,7.831716537E-2
1.183034050E1,6.581354141E-2,-7.281446457E-2,8.103585243E-2
1.183833705E1,5.615663528E-2,-7.832002640E-2,1.122457981E-1
1.184633214E1,4.410457611E-2,-9.093856812E-2,1.002962589E-1
1.185432700E1,9.899044037E-2,-8.201694489E-2,7.905769348E-2
1.186232270E1,1.369090080E-1,-6.583166122E-2,5.566692352E-2
1.187034818E1,1.892538071E-1,-8.316898346E-2,6.343293190E-2
1.187834488E1,2.177910805E-1,-8.608961105E-2,9.732174873E-2
1.188633966E1,2.512397766E-1,-9.609842300E-2,9.736680984E-2
1.189433529E1,2.631807327E-1,-6.054258347E-2,1.140432358E-1
1.190233161E1,2.797741890E-1,-5.826807022E-2,1.424076557E-1
1.191032678E1,2.866330147E-1,-5.817413330E-2,1.753799915E-1
1.191832248E1,2.765321732E-1,-7.213163376E-2,2.127695084E-1
1.192634896E1,3.330211639E-1,-1.023201942E-1,2.161169052E-1
1.193434458E1,3.815965652E-1,-1.461267471E-1,2.092599869E-1
1.194233998E1,4.174213409E-1,-1.579518318E-1,2.351098061E-1
1.195033545E1,4.264378548E-1,-1.331686974E-1,2.385520935E-1
1.195833170E1,4.234938622E-1,-1.126065254E-1,2.909734249E-1
1.196632771E1,4.019255638E-1,-7.018232346E-2,3.443078995E-1
1.197432257E1,3.502397537E-1,-2.792310715E-2,3.607037067E-1
1.198234843E1,3.140521049E-1,-2.423095703E-2,3.617203236E-1
1.199034413E1,2.721195221E-1,-1.394510269E-2,3.716366291E-1
1.199833983E1,1.625251770E-1,-2.589416504E-2,3.781557083E-1
1.200633577E1,1.169409752E-1,-1.720666885E-2,3.363385201E-1
1.201433124E1,1.467618942E-1,-2.828598022E-2,2.990250587E-1
1.202232695E1,1.371040344E-1,-5.196762085E-2,2.829473019E-1
1.203032173E1,9.324407578E-2,-4.877567291E-3,2.787637711E-1
1.203834813E1,8.214426041E-2,5.072546005E-2,2.698473930E-1
1.204634444E1,4.876041412E-2,1.026630402E-1,2.255289555E-1
1.205434023E1,5.518102646E-2,8.649778366E-2,2.197575569E-1
1.206233532E1,1.085615158E-2,1.098146439E-1,2.091181278E-1
1.207033071E1,-7.448101044E-2,9.593772888E-2,1.791362762E-1
1.207832665E1,-1.125516891E-1,1.334662437E-1,1.302635670E-1
1.208632181E1,-1.012520790E-1,1.290450096E-1,6.771326065E-2
1.209434882E1,-1.053524017E-1,1.521778107E-1,3.221583366E-2
1.210234430E1,-1.724042892E-1,1.692066193E-1,4.421949387E-3
1.211033870E1,-2.377986908E-1,1.683177948E-1,5.576848984E-3
1.211833532E1,-2.706518173E-1,1.400642395E-1,2.856850624E-2
1.212633134E1,-2.762999535E-1,1.109924316E-1,-1.960659027E-2
1.213432704E1,-2.594771385E-1,1.098198891E-1,-7.300615311E-3
1.214232251E1,-2.635631561E-1,9.592723846E-2,1.305222511E-2
1.215034806E1,-2.339377403E-1,7.449913025E-2,-1.864171028E-2
1.215834369E1,-1.095471382E-1,6.048822403E-2,-3.970718384E-2
1.216432532E1,-5.502700806E-3,5.660915375E-2,-2.669215202E-2
1.216633947E1,4.074096680E-3,3.027296066E-2,2.038240433E-3
1.217433541E1,6.460237503E-2,2.182149887E-2,-1.590085030E-2
1.218233111E1,1.249899864E-1,-1.516866684E-2,-1.248884201E-2
1.219032566E1,1.187558174E-1,-7.381820679E-2,4.087328911E-2
1.219835268E1,7.009935379E-2,-8.483266830E-2,6.273126602E-2
1.220634846E1,-1.169681549E-2,-9.111738205E-2,8.899116516E-2
1.221434378E1,-3.592538834E-2,-1.117196083E-1,1.006646156E-1
1.222233917E1,-9.585237503E-2,-1.130814552E-1,1.238334179E-1
1.223033496E1,-1.246633530E-1,-1.023044586E-1,1.538486481E-1
1.223833089E1,-1.821064949E-1,-1.008896828E-1,1.808562279E-1
1.224632575E1,-2.058138847E-1,-4.183340073E-2,2.287232876E-1
1.225435214E1,-1.552834511E-1,8.368492126E-4,2.637419701E-1
1.226234846E1,-9.968423843E-2,7.727146149E-2,3.289513588E-1
1.227034325E1,-1.078343391E-1,9.870100021E-2,3.831827641E-1
1.227833987E1,-1.485962868E-1,1.032881737E-1,3.645317554E-1
1.228633496E1,-1.745123863E-1,8.872795105E-2,3.189280033E-1
1.229433097E1,-1.929469109E-1,5.505704880E-2,2.968313694E-1
1.230232614E1,-1.253485680E-1,-1.910352707E-2,2.578098774E-1
1.231032092E1,-8.674335480E-2,-7.628822327E-2,2.474832535E-1
1.231834732E1,-9.149074554E-2,-1.165103912E-1,2.203824520E-1
1.232634364E1,-6.825685501E-2,-1.301345825E-1,1.890361309E-1
1.233433934E1,-1.731634140E-2,-1.195950508E-1,1.539096832E-1
1.234233482E1,6.859779358E-2,-1.114239693E-1,9.138011932E-2
1.235032952E1,1.321687698E-1,-1.438345909E-1,7.762455940E-2
1.235832561E1,9.241771698E-2,-1.690225601E-1,4.997420311E-2
1.236635178E1,5.230426788E-2,-1.820564270E-1,4.878067970E-2
1.237434748E1,3.087329865E-2,-2.163009644E-1,3.313064575E-2
1.238234318E1,3.749370575E-2,-2.309899330E-1,1.272106171E-2
1.239033881E1,6.013965607E-2,-2.332897186E-1,-1.240873337E-2
1.239833452E1,4.405403137E-2,-2.115850449E-1,-4.665231705E-2
1.240633030E1,1.155123711E-1,-1.658253670E-1,-1.180226803E-1
1.241432631E1,1.974983215E-1,-9.824514389E-2,-1.641047001E-1
1.242235186E1,2.658343315E-1,-2.562999725E-2,-2.108669281E-1
1.243034695E1,2.944078445E-1,5.909299850E-2,-2.296352386E-1
1.243834319E1,3.642544746E-1,1.177949905E-1,-2.466688156E-1
1.244633897E1,4.201111794E-1,8.830070496E-2,-2.331335545E-1
1.245433437E1,4.154386520E-1,7.322168350E-2,-1.804904938E-1
1.246232977E1,3.772416115E-1,1.514959335E-2,-1.113071442E-1
1.247032547E1,3.302464485E-1,-4.585742950E-3,-2.170372009E-2
1.247835187E1,2.416424751E-1,-3.153610229E-2,8.749890327E-2
1.248634757E1,2.099041939E-1,1.293230057E-2,1.185889244E-1
1.249434297E1,1.257290840E-1,1.185975075E-1,1.701059341E-1
1.250233867E1,9.643840790E-2,2.039251328E-1,1.782910824E-1
1.251033407E1,9.014892578E-2,2.524886131E-1,1.601865292E-1
1.251832947E1,6.329298019E-2,2.573575974E-1,1.589381695E-1
1.252632579E1,7.737302780E-2,2.165946960E-1,1.505510807E-1
1.253435226E1,9.612703323E-2,1.305027008E-1,1.683137417E-1
1.254234681E1,1.242012978E-1,7.109737396E-2,1.928086281E-1
1.255034282E1,9.004592896E-2,5.259323120E-2,1.833248138E-1
1.255833907E1,8.935451508E-2,-1.350975037E-2,1.277875900E-1
1.256633446E1,1.364445686E-1,-5.775308609E-2,1.123852730E-1
1.257432994E1,1.307611465E-1,-1.375589371E-1,1.106932163E-1
1.258232526E1,8.713865280E-2,-1.812591553E-1,1.248531342E-1
1.259035058E1,1.782941818E-2,-2.274556160E-1,1.120860577E-1
1.259834682E1,-4.341554642E-2,-2.428135872E-1,7.253742218E-2
1.260634283E1,-1.391162872E-1,-2.470726967E-1,3.315758705E-2
1.261433884E1,-2.113924026E-1,-2.932882309E-1,-5.691528320E-3
1.262233393E1,-2.987699509E-1,-2.811203003E-1,-6.474447250E-2
1.263032902E1,-3.612980843E-1,-2.939929962E-1,-8.880114555E-2
1.263832542E1,-4.448852539E-1,-2.981882095E-1,-1.472089291E-1
1.264635097E1,-4.763073921E-1,-2.884979248E-1,-1.965584755E-1
1.265434636E1,-5.038685799E-1,-2.575335503E-1,-2.727093697E-1
1.266234268E1,-5.352344513E-1,-2.312650681E-1,-2.969019413E-1
1.267033716E1,-5.798833370E-1,-2.072677612E-1,-3.052589893E-1
1.267833371E1,-5.349144936E-1,-1.424956322E-1,-3.167557716E-1
1.268633003E1,-4.791045189E-1,-7.054805756E-2,-3.027734756E-1
1.269432542E1,-4.051384926E-1,3.789901733E-3,-3.233475685E-1
1.270235128E1,-4.272270203E-1,4.920196533E-2,-2.807452679E-1
1.271034637E1,-3.799467087E-1,1.015424728E-1,-2.613103390E-1
1.271834238E1,-2.970290184E-1,1.228475571E-1,-2.177028656E-1
1.272633840E1,-1.998748779E-1,1.873226166E-1,-1.931576729E-1
1.273433472E1,-1.933841705E-1,2.061882019E-1,-1.686351299E-1
1.274232858E1,-1.888651848E-1,2.249956131E-1,-1.683552265E-1
1.275032428E1,-1.674981117E-1,1.888675690E-1,-1.755890846E-1
1.275835114E1,-1.555500031E-1,1.815395355E-1,-1.759228706E-1
1.276634677E1,-1.627931595E-1,1.505136490E-1,-1.431980133E-1
1.277434255E1,-2.079997063E-1,1.721277237E-1,-1.514408588E-1
1.278233756E1,-1.622452736E-1,2.007932663E-1,-1.927607059E-1
1.279033272E1,-1.141247749E-1,2.628135681E-1,-1.952254772E-1
1.279832897E1,-8.483934402E-2,3.245096207E-1,-1.780283451E-1
1.280632475E1,-1.145052910E-1,3.928260803E-1,-1.556732655E-1
1.281435091E1,-1.408634186E-1,4.223833084E-1,-1.643583775E-1
1.282234693E1,-1.617875099E-1,3.704423904E-1,-1.375870705E-1
1.283034109E1,-2.488021851E-1,3.181524277E-1,-1.277747154E-1
1.283833764E1,-2.443814278E-1,2.753572464E-1,-1.325597763E-1
1.284633366E1,-2.447099686E-1,1.946058273E-1,-8.549571037E-2
1.285432905E1,-2.688922882E-1,1.811656952E-1,-7.502865791E-2
1.286232483E1,-3.476154804E-1,1.436700821E-1,-8.396697044E-2
1.287035031E1,-4.229786396E-1,1.106958389E-1,-7.177042961E-2
1.287834601E1,-4.948093891E-1,8.220958710E-2,-6.728601456E-2
1.288634202E1,-5.113613605E-1,2.753448486E-2,-8.485746384E-2
1.289433865E1,-4.782531261E-1,1.393413544E-2,-1.240179539E-1
1.290233351E1,-3.612978458E-1,-3.213310242E-2,-1.700024605E-1
1.291032852E1,-2.974679470E-1,-7.685470581E-2,-1.727120876E-1
1.291832423E1,-2.599050999E-1,-5.829906464E-2,-1.990296841E-1
1.292635108E1,-1.750545502E-1,-6.957817078E-2,-2.416646481E-1
1.293434587E1,-1.313176155E-1,-1.154718399E-1,-2.434275150E-1
1.294234126E1,-3.747987747E-2,-1.241226196E-1,-2.334613800E-1
1.295033727E1,-2.862930298E-3,-1.485710144E-1,-2.237927914E-1
1.295833290E1,4.493951797E-2,-1.244153976E-1,-1.857995987E-1
1.296632861E1,2.985668182E-2,-8.312225342E-2,-1.910724640E-1
1.297432431E1,-1.458168030E-2,-8.932971954E-2,-1.606371403E-1
1.298234986E1,-2.866935730E-2,-1.095552444E-1,-1.684169769E-1
1.299034533E1,-2.918720245E-2,-1.389799118E-1,-1.713566780E-1
1.299834104E1,-7.572078705E-2,-1.706056595E-1,-1.262180805E-1
1.300633728E1,-9.416723251E-2,-1.947917938E-1,-1.335654259E-1
1.301433306E1,-7.741689682E-2,-2.162599564E-1,-1.072931290E-1
1.302232815E1,-1.370811462E-2,-2.516632080E-1,-7.613229752E-2
1.303032416E1,1.107597351E-2,-2.461757660E-1,-4.222583771E-2
1.303835002E1,-2.592086792E-3,-2.717866898E-1,-5.730152130E-3
1.304634604E1,-7.614326477E-2,-2.925920486E-1,1.405358315E-2
1.305434166E1,-1.116533279E-1,-2.964239120E-1,2.533912659E-3
1.306233706E1,-1.858868599E-1,-3.070907593E-1,-3.328371048E-2
1.307033161E1,-2.197308540E-1,-3.149690628E-1,-3.621292114E-2
1.307832824E1,-3.063468933E-1,-3.583536148E-1,-4.011869431E-2
1.308632417E1,-4.285924435E-1,-3.702650070E-1,1.447629929E-2
1.309435034E1,-5.715248585E-1,-3.772268295E-1,9.136724472E-2
1.310234573E1,-6.723184586E-1,-4.009962082E-1,1.663646698E-1
1.311034082E1,-7.617855072E-1,-4.584803581E-1,2.202918530E-1
1.311833691E1,-8.056573868E-1,-5.372738838E-1,2.662024498E-1
1.312633254E1,-8.481349945E-1,-5.653953552E-1,2.429893017E-1
1.313432801E1,-9.088861942E-1,-6.385297775E-1,2.038438320E-1
1.314232364E1,-1.031402826E0,-6.824159622E-1,1.971149445E-1
1.315034919E1,-1.218691826E0,-7.207012177E-1,1.797649860E-1
1.315834528E1,-1.398401022E0,-7.815699577E-1,8.355736732E-2
1.316634099E1,-1.417264938E0,-8.808965683E-1,-7.613825798E-2
1.317433692E1,-1.353959084E0,-1.032104492E0,-2.077851295E-1
1.318233209E1,-1.352281094E0,-1.134451389E0,-1.892132759E-1
1.319032810E1,-1.515062332E0,-1.165389538E0,-9.757542610E-2
1.319832380E1,-1.769145250E0,-1.189063549E0,-9.045124054E-2
1.320635028E1,-1.933790684E0,-1.336487293E0,-7.651567459E-2
1.321434621E1,-1.852129698E0,-1.415658474E0,-5.474686623E-2
1.322234099E1,-1.825366259E0,-1.424476147E0,3.553724289E-2
1.323033524E1,-1.948681116E0,-1.463518620E0,6.489539146E-2
1.323833186E1,-2.094565153E0,-1.432177067E0,1.166827679E-1
1.324632811E1,-2.220953703E0,-1.461272240E0,1.526722908E-1
1.325435373E1,-2.258713484E0,-1.562211037E0,1.057038307E-1
1.326235090E1,-2.260028124E0,-1.641404152E0,8.310747147E-2
1.327034514E1,-2.262286663E0,-1.722841263E0,-1.852822304E-2
1.327834169E1,-2.335537910E0,-1.738659382E0,-4.127717018E-2
1.328633617E1,-2.456060410E0,-1.719349384E0,-2.112340927E-2
1.329433249E1,-2.659639835E0,-1.609419823E0,4.197883606E-2
1.330232819E1,-2.815035343E0,-1.503874302E0,7.423305511E-2
1.331035282E1,-2.850556850E0,-1.485923767E0,8.113217354E-2
1.331834883E1,-2.914664745E0,-1.488050461E0,7.814717293E-2
1.332634523E1,-2.855324030E0,-1.563018322E0,-6.546735764E-3
1.333434055E1,-2.786434174E0,-1.710748672E0,-1.086193323E-1
1.334233633E1,-2.606907845E0,-1.909193993E0,-2.739286423E-1
1.335033172E1,-2.431838989E0,-2.070421219E0,-4.303075075E-1
1.335832643E1,-2.286938667E0,-2.110093594E0,-3.999748230E-1
1.336635421E1,-2.091983795E0,-2.119496346E0,-3.923323154E-1
1.337435022E1,-2.050258636E0,-1.947335720E0,-3.241267204E-1
1.338234500E1,-1.895557404E0,-1.694025993E0,-2.528864145E-1
1.339033940E1,-1.677927971E0,-1.495594978E0,-2.507154942E-1
1.339833580E1,-1.471164227E0,-1.375806332E0,-2.361030579E-1
1.340633181E1,-1.117418766E0,-1.334259987E0,-3.726531863E-1
1.341432751E1,-8.508758545E-1,-1.344789505E0,-5.311743617E-1
1.342235330E1,-6.394896507E-1,-1.456122875E0,-6.522294283E-1
1.343034931E1,-4.084544182E-1,-1.481831312E0,-8.114836216E-1
1.343834440E1,-6.620788574E-2,-1.721793413E0,-9.138818979E-1
1.344634041E1,1.915664673E-1,-1.925537348E0,-8.785112500E-1
1.345433611E1,2.333517075E-1,-1.990305424E0,-7.227034569E-1
1.346233213E1,1.943321228E-1,-1.971040487E0,-6.093266606E-1
1.347032668E1,9.776020050E-2,-1.890896559E0,-6.134580374E-1
1.347835369E1,-1.189317703E-1,-1.771225214E0,-5.320388675E-1
1.348634878E1,-4.463176727E-1,-1.616673470E0,-5.601210594E-1
1.349434425E1,-4.822969437E-1,-1.460321546E0,-8.121539950E-1
1.350233995E1,-2.937383652E-1,-1.446134925E0,-9.785597920E-1
1.351033589E1,-8.642196655E-2,-1.493257761E0,-1.177053452E0
1.351833167E1,3.225317001E-1,-1.693400383E0,-1.412152886E0
1.352632638E1,5.261468887E-1,-1.839043498E0,-1.332027197E0
1.353435323E1,4.019460678E-1,-1.952789187E0,-1.134550571E0
1.354234855E1,1.388587952E-1,-1.922670603E0,-9.225473404E-1
1.355034364E1,-7.164859772E-2,-1.806823850E0,-8.414970040E-1
1.355833973E1,-1.051177979E-1,-1.723975182E0,-8.371458054E-1
1.356633513E1,9.109115601E-2,-1.670893669E0,-8.912842870E-1
1.357433168E1,3.281555176E-1,-1.753684282E0,-8.362450600E-1
1.358232654E1,2.565193176E-1,-1.807242155E0,-7.984645367E-1
1.359035270E1,7.739734650E-2,-1.755824208E0,-7.819985151E-1
1.359834864E1,9.965991974E-2,-1.773338795E0,-8.072504997E-1
1.360634380E1,1.940708160E-1,-1.804839611E0,-7.696902752E-1
1.361434005E1,2.481155396E-1,-1.864824057E0,-7.674480081E-1
1.362233552E1,2.763280869E-1,-1.973369598E0,-7.787216902E-1
1.363033061E1,1.660852432E-1,-2.010465145E0,-7.669985294E-1
1.363832654E1,-1.290798187E-2,-2.054142952E0,-7.672632933E-1
1.364635240E1,1.200380325E-1,-2.100297451E0,-7.976788878E-1
1.365434849E1,2.796697617E-1,-2.179671764E0,-7.076420784E-1
1.366234381E1,1.423110962E-1,-2.152324677E0,-5.923871994E-1
1.367034013E1,-1.412982941E-1,-2.104032755E0,-4.137509167E-1
1.367833499E1,-4.030208588E-1,-2.039567709E0,-3.747095168E-1
1.368633131E1,-4.516506195E-1,-1.960299492E0,-3.428279161E-1
1.369432632E1,-1.198148727E-1,-1.982015133E0,-3.665244579E-1
1.370235256E1,2.756290436E-1,-2.075657845E0,-4.014414549E-1
1.371034758E1,4.393110275E-1,-2.178242683E0,-3.346241713E-1
1.371834367E1,5.168342590E-1,-2.232537270E0,-3.041974902E-1
1.372633968E1,6.061954498E-1,-2.238153458E0,-2.634580433E-1
1.373433561E1,8.037099838E-1,-2.272534370E0,-2.532137036E-1
1.374233070E1,1.091661453E0,-2.284626961E0,-1.491629779E-1
1.375032548E1,1.156513214E0,-2.304828644E0,-2.299468368E-1
1.375835203E1,9.763727188E-1,-2.292597294E0,-3.446072340E-1
1.376634828E1,6.756925583E-1,-2.261847973E0,-4.030927122E-1
1.377434406E1,4.909029007E-1,-2.224849224E0,-4.348965585E-1
1.378233907E1,5.312852859E-1,-2.182112694E0,-4.482704103E-1
1.379033416E1,5.877132416E-1,-2.155600071E0,-4.077250659E-1
1.379833025E1,6.074891090E-1,-2.061377525E0,-3.297445774E-1
1.380632649E1,5.260410309E-1,-1.953623295E0,-1.984387636E-1
1.381435212E1,4.918522835E-1,-1.779069901E0,-6.373393536E-2
1.382234805E1,5.247201920E-1,-1.627649784E0,-5.662828684E-3
1.383034314E1,5.699200630E-1,-1.467644215E0,1.348081231E-2
1.383833854E1,7.234230042E-1,-1.370488644E0,3.888475895E-2
1.384633486E1,1.069622993E0,-1.462337971E0,6.563186646E-2
1.385433087E1,1.388378143E0,-1.589593410E0,9.176000953E-2
1.386232604E1,1.468993187E0,-1.706367016E0,8.100715280E-2
1.387035097E1,1.387400150E0,-1.793694019E0,2.188333869E-2
1.387834752E1,1.249390602E0,-1.747780800E0,-9.126257896E-2
1.388634330E1,1.101205826E0,-1.696891785E0,-2.134258896E-1
1.389433901E1,1.017405987E0,-1.597325802E0,-2.180377692E-1
1.390233471E1,9.364395142E-1,-1.522487164E0,-2.515443265E-1
1.391033011E1,8.238639832E-1,-1.446466923E0,-1.489344537E-1
1.391832674E1,8.456616402E-1,-1.349377632E0,-2.247193456E-2
1.392635260E1,9.513492584E-1,-1.267226219E0,1.486205459E-1
1.393434799E1,1.082948685E0,-1.190750122E0,3.128975034E-1
1.394234362E1,1.127846241E0,-1.141529083E0,4.421896636E-1
1.395033809E1,1.150755882E0,-1.097949028E0,5.395143032E-1
1.395833441E1,1.193650246E0,-1.040061951E0,6.058645844E-1
1.396632989E1,1.236569881E0,-9.947004318E-1,6.184247732E-1
1.397432652E1,1.301553249E0,-9.735183716E-1,5.742821693E-1
1.398235268E1,1.340646744E0,-9.334173203E-1,5.261895061E-1
1.399034777E1,1.396477699E0,-9.104928970E-1,4.650322199E-1
1.399834286E1,1.366109848E0,-8.998489380E-1,4.107914567E-1
1.400633949E1,1.355016232E0,-8.965587616E-1,3.831868768E-1
1.401433481E1,1.357294083E0,-8.459892273E-1,3.589736223E-1
1.402232959E1,1.330195904E0,-8.005113602E-1,3.844102025E-1
1.403032529E1,1.316327333E0,-7.698068619E-1,4.264133573E-1
1.403835184E1,1.296194077E0,-7.802438736E-1,4.899281263E-1
1.404634693E1,1.262315512E0,-7.863121033E-1,5.753069520E-1
1.405434387E1,1.149633884E0,-7.640495300E-1,6.210819483E-1
1.406233888E1,1.047066927E0,-7.227354050E-1,6.637497544E-1
1.407033428E1,1.075031281E0,-6.651964188E-1,6.678192019E-1
1.407832967E1,1.147013903E0,-6.440458298E-1,6.234470010E-1
1.408632484E1,1.242991924E0,-6.282501221E-1,6.143881083E-1
1.409435193E1,1.374045134E0,-5.772037506E-1,5.684621334E-1
1.410234732E1,1.474671841E0,-5.603513718E-1,5.145616531E-1
1.411034272E1,1.532825708E0,-5.032958984E-1,4.881284237E-1
1.411833812E1,1.609170914E0,-4.774656296E-1,4.551064372E-1
1.412633351E1,1.678616524E0,-4.255599976E-1,4.246404767E-1
1.413432953E1,1.713145494E0,-4.382314682E-1,4.249094725E-1
1.414232462E1,1.717475891E0,-4.411268234E-1,4.630120993E-1
1.415035132E1,1.632182598E0,-4.411640167E-1,4.457616806E-1
1.415834702E1,1.527101040E0,-4.333295822E-1,4.547381401E-1
1.416634250E1,1.464618444E0,-4.246559143E-1,4.494605064E-1
1.417433820E1,1.358993769E0,-3.861904144E-1,4.183587432E-1
1.418233452E1,1.350291491E0,-3.713541031E-1,4.041150808E-1
1.419032923E1,1.304350615E0,-3.465557098E-1,3.659731746E-1
1.419832401E1,1.266439199E0,-2.974061966E-1,3.780009747E-1
1.420635087E1,1.261654139E0,-2.738924026E-1,3.730629683E-1
1.421434680E1,1.250055313E0,-2.255735397E-1,3.483687043E-1
1.422234312E1,1.234531403E0,-1.978368759E-1,3.492875099E-1
1.423033829E1,1.265893221E0,-1.211671829E-1,3.323931098E-1
1.423833391E1,1.250648499E0,-6.025886536E-2,3.071995378E-1
1.424632877E1,1.208337784E0,-1.266765594E-2,2.712163925E-1
1.425435494E1,1.172722578E0,2.882385254E-2,2.198836803E-1
1.426235095E1,1.094446659E0,5.722045898E-2,1.750672460E-1
1.427034604E1,9.910080433E-1,6.552982330E-2,1.110422015E-1
1.427834205E1,8.781220913E-1,4.210662842E-2,5.714112520E-2
1.428633745E1,7.874050140E-1,9.003543854E-2,1.375669241E-2
1.429433346E1,7.315449715E-1,1.017799377E-1,-3.297054768E-2
1.430232916E1,6.964249611E-1,1.324729919E-1,-7.814532518E-2
1.431035502E1,6.343877316E-1,1.750116348E-1,-1.286270022E-1
1.431835096E1,6.153585911E-1,1.888227463E-1,-1.388800740E-1
1.432634612E1,5.793178082E-1,2.385168076E-1,-1.639145613E-1
1.433434244E1,5.388116837E-1,2.260694504E-1,-1.750660539E-1
1.434233807E1,5.063755512E-1,2.043075562E-1,-1.867804527E-1
1.435033285E1,4.680685997E-1,1.685447693E-1,-2.040081024E-1
1.435832863E1,4.433131218E-1,1.332550049E-1,-2.433294058E-1
1.436632495E1,4.105405807E-1,1.271219254E-1,-2.119669318E-1
1.437435104E1,3.722038269E-1,9.029960632E-2,-2.130705118E-1
1.438234552E1,3.052089214E-1,3.973197937E-2,-1.779612303E-1
1.439034161E1,2.288432121E-1,-2.216148376E-2,-1.428916454E-1
1.439833754E1,2.025992870E-1,-6.202411652E-2,-9.190553427E-2
1.440633332E1,1.140458584E-1,-7.679843903E-2,-7.855212688E-2
1.441432926E1,4.783463478E-2,-5.253601074E-2,-7.034122944E-3
1.442235512E1,-2.860069275E-2,-3.985309601E-2,6.032288074E-3
1.443034990E1,-1.448204517E-1,-4.609203339E-2,4.576802254E-3
1.443834599E1,-2.134637833E-1,-3.564357758E-2,1.551085711E-2
1.444634200E1,-2.329423428E-1,-2.784919739E-2,4.894495010E-2
1.445433793E1,-2.252745628E-1,-1.325130463E-2,4.537004232E-2
1.446233248E1,-1.824979782E-1,5.961418152E-3,6.680208445E-2
1.447032819E1,-1.643977165E-1,-8.548736572E-3,7.207626104E-2
1.447835497E1,-1.465406418E-1,-1.598548889E-2,8.696401119E-2
1.448635060E1,-1.670448780E-1,-3.550052643E-2,1.252881289E-1
1.449434630E1,-2.036759853E-1,-2.861976624E-2,1.410129666E-1
1.450234178E1,-2.530241013E-1,-5.733299255E-2,2.029424906E-1
1.451033686E1,-3.450162411E-1,-8.538341522E-2,2.052192092E-1
1.451833318E1,-3.737072945E-1,-1.245126724E-1,2.055699229E-1
1.452632881E1,-4.270944595E-1,-1.649408340E-1,2.040764689E-1
1.453435436E1,-4.566586018E-1,-1.472663879E-1,2.185176611E-1
1.454234976E1,-4.794793129E-1,-1.505784988E-1,2.228045464E-1
1.455034523E1,-4.926998615E-1,-1.053075790E-1,2.263841033E-1
1.455834148E1,-5.011181831E-1,-9.527969360E-2,2.577502728E-1
1.456633718E1,-5.024824142E-1,-5.356407166E-2,2.924076915E-1
1.457433296E1,-5.142235756E-1,-5.457592010E-2,3.042418957E-1
1.458232890E1,-5.628137589E-1,-1.696014404E-2,3.388221264E-1
1.459035352E1,-5.786499977E-1,6.655693054E-3,3.625813127E-1
1.459835023E1,-5.765888691E-1,-6.341934204E-4,3.901052475E-1
1.460634586E1,-5.828366280E-1,2.348041534E-2,3.953021765E-1
1.461434187E1,-5.594258308E-1,2.382183075E-2,4.021334648E-1
1.462233665E1,-5.210325718E-1,6.012916565E-2,4.248796701E-1
1.463033205E1,-5.151472092E-1,7.986354828E-2,4.206290245E-1
1.463832837E1,-4.682183266E-1,9.957695007E-2,4.013655186E-1
1.464635484E1,-4.137310982E-1,9.295940399E-2,3.601087332E-1
1.465434970E1,-3.713309765E-1,1.077747345E-1,3.330700397E-1
1.466234571E1,-3.551619053E-1,1.177263260E-1,3.271908760E-1
1.467034018E1,-3.648586273E-1,9.896087646E-2,3.183856010E-1
1.467833712E1,-3.717210293E-1,1.018218994E-1,2.761750221E-1
1.468633182E1,-3.801610470E-1,9.292411804E-2,2.438887358E-1
1.469432876E1,-4.022514820E-1,1.057701111E-1,2.431594133E-1
1.470235500E1,-4.090473652E-1,6.625366211E-2,2.098070383E-1
1.471034978E1,-3.726220131E-1,7.237720490E-2,1.874766350E-1
1.471834602E1,-3.434283733E-1,6.664466858E-2,1.546691656E-1
1.472634081E1,-2.872757912E-1,8.695507050E-2,1.430821419E-1
1.473433659E1,-2.309641838E-1,6.133174896E-2,1.308656931E-1
1.474233260E1,-1.886570454E-1,5.446052551E-2,1.129863262E-1
1.475032707E1,-1.008558273E-1,3.511142731E-2,7.256376743E-2
1.475835355E1,-7.290554047E-2,3.682708740E-2,2.497673035E-3
1.476634979E1,-2.326107025E-2,4.049015045E-2,-5.660796165E-2
1.477434488E1,-1.613116264E-2,7.493972778E-2,-1.264601946E-1
1.478234035E1,-3.174400330E-2,6.605339050E-2,-1.548988819E-1
1.479033698E1,-4.325962067E-2,2.832508087E-2,-2.114806175E-1
1.479833145E1,-7.659006119E-2,7.393836975E-3,-2.145773172E-1
1.480632808E1,-1.193323135E-1,-1.335525513E-2,-2.046849728E-1
1.481435417E1,-1.161060333E-1,-3.380870819E-2,-1.839858294E-1
1.482235018E1,-1.146311760E-1,-4.192543030E-2,-1.930055618E-1
1.483034442E1,-6.955146790E-2,-4.500865936E-2,-1.485358477E-1
1.483834005E1,-1.005077362E-2,-4.563999176E-2,-1.061240435E-1
1.484633614E1,7.333850861E-2,-3.673458099E-2,-8.061897755E-2
1.485433177E1,9.200119972E-2,-2.546310425E-2,-1.006178856E-1
1.486232694E1,1.609323025E-1,-2.140426636E-2,-8.489251137E-2
1.487035402E1,1.699798107E-1,1.791954041E-3,-9.552967548E-2
1.487834942E1,1.766178608E-1,1.302528381E-2,-1.036492586E-1
1.488634505E1,1.664590836E-1,4.582214355E-2,-1.402695179E-1
1.489434075E1,1.539726257E-1,5.712699890E-2,-1.478425264E-1
1.490233530E1,1.464095116E-1,4.219055176E-2,-1.429798603E-1
1.491033093E1,1.174590588E-1,5.602455139E-2,-1.213251352E-1
1.491832794E1,1.153099537E-1,7.478713989E-2,-9.952485561E-2
1.492635319E1,1.063976288E-1,6.253814697E-2,-7.525837421E-2
1.493434858E1,1.572606564E-1,8.379077911E-2,-7.245910168E-2
1.494234513E1,1.837270260E-1,6.903362274E-2,-6.464874744E-2
1.495033999E1,1.951341629E-1,1.163482666E-1,-3.996205330E-2
1.495833531E1,1.891109943E-1,1.323509216E-1,-3.925716877E-2
1.496633163E1,1.827449799E-1,1.362924576E-1,-4.091131687E-2
1.497432741E1,1.997430325E-1,1.496629715E-1,-5.444824696E-2
1.498235289E1,2.371230125E-1,1.291952133E-1,-3.452885151E-2
1.499034828E1,2.448394299E-1,1.060590744E-1,-2.678751945E-2
1.499834399E1,2.469317913E-1,9.940338135E-2,-5.111694336E-3
1.500634000E1,2.554683685E-1,7.568168640E-2,3.002226353E-2
1.501433570E1,2.329795361E-1,3.269958496E-2,4.254972935E-2
1.502233110E1,2.507076263E-1,8.604049683E-3,7.310152054E-2
1.503032657E1,2.393310070E-1,-3.730487823E-2,9.990179539E-2
1.503835359E1,2.208786011E-1,-1.869773865E-2,1.278337240E-1
1.504634868E1,1.790101528E-1,-4.556846619E-2,1.188081503E-1
1.505434446E1,1.399652958E-1,-4.364395142E-2,1.046001911E-1
1.506233985E1,9.193253517E-2,-3.679466248E-2,1.046030521E-1
1.507033425E1,7.972955704E-2,-1.800537109E-2,9.975266457E-2
1.507833126E1,4.609417915E-2,-4.940700531E-2,8.100593090E-2
1.508632666E1,3.343129158E-2,-4.739856720E-2,6.738829613E-2
1.509435282E1,2.268028259E-2,-8.613109589E-2,4.492986202E-2
1.510234814E1,-2.215695381E-2,-1.057672501E-1,5.913436413E-2
1.511034323E1,-5.603551865E-3,-1.542892456E-1,8.348894119E-2
1.511834017E1,9.952545166E-3,-1.599435806E-1,9.140276909E-2
1.512633595E1,1.949381828E-2,-1.635198593E-1,8.983743191E-2
1.513433188E1,1.843857765E-2,-1.410474777E-1,7.861471176E-2
1.514232613E1,-5.058526993E-3,-9.725570679E-2,4.354286194E-2
1.515035168E1,-5.184173584E-3,-8.475780487E-2,2.277421951E-2
1.515834861E1,-1.769876480E-2,-6.762886047E-2,3.280401230E-2
1.516634455E1,-2.814912796E-2,-5.782508850E-2,1.612758636E-2
1.517433995E1,-8.663821220E-2,-1.007652283E-1,-3.130793571E-3
1.518233503E1,-1.303305626E-1,-1.196994781E-1,-1.795363426E-2
1.519033043E1,-1.803267002E-1,-1.240329742E-1,-3.278648853E-2
1.519832621E1,-2.028658390E-1,-1.280498505E-1,-4.748308659E-2
1.520635292E1,-2.287609577E-1,-9.572505951E-2,-4.269814491E-2
1.521434893E1,-2.150027752E-1,-7.255458832E-2,-5.903851986E-2
1.522234379E1,-1.789298058E-1,-7.065773010E-2,-7.246840000E-2
1.523033888E1,-1.733365059E-1,-7.570552826E-2,-9.017646313E-2
1.523833512E1,-1.719715595E-1,-5.422782898E-2,-8.844625950E-2
1.524633090E1,-2.008996010E-1,-4.206943512E-2,-9.366726875E-2
1.525435730E1,-2.024948597E-1,-1.527786255E-2,-8.936512470E-2
1.526235300E1,-2.361817360E-1,-3.358554840E-2,-7.310140133E-2
1.527034848E1,-2.395875454E-1,-2.514266968E-2,-8.564531803E-2
1.527834387E1,-2.581877708E-1,-1.388263702E-2,-7.428622246E-2
1.528633950E1,-2.917850018E-1,-4.578590393E-3,-5.847144127E-2
1.529433467E1,-3.022716045E-1,1.466560364E-2,-3.353524208E-2
1.530233129E1,-2.685711384E-1,5.392074585E-3,-1.878190041E-2
1.531035623E1,-2.322957516E-1,4.875469208E-2,-2.139353752E-2
1.531835162E1,-2.272751331E-1,3.693962097E-2,1.615142822E-2
1.532634764E1,-2.034077644E-1,3.694343567E-2,1.492214203E-2
1.533434357E1,-2.154822350E-1,6.563091278E-2,1.469969749E-3
1.534233935E1,-1.775238514E-1,7.505130768E-2,2.090811729E-3
1.535033529E1,-1.424593925E-1,5.798625946E-2,-1.890170574E-2
1.535832953E1,-1.366422176E-1,5.273818970E-2,-2.560973167E-2
1.536635662E1,-1.456964016E-1,3.062057495E-2,-3.444766998E-2
1.537435263E1,-1.549801826E-1,-8.291244507E-3,-6.697976589E-2
1.538234741E1,-1.408667564E-1,-8.996009827E-3,-7.276475430E-2
1.539034273E1,-1.057968140E-1,-3.377532959E-2,-4.481995106E-2
1.539833882E1,-1.166954041E-1,-2.033329010E-2,-5.004847050E-2
1.540633483E1,-1.232209206E-1,-4.526901245E-2,-3.099489212E-2
1.541433046E1,-8.738827705E-2,-3.924369812E-2,-1.887130737E-2
1.542232563E1,-5.218601227E-2,-7.646179199E-2,-2.098500729E-2
1.543035149E1,-6.072282791E-3,-7.563781738E-2,-3.498363495E-2
1.543834804E1,3.079652786E-3,-5.113983154E-2,-3.219258785E-2
1.544634343E1,3.519749641E-2,-3.408527374E-2,-4.623925686E-2
1.545433922E1,6.926536560E-3,-2.677249908E-2,-5.572247505E-2
1.546233423E1,1.663994789E-2,-1.476860046E-2,-6.531333923E-2
1.547032932E1,1.405835152E-2,-2.681446075E-2,-6.074178219E-2
1.547835610E1,1.362442970E-2,-3.415775299E-2,-5.157411098E-2
1.548635188E1,1.059937477E-2,-1.762485504E-2,-4.730010033E-2
1.549434789E1,5.157470703E-3,-4.901504517E-2,-2.653789520E-2
1.550234298E1,-1.943302155E-2,-2.774143219E-2,-3.219199181E-2
1.551033830E1,-5.827999115E-2,-1.659393311E-3,-1.396656036E-2
1.551833493E1,-9.221196175E-2,5.435943604E-4,-1.226627827E-2
1.552632979E1,-7.823061943E-2,4.106426239E-2,-1.293492317E-2
1.553435687E1,-4.313611984E-2,5.994701385E-2,-6.129300594E-2
1.554235258E1,-1.520633698E-3,4.996967316E-2,-9.497129917E-2
1.555034613E1,3.438186646E-2,6.611824036E-2,-1.092360020E-1
1.555834299E1,2.418255806E-2,7.496929169E-2,-1.447089911E-1
1.556633877E1,3.508257866E-2,5.978870392E-2,-1.703811884E-1
1.557433417E1,4.093956947E-2,3.261184692E-2,-1.933358908E-1
1.558233041E1,3.956103325E-2,7.873535156E-3,-2.205699086E-1
1.559035565E1,4.798007011E-2,-2.151584625E-2,-2.255974412E-1
1.559835143E1,3.517246246E-2,-4.114627838E-2,-2.537572980E-1
1.560634737E1,2.764749527E-2,-1.746940613E-2,-2.333294749E-1
1.561434338E1,8.902549744E-3,-3.419589996E-2,-2.359896302E-1
1.562233847E1,9.838342667E-3,-1.718330383E-2,-2.116290927E-1
1.563033325E1,-7.963180542E-4,-9.589195251E-3,-1.939461827E-1
1.563832926E1,2.899932861E-2,3.150272369E-2,-1.854372621E-1
1.564635512E1,4.387688637E-2,1.083517075E-1,-1.554243565E-1
1.565435213E1,4.109597206E-2,1.633977890E-1,-1.398977041E-1
1.566234722E1,3.514409065E-2,1.894502640E-1,-1.176496744E-1
1.567034231E1,2.115225792E-2,1.793441772E-1,-1.362391710E-1
1.567833802E1,9.055376053E-3,1.547536850E-1,-1.427110434E-1
1.568633434E1,1.085829735E-2,1.444234848E-1,-1.226519346E-1
1.569432942E1,1.956391335E-2,1.435670853E-1,-9.557807446E-2
1.570235497E1,3.316688538E-2,1.187620163E-1,-5.920040607E-2
1.571035006E1,5.895590782E-2,1.059226990E-1,-3.287637234E-2
1.571834661E1,1.015789509E-1,9.542655945E-2,-1.431083679E-2
1.572634301E1,9.172916412E-2,9.448909760E-2,3.684282303E-3
1.573433864E1,7.727789879E-2,8.157920837E-2,-3.074407578E-4
1.574233411E1,7.261633873E-2,8.543109894E-2,2.878355980E-2
1.575032943E1,5.141425133E-2,7.252597809E-2,3.584933281E-2
1.575835568E1,6.402564049E-2,5.727195740E-2,1.631462574E-2
1.576635107E1,4.098272324E-2,5.164432526E-2,2.056002617E-2
1.577434647E1,4.437732697E-2,5.799961090E-2,4.142796993E-2
1.579033749E1,2.033782005E-2,2.290153503E-2,6.405019760E-2
1.579833320E1,-1.674437523E-2,1.254272461E-2,8.722412586E-2
1.580632859E1,3.548145294E-3,-3.135108948E-2,9.133327007E-2
1.581435568E1,-2.180695534E-2,-2.022552490E-2,8.584690094E-2
1.582235077E1,-4.257202148E-3,-4.029083252E-2,9.463167191E-2
1.583034686E1,1.077413559E-3,-5.324554443E-2,8.420383930E-2
1.583834226E1,-5.612611771E-3,-4.468345642E-2,8.802843094E-2
1.584633727E1,-2.906322479E-4,-5.050945282E-2,9.396362305E-2
1.585433336E1,-1.896619797E-3,-4.675579071E-2,1.280307770E-1
1.586232899E1,-3.893947601E-2,-5.253696442E-2,1.397726536E-1
1.587035431E1,-3.463816643E-2,-7.259845734E-2,1.435310841E-1
1.587835055E1,-1.330995560E-2,-8.065128326E-2,1.182494164E-1
1.588634625E1,-5.166220665E-2,-6.950569153E-2,1.001045704E-1
