"Time (s)","Gyroscope x (rad/s)","Gyroscope y (rad/s)","Gyroscope z (rad/s)"
7.923846000E-3,2.382374369E-2,-9.590584040E-2,-1.221730467E-2
1.002969200E-2,2.382374369E-2,-9.590584040E-2,-1.221730467E-2
1.201276900E-2,2.382374369E-2,-9.590584040E-2,-1.221730467E-2
1.402753800E-2,2.382374369E-2,-9.590584040E-2,-1.221730467E-2
1.601215400E-2,2.382374369E-2,-9.590584040E-2,-1.221730467E-2
1.802507800E-2,2.382374369E-2,-9.590584040E-2,-1.221730467E-2
2.000900100E-2,2.382374369E-2,-9.590584040E-2,-1.221730467E-2
2.202284700E-2,2.382374369E-2,-9.590584040E-2,-1.221730467E-2
2.400661600E-2,2.382374369E-2,-9.590584040E-2,-1.221730467E-2
2.602077000E-2,2.382374369E-2,-9.590584040E-2,-1.221730467E-2
2.800469400E-2,2.382374369E-2,-9.590584040E-2,-1.221730467E-2
3.001830900E-2,2.382374369E-2,-9.590584040E-2,-1.221730467E-2
3.200254000E-2,2.382374369E-2,-9.590584040E-2,-1.221730467E-2
3.401646300E-2,2.382374369E-2,-9.590584040E-2,-1.221730467E-2
3.603184800E-2,2.382374369E-2,-9.590584040E-2,-1.221730467E-2
3.801461700E-2,2.382374369E-2,-9.590584040E-2,-1.221730467E-2
4.002784900E-2,2.382374369E-2,-9.590584040E-2,-1.221730467E-2
4.201154100E-2,2.382374369E-2,-9.590584040E-2,-1.221730467E-2
4.402600300E-2,2.382374369E-2,-9.590584040E-2,-1.221730467E-2
4.600969500E-2,2.382374369E-2,-9.590584040E-2,-1.221730467E-2
4.802346400E-2,2.382374369E-2,-9.590584040E-2,-1.221730467E-2
5.000754100E-2,2.382374369E-2,-9.590584040E-2,-1.221730467E-2
5.202192700E-2,2.382374369E-2,-9.590584040E-2,-1.221730467E-2
5.400569600E-2,2.382374369E-2,-9.590584040E-2,-1.221730467E-2
5.602169600E-2,2.382374369E-2,-9.590584040E-2,-1.221730467E-2
5.800223500E-2,2.382374369E-2,-9.590584040E-2,-1.221730467E-2
6.001677300E-2,2.382374369E-2,-9.590584040E-2,-1.221730467E-2
6.203177300E-2,2.382374369E-2,-9.590584040E-2,-1.221730467E-2
6.401515900E-2,2.382374369E-2,-9.590584040E-2,-1.221730467E-2
6.602846600E-2,2.382374369E-2,-9.590584040E-2,-1.221730467E-2
6.801246600E-2,2.382374369E-2,-9.590584040E-2,-1.221730467E-2
7.002692800E-2,2.382374369E-2,-9.590584040E-2,-1.221730467E-2
7.201123600E-2,-9.773843922E-3,4.581489414E-2,1.099557430E-2
7.402569700E-2,-1.221730467E-2,4.703662544E-2,1.099557430E-2
7.600992900E-2,-1.466076635E-2,4.948008433E-2,9.773843922E-3
7.802262100E-2,-1.343903504E-2,5.131268129E-2,9.162978269E-3
8.000623700E-2,-1.466076635E-2,5.131268129E-2,9.162978269E-3
8.201985200E-2,-1.771509275E-2,5.131268129E-2,9.162978269E-3
8.400377500E-2,-2.076941915E-2,5.253441259E-2,7.941247895E-3
8.601854400E-2,-2.015855350E-2,5.192354694E-2,9.773843922E-3
8.800162200E-2,-2.260201424E-2,4.948008433E-2,6.108652335E-3
9.001577600E-2,-2.382374369E-2,4.581489414E-2,6.108652335E-3
9.202631500E-2,-2.687807009E-2,4.153883830E-2,5.497787148E-3
9.401331500E-2,-3.115412779E-2,3.848451003E-2,3.665191587E-3
9.602931500E-2,-3.054326214E-2,3.787364438E-2,3.054326167E-3
9.801216100E-2,-3.359758854E-2,3.237585723E-2,4.886921961E-3
1.000260080E-1,-3.726277873E-2,2.993239649E-2,1.832595794E-3
1.020090080E-1,-4.031710699E-2,2.382374369E-2,6.108652451E-4
1.040234690E-1,-3.970624134E-2,1.832595654E-2,-6.108652451E-4
1.060075460E-1,-4.276056588E-2,1.282817032E-2,-2.443460980E-3
1.080210850E-1,-4.520402849E-2,1.038470957E-2,-2.443460980E-3
1.100047000E-1,-4.764748737E-2,3.665191587E-3,-6.108652335E-3
1.120195470E-1,-4.825835302E-2,-3.665191587E-3,-6.719517522E-3
1.140025470E-1,-4.703662544E-2,-6.719517522E-3,-9.773843922E-3
1.160176240E-1,-5.253441259E-2,-1.099557430E-2,-9.773843922E-3
1.180013940E-1,-5.253441259E-2,-1.343903504E-2,-9.773843922E-3
1.200143170E-1,-5.131268129E-2,-1.710422710E-2,-1.038470957E-2
1.220290100E-1,-5.192354694E-2,-2.199114859E-2,-1.038470957E-2
1.240130100E-1,-5.253441259E-2,-2.382374369E-2,-1.099557430E-2
1.260268560E-1,-5.253441259E-2,-2.809980139E-2,-1.404990070E-2
1.280097020E-1,-5.070181563E-2,-3.481931984E-2,-1.221730467E-2
1.300247790E-1,-5.192354694E-2,-3.604105115E-2,-1.099557430E-2
1.320081640E-1,-4.948008433E-2,-3.970624134E-2,-1.527163107E-2
1.340217030E-1,-5.009094998E-2,-4.886921868E-2,-1.282817032E-2
1.360043960E-1,-5.009094998E-2,-5.131268129E-2,-1.282817032E-2
1.380164720E-1,-5.070181563E-2,-5.253441259E-2,-1.160643995E-2
1.400318570E-1,-4.825835302E-2,-5.436700583E-2,-1.343903504E-2
1.420182420E-1,-4.948008433E-2,-5.619960278E-2,-1.343903504E-2
1.440017030E-1,-4.703662544E-2,-5.742133409E-2,-1.160643995E-2
1.460157810E-1,-4.948008433E-2,-5.803219974E-2,-1.466076635E-2
1.480293970E-1,-4.581489414E-2,-6.414084882E-2,-1.221730467E-2
1.500136270E-1,-4.459316283E-2,-6.841690838E-2,-1.466076635E-2
1.520284740E-1,-4.276056588E-2,-7.024950534E-2,-1.221730467E-2
1.540109350E-1,-4.276056588E-2,-7.391469181E-2,-1.588249579E-2
1.560257040E-1,-3.909537569E-2,-7.513642311E-2,-1.527163107E-2
1.580087820E-1,-4.092797264E-2,-7.574728876E-2,-1.710422710E-2
1.600228590E-1,-4.092797264E-2,-7.819075137E-2,-1.771509275E-2
1.620072440E-1,-3.726277873E-2,-8.002334833E-2,-1.649336144E-2
1.640207820E-1,-3.848451003E-2,-8.002334833E-2,-1.954768784E-2
1.660053210E-1,-3.848451003E-2,-8.002334833E-2,-1.771509275E-2
1.680189360E-1,-3.665191308E-2,-8.429940045E-2,-1.954768784E-2
1.700025520E-1,-3.543018550E-2,-8.429940045E-2,-2.015855350E-2
1.720158600E-1,-3.481931984E-2,-8.796459436E-2,-2.199114859E-2
1.740305520E-1,-3.481931984E-2,-9.040805697E-2,-2.199114859E-2
1.760149370E-1,-3.604105115E-2,-9.040805697E-2,-2.260201424E-2
1.780290140E-1,-3.237585723E-2,-9.529497474E-2,-1.893682219E-2
1.800121680E-1,-3.420845419E-2,-9.773843735E-2,-1.832595654E-2
1.820260150E-1,-3.298672289E-2,-9.834930301E-2,-2.076941915E-2
1.840103230E-1,-3.176499158E-2,-1.020144969E-1,-2.076941915E-2
1.860247840E-1,-3.054326214E-2,-1.032362282E-1,-2.199114859E-2
1.880075540E-1,-3.115412779E-2,-1.081231460E-1,-2.260201424E-2
1.900220150E-1,-3.176499158E-2,-1.117883399E-1,-2.504547499E-2
1.920065540E-1,-3.176499158E-2,-1.130100712E-1,-2.138028294E-2
1.940207080E-1,-3.298672289E-2,-1.191187203E-1,-2.504547499E-2
1.960044780E-1,-3.054326214E-2,-1.240056455E-1,-2.626720630E-2
1.980185550E-1,-3.054326214E-2,-1.258382350E-1,-2.504547499E-2
2.000010930E-1,-3.115412779E-2,-1.307251602E-1,-2.565634064E-2
2.020149390E-1,-3.176499158E-2,-1.350012124E-1,-2.565634064E-2
2.040305550E-1,-3.481931984E-2,-1.337794960E-1,-2.748893574E-2
2.060130170E-1,-3.359758854E-2,-1.331686229E-1,-2.809980139E-2
2.080275560E-1,-3.298672289E-2,-1.356120855E-1,-2.687807009E-2
2.100111710E-1,-3.298672289E-2,-1.362229437E-1,-2.626720630E-2
2.120250170E-1,-3.420845419E-2,-1.374446750E-1,-2.565634064E-2
2.140094020E-1,-3.604105115E-2,-1.350012124E-1,-2.504547499E-2
2.160254020E-1,-3.604105115E-2,-1.362229437E-1,-2.443460934E-2
2.180060180E-1,-3.543018550E-2,-1.362229437E-1,-2.382374369E-2
2.200214030E-1,-3.665191308E-2,-1.356120855E-1,-2.321287990E-2
2.220047870E-1,-3.909537569E-2,-1.343903542E-1,-2.565634064E-2
2.240186340E-1,-3.909537569E-2,-1.350012124E-1,-2.199114859E-2
2.260025570E-1,-4.092797264E-2,-1.356120855E-1,-2.138028294E-2
2.280160950E-1,-4.031710699E-2,-1.350012124E-1,-2.504547499E-2
2.300308650E-1,-4.092797264E-2,-1.313360333E-1,-2.321287990E-2
2.320151730E-1,-4.214970022E-2,-1.301143020E-1,-2.382374369E-2
2.340287110E-1,-4.337143153E-2,-1.295034289E-1,-2.260201424E-2
2.360124810E-1,-4.520402849E-2,-1.252273768E-1,-2.504547499E-2
2.380265580E-1,-4.520402849E-2,-1.215621829E-1,-2.321287990E-2
2.400102500E-1,-4.337143153E-2,-1.197295859E-1,-2.443460934E-2
2.420240970E-1,-4.581489414E-2,-1.166752651E-1,-2.382374369E-2
2.440078660E-1,-4.703662544E-2,-1.148426682E-1,-2.565634064E-2
2.460217130E-1,-4.703662544E-2,-1.111774743E-1,-2.199114859E-2
2.480054050E-1,-4.825835302E-2,-1.069014147E-1,-2.321287990E-2
2.500200970E-1,-4.948008433E-2,-1.075122803E-1,-2.443460934E-2
2.520025590E-1,-4.886921868E-2,-1.026253626E-1,-2.260201424E-2
2.540167140E-1,-4.764748737E-2,-1.007927656E-1,-2.382374369E-2
2.560330210E-1,-4.948008433E-2,-9.957103431E-2,-2.260201424E-2
2.580149440E-1,-5.009094998E-2,-9.651670605E-2,-2.260201424E-2
2.600296370E-1,-5.070181563E-2,-9.407325089E-2,-2.382374369E-2
2.620130980E-1,-4.886921868E-2,-9.346238524E-2,-2.138028294E-2
2.640272530E-1,-5.009094998E-2,-9.224065393E-2,-2.382374369E-2
2.660114840E-1,-4.886921868E-2,-9.162978828E-2,-2.138028294E-2
2.680254070E-1,-4.764748737E-2,-9.040805697E-2,-2.076941915E-2
2.700090220E-1,-4.764748737E-2,-8.796459436E-2,-2.076941915E-2
2.720232530E-1,-4.825835302E-2,-8.857546002E-2,-2.015855350E-2
2.740065610E-1,-4.764748737E-2,-8.429940045E-2,-2.321287990E-2
2.760217160E-1,-4.764748737E-2,-8.491026610E-2,-2.076941915E-2
2.780044850E-1,-4.642575979E-2,-8.674286306E-2,-2.138028294E-2
2.800186390E-1,-4.886921868E-2,-8.491026610E-2,-2.138028294E-2
2.820014080E-1,-4.886921868E-2,-8.368854225E-2,-2.260201424E-2
2.840164080E-1,-5.009094998E-2,-8.613199741E-2,-2.260201424E-2
2.860300230E-1,-5.009094998E-2,-8.674286306E-2,-2.443460934E-2
2.880140240E-1,-5.070181563E-2,-8.613199741E-2,-2.565634064E-2
2.900284860E-1,-5.009094998E-2,-8.735372871E-2,-2.626720630E-2
2.920115630E-1,-4.825835302E-2,-9.162978828E-2,-2.443460934E-2
2.940263320E-1,-4.948008433E-2,-9.224065393E-2,-2.626720630E-2
2.960121010E-1,-4.581489414E-2,-9.224065393E-2,-2.504547499E-2
2.980231780E-1,-4.520402849E-2,-9.468411654E-2,-2.565634064E-2
3.000081020E-1,-4.459316283E-2,-9.224065393E-2,-2.626720630E-2
3.020216410E-1,-4.214970022E-2,-9.285151958E-2,-2.687807009E-2
3.040047950E-1,-3.726277873E-2,-9.285151958E-2,-2.443460934E-2
3.060201020E-1,-3.787364438E-2,-9.285151958E-2,-2.382374369E-2
3.080031790E-1,-3.604105115E-2,-9.285151958E-2,-2.260201424E-2
3.100167950E-1,-3.543018550E-2,-9.101892263E-2,-2.321287990E-2
3.120020260E-1,-3.420845419E-2,-9.224065393E-2,-2.199114859E-2
3.140155650E-1,-3.359758854E-2,-9.162978828E-2,-2.199114859E-2
3.160297190E-1,-3.237585723E-2,-9.101892263E-2,-2.138028294E-2
3.180127190E-1,-3.054326214E-2,-9.040805697E-2,-1.771509275E-2
3.200266420E-1,-2.809980139E-2,-9.101892263E-2,-2.015855350E-2
3.220109490E-1,-2.687807009E-2,-9.101892263E-2,-1.954768784E-2
3.240247970E-1,-2.687807009E-2,-8.857546002E-2,-1.832595654E-2
3.260081810E-1,-2.504547499E-2,-8.918632567E-2,-1.893682219E-2
3.280232580E-1,-2.321287990E-2,-8.674286306E-2,-1.710422710E-2
3.300065660E-1,-2.443460934E-2,-8.674286306E-2,-1.771509275E-2
3.320171040E-1,-2.199114859E-2,-8.857546002E-2,-1.771509275E-2
3.340032580E-1,-2.015855350E-2,-9.101892263E-2,-1.893682219E-2
3.360195670E-1,-2.138028294E-2,-8.857546002E-2,-1.771509275E-2
3.380022590E-1,-1.832595654E-2,-8.979719132E-2,-2.076941915E-2
3.400164900E-1,-2.015855350E-2,-9.040805697E-2,-1.832595654E-2
3.420311820E-1,-2.015855350E-2,-9.040805697E-2,-2.076941915E-2
3.440140280E-1,-1.832595654E-2,-9.162978828E-2,-2.076941915E-2
3.460274900E-1,-2.076941915E-2,-9.346238524E-2,-1.954768784E-2
3.480124140E-1,-1.954768784E-2,-9.407325089E-2,-2.015855350E-2
3.500257220E-1,-2.076941915E-2,-9.346238524E-2,-2.076941915E-2
3.520108760E-1,-2.015855350E-2,-9.407325089E-2,-2.076941915E-2
3.540237990E-1,-2.076941915E-2,-9.590584040E-2,-1.832595654E-2
3.560081060E-1,-2.015855350E-2,-9.773843735E-2,-1.954768784E-2
3.580217220E-1,-1.954768784E-2,-1.007927656E-1,-2.199114859E-2
3.600050300E-1,-2.260201424E-2,-9.957103431E-2,-2.138028294E-2
3.620191840E-1,-2.138028294E-2,-1.020144969E-1,-2.015855350E-2
3.640026460E-1,-2.138028294E-2,-1.026253626E-1,-2.199114859E-2
3.660173380E-1,-2.260201424E-2,-1.032362282E-1,-2.260201424E-2
3.680007230E-1,-2.565634064E-2,-1.032362282E-1,-2.260201424E-2
3.700145690E-1,-2.565634064E-2,-1.038470939E-1,-2.260201424E-2
3.720288010E-1,-2.687807009E-2,-1.093448773E-1,-2.443460934E-2
3.740121080E-1,-2.687807009E-2,-1.111774743E-1,-2.138028294E-2
3.760251080E-1,-2.687807009E-2,-1.111774743E-1,-2.138028294E-2
3.780097240E-1,-3.115412779E-2,-1.136209369E-1,-2.260201424E-2
3.800253390E-1,-3.237585723E-2,-1.142318025E-1,-2.504547499E-2
3.820078780E-1,-3.420845419E-2,-1.142318025E-1,-2.504547499E-2
3.840220330E-1,-3.359758854E-2,-1.166752651E-1,-2.504547499E-2
3.860057250E-1,-3.420845419E-2,-1.166752651E-1,-2.382374369E-2
3.880210330E-1,-3.726277873E-2,-1.160643995E-1,-2.321287990E-2
3.900041860E-1,-3.665191308E-2,-1.142318025E-1,-2.504547499E-2
3.920183400E-1,-3.726277873E-2,-1.166752651E-1,-2.199114859E-2
3.940022630E-1,-4.153883830E-2,-1.154535338E-1,-2.260201424E-2
3.960161870E-1,-4.153883830E-2,-1.166752651E-1,-2.199114859E-2
3.980299570E-1,-4.214970022E-2,-1.191187203E-1,-2.199114859E-2
4.000140340E-1,-4.153883830E-2,-1.209513173E-1,-2.015855350E-2
4.020274950E-1,-4.337143153E-2,-1.191187203E-1,-1.954768784E-2
4.040106490E-1,-4.520402849E-2,-1.191187203E-1,-1.954768784E-2
4.060256500E-1,-4.459316283E-2,-1.178969890E-1,-1.832595654E-2
4.080093420E-1,-4.642575979E-2,-1.197295859E-1,-1.954768784E-2
4.100232650E-1,-4.703662544E-2,-1.185078546E-1,-1.954768784E-2
4.120060350E-1,-4.764748737E-2,-1.160643995E-1,-2.015855350E-2
4.140204960E-1,-4.459316283E-2,-1.221730486E-1,-1.954768784E-2
4.160068810E-1,-4.642575979E-2,-1.172861308E-1,-2.015855350E-2
4.180194970E-1,-4.825835302E-2,-1.185078546E-1,-1.893682219E-2
4.200025740E-1,-4.520402849E-2,-1.191187203E-1,-1.954768784E-2
4.220170360E-1,-4.703662544E-2,-1.185078546E-1,-1.893682219E-2
4.240004200E-1,-4.520402849E-2,-1.172861308E-1,-2.199114859E-2
4.260142660E-1,-4.520402849E-2,-1.185078546E-1,-2.138028294E-2
4.280290360E-1,-4.276056588E-2,-1.166752651E-1,-2.260201424E-2
4.300121140E-1,-4.214970022E-2,-1.166752651E-1,-1.954768784E-2
4.320269600E-1,-4.459316283E-2,-1.111774743E-1,-1.954768784E-2
4.340105750E-1,-4.153883830E-2,-1.111774743E-1,-1.954768784E-2
4.360253440E-1,-4.031710699E-2,-1.117883399E-1,-2.015855350E-2
4.380075750E-1,-4.031710699E-2,-1.087340117E-1,-1.649336144E-2
4.400220370E-1,-3.848451003E-2,-1.075122803E-1,-1.649336144E-2
4.420062680E-1,-3.787364438E-2,-1.032362282E-1,-1.710422710E-2
4.440195760E-1,-3.481931984E-2,-1.032362282E-1,-1.710422710E-2
4.460035760E-1,-3.176499158E-2,-1.056796908E-1,-1.649336144E-2
4.480177300E-1,-3.237585723E-2,-1.044579595E-1,-1.527163107E-2
4.500017300E-1,-2.809980139E-2,-1.014036313E-1,-1.466076635E-2
4.520146530E-1,-2.809980139E-2,-1.001819000E-1,-1.527163107E-2
4.540302690E-1,-2.626720630E-2,-9.896016866E-2,-1.404990070E-2
4.560152690E-1,-2.382374369E-2,-9.712757170E-2,-1.221730467E-2
4.580265770E-1,-2.382374369E-2,-9.590584040E-2,-1.099557430E-2
4.600111930E-1,-2.321287990E-2,-9.651670605E-2,-9.773843922E-3
4.620251160E-1,-2.199114859E-2,-9.468411654E-2,-9.773843922E-3
4.640097310E-1,-2.321287990E-2,-9.224065393E-2,-1.099557430E-2
4.660226550E-1,-2.015855350E-2,-9.285151958E-2,-7.330383174E-3
4.680062700E-1,-2.321287990E-2,-9.101892263E-2,-9.162978269E-3
4.700207320E-1,-2.015855350E-2,-9.529497474E-2,-6.719517522E-3
4.720051170E-1,-2.015855350E-2,-9.346238524E-2,-9.162978269E-3
4.740185780E-1,-2.138028294E-2,-9.407325089E-2,-8.552113548E-3
4.760029630E-1,-2.076941915E-2,-9.285151958E-2,-8.552113548E-3
4.780168100E-1,-2.076941915E-2,-9.285151958E-2,-9.162978269E-3
4.800308870E-1,-2.443460934E-2,-9.040805697E-2,-9.162978269E-3
4.820148870E-1,-2.382374369E-2,-8.674286306E-2,-1.221730467E-2
4.840284250E-1,-2.321287990E-2,-8.552113175E-2,-1.282817032E-2
4.860121180E-1,-2.626720630E-2,-8.185594529E-2,-1.221730467E-2
4.880265790E-1,-2.565634064E-2,-7.819075137E-2,-1.466076635E-2
4.900097340E-1,-2.626720630E-2,-7.513642311E-2,-1.221730467E-2
4.920223490E-1,-2.748893574E-2,-7.269296050E-2,-1.038470957E-2
4.940075800E-1,-2.871066704E-2,-6.963863969E-2,-1.160643995E-2
4.960222730E-1,-3.054326214E-2,-6.719517708E-2,-1.466076635E-2
4.980059650E-1,-3.054326214E-2,-6.414084882E-2,-1.404990070E-2
5.000195800E-1,-3.237585723E-2,-6.414084882E-2,-1.466076635E-2
5.020031970E-1,-3.298672289E-2,-6.169738993E-2,-1.343903504E-2
5.040171200E-1,-3.420845419E-2,-5.925392732E-2,-1.343903504E-2
5.060011200E-1,-3.237585723E-2,-5.497787148E-2,-1.404990070E-2
5.080152740E-1,-3.298672289E-2,-5.314527452E-2,-1.404990070E-2
5.100297350E-1,-3.481931984E-2,-4.886921868E-2,-1.343903504E-2
5.120137350E-1,-3.420845419E-2,-4.276056588E-2,-1.160643995E-2
5.140271980E-1,-3.359758854E-2,-4.092797264E-2,-1.282817032E-2
5.160124280E-1,-3.420845419E-2,-3.481931984E-2,-1.099557430E-2
5.180254280E-1,-3.298672289E-2,-2.871066704E-2,-1.221730467E-2
5.200091210E-1,-3.237585723E-2,-2.809980139E-2,-1.160643995E-2
5.220225820E-1,-3.054326214E-2,-2.565634064E-2,-1.160643995E-2
5.240063520E-1,-3.115412779E-2,-2.076941915E-2,-1.038470957E-2
5.260208140E-1,-3.237585723E-2,-1.893682219E-2,-1.099557430E-2
5.280044290E-1,-3.054326214E-2,-1.404990070E-2,-9.162978269E-3
5.300177370E-1,-2.687807009E-2,-1.221730467E-2,-8.552113548E-3
5.320020450E-1,-2.748893574E-2,-9.162978269E-3,-7.941247895E-3
5.340164300E-1,-2.565634064E-2,-7.330383174E-3,-7.330383174E-3
5.360315830E-1,-2.443460934E-2,-4.276056774E-3,-7.330383174E-3
5.380134310E-1,-2.504547499E-2,-1.832595794E-3,-6.108652335E-3
5.400290460E-1,-2.260201424E-2,-6.108652451E-4,-5.497787148E-3
5.420118920E-1,-2.321287990E-2,3.054326167E-3,-5.497787148E-3
5.440265840E-1,-2.076941915E-2,6.108652335E-3,-5.497787148E-3
5.460097380E-1,-2.138028294E-2,7.941247895E-3,-2.443460980E-3
5.480235840E-1,-1.954768784E-2,9.773843922E-3,-3.665191587E-3
5.500075850E-1,-1.832595654E-2,1.160643995E-2,-1.832595794E-3
5.520225850E-1,-1.832595654E-2,1.099557430E-2,1.221730490E-3
5.540056620E-1,-1.710422710E-2,1.343903504E-2,0.000000000E0
5.560202010E-1,-1.771509275E-2,1.466076635E-2,1.221730490E-3
5.580041240E-1,-1.710422710E-2,1.099557430E-2,-1.221730490E-3
5.600170480E-1,-1.771509275E-2,1.221730467E-2,6.108652451E-4
5.620315090E-1,-1.649336144E-2,1.038470957E-2,1.221730490E-3
5.640149710E-1,-1.771509275E-2,1.099557430E-2,1.221730490E-3
5.660294330E-1,-1.588249579E-2,8.552113548E-3,-6.108652451E-4
5.680131250E-1,-1.771509275E-2,7.941247895E-3,6.108652451E-4
5.700272790E-1,-1.710422710E-2,4.886921961E-3,-6.108652451E-4
5.720099720E-1,-1.588249579E-2,5.497787148E-3,2.443460980E-3
5.740238950E-1,-1.466076635E-2,2.443460980E-3,-1.221730490E-3
5.760094340E-1,-1.588249579E-2,1.832595794E-3,-2.443460980E-3
5.780229720E-1,-1.527163107E-2,6.108652451E-4,0.000000000E0
5.800063570E-1,-1.466076635E-2,6.108652451E-4,-1.221730490E-3
5.820204340E-1,-1.282817032E-2,-1.221730490E-3,0.000000000E0
5.840045120E-1,-1.343903504E-2,-2.443460980E-3,0.000000000E0
5.860177420E-1,-1.527163107E-2,-4.886921961E-3,1.221730490E-3
5.880023580E-1,-1.710422710E-2,-5.497787148E-3,6.108652451E-4
5.900158960E-1,-1.588249579E-2,-6.719517522E-3,1.832595794E-3
5.920302810E-1,-1.771509275E-2,-7.941247895E-3,1.221730490E-3
5.940143580E-1,-1.893682219E-2,-9.773843922E-3,6.108652451E-4
5.960291280E-1,-2.015855350E-2,-1.404990070E-2,6.108652451E-4
5.980118200E-1,-2.138028294E-2,-1.466076635E-2,-6.108652451E-4
6.000259740E-1,-2.199114859E-2,-1.649336144E-2,6.108652451E-4
6.020091280E-1,-2.565634064E-2,-1.893682219E-2,1.221730490E-3
6.040232820E-1,-2.687807009E-2,-1.832595654E-2,0.000000000E0
6.060068970E-1,-2.748893574E-2,-2.015855350E-2,6.108652451E-4
6.080220520E-1,-3.115412779E-2,-2.015855350E-2,-1.221730490E-3
6.100047440E-1,-3.359758854E-2,-2.076941915E-2,-6.108652451E-4
6.120185910E-1,-3.420845419E-2,-2.260201424E-2,-3.054326167E-3
6.140017440E-1,-3.909537569E-2,-2.260201424E-2,-4.886921961E-3
6.160155910E-1,-3.848451003E-2,-2.138028294E-2,-3.665191587E-3
6.180293600E-1,-3.848451003E-2,-2.138028294E-2,-3.665191587E-3
6.200148990E-1,-4.153883830E-2,-2.260201424E-2,-4.886921961E-3
6.220291300E-1,-4.153883830E-2,-2.443460934E-2,-6.108652335E-3
6.240124380E-1,-4.398229718E-2,-1.893682219E-2,-4.276056774E-3
6.260269760E-1,-4.276056588E-2,-1.832595654E-2,-4.276056774E-3
6.280103610E-1,-4.276056588E-2,-1.771509275E-2,-4.886921961E-3
6.300244380E-1,-4.337143153E-2,-1.527163107E-2,-5.497787148E-3
6.320090540E-1,-4.214970022E-2,-1.160643995E-2,-3.665191587E-3
6.340232080E-1,-4.337143153E-2,-9.162978269E-3,-4.276056774E-3
6.360072080E-1,-4.398229718E-2,-6.108652335E-3,-3.665191587E-3
6.380208230E-1,-4.276056588E-2,-4.276056774E-3,-1.221730490E-3
6.400032850E-1,-4.520402849E-2,1.221730490E-3,-1.832595794E-3
6.420183620E-1,-4.520402849E-2,3.665191587E-3,1.832595794E-3
6.440017470E-1,-4.459316283E-2,1.832595794E-3,-6.108652451E-4
6.460161320E-1,-4.703662544E-2,6.719517522E-3,3.665191587E-3
6.480300550E-1,-4.764748737E-2,7.330383174E-3,6.108652451E-4
6.500136710E-1,-4.459316283E-2,6.719517522E-3,1.221730490E-3
6.520269780E-1,-4.703662544E-2,4.886921961E-3,1.832595794E-3
6.540118240E-1,-4.581489414E-2,5.497787148E-3,1.221730490E-3
6.560266720E-1,-4.703662544E-2,7.330383174E-3,-6.108652451E-4
6.580099790E-1,-4.825835302E-2,9.773843922E-3,0.000000000E0
6.600232100E-1,-5.070181563E-2,1.160643995E-2,-3.054326167E-3
6.620069790E-1,-5.009094998E-2,9.773843922E-3,-3.665191587E-3
6.640216720E-1,-5.070181563E-2,1.038470957E-2,-3.054326167E-3
6.660047490E-1,-5.070181563E-2,1.099557430E-2,-7.330383174E-3
6.680189030E-1,-5.253441259E-2,4.276056774E-3,-5.497787148E-3
6.700026730E-1,-5.497787148E-2,2.443460980E-3,-9.162978269E-3
6.720167500E-1,-5.375614017E-2,1.832595794E-3,-8.552113548E-3
6.740315190E-1,-5.558873713E-2,1.221730490E-3,-1.221730467E-2
6.760149800E-1,-5.497787148E-2,-3.054326167E-3,-9.773843922E-3
6.780297500E-1,-5.375614017E-2,-4.276056774E-3,-1.282817032E-2
6.800122120E-1,-5.375614017E-2,-6.719517522E-3,-1.404990070E-2
6.820269810E-1,-5.314527452E-2,-1.038470957E-2,-1.466076635E-2
6.840103660E-1,-5.314527452E-2,-1.221730467E-2,-1.466076635E-2
6.860251350E-1,-5.070181563E-2,-1.893682219E-2,-1.649336144E-2
6.880081350E-1,-5.009094998E-2,-2.138028294E-2,-1.832595654E-2
6.900226740E-1,-5.009094998E-2,-2.199114859E-2,-1.954768784E-2
6.920057520E-1,-4.948008433E-2,-2.993239649E-2,-2.138028294E-2
6.940210590E-1,-5.009094998E-2,-3.176499158E-2,-2.076941915E-2
6.960053670E-1,-5.192354694E-2,-3.237585723E-2,-2.138028294E-2
6.980173670E-1,-5.131268129E-2,-3.726277873E-2,-2.626720630E-2
7.000016750E-1,-5.070181563E-2,-3.970624134E-2,-2.626720630E-2
7.020149830E-1,-5.375614017E-2,-4.520402849E-2,-2.871066704E-2
7.040299830E-1,-5.009094998E-2,-5.131268129E-2,-2.932153270E-2
7.060133680E-1,-5.192354694E-2,-5.497787148E-2,-3.176499158E-2
7.080281370E-1,-5.558873713E-2,-6.414084882E-2,-3.420845419E-2
7.100109830E-1,-5.619960278E-2,-7.330382615E-2,-3.665191308E-2
7.120266760E-1,-5.619960278E-2,-7.635815442E-2,-3.420845419E-2
7.140090610E-1,-6.108652428E-2,-8.063421398E-2,-3.481931984E-2
7.160248310E-1,-6.475171447E-2,-8.796459436E-2,-3.543018550E-2
7.180072920E-1,-6.658431143E-2,-8.979719132E-2,-3.543018550E-2
7.200207540E-1,-7.086037099E-2,-9.529497474E-2,-3.604105115E-2
7.220047540E-1,-7.696902007E-2,-1.026253626E-1,-3.604105115E-2
7.240189840E-1,-7.941248268E-2,-1.026253626E-1,-3.543018550E-2
7.260020620E-1,-8.552113175E-2,-1.087340117E-1,-3.848451003E-2
7.280164470E-1,-9.101892263E-2,-1.130100712E-1,-4.153883830E-2
7.300309090E-1,-9.468411654E-2,-1.166752651E-1,-4.092797264E-2
7.320137550E-1,-1.001819000E-1,-1.209513173E-1,-4.276056588E-2
7.340282160E-1,-1.020144969E-1,-1.246165112E-1,-4.581489414E-2
7.360130620E-1,-1.081231460E-1,-1.282816976E-1,-4.581489414E-2
7.380259860E-1,-1.160643995E-1,-1.319468915E-1,-4.886921868E-2
7.400100630E-1,-1.185078546E-1,-1.337794960E-1,-4.948008433E-2
7.420242170E-1,-1.240056455E-1,-1.380555481E-1,-5.131268129E-2
7.440078330E-1,-1.307251602E-1,-1.429424733E-1,-5.314527452E-2
7.460208330E-1,-1.319468915E-1,-1.478293836E-1,-5.558873713E-2
7.480060630E-1,-1.404990107E-1,-1.521054506E-1,-5.558873713E-2
7.500189870E-1,-1.453859210E-1,-1.588249654E-1,-5.803219974E-2
7.520038340E-1,-1.490511149E-1,-1.606575549E-1,-6.047565863E-2
7.540176800E-1,-1.576032341E-1,-1.655444801E-1,-6.108652428E-2
7.560023720E-1,-1.661553532E-1,-1.704314053E-1,-6.291911751E-2
7.580156030E-1,-1.679879427E-1,-1.728748679E-1,-6.169738993E-2
7.600296800E-1,-1.747074574E-1,-1.722639948E-1,-6.475171447E-2
7.620134500E-1,-1.838704348E-1,-1.722639948E-1,-6.719517708E-2
7.640269120E-1,-1.887573600E-1,-1.734857261E-1,-6.719517708E-2
7.660106810E-1,-1.930334121E-1,-1.728748679E-1,-6.719517708E-2
7.680250650E-1,-1.979203373E-1,-1.734857261E-1,-6.780604273E-2
7.700091420E-1,-2.009746730E-1,-1.710422635E-1,-7.208210230E-2
7.720220650E-1,-2.009746730E-1,-1.765400618E-1,-7.452555746E-2
7.740072200E-1,-2.046398520E-1,-1.740965992E-1,-7.513642311E-2
7.760220660E-1,-2.064724565E-1,-1.759291887E-1,-7.513642311E-2
7.780038360E-1,-2.034181207E-1,-1.789835095E-1,-7.635815442E-2
7.800180660E-1,-2.052507252E-1,-1.777617931E-1,-7.880161703E-2
7.820023740E-1,-2.028072625E-1,-1.771509200E-1,-7.635815442E-2
7.840158360E-1,-2.028072625E-1,-1.765400618E-1,-7.696902007E-2
7.860306060E-1,-2.040289938E-1,-1.734857261E-1,-7.269296050E-2
7.880142980E-1,-2.021963894E-1,-1.679879427E-1,-7.024950534E-2
7.900284520E-1,-2.046398520E-1,-1.612684280E-1,-6.963863969E-2
7.920122210E-1,-2.015855312E-1,-1.563815027E-1,-6.841690838E-2
7.940257600E-1,-2.028072625E-1,-1.508837193E-1,-6.658431143E-2
7.960106060E-1,-2.015855312E-1,-1.466076523E-1,-6.414084882E-2
7.980239150E-1,-2.040289938E-1,-1.441642046E-1,-6.230825558E-2
8.000072990E-1,-2.028072625E-1,-1.423316002E-1,-6.291911751E-2
8.020219920E-1,-2.034181207E-1,-1.417207420E-1,-6.414084882E-2
8.040057610E-1,-2.064724565E-1,-1.398881376E-1,-6.047565863E-2
8.060189920E-1,-2.064724565E-1,-1.380555481E-1,-6.230825558E-2
8.080038380E-1,-2.076941878E-1,-1.398881376E-1,-5.742133409E-2
8.100174540E-1,-2.076941878E-1,-1.398881376E-1,-6.291911751E-2
8.120008390E-1,-2.095267773E-1,-1.392772794E-1,-6.108652428E-2
8.140152230E-1,-2.095267773E-1,-1.411098689E-1,-6.230825558E-2
8.160303000E-1,-2.131919712E-1,-1.392772794E-1,-6.108652428E-2
8.180134540E-1,-2.125810981E-1,-1.362229437E-1,-6.169738993E-2
8.200273000E-1,-2.138028294E-1,-1.337794960E-1,-6.108652428E-2
8.220106090E-1,-2.150245607E-1,-1.307251602E-1,-6.230825558E-2
8.240251480E-1,-2.162462920E-1,-1.301143020E-1,-5.986479297E-2
8.260085320E-1,-2.144137025E-1,-1.282816976E-1,-5.925392732E-2
8.280229170E-1,-2.156354338E-1,-1.258382350E-1,-6.108652428E-2
8.300059940E-1,-2.174680233E-1,-1.233947799E-1,-6.047565863E-2
8.320205320E-1,-2.211332172E-1,-1.221730486E-1,-5.803219974E-2
8.340045330E-1,-2.235766798E-1,-1.221730486E-1,-5.681046844E-2
8.360196100E-1,-2.229658216E-1,-1.221730486E-1,-5.864306539E-2
8.380019950E-1,-2.272418737E-1,-1.166752651E-1,-5.803219974E-2
8.400158410E-1,-2.345722616E-1,-1.105666086E-1,-5.314527452E-2
8.420309950E-1,-2.364048511E-1,-1.075122803E-1,-5.375614017E-2
8.440139950E-1,-2.357939780E-1,-1.062905490E-1,-5.192354694E-2
8.460276110E-1,-2.382374406E-1,-1.050688252E-1,-4.886921868E-2
8.480119190E-1,-2.394591719E-1,-1.020144969E-1,-5.070181563E-2
8.500257650E-1,-2.388483137E-1,-9.834930301E-2,-5.070181563E-2
8.520090730E-1,-2.394591719E-1,-9.712757170E-2,-5.131268129E-2
8.540233030E-1,-2.376265824E-1,-9.346238524E-2,-5.314527452E-2
8.560057660E-1,-2.357939780E-1,-9.468411654E-2,-5.436700583E-2
8.580189970E-1,-2.302961946E-1,-9.285151958E-2,-5.681046844E-2
8.600051510E-1,-2.272418737E-1,-9.162978828E-2,-5.558873713E-2
8.620192280E-1,-2.186897546E-1,-9.101892263E-2,-5.681046844E-2
8.640026120E-1,-2.138028294E-1,-9.040805697E-2,-5.742133409E-2
8.660168430E-1,-2.052507252E-1,-8.735372871E-2,-5.619960278E-2
8.680316130E-1,-1.997529417E-1,-8.491026610E-2,-5.742133409E-2
8.700149210E-1,-1.936442852E-1,-8.063421398E-2,-5.375614017E-2
8.720300750E-1,-1.881465018E-1,-7.757988572E-2,-5.436700583E-2
8.740130750E-1,-1.832595766E-1,-7.391469181E-2,-5.192354694E-2
8.760281520E-1,-1.795943826E-1,-7.330382615E-2,-4.948008433E-2
8.780106900E-1,-1.722639948E-1,-6.902777404E-2,-4.642575979E-2
8.800238450E-1,-1.698205322E-1,-6.780604273E-2,-4.764748737E-2
8.820082300E-1,-1.673770845E-1,-6.475171447E-2,-4.642575979E-2
8.840223830E-1,-1.612684280E-1,-6.414084882E-2,-4.398229718E-2
8.860063830E-1,-1.600466967E-1,-6.108652428E-2,-4.398229718E-2
8.880205370E-1,-1.557706445E-1,-6.291911751E-2,-4.398229718E-2
8.900038450E-1,-1.527163088E-1,-6.169738993E-2,-4.764748737E-2
8.920174610E-1,-1.496619880E-1,-6.291911751E-2,-4.886921868E-2
8.940020000E-1,-1.484402567E-1,-6.352998316E-2,-5.070181563E-2
8.960167690E-1,-1.429424733E-1,-6.536258012E-2,-5.009094998E-2
8.980303080E-1,-1.429424733E-1,-6.414084882E-2,-5.558873713E-2
9.000140000E-1,-1.386664063E-1,-6.841690838E-2,-5.558873713E-2
9.020281540E-1,-1.362229437E-1,-7.086037099E-2,-5.375614017E-2
9.040116160E-1,-1.343903542E-1,-7.513642311E-2,-5.558873713E-2
9.060256930E-1,-1.325577646E-1,-8.002334833E-2,-5.009094998E-2
9.080090780E-1,-1.313360333E-1,-8.368854225E-2,-4.948008433E-2
9.100235390E-1,-1.301143020E-1,-8.429940045E-2,-5.070181563E-2
9.120075390E-1,-1.301143020E-1,-8.979719132E-2,-4.703662544E-2
9.140220010E-1,-1.270599663E-1,-9.346238524E-2,-4.214970022E-2
9.160057710E-1,-1.288925707E-1,-9.529497474E-2,-4.337143153E-2
9.180193100E-1,-1.313360333E-1,-9.896016866E-2,-4.153883830E-2
9.200033100E-1,-1.313360333E-1,-1.056796908E-1,-4.031710699E-2
9.220170790E-1,-1.307251602E-1,-1.093448773E-1,-4.031710699E-2
9.240008480E-1,-1.288925707E-1,-1.172861308E-1,-3.909537569E-2
9.260146940E-1,-1.295034289E-1,-1.221730486E-1,-4.031710699E-2
9.280281570E-1,-1.307251602E-1,-1.276708394E-1,-3.848451003E-2
9.300121570E-1,-1.307251602E-1,-1.368338168E-1,-4.214970022E-2
9.320263880E-1,-1.307251602E-1,-1.386664063E-1,-4.337143153E-2
9.340109260E-1,-1.270599663E-1,-1.502728462E-1,-4.581489414E-2
9.360263880E-1,-1.252273768E-1,-1.569923609E-1,-4.825835302E-2
9.380081570E-1,-1.233947799E-1,-1.643227488E-1,-4.948008433E-2
9.400229270E-1,-1.191187203E-1,-1.740965992E-1,-5.314527452E-2
9.420063120E-1,-1.178969890E-1,-1.795943826E-1,-5.497787148E-2
9.440199270E-1,-1.148426682E-1,-1.814269722E-1,-5.558873713E-2
9.460042350E-1,-1.130100712E-1,-1.875356287E-1,-5.742133409E-2
9.480177730E-1,-1.105666086E-1,-1.881465018E-1,-5.925392732E-2
9.500014650E-1,-1.105666086E-1,-1.924225539E-1,-5.864306539E-2
9.520159280E-1,-1.093448773E-1,-1.960877478E-1,-6.169738993E-2
9.540303130E-1,-1.099557430E-1,-1.942551434E-1,-6.352998316E-2
9.560143130E-1,-1.105666086E-1,-1.942551434E-1,-6.108652428E-2
9.580281590E-1,-1.111774743E-1,-1.948660165E-1,-6.230825558E-2
9.600115430E-1,-1.130100712E-1,-1.936442852E-1,-6.169738993E-2
9.620253900E-1,-1.154535338E-1,-1.924225539E-1,-6.108652428E-2
9.640090830E-1,-1.172861308E-1,-1.924225539E-1,-6.230825558E-2
9.660230060E-1,-1.178969890E-1,-1.918116808E-1,-6.291911751E-2
9.680070060E-1,-1.185078546E-1,-1.905899495E-1,-6.291911751E-2
9.700214680E-1,-1.233947799E-1,-1.875356287E-1,-6.291911751E-2
9.720038520E-1,-1.258382350E-1,-1.844813079E-1,-6.291911751E-2
9.740180060E-1,-1.246165112E-1,-1.783726513E-1,-6.414084882E-2
9.760038530E-1,-1.252273768E-1,-1.728748679E-1,-6.414084882E-2
9.780165450E-1,-1.246165112E-1,-1.698205322E-1,-6.597344577E-2
9.800315450E-1,-1.258382350E-1,-1.637118906E-1,-6.658431143E-2
9.820143150E-1,-1.246165112E-1,-1.576032341E-1,-6.719517708E-2
9.840287760E-1,-1.252273768E-1,-1.551597714E-1,-7.024950534E-2
9.860125460E-1,-1.227839142E-1,-1.490511149E-1,-6.963863969E-2
9.880266230E-1,-1.221730486E-1,-1.441642046E-1,-6.841690838E-2
9.900100080E-1,-1.215621829E-1,-1.423316002E-1,-6.963863969E-2
9.920253930E-1,-1.185078546E-1,-1.374446750E-1,-6.841690838E-2
9.940076230E-1,-1.191187203E-1,-1.362229437E-1,-6.963863969E-2
9.960230080E-1,-1.136209369E-1,-1.307251602E-1,-6.902777404E-2
9.980057780E-1,-1.142318025E-1,-1.270599663E-1,-6.902777404E-2
1.000020778E0,-1.142318025E-1,-1.258382350E-1,-7.086037099E-2
1.002003548E0,-1.093448773E-1,-1.227839142E-1,-6.841690838E-2
1.004017701E0,-1.081231460E-1,-1.233947799E-1,-6.963863969E-2
1.006001471E0,-1.056796908E-1,-1.240056455E-1,-6.902777404E-2
1.008015317E0,-1.075122803E-1,-1.246165112E-1,-6.780604273E-2
1.010029702E0,-1.062905490E-1,-1.227839142E-1,-7.024950534E-2
1.012012779E0,-1.087340117E-1,-1.227839142E-1,-6.902777404E-2
1.014027933E0,-1.117883399E-1,-1.233947799E-1,-6.658431143E-2
1.016013164E0,-1.099557430E-1,-1.270599663E-1,-7.086037099E-2
1.018024856E0,-1.154535338E-1,-1.295034289E-1,-7.024950534E-2
1.020009395E0,-1.172861308E-1,-1.313360333E-1,-6.902777404E-2
1.022022934E0,-1.197295859E-1,-1.313360333E-1,-6.841690838E-2
1.024006627E0,-1.246165112E-1,-1.337794960E-1,-6.963863969E-2
1.026020780E0,-1.295034289E-1,-1.368338168E-1,-7.147123665E-2
1.028004242E0,-1.288925707E-1,-1.404990107E-1,-7.208210230E-2
1.030018396E0,-1.331686229E-1,-1.490511149E-1,-7.208210230E-2
1.032002627E0,-1.343903542E-1,-1.563815027E-1,-7.208210230E-2
1.034016243E0,-1.368338168E-1,-1.606575549E-1,-7.452555746E-2
1.036030935E0,-1.411098689E-1,-1.740965992E-1,-7.635815442E-2
1.038014704E0,-1.423316002E-1,-1.838704348E-1,-7.513642311E-2
1.040028551E0,-1.447750628E-1,-1.875356287E-1,-7.696902007E-2
1.042011551E0,-1.429424733E-1,-2.009746730E-1,-7.696902007E-2
1.044026397E0,-1.447750628E-1,-2.107485086E-1,-8.063421398E-2
1.046010321E0,-1.441642046E-1,-2.174680233E-1,-8.124507964E-2
1.048023859E0,-1.441642046E-1,-2.290744632E-1,-8.307767659E-2
1.050007629E0,-1.472185254E-1,-2.388483137E-1,-8.307767659E-2
1.052018398E0,-1.453859210E-1,-2.474004179E-1,-8.613199741E-2
1.054004552E0,-1.429424733E-1,-2.583959997E-1,-8.857546002E-2
1.056021475E0,-1.411098689E-1,-2.693915665E-1,-8.857546002E-2
1.058004245E0,-1.423316002E-1,-2.755002379E-1,-9.101892263E-2
1.060017168E0,-1.386664063E-1,-2.834414840E-1,-9.468411654E-2
1.062000783E0,-1.380555481E-1,-2.895501256E-1,-9.346238524E-2
1.064015014E0,-1.331686229E-1,-2.987131178E-1,-9.834930301E-2
1.066029707E0,-1.343903542E-1,-3.017674387E-1,-1.026253626E-1
1.068013091E0,-1.319468915E-1,-3.054326177E-1,-1.026253626E-1
1.070026938E0,-1.313360333E-1,-3.097086847E-1,-1.056796908E-1
1.072011246E0,-1.307251602E-1,-3.103195429E-1,-1.093448773E-1
1.074025169E0,-1.270599663E-1,-3.109304011E-1,-1.105666086E-1
1.076009400E0,-1.295034289E-1,-3.072652221E-1,-1.142318025E-1
1.078022631E0,-1.276708394E-1,-3.036000133E-1,-1.178969890E-1
1.080007554E0,-1.240056455E-1,-2.993239760E-1,-1.178969890E-1
1.082020478E0,-1.221730486E-1,-2.926044464E-1,-1.209513173E-1
1.084004478E0,-1.215621829E-1,-2.809980214E-1,-1.227839142E-1
1.086018324E0,-1.203404516E-1,-2.755002379E-1,-1.252273768E-1
1.088002016E0,-1.166752651E-1,-2.687807083E-1,-1.258382350E-1
1.090015939E0,-1.117883399E-1,-2.559525371E-1,-1.301143020E-1
1.092030632E0,-1.093448773E-1,-2.504547536E-1,-1.331686229E-1
1.094013710E0,-1.014036313E-1,-2.290744632E-1,-1.392772794E-1
1.096026402E0,-1.014036313E-1,-2.290744632E-1,-1.392772794E-1
1.098011556E0,-9.834930301E-2,-2.266310006E-1,-1.411098689E-1
1.100026633E0,-9.651670605E-2,-2.162462920E-1,-1.417207420E-1
1.102009479E0,-9.407325089E-2,-2.083050460E-1,-1.417207420E-1
1.104023325E0,-8.857546002E-2,-1.966986060E-1,-1.459967941E-1
1.106007864E0,-8.918632567E-2,-1.838704348E-1,-1.484402567E-1
1.108021788E0,-8.674286306E-2,-1.783726513E-1,-1.478293836E-1
1.110005172E0,-8.613199741E-2,-1.685988009E-1,-1.490511149E-1
1.112019864E0,-8.552113175E-2,-1.551597714E-1,-1.545489132E-1
1.114002711E0,-8.307767659E-2,-1.508837193E-1,-1.539380401E-1
1.116017711E0,-8.063421398E-2,-1.404990107E-1,-1.539380401E-1
1.118000789E0,-8.246681094E-2,-1.313360333E-1,-1.606575549E-1
1.120015250E0,-7.941248268E-2,-1.288925707E-1,-1.624901593E-1
1.122028789E0,-8.124507964E-2,-1.227839142E-1,-1.649336219E-1
1.124012481E0,-7.941248268E-2,-1.203404516E-1,-1.643227488E-1
1.126027019E0,-7.819075137E-2,-1.191187203E-1,-1.679879427E-1
1.128010942E0,-7.513642311E-2,-1.197295859E-1,-1.716531366E-1
1.130024790E0,-7.696902007E-2,-1.209513173E-1,-1.710422635E-1
1.132007636E0,-7.452555746E-2,-1.227839142E-1,-1.759291887E-1
1.134022328E0,-7.269296050E-2,-1.240056455E-1,-1.771509200E-1
1.136006943E0,-7.208210230E-2,-1.264491081E-1,-1.747074574E-1
1.138020482E0,-6.719517708E-2,-1.331686229E-1,-1.795943826E-1
1.140004791E0,-6.597344577E-2,-1.398881376E-1,-1.808161139E-1
1.142018406E0,-6.291911751E-2,-1.411098689E-1,-1.808161139E-1
1.144001714E0,-5.742133409E-2,-1.502728462E-1,-1.844813079E-1
1.146015868E0,-5.192354694E-2,-1.576032341E-1,-1.844813079E-1
1.148030329E0,-5.253441259E-2,-1.606575549E-1,-1.881465018E-1
1.150013714E0,-4.764748737E-2,-1.716531366E-1,-1.912008226E-1
1.152028869E0,-4.520402849E-2,-1.808161139E-1,-1.936442852E-1
1.154011330E0,-4.337143153E-2,-1.820378453E-1,-1.954768747E-1
1.156026407E0,-4.031710699E-2,-1.912008226E-1,-1.997529417E-1
1.158009792E0,-3.604105115E-2,-1.960877478E-1,-2.015855312E-1
1.160023869E0,-3.481931984E-2,-2.028072625E-1,-2.034181207E-1
1.162007330E0,-3.298672289E-2,-2.119702399E-1,-2.058615834E-1
1.164020793E0,-3.237585723E-2,-2.138028294E-1,-2.083050460E-1
1.166005177E0,-2.993239649E-2,-2.205223590E-1,-2.095267773E-1
1.168019254E0,-2.932153270E-2,-2.217440903E-1,-2.131919712E-1
1.170003023E0,-2.993239649E-2,-2.229658216E-1,-2.156354338E-1
1.172016562E0,-2.565634064E-2,-2.229658216E-1,-2.186897546E-1
1.174031562E0,-2.260201424E-2,-2.193006277E-1,-2.223549485E-1
1.176016486E0,-2.138028294E-2,-2.168571651E-1,-2.254092693E-1
1.178027640E0,-1.710422710E-2,-2.107485086E-1,-2.309070677E-1
1.180013101E0,-1.038470957E-2,-2.046398520E-1,-2.327396572E-1
1.182026025E0,-8.552113548E-3,-2.003637999E-1,-2.376265824E-1
1.184010640E0,-1.832595794E-3,-1.954768747E-1,-2.406809032E-1
1.186023948E0,2.443460980E-3,-1.887573600E-1,-2.437352389E-1
1.188007949E0,6.719517522E-3,-1.844813079E-1,-2.431243658E-1
1.190022641E0,1.099557430E-2,-1.783726513E-1,-2.467895597E-1
1.192005795E0,1.404990070E-2,-1.747074574E-1,-2.480112910E-1
1.194019872E0,1.954768784E-2,-1.637118906E-1,-2.474004179E-1
1.196004487E0,2.260201424E-2,-1.514945775E-1,-2.528982162E-1
1.198018102E0,2.443460934E-2,-1.472185254E-1,-2.522873580E-1
1.200001488E0,2.871066704E-2,-1.417207420E-1,-2.571742535E-1
1.202015642E0,3.176499158E-2,-1.350012124E-1,-2.541199327E-1
1.204030103E0,3.115412779E-2,-1.282816976E-1,-2.535090744E-1
1.206013719E0,3.481931984E-2,-1.240056455E-1,-2.510656118E-1
1.208027642E0,3.420845419E-2,-1.185078546E-1,-2.516764700E-1
1.210011257E0,3.543018550E-2,-1.117883399E-1,-2.498438805E-1
1.212024489E0,3.604105115E-2,-1.075122803E-1,-2.467895597E-1
1.214009489E0,3.420845419E-2,-9.957103431E-2,-2.449569702E-1
1.216023951E0,3.420845419E-2,-9.712757170E-2,-2.412917763E-1
1.218007028E0,3.359758854E-2,-9.285151958E-2,-2.382374406E-1
1.220020566E0,3.054326214E-2,-8.796459436E-2,-2.370157093E-1
1.222005181E0,3.176499158E-2,-8.613199741E-2,-2.357939780E-1
1.224019029E0,2.932153270E-2,-8.429940045E-2,-2.309070677E-1
1.226002413E0,2.809980139E-2,-8.063421398E-2,-2.278527319E-1
1.228016798E0,2.504547499E-2,-7.513642311E-2,-2.247984111E-1
1.230030721E0,1.771509275E-2,-7.269296050E-2,-2.186897546E-1
1.232014952E0,1.404990070E-2,-7.208210230E-2,-2.162462920E-1
1.234029106E0,4.886921961E-3,-6.658431143E-2,-2.095267773E-1
1.236013107E0,-3.665191587E-3,-6.047565863E-2,-2.040289938E-1
1.238026414E0,-7.941247895E-3,-5.681046844E-2,-1.991420686E-1
1.240010030E0,-2.076941915E-2,-4.825835302E-2,-1.893682331E-1
1.242023645E0,-3.665191308E-2,-4.214970022E-2,-1.808161139E-1
1.244007260E0,-3.909537569E-2,-3.970624134E-2,-1.771509200E-1
1.246022337E0,-5.192354694E-2,-2.993239649E-2,-1.685988009E-1
1.248005800E0,-6.291911751E-2,-1.832595654E-2,-1.582140923E-1
1.250020261E0,-6.902777404E-2,-1.282817032E-2,-1.533271819E-1
1.252002646E0,-7.452555746E-2,-3.665191587E-3,-1.453859210E-1
1.254018031E0,-8.491026610E-2,3.665191587E-3,-1.362229437E-1
1.256002338E0,-8.552113175E-2,7.330383174E-3,-1.331686229E-1
1.258014723E0,-9.590584040E-2,1.527163107E-2,-1.258382350E-1
1.260029724E0,-9.773843735E-2,2.015855350E-2,-1.240056455E-1
1.262013186E0,-1.020144969E-1,2.809980139E-2,-1.178969890E-1
1.264027262E0,-1.007927656E-1,3.787364438E-2,-1.117883399E-1
1.266011339E0,-1.001819000E-1,4.398229718E-2,-1.093448773E-1
1.268025109E0,-9.285151958E-2,5.497787148E-2,-1.050688252E-1
1.270008801E0,-8.491026610E-2,6.414084882E-2,-9.529497474E-2
1.272023340E0,-7.941248268E-2,7.208210230E-2,-9.529497474E-2
1.274006956E0,-6.597344577E-2,8.552113175E-2,-9.101892263E-2
1.276021187E0,-5.681046844E-2,1.001819000E-1,-8.429940045E-2
1.278004571E0,-4.825835302E-2,1.056796908E-1,-8.246681094E-2
1.280018340E0,-3.787364438E-2,1.203404516E-1,-8.063421398E-2
1.282002417E0,-2.932153270E-2,1.337794960E-1,-7.757988572E-2
1.284016265E0,-2.504547499E-2,1.411098689E-1,-7.391469181E-2
1.286029803E0,-1.893682219E-2,1.539380401E-1,-7.452555746E-2
1.288014034E0,-1.404990070E-2,1.582140923E-1,-7.391469181E-2
1.290028265E0,-9.162978269E-3,1.637118906E-1,-7.635815442E-2
1.292011880E0,-1.038470957E-2,1.704314053E-1,-7.635815442E-2
1.294025804E0,-9.162978269E-3,1.722639948E-1,-7.941248268E-2
1.296011266E0,-1.038470957E-2,1.765400618E-1,-8.368854225E-2
1.298024266E0,-1.282817032E-2,1.795943826E-1,-8.674286306E-2
1.300007035E0,-1.466076635E-2,1.795943826E-1,-9.040805697E-2
1.302021496E0,-1.588249579E-2,1.783726513E-1,-9.468411654E-2
1.304005112E0,-1.954768784E-2,1.747074574E-1,-9.957103431E-2
1.306019882E0,-2.015855350E-2,1.710422635E-1,-1.007927656E-1
1.308002651E0,-2.321287990E-2,1.661553532E-1,-1.032362282E-1
1.310017113E0,-2.504547499E-2,1.588249654E-1,-1.020144969E-1
1.312001190E0,-2.687807009E-2,1.551597714E-1,-1.038470939E-1
1.314015651E0,-2.932153270E-2,1.472185254E-1,-1.026253626E-1
1.316031036E0,-2.748893574E-2,1.337794960E-1,-9.957103431E-2
1.318013191E0,-2.809980139E-2,1.282816976E-1,-9.651670605E-2
1.320026729E0,-3.054326214E-2,1.136209369E-1,-8.918632567E-2
1.322010421E0,-3.115412779E-2,1.056796908E-1,-8.552113175E-2
1.324025421E0,-2.748893574E-2,8.979719132E-2,-8.185594529E-2
1.326008498E0,-2.932153270E-2,7.208210230E-2,-7.208210230E-2
1.328022421E0,-2.932153270E-2,6.047565863E-2,-6.658431143E-2
1.330006422E0,-2.993239649E-2,4.337143153E-2,-5.742133409E-2
1.332020192E0,-3.420845419E-2,2.443460934E-2,-4.948008433E-2
1.334003038E0,-3.604105115E-2,-2.138028294E-2,-3.176499158E-2
1.336017115E0,-3.237585723E-2,-2.138028294E-2,-2.504547499E-2
1.338002038E0,-3.481931984E-2,-3.237585723E-2,-1.832595654E-2
1.340015884E0,-3.726277873E-2,-4.337143153E-2,-1.160643995E-2
1.342030731E0,-4.031710699E-2,-6.475171447E-2,1.221730490E-3
1.344013808E0,-4.398229718E-2,-8.429940045E-2,1.160643995E-2
1.346027885E0,-4.459316283E-2,-9.590584040E-2,1.893682219E-2
1.348011347E0,-5.009094998E-2,-1.130100712E-1,2.871066704E-2
1.350026424E0,-5.619960278E-2,-1.325577646E-1,3.909537569E-2
1.352009500E0,-6.047565863E-2,-1.398881376E-1,4.520402849E-2
1.354023655E0,-6.414084882E-2,-1.521054506E-1,5.497787148E-2
1.356007963E0,-6.719517708E-2,-1.569923609E-1,5.742133409E-2
1.358022348E0,-6.902777404E-2,-1.637118906E-1,6.414084882E-2
1.360005501E0,-7.513642311E-2,-1.637118906E-1,7.147123665E-2
1.362018655E0,-8.063421398E-2,-1.624901593E-1,7.330382615E-2
1.364002425E0,-8.429940045E-2,-1.692096740E-1,7.880161703E-2
1.366016887E0,-8.979719132E-2,-1.728748679E-1,8.063421398E-2
1.368031349E0,-8.857546002E-2,-1.771509200E-1,8.429940045E-2
1.370014733E0,-9.529497474E-2,-1.814269722E-1,8.613199741E-2
1.372028810E0,-9.468411654E-2,-1.869247705E-1,9.040805697E-2
1.374011964E0,-9.773843735E-2,-1.863138974E-1,9.040805697E-2
1.376028272E0,-9.957103431E-2,-1.936442852E-1,9.590584040E-2
1.378011273E0,-1.044579595E-1,-1.954768747E-1,1.014036313E-1
1.380024504E0,-1.075122803E-1,-1.942551434E-1,1.032362282E-1
1.382008273E0,-1.117883399E-1,-1.973094791E-1,1.093448773E-1
1.384022042E0,-1.154535338E-1,-1.954768747E-1,1.099557430E-1
1.386006042E0,-1.172861308E-1,-1.966986060E-1,1.160643995E-1
1.388020196E0,-1.172861308E-1,-1.936442852E-1,1.221730486E-1
1.390004274E0,-1.172861308E-1,-1.948660165E-1,1.264491081E-1
1.392018966E0,-1.154535338E-1,-1.979203373E-1,1.337794960E-1
1.394001812E0,-1.105666086E-1,-2.046398520E-1,1.404990107E-1
1.396016889E0,-1.093448773E-1,-2.089159191E-1,1.441642046E-1
1.398030428E0,-1.111774743E-1,-2.095267773E-1,1.478293836E-1
1.400014428E0,-1.111774743E-1,-2.101376504E-1,1.551597714E-1
1.402027890E0,-1.075122803E-1,-2.138028294E-1,1.576032341E-1
1.404011659E0,-1.062905490E-1,-2.150245607E-1,1.612684280E-1
1.406025198E0,-9.773843735E-2,-2.193006277E-1,1.637118906E-1
1.408008890E0,-9.834930301E-2,-2.168571651E-1,1.600466967E-1
1.410023352E0,-8.918632567E-2,-2.193006277E-1,1.600466967E-1
1.412006736E0,-8.185594529E-2,-2.211332172E-1,1.557706445E-1
1.414022660E0,-7.819075137E-2,-2.229658216E-1,1.527163088E-1
1.416006737E0,-7.147123665E-2,-2.266310006E-1,1.417207420E-1
1.418019276E0,-7.208210230E-2,-2.241875380E-1,1.380555481E-1
1.420002353E0,-7.024950534E-2,-2.180788964E-1,1.270599663E-1
1.422017430E0,-6.658431143E-2,-2.119702399E-1,1.166752651E-1
1.424000507E0,-6.597344577E-2,-2.034181207E-1,1.105666086E-1
1.426015046E0,-6.475171447E-2,-1.881465018E-1,9.773843735E-2
1.428028892E0,-6.291911751E-2,-1.716531366E-1,8.368854225E-2
1.430012277E0,-6.352998316E-2,-1.606575549E-1,7.880161703E-2
1.432028200E0,-6.536258012E-2,-1.380555481E-1,6.841690838E-2
1.434010354E0,-6.352998316E-2,-1.093448773E-1,5.864306539E-2
1.436025509E0,-6.169738993E-2,-9.896016866E-2,5.681046844E-2
1.438008586E0,-5.803219974E-2,-7.574728876E-2,4.703662544E-2
1.440023278E0,-5.558873713E-2,-5.497787148E-2,4.214970022E-2
1.442006432E0,-5.558873713E-2,-4.642575979E-2,3.726277873E-2
1.444019893E0,-5.314527452E-2,-2.504547499E-2,3.481931984E-2
1.446004201E0,-5.253441259E-2,-5.497787148E-3,3.054326214E-2
1.448017510E0,-5.253441259E-2,3.054326167E-3,2.871066704E-2
1.450001433E0,-5.131268129E-2,2.260201424E-2,2.687807009E-2
1.452014740E0,-4.886921868E-2,3.298672289E-2,2.687807009E-2
1.454030125E0,-4.276056588E-2,5.070181563E-2,2.504547499E-2
1.456015279E0,-3.543018550E-2,7.024950534E-2,2.687807009E-2
1.458027587E0,-3.298672289E-2,7.880161703E-2,2.382374369E-2
1.460010972E0,-2.504547499E-2,9.468411654E-2,2.504547499E-2
1.462024895E0,-2.199114859E-2,1.136209369E-1,2.321287990E-2
1.464009434E0,-2.015855350E-2,1.221730486E-1,2.199114859E-2
1.466023357E0,-1.527163107E-2,1.380555481E-1,2.138028294E-2
1.468007280E0,-1.038470957E-2,1.569923609E-1,1.893682219E-2
1.470021203E0,-9.162978269E-3,1.612684280E-1,1.832595654E-2
1.472004819E0,-4.886921961E-3,1.753183305E-1,1.527163107E-2
1.474018435E0,-6.719517522E-3,1.881465018E-1,1.466076635E-2
1.476003050E0,-7.330383174E-3,1.930334121E-1,1.404990070E-2
1.478017127E0,-7.330383174E-3,2.009746730E-1,1.404990070E-2
1.480000204E0,-7.941247895E-3,2.052507252E-1,1.527163107E-2
1.482014435E0,-7.941247895E-3,2.083050460E-1,1.588249579E-2
1.484028282E0,-9.162978269E-3,2.083050460E-1,1.832595654E-2
1.486012282E0,-9.773843922E-3,2.113593817E-1,1.710422710E-2
1.488025820E0,-1.282817032E-2,2.076941878E-1,1.893682219E-2
1.490010128E0,-1.160643995E-2,2.028072625E-1,1.893682219E-2
1.492024205E0,-1.282817032E-2,1.997529417E-1,2.260201424E-2
1.494008513E0,-1.404990070E-2,1.893682331E-1,2.138028294E-2
1.496023052E0,-1.771509275E-2,1.814269722E-1,2.199114859E-2
1.498005206E0,-1.649336144E-2,1.734857261E-1,2.076941915E-2
1.500019283E0,-1.649336144E-2,1.618792862E-1,2.015855350E-2
1.502003591E0,-1.588249579E-2,1.478293836E-1,1.527163107E-2
1.504017745E0,-1.343903504E-2,1.374446750E-1,1.466076635E-2
1.506001206E0,-1.343903504E-2,1.246165112E-1,1.404990070E-2
1.508015053E0,-1.160643995E-2,1.081231460E-1,9.773843922E-3
1.510029438E0,-9.773843922E-3,1.026253626E-1,9.773843922E-3
1.512013515E0,-4.276056774E-3,8.613199741E-2,6.719517522E-3
1.514027592E0,-3.665191587E-3,7.086037099E-2,4.276056774E-3
1.516011669E0,-6.108652451E-4,6.352998316E-2,3.054326167E-3
1.518025746E0,4.886921961E-3,4.581489414E-2,3.665191587E-3
1.520008593E0,6.719517522E-3,3.848451003E-2,3.054326167E-3
1.522022977E0,1.099557430E-2,2.687807009E-2,2.443460980E-3
1.524006747E0,1.710422710E-2,1.099557430E-2,3.054326167E-3
1.526020516E0,2.015855350E-2,7.330383174E-3,3.665191587E-3
1.528004824E0,2.443460934E-2,-4.276056774E-3,4.276056774E-3
1.530018747E0,2.748893574E-2,-1.527163107E-2,6.719517522E-3
1.532001825E0,2.932153270E-2,-1.893682219E-2,4.276056774E-3
1.534015594E0,3.237585723E-2,-3.176499158E-2,3.665191587E-3
1.536031594E0,3.420845419E-2,-3.909537569E-2,4.886921961E-3
1.538014363E0,3.481931984E-2,-4.276056588E-2,6.719517522E-3
1.540028286E0,3.787364438E-2,-5.314527452E-2,6.719517522E-3
1.542011902E0,4.031710699E-2,-5.925392732E-2,4.886921961E-3
1.544026133E0,4.092797264E-2,-6.414084882E-2,4.276056774E-3
1.546009210E0,4.337143153E-2,-7.086037099E-2,3.054326167E-3
1.548024287E0,4.337143153E-2,-7.452555746E-2,1.221730490E-3
1.550008287E0,4.703662544E-2,-8.063421398E-2,1.832595794E-3
1.552022749E0,4.764748737E-2,-8.613199741E-2,2.443460980E-3
1.554005133E0,4.764748737E-2,-9.101892263E-2,1.832595794E-3
1.556020904E0,5.009094998E-2,-9.712757170E-2,3.054326167E-3
1.558003288E0,5.375614017E-2,-1.056796908E-1,2.443460980E-3
1.560017211E0,5.375614017E-2,-1.111774743E-1,2.443460980E-3
1.562001750E0,5.558873713E-2,-1.178969890E-1,2.443460980E-3
1.564014673E0,5.742133409E-2,-1.295034289E-1,2.443460980E-3
1.566029750E0,5.681046844E-2,-1.356120855E-1,3.665191587E-3
1.568012905E0,5.681046844E-2,-1.411098689E-1,3.054326167E-3
1.570027289E0,5.864306539E-2,-1.545489132E-1,5.497787148E-3
1.572010674E0,5.925392732E-2,-1.600466967E-1,1.832595794E-3
1.574024289E0,5.497787148E-2,-1.759291887E-1,3.054326167E-3
1.576006982E0,5.314527452E-2,-1.832595766E-1,1.832595794E-3
1.578023598E0,5.314527452E-2,-1.832595766E-1,1.832595794E-3
1.580006444E0,5.192354694E-2,-1.912008226E-1,1.832595794E-3
1.582021213E0,5.131268129E-2,-1.973094791E-1,1.832595794E-3
1.584003983E0,4.886921868E-2,-2.028072625E-1,1.832595794E-3
1.586018059E0,4.398229718E-2,-2.070833147E-1,0.000000000E0
1.588002136E0,4.520402849E-2,-2.101376504E-1,6.108652451E-4
1.590015984E0,4.520402849E-2,-2.138028294E-1,-1.832595794E-3
1.592031060E0,4.276056588E-2,-2.119702399E-1,-1.221730490E-3
1.594014676E0,4.276056588E-2,-2.138028294E-1,-3.054326167E-3
1.596029137E0,4.276056588E-2,-2.162462920E-1,-2.443460980E-3
1.598012214E0,3.970624134E-2,-2.119702399E-1,-4.276056774E-3
1.600026061E0,3.909537569E-2,-2.125810981E-1,-4.886921961E-3
1.602009831E0,3.176499158E-2,-2.089159191E-1,-3.665191587E-3
1.604023600E0,2.871066704E-2,-2.052507252E-1,-4.276056774E-3
1.606007292E0,2.443460934E-2,-2.028072625E-1,-3.054326167E-3
1.608021215E0,1.710422710E-2,-1.991420686E-1,1.221730490E-3
1.610005215E0,1.282817032E-2,-1.948660165E-1,4.886921961E-3
1.612018138E0,1.160643995E-2,-1.930334121E-1,4.886921961E-3
1.614003063E0,9.162978269E-3,-1.887573600E-1,3.665191587E-3
1.616018678E0,7.941247895E-3,-1.857030392E-1,5.497787148E-3
1.618001139E0,7.941247895E-3,-1.802052408E-1,6.108652335E-3
1.620014755E0,7.330383174E-3,-1.692096740E-1,6.108652335E-3
1.622029216E0,5.497787148E-3,-1.649336219E-1,6.719517522E-3
1.624012909E0,6.719517522E-3,-1.521054506E-1,6.108652335E-3
1.626026371E0,4.276056774E-3,-1.392772794E-1,4.276056774E-3
1.628011064E0,6.108652335E-3,-1.313360333E-1,3.054326167E-3
1.630023987E0,4.886921961E-3,-1.185078546E-1,3.054326167E-3
1.632009448E0,1.038470957E-2,-1.001819000E-1,3.054326167E-3
1.634023294E0,1.099557430E-2,-9.285151958E-2,4.276056774E-3
1.636006756E0,1.038470957E-2,-7.391469181E-2,-6.108652451E-4
1.638020834E0,1.343903504E-2,-5.681046844E-2,-1.832595794E-3
1.640003680E0,1.343903504E-2,-4.825835302E-2,0.000000000E0
1.642018142E0,1.588249579E-2,-2.809980139E-2,-1.221730490E-3
1.644001449E0,1.527163107E-2,-1.649336144E-2,-6.108652451E-4
1.646015988E0,1.710422710E-2,6.719517522E-3,0.000000000E0
1.648030680E0,1.893682219E-2,2.687807009E-2,2.443460980E-3
1.650013758E0,2.076941915E-2,3.726277873E-2,4.276056774E-3
1.652027681E0,2.260201424E-2,6.047565863E-2,5.497787148E-3
1.654012527E0,2.504547499E-2,7.757988572E-2,9.162978269E-3
1.656027373E0,2.626720630E-2,8.735372871E-2,9.162978269E-3
1.658008912E0,2.932153270E-2,1.050688252E-1,1.282817032E-2
1.660024219E0,2.932153270E-2,1.197295859E-1,1.527163107E-2
1.662007374E0,3.054326214E-2,1.282816976E-1,1.771509275E-2
1.664021836E0,3.298672289E-2,1.423316002E-1,1.954768784E-2
1.666004605E0,3.359758854E-2,1.563815027E-1,1.893682219E-2
1.668019297E0,3.420845419E-2,1.631010175E-1,1.954768784E-2
1.670002451E0,3.298672289E-2,1.759291887E-1,2.138028294E-2
1.672017759E0,3.237585723E-2,1.893682331E-1,2.260201424E-2
1.674000606E0,3.237585723E-2,1.924225539E-1,2.260201424E-2
1.676015375E0,3.298672289E-2,2.015855312E-1,2.260201424E-2
1.678029222E0,3.298672289E-2,2.113593817E-1,2.138028294E-2
1.680012837E0,3.176499158E-2,2.156354338E-1,2.199114859E-2
1.682027375E0,3.176499158E-2,2.217440903E-1,2.443460934E-2
1.684010991E0,3.298672289E-2,2.254092693E-1,2.382374369E-2
1.686024838E0,3.298672289E-2,2.290744632E-1,2.687807009E-2
1.688007915E0,3.115412779E-2,2.315179259E-1,2.748893574E-2
1.690022684E0,3.115412779E-2,2.321287990E-1,2.809980139E-2
1.692004915E0,3.054326214E-2,2.333505303E-1,2.932153270E-2
1.694019684E0,3.115412779E-2,2.296853364E-1,3.115412779E-2
1.696004915E0,2.748893574E-2,2.302961946E-1,3.176499158E-2
1.698018070E0,2.748893574E-2,2.235766798E-1,3.054326214E-2
1.700001531E0,2.809980139E-2,2.150245607E-1,3.176499158E-2
1.702015070E0,2.809980139E-2,2.119702399E-1,3.176499158E-2
1.704030070E0,2.504547499E-2,2.034181207E-1,3.298672289E-2
1.706013531E0,2.504547499E-2,1.930334121E-1,3.054326214E-2
1.708027608E0,2.626720630E-2,1.869247705E-1,3.176499158E-2
1.710010994E0,2.504547499E-2,1.771509200E-1,3.115412779E-2
1.712026686E0,2.443460934E-2,1.747074574E-1,3.115412779E-2
1.714009225E0,2.443460934E-2,1.631010175E-1,3.054326214E-2
1.716024917E0,2.626720630E-2,1.508837193E-1,2.993239649E-2
1.718007302E0,2.382374369E-2,1.466076523E-1,2.809980139E-2
1.720021455E0,2.565634064E-2,1.325577646E-1,2.565634064E-2
1.722004533E0,2.443460934E-2,1.227839142E-1,2.443460934E-2
1.724019072E0,2.809980139E-2,1.166752651E-1,2.260201424E-2
1.726002456E0,2.687807009E-2,1.069014147E-1,2.076941915E-2
1.728016533E0,2.687807009E-2,9.712757170E-2,1.893682219E-2
1.730031687E0,2.565634064E-2,9.224065393E-2,1.893682219E-2
1.732013842E0,2.565634064E-2,8.613199741E-2,1.710422710E-2
1.734029534E0,2.871066704E-2,7.880161703E-2,1.771509275E-2
1.736013765E0,2.809980139E-2,7.513642311E-2,1.588249579E-2
1.738025534E0,2.687807009E-2,6.902777404E-2,1.954768784E-2
1.740010457E0,2.321287990E-2,6.230825558E-2,2.015855350E-2
1.742025150E0,2.382374369E-2,5.986479297E-2,2.015855350E-2
1.744007689E0,2.260201424E-2,5.375614017E-2,2.015855350E-2
1.746021843E0,2.260201424E-2,5.192354694E-2,2.199114859E-2
1.748005843E0,2.138028294E-2,4.642575979E-2,2.138028294E-2
1.750019920E0,2.260201424E-2,4.153883830E-2,2.199114859E-2
1.752004305E0,2.260201424E-2,3.909537569E-2,2.260201424E-2
1.754018074E0,2.260201424E-2,3.115412779E-2,2.260201424E-2
1.756002075E0,2.260201424E-2,2.809980139E-2,2.382374369E-2
1.758015613E0,2.260201424E-2,2.687807009E-2,1.954768784E-2
1.760029767E0,2.382374369E-2,2.321287990E-2,2.138028294E-2
1.762012844E0,2.260201424E-2,1.954768784E-2,2.015855350E-2
1.764027075E0,2.260201424E-2,1.649336144E-2,2.076941915E-2
1.766010690E0,2.260201424E-2,1.710422710E-2,2.076941915E-2
1.768024922E0,2.199114859E-2,1.832595654E-2,2.076941915E-2
1.770008922E0,2.199114859E-2,1.588249579E-2,1.893682219E-2
1.772022384E0,2.260201424E-2,1.466076635E-2,1.832595654E-2
1.774006999E0,2.321287990E-2,1.466076635E-2,2.015855350E-2
1.776021537E0,2.199114859E-2,1.710422710E-2,1.954768784E-2
1.778004230E0,2.260201424E-2,1.893682219E-2,1.893682219E-2
1.780019000E0,2.138028294E-2,1.954768784E-2,1.649336144E-2
1.782002154E0,2.260201424E-2,2.138028294E-2,1.771509275E-2
1.784016308E0,2.138028294E-2,2.443460934E-2,1.710422710E-2
1.786030692E0,2.321287990E-2,2.443460934E-2,1.771509275E-2
1.788013846E0,2.199114859E-2,2.871066704E-2,1.588249579E-2
1.790028538E0,1.893682219E-2,3.359758854E-2,1.527163107E-2
1.792011386E0,1.588249579E-2,3.604105115E-2,1.588249579E-2
1.794026386E0,1.343903504E-2,3.909537569E-2,1.649336144E-2
1.796011001E0,8.552113548E-3,4.459316283E-2,1.710422710E-2
1.798023693E0,9.162978269E-3,4.825835302E-2,1.771509275E-2
1.800007616E0,4.276056774E-3,5.131268129E-2,1.893682219E-2
1.802021847E0,2.443460980E-3,5.742133409E-2,1.649336144E-2
1.804005156E0,-6.108652451E-4,6.047565863E-2,2.076941915E-2
1.806019617E0,-6.108652451E-4,6.841690838E-2,2.138028294E-2
1.808003079E0,-1.832595794E-3,7.452555746E-2,2.076941915E-2
1.810017771E0,-4.886921961E-3,8.307767659E-2,2.260201424E-2
1.812000925E0,-6.108652335E-3,9.224065393E-2,2.199114859E-2
1.814014694E0,-7.330383174E-3,1.087340117E-1,2.687807009E-2
1.816028234E0,-7.330383174E-3,1.087340117E-1,2.687807009E-2
1.818013157E0,-7.330383174E-3,1.111774743E-1,2.626720630E-2
1.820027311E0,-7.941247895E-3,1.136209369E-1,2.871066704E-2
1.822011003E0,-9.773843922E-3,1.203404516E-1,2.993239649E-2
1.824024618E0,-8.552113548E-3,1.270599663E-1,3.237585723E-2
1.826008926E0,-1.038470957E-2,1.307251602E-1,3.176499158E-2
1.828022696E0,-1.466076635E-2,1.362229437E-1,3.359758854E-2
1.830007081E0,-1.404990070E-2,1.404990107E-1,3.176499158E-2
1.832021466E0,-1.588249579E-2,1.429424733E-1,3.237585723E-2
1.834004235E0,-1.527163107E-2,1.411098689E-1,3.054326214E-2
1.836019312E0,-1.588249579E-2,1.423316002E-1,2.748893574E-2
1.838002158E0,-1.343903504E-2,1.404990107E-1,2.748893574E-2
1.840015928E0,-1.343903504E-2,1.350012124E-1,2.687807009E-2
1.842030390E0,-1.282817032E-2,1.295034289E-1,2.443460934E-2
1.844014082E0,-1.038470957E-2,1.246165112E-1,2.382374369E-2
1.846028236E0,-9.773843922E-3,1.178969890E-1,2.443460934E-2
1.848012313E0,-8.552113548E-3,1.136209369E-1,2.199114859E-2
1.850025851E0,-6.719517522E-3,1.038470939E-1,2.015855350E-2
1.852009160E0,-4.276056774E-3,9.712757170E-2,2.321287990E-2
1.854023622E0,-4.886921961E-3,9.407325089E-2,2.382374369E-2
1.856008545E0,0.000000000E0,8.491026610E-2,2.199114859E-2
1.858022391E0,6.108652451E-4,7.941248268E-2,2.076941915E-2
1.860005237E0,3.054326167E-3,7.696902007E-2,2.260201424E-2
1.862019391E0,4.886921961E-3,6.841690838E-2,2.138028294E-2
1.864003315E0,7.941247895E-3,6.169738993E-2,2.199114859E-2
1.866016853E0,8.552113548E-3,5.864306539E-2,2.260201424E-2
1.868031392E0,9.162978269E-3,5.070181563E-2,2.199114859E-2
1.870015007E0,1.099557430E-2,4.520402849E-2,2.199114859E-2
1.872030392E0,1.404990070E-2,4.153883830E-2,2.382374369E-2
1.874013239E0,1.649336144E-2,3.481931984E-2,2.260201424E-2
1.876028008E0,1.771509275E-2,3.481931984E-2,2.565634064E-2
1.878011393E0,1.649336144E-2,2.932153270E-2,2.504547499E-2
1.880024854E0,2.015855350E-2,2.748893574E-2,2.504547499E-2
1.882008931E0,2.015855350E-2,2.504547499E-2,2.382374369E-2
1.884022162E0,2.382374369E-2,1.954768784E-2,2.260201424E-2
1.886006394E0,2.443460934E-2,1.893682219E-2,2.260201424E-2
1.888020317E0,2.260201424E-2,1.893682219E-2,2.076941915E-2
1.890004240E0,2.138028294E-2,1.710422710E-2,2.138028294E-2
1.892017779E0,2.321287990E-2,1.771509275E-2,2.015855350E-2
1.894001855E0,2.138028294E-2,1.771509275E-2,1.893682219E-2
1.896017471E0,1.954768784E-2,1.954768784E-2,1.832595654E-2
1.897999010E0,1.710422710E-2,2.321287990E-2,1.466076635E-2
1.900014472E0,2.076941915E-2,2.260201424E-2,1.710422710E-2
1.902028010E0,1.466076635E-2,2.809980139E-2,1.404990070E-2
1.904011703E0,1.527163107E-2,3.176499158E-2,1.588249579E-2
1.906025241E0,1.282817032E-2,3.726277873E-2,1.343903504E-2
1.908008626E0,1.038470957E-2,4.276056588E-2,1.466076635E-2
1.910022781E0,8.552113548E-3,4.581489414E-2,1.466076635E-2
1.912008627E0,6.108652335E-3,5.253441259E-2,1.527163107E-2
1.914021473E0,3.665191587E-3,5.864306539E-2,1.954768784E-2
1.916005857E0,4.886921961E-3,6.352998316E-2,1.771509275E-2
1.918019704E0,3.665191587E-3,6.902777404E-2,1.893682219E-2
1.920003011E0,1.221730490E-3,7.452555746E-2,1.771509275E-2
1.922016628E0,2.443460980E-3,7.635815442E-2,2.076941915E-2
1.924030782E0,-1.832595794E-3,8.307767659E-2,1.893682219E-2
1.926015397E0,-1.221730490E-3,9.040805697E-2,2.199114859E-2
1.928029551E0,-6.108652451E-4,9.162978828E-2,2.260201424E-2
1.930012243E0,-1.832595794E-3,9.896016866E-2,2.076941915E-2
1.932023705E0,0.000000000E0,1.038470939E-1,2.382374369E-2
1.934010090E0,-6.108652451E-4,1.075122803E-1,2.382374369E-2
1.936025552E0,-6.108652451E-4,1.105666086E-1,2.138028294E-2
1.938008629E0,-6.108652451E-4,1.099557430E-1,2.076941915E-2
1.940022475E0,1.832595794E-3,1.099557430E-1,2.199114859E-2
1.942006090E0,3.054326167E-3,1.117883399E-1,2.015855350E-2
1.944020244E0,3.665191587E-3,1.105666086E-1,2.321287990E-2
1.946004245E0,4.276056774E-3,1.093448773E-1,2.076941915E-2
1.948017553E0,7.941247895E-3,1.062905490E-1,1.893682219E-2
1.950001553E0,8.552113548E-3,1.050688252E-1,1.954768784E-2
1.952015937E0,8.552113548E-3,1.020144969E-1,1.527163107E-2
1.954030476E0,9.773843922E-3,1.001819000E-1,1.588249579E-2
1.956014091E0,1.099557430E-2,9.896016866E-2,1.527163107E-2
1.958028015E0,1.221730467E-2,9.346238524E-2,1.527163107E-2
1.960011708E0,1.282817032E-2,8.857546002E-2,1.466076635E-2
1.962025477E0,1.221730467E-2,8.918632567E-2,1.466076635E-2
1.964008862E0,1.466076635E-2,8.368854225E-2,1.404990070E-2
1.966023015E0,1.221730467E-2,7.635815442E-2,1.221730467E-2
1.968007708E0,1.221730467E-2,7.452555746E-2,1.282817032E-2
1.970021478E0,1.221730467E-2,7.208210230E-2,1.038470957E-2
1.972003940E0,1.221730467E-2,6.719517708E-2,1.282817032E-2
1.974019324E0,1.710422710E-2,6.169738993E-2,1.282817032E-2
1.976004247E0,1.466076635E-2,5.742133409E-2,1.099557430E-2
1.978015940E0,1.466076635E-2,5.253441259E-2,1.282817032E-2
1.980031016E0,1.710422710E-2,4.337143153E-2,9.773843922E-3
1.982015017E0,1.527163107E-2,3.909537569E-2,1.038470957E-2
1.984028556E0,1.771509275E-2,3.237585723E-2,1.160643995E-2
1.986012556E0,1.832595654E-2,2.565634064E-2,8.552113548E-3
1.988026710E0,1.649336144E-2,1.893682219E-2,1.038470957E-2
1.990009864E0,1.527163107E-2,1.710422710E-2,9.162978269E-3
1.992024018E0,1.893682219E-2,1.099557430E-2,9.162978269E-3
1.994008326E0,1.771509275E-2,4.886921961E-3,8.552113548E-3
1.996022788E0,1.771509275E-2,2.443460980E-3,7.941247895E-3
1.998006172E0,1.893682219E-2,-1.832595794E-3,6.108652335E-3
2.000020019E0,1.832595654E-2,-5.497787148E-3,8.552113548E-3
2.002003326E0,1.954768784E-2,-8.552113548E-3,9.162978269E-3
2.004018172E0,2.076941915E-2,-1.038470957E-2,8.552113548E-3
2.006001250E0,1.832595654E-2,-1.221730467E-2,8.552113548E-3
2.008015327E0,2.138028294E-2,-1.588249579E-2,7.941247895E-3
2.010029866E0,1.710422710E-2,-1.771509275E-2,7.330383174E-3
2.012012866E0,1.832595654E-2,-1.710422710E-2,7.330383174E-3
2.014026481E0,1.832595654E-2,-1.832595654E-2,7.330383174E-3
2.016011943E0,2.015855350E-2,-1.832595654E-2,9.773843922E-3
2.018025790E0,1.832595654E-2,-1.771509275E-2,7.330383174E-3
2.020008559E0,1.710422710E-2,-1.527163107E-2,6.108652335E-3
2.022023405E0,1.649336144E-2,-1.527163107E-2,6.108652335E-3
2.024007021E0,1.649336144E-2,-1.588249579E-2,9.162978269E-3
2.026020559E0,1.588249579E-2,-1.404990070E-2,7.941247895E-3
2.028004560E0,1.404990070E-2,-1.404990070E-2,8.552113548E-3
2.030019099E0,1.527163107E-2,-1.160643995E-2,7.330383174E-3
2.032003637E0,1.404990070E-2,-9.773843922E-3,6.719517522E-3
2.034016329E0,1.160643995E-2,-5.497787148E-3,9.773843922E-3
2.036031406E0,1.466076635E-2,-8.552113548E-3,7.941247895E-3
2.038015022E0,1.160643995E-2,-6.108652335E-3,7.941247895E-3
2.040028023E0,1.282817032E-2,-6.108652335E-3,1.160643995E-2
2.042012023E0,9.773843922E-3,-1.832595794E-3,8.552113548E-3
2.044026100E0,1.099557430E-2,6.108652451E-4,1.099557430E-2
2.046010100E0,9.773843922E-3,0.000000000E0,1.038470957E-2
2.048024638E0,9.162978269E-3,3.665191587E-3,1.038470957E-2
2.050007715E0,6.719517522E-3,7.941247895E-3,1.099557430E-2
2.052022101E0,9.162978269E-3,6.719517522E-3,1.038470957E-2
2.054005254E0,7.941247895E-3,1.160643995E-2,7.941247895E-3
2.056018485E0,7.941247895E-3,1.160643995E-2,7.941247895E-3
2.058002408E0,4.886921961E-3,1.588249579E-2,7.941247895E-3
2.060017870E0,2.443460980E-3,1.954768784E-2,9.162978269E-3
2.062000947E0,2.443460980E-3,2.260201424E-2,9.162978269E-3
2.064015717E0,1.221730490E-3,2.382374369E-2,8.552113548E-3
2.066029486E0,1.221730490E-3,2.687807009E-2,1.038470957E-2
2.068012871E0,-6.108652451E-4,2.809980139E-2,1.099557430E-2
2.070027102E0,-1.832595794E-3,3.054326214E-2,8.552113548E-3
2.072011717E0,-1.832595794E-3,3.054326214E-2,1.099557430E-2
2.074025871E0,-1.221730490E-3,2.932153270E-2,7.330383174E-3
2.076009180E0,-3.054326167E-3,3.359758854E-2,7.941247895E-3
2.078022795E0,-1.832595794E-3,3.481931984E-2,5.497787148E-3
2.080006487E0,-6.108652451E-4,3.481931984E-2,9.162978269E-3
2.082020564E0,-3.054326167E-3,3.481931984E-2,7.330383174E-3
2.084004026E0,-1.221730490E-3,3.543018550E-2,9.162978269E-3
2.086018487E0,-6.108652451E-4,3.604105115E-2,6.719517522E-3
2.088002104E0,6.108652451E-4,3.604105115E-2,5.497787148E-3
2.090016334E0,1.221730490E-3,3.420845419E-2,6.108652335E-3
2.092029873E0,2.443460980E-3,3.237585723E-2,7.941247895E-3
2.094014181E0,1.832595794E-3,3.726277873E-2,3.665191587E-3
2.096028642E0,1.221730490E-3,3.665191308E-2,3.665191587E-3
2.098011642E0,4.276056774E-3,3.298672289E-2,4.276056774E-3
2.100025566E0,3.665191587E-3,3.359758854E-2,3.054326167E-3
2.102009566E0,3.054326167E-3,3.359758854E-2,5.497787148E-3
2.104023951E0,2.443460980E-3,3.237585723E-2,8.552113548E-3
2.106007335E0,2.443460980E-3,2.871066704E-2,5.497787148E-3
2.108021489E0,1.832595794E-3,2.871066704E-2,5.497787148E-3
2.110004643E0,3.665191587E-3,2.626720630E-2,6.719517522E-3
2.112019721E0,3.665191587E-3,2.321287990E-2,4.886921961E-3
2.114002490E0,4.276056774E-3,2.076941915E-2,6.719517522E-3
2.116018490E0,3.054326167E-3,2.321287990E-2,6.108652335E-3
2.118001875E0,4.886921961E-3,1.954768784E-2,6.108652335E-3
2.120014798E0,6.108652335E-3,1.771509275E-2,4.886921961E-3
2.122029183E0,4.276056774E-3,1.710422710E-2,3.054326167E-3
2.124012568E0,7.941247895E-3,1.588249579E-2,3.665191587E-3
2.126026722E0,6.719517522E-3,1.466076635E-2,4.276056774E-3
2.128010184E0,6.719517522E-3,1.160643995E-2,5.497787148E-3
2.130024953E0,9.773843922E-3,7.330383174E-3,3.665191587E-3
2.132008030E0,7.941247895E-3,7.941247895E-3,2.443460980E-3
2.134022722E0,7.330383174E-3,5.497787148E-3,3.665191587E-3
2.136008954E0,7.941247895E-3,4.886921961E-3,5.497787148E-3
2.138020031E0,7.330383174E-3,5.497787148E-3,4.276056774E-3
2.140004031E0,8.552113548E-3,6.108652451E-4,4.276056774E-3
2.142018415E0,4.276056774E-3,6.108652451E-4,5.497787148E-3
2.144001492E0,6.108652335E-3,-2.443460980E-3,4.276056774E-3
2.146015646E0,7.330383174E-3,-1.221730490E-3,3.665191587E-3
2.148029801E0,5.497787148E-3,-1.832595794E-3,4.886921961E-3
2.150014186E0,5.497787148E-3,-4.276056774E-3,2.443460980E-3
2.152028570E0,3.665191587E-3,-3.054326167E-3,3.665191587E-3
2.154011109E0,5.497787148E-3,-4.276056774E-3,2.443460980E-3
2.156026724E0,6.719517522E-3,-7.330383174E-3,3.054326167E-3
2.158010109E0,4.886921961E-3,-5.497787148E-3,6.108652451E-4
2.160023956E0,7.330383174E-3,-9.162978269E-3,6.108652451E-4
2.162007341E0,6.108652335E-3,-1.099557430E-2,0.000000000E0
2.164021187E0,8.552113548E-3,-1.343903504E-2,0.000000000E0
2.166005187E0,9.773843922E-3,-1.343903504E-2,-6.108652451E-4
2.168018494E0,1.099557430E-2,-1.527163107E-2,-1.221730490E-3
2.170003111E0,7.330383174E-3,-1.649336144E-2,6.108652451E-4
2.172014111E0,1.160643995E-2,-2.076941915E-2,1.221730490E-3
2.174029803E0,1.160643995E-2,-2.199114859E-2,0.000000000E0
2.176016265E0,9.162978269E-3,-2.382374369E-2,6.108652451E-4
2.178029495E0,1.527163107E-2,-2.687807009E-2,-6.108652451E-4
2.180012342E0,1.282817032E-2,-2.504547499E-2,0.000000000E0
2.182026497E0,1.099557430E-2,-2.748893574E-2,1.221730490E-3
2.184010189E0,1.038470957E-2,-2.443460934E-2,0.000000000E0
2.186023958E0,1.099557430E-2,-2.809980139E-2,0.000000000E0
2.188007958E0,1.160643995E-2,-2.932153270E-2,0.000000000E0
2.190022189E0,1.160643995E-2,-2.932153270E-2,6.108652451E-4
2.192006420E0,1.099557430E-2,-3.298672289E-2,0.000000000E0
2.194020036E0,1.099557430E-2,-3.420845419E-2,0.000000000E0
2.196005190E0,1.160643995E-2,-3.543018550E-2,0.000000000E0
2.198018113E0,9.773843922E-3,-3.604105115E-2,-1.221730490E-3
2.200002190E0,1.160643995E-2,-3.665191308E-2,1.221730490E-3
2.202015113E0,9.162978269E-3,-3.909537569E-2,0.000000000E0
2.204030421E0,9.162978269E-3,-3.909537569E-2,-6.108652451E-4
2.206013268E0,1.221730467E-2,-4.031710699E-2,-1.832595794E-3
2.208027345E0,1.099557430E-2,-3.970624134E-2,0.000000000E0
2.210011114E0,1.282817032E-2,-3.909537569E-2,-6.108652451E-4
2.212025499E0,1.221730467E-2,-4.092797264E-2,6.108652451E-4
2.214009806E0,1.343903504E-2,-3.909537569E-2,0.000000000E0
2.216024883E0,1.282817032E-2,-3.970624134E-2,-6.108652451E-4
2.218006423E0,1.404990070E-2,-4.092797264E-2,-6.108652451E-4
2.220021269E0,1.466076635E-2,-4.031710699E-2,0.000000000E0
2.222004961E0,1.404990070E-2,-3.970624134E-2,2.443460980E-3
2.224018423E0,1.710422710E-2,-3.848451003E-2,3.054326167E-3
2.226002730E0,1.710422710E-2,-3.909537569E-2,1.832595794E-3
2.228017577E0,1.649336144E-2,-3.909537569E-2,2.443460980E-3
2.230000578E0,1.710422710E-2,-3.848451003E-2,6.108652451E-4
2.232014501E0,1.710422710E-2,-3.787364438E-2,6.108652451E-4
2.234029270E0,1.649336144E-2,-3.665191308E-2,1.221730490E-3
2.236012885E0,1.771509275E-2,-3.359758854E-2,6.108652451E-4
2.238027654E0,1.771509275E-2,-3.359758854E-2,2.443460980E-3
2.240010193E0,1.954768784E-2,-3.054326214E-2,1.221730490E-3
2.242023963E0,1.954768784E-2,-2.748893574E-2,3.054326167E-3
2.244008271E0,1.954768784E-2,-2.687807009E-2,5.497787148E-3
2.246022194E0,2.138028294E-2,-2.565634064E-2,3.665191587E-3
2.248006117E0,2.260201424E-2,-2.076941915E-2,2.443460980E-3
2.250020579E0,2.076941915E-2,-2.138028294E-2,2.443460980E-3
2.252002732E0,2.076941915E-2,-2.015855350E-2,3.665191587E-3
2.254017272E0,2.321287990E-2,-1.832595654E-2,4.886921961E-3
2.256003041E0,2.321287990E-2,-1.588249579E-2,1.832595794E-3
2.258015657E0,2.504547499E-2,-1.404990070E-2,5.497787148E-3
2.260029887E0,2.748893574E-2,-1.343903504E-2,4.276056774E-3
2.262013195E0,2.687807009E-2,-1.527163107E-2,5.497787148E-3
2.264027041E0,2.626720630E-2,-1.404990070E-2,3.665191587E-3
2.266011427E0,2.687807009E-2,-1.221730467E-2,4.276056774E-3
2.268025504E0,2.687807009E-2,-1.343903504E-2,3.054326167E-3
2.270009273E0,2.809980139E-2,-1.160643995E-2,1.221730490E-3
2.272024350E0,2.871066704E-2,-1.649336144E-2,1.832595794E-3
2.274006734E0,2.626720630E-2,-1.588249579E-2,-6.108652451E-4
2.276021273E0,2.687807009E-2,-1.649336144E-2,-6.108652451E-4
2.278004582E0,2.626720630E-2,-1.588249579E-2,-1.221730490E-3
2.280018812E0,2.626720630E-2,-1.771509275E-2,-3.054326167E-3
2.282002736E0,2.382374369E-2,-1.771509275E-2,-3.054326167E-3
2.284016274E0,2.260201424E-2,-1.771509275E-2,-4.886921961E-3
2.286030736E0,2.260201424E-2,-1.893682219E-2,-2.443460980E-3
2.288015043E0,2.138028294E-2,-1.710422710E-2,-3.054326167E-3
2.290028890E0,1.893682219E-2,-1.832595654E-2,-1.221730490E-3
2.292011660E0,1.527163107E-2,-1.343903504E-2,-3.054326167E-3
2.294025890E0,1.282817032E-2,-1.160643995E-2,-2.443460980E-3
2.296008583E0,1.282817032E-2,-1.160643995E-2,-2.443460980E-3
2.298023737E0,1.160643995E-2,-1.160643995E-2,-1.221730490E-3
2.300007660E0,8.552113548E-3,-1.221730467E-2,-6.108652451E-4
2.302021814E0,6.108652335E-3,-9.773843922E-3,0.000000000E0
2.304005814E0,3.665191587E-3,-1.099557430E-2,0.000000000E0
2.306019122E0,3.054326167E-3,-1.160643995E-2,6.108652451E-4
2.308003353E0,0.000000000E0,-1.221730467E-2,1.221730490E-3
2.310017815E0,-4.886921961E-3,-1.343903504E-2,6.108652451E-4
2.312002199E0,-7.330383174E-3,-1.588249579E-2,-1.221730490E-3
2.314014739E0,-1.282817032E-2,-1.771509275E-2,-1.832595794E-3
2.316030431E0,-1.527163107E-2,-2.199114859E-2,-3.054326167E-3
2.318013277E0,-1.832595654E-2,-2.260201424E-2,-1.221730490E-3
2.320026508E0,-2.260201424E-2,-2.504547499E-2,-4.276056774E-3
2.322011123E0,-2.138028294E-2,-3.054326214E-2,-5.497787148E-3
2.324025278E0,-2.321287990E-2,-3.115412779E-2,-6.719517522E-3
2.326009201E0,-2.504547499E-2,-3.604105115E-2,-7.330383174E-3
2.328023355E0,-2.504547499E-2,-4.276056588E-2,-5.497787148E-3
2.330007047E0,-2.504547499E-2,-4.276056588E-2,-8.552113548E-3
2.332020047E0,-2.382374369E-2,-5.070181563E-2,-7.941247895E-3
2.334004586E0,-2.748893574E-2,-5.070181563E-2,-7.330383174E-3
2.336019741E0,-2.565634064E-2,-5.497787148E-2,-7.330383174E-3
2.338002433E0,-2.504547499E-2,-5.864306539E-2,-7.941247895E-3
2.340015741E0,-2.443460934E-2,-5.803219974E-2,-6.719517522E-3
2.342030433E0,-2.321287990E-2,-6.047565863E-2,-4.886921961E-3
2.344013510E0,-2.260201424E-2,-6.047565863E-2,-4.276056774E-3
2.346028587E0,-2.138028294E-2,-6.108652428E-2,-4.886921961E-3
2.348012357E0,-2.138028294E-2,-6.475171447E-2,-4.276056774E-3
2.350026434E0,-2.076941915E-2,-6.536258012E-2,-2.443460980E-3
2.352010126E0,-2.199114859E-2,-6.536258012E-2,-3.054326167E-3
2.354024357E0,-2.321287990E-2,-6.536258012E-2,-2.443460980E-3
2.356008357E0,-2.015855350E-2,-6.719517708E-2,0.000000000E0
2.358021588E0,-2.199114859E-2,-6.352998316E-2,0.000000000E0
2.360005512E0,-2.321287990E-2,-6.352998316E-2,1.221730490E-3
2.362019666E0,-2.321287990E-2,-6.108652428E-2,0.000000000E0
2.364003127E0,-2.321287990E-2,-5.986479297E-2,1.832595794E-3
2.366017589E0,-2.260201424E-2,-5.192354694E-2,6.108652451E-4
2.368001204E0,-2.199114859E-2,-4.948008433E-2,2.443460980E-3
2.370015050E0,-1.954768784E-2,-3.726277873E-2,2.443460980E-3
2.372028667E0,-1.588249579E-2,-2.626720630E-2,3.665191587E-3
2.374013282E0,-1.588249579E-2,-2.138028294E-2,3.665191587E-3
2.376028359E0,-1.466076635E-2,-4.886921961E-3,3.665191587E-3
2.378010513E0,-1.160643995E-2,6.719517522E-3,5.497787148E-3
2.380025282E0,-1.282817032E-2,1.282817032E-2,3.665191587E-3
2.382009282E0,-1.527163107E-2,2.748893574E-2,1.221730490E-3
2.384022206E0,-1.588249579E-2,3.848451003E-2,4.276056774E-3
2.386006129E0,-1.832595654E-2,4.214970022E-2,6.108652335E-3
2.388019745E0,-2.076941915E-2,5.131268129E-2,7.941247895E-3
2.390004283E0,-2.260201424E-2,6.352998316E-2,1.038470957E-2
2.392018514E0,-2.443460934E-2,6.597344577E-2,1.038470957E-2
2.394002514E0,-2.687807009E-2,7.819075137E-2,1.282817032E-2
2.396016053E0,-2.993239649E-2,8.429940045E-2,1.343903504E-2
2.398030515E0,-3.237585723E-2,1.001819000E-1,1.404990070E-2
2.400013592E0,-3.298672289E-2,1.178969890E-1,1.099557430E-2
2.402028053E0,-3.298672289E-2,1.252273768E-1,1.466076635E-2
2.404011746E0,-3.481931984E-2,1.417207420E-1,1.160643995E-2
2.406025592E0,-3.054326214E-2,1.594358236E-1,1.221730467E-2
2.408008978E0,-3.176499158E-2,1.698205322E-1,7.941247895E-3
2.410023670E0,-3.115412779E-2,1.826487035E-1,9.773843922E-3
2.412006516E0,-2.871066704E-2,1.960877478E-1,9.162978269E-3
2.414020670E0,-2.809980139E-2,2.028072625E-1,9.162978269E-3
2.416006516E0,-2.871066704E-2,2.174680233E-1,1.343903504E-2
2.418019747E0,-2.871066704E-2,2.302961946E-1,1.343903504E-2
2.420003132E0,-2.932153270E-2,2.351831198E-1,1.832595654E-2
2.422016671E0,-2.565634064E-2,2.467895597E-1,2.015855350E-2
2.424031132E0,-2.321287990E-2,2.553416789E-1,2.260201424E-2
2.426015056E0,-2.076941915E-2,2.620611787E-1,2.504547499E-2
2.428028979E0,-1.710422710E-2,2.712241709E-1,2.382374369E-2
2.430012902E0,-1.710422710E-2,2.761110961E-1,2.748893574E-2
2.432027980E0,-1.099557430E-2,2.822197378E-1,2.871066704E-2
2.434010518E0,-9.773843922E-3,2.889392674E-1,2.748893574E-2
2.436025518E0,-6.719517522E-3,2.864958048E-1,2.809980139E-2
2.438008595E0,-5.497787148E-3,2.846632004E-1,3.054326214E-2
2.440022134E0,-1.832595794E-3,2.809980214E-1,2.932153270E-2
2.442006518E0,-1.221730490E-3,2.791654170E-1,3.237585723E-2
2.444019673E0,-3.054326167E-3,2.712241709E-1,3.176499158E-2
2.446004058E0,-5.497787148E-3,2.577851415E-1,3.298672289E-2
2.448017519E0,-7.941247895E-3,2.522873580E-1,3.176499158E-2
2.450001827E0,-1.221730467E-2,2.376265824E-1,3.420845419E-2
2.452015058E0,-1.282817032E-2,2.217440903E-1,3.176499158E-2
2.454031135E0,-1.588249579E-2,2.125810981E-1,3.176499158E-2
2.456014828E0,-2.076941915E-2,1.930334121E-1,3.054326214E-2
2.458027136E0,-2.382374369E-2,1.728748679E-1,2.504547499E-2
2.460011443E0,-2.138028294E-2,1.588249654E-1,2.504547499E-2
2.462025828E0,-2.504547499E-2,1.343903542E-1,2.076941915E-2
2.464009597E0,-2.443460934E-2,1.197295859E-1,2.015855350E-2
2.466022829E0,-2.138028294E-2,9.468411654E-2,1.404990070E-2
2.468007060E0,-2.076941915E-2,6.475171447E-2,1.099557430E-2
2.470020675E0,-2.138028294E-2,5.070181563E-2,1.038470957E-2
2.472005598E0,-1.954768784E-2,2.687807009E-2,6.719517522E-3
2.474019137E0,-1.343903504E-2,0.000000000E0,4.276056774E-3
2.476002829E0,-1.404990070E-2,-1.466076635E-2,6.719517522E-3
2.478017522E0,-9.773843922E-3,-4.092797264E-2,3.054326167E-3
2.480001215E0,-9.162978269E-3,-6.230825558E-2,1.221730490E-3
2.482014445E0,-6.719517522E-3,-7.208210230E-2,2.443460980E-3
2.484028907E0,-4.886921961E-3,-9.651670605E-2,3.054326167E-3
2.486012676E0,-2.443460980E-3,-1.172861308E-1,3.054326167E-3
2.488026445E0,-1.221730490E-3,-1.258382350E-1,2.443460980E-3
2.490009908E0,0.000000000E0,-1.459967941E-1,2.443460980E-3
2.492020908E0,1.832595794E-3,-1.637118906E-1,6.108652451E-4
2.494007677E0,2.443460980E-3,-1.722639948E-1,3.054326167E-3
2.496022523E0,3.054326167E-3,-1.875356287E-1,-6.108652451E-4
2.498006139E0,2.443460980E-3,-1.912008226E-1,0.000000000E0
2.500020369E0,3.054326167E-3,-2.003637999E-1,-2.443460980E-3
2.502003370E0,1.832595794E-3,-2.058615834E-1,-3.054326167E-3
2.504017601E0,2.443460980E-3,-2.101376504E-1,-3.054326167E-3
2.506001217E0,2.443460980E-3,-2.107485086E-1,-3.054326167E-3
2.508015140E0,0.000000000E0,-2.095267773E-1,-1.221730490E-3
2.510029601E0,1.221730490E-3,-2.095267773E-1,-1.221730490E-3
2.512014524E0,-1.221730490E-3,-2.046398520E-1,-1.832595794E-3
2.514027141E0,1.832595794E-3,-1.973094791E-1,-2.443460980E-3
2.516012910E0,1.832595794E-3,-1.930334121E-1,-2.443460980E-3
2.518025602E0,1.221730490E-3,-1.844813079E-1,6.108652451E-4
2.520009295E0,3.054326167E-3,-1.698205322E-1,3.665191587E-3
2.522022833E0,4.276056774E-3,-1.624901593E-1,6.108652451E-4
2.524006756E0,6.719517522E-3,-1.484402567E-1,0.000000000E0
2.526020911E0,6.719517522E-3,-1.386664063E-1,3.665191587E-3
2.528003988E0,3.665191587E-3,-1.172861308E-1,4.276056774E-3
2.530018449E0,3.054326167E-3,-9.773843735E-2,6.108652335E-3
2.532002219E0,2.443460980E-3,-8.735372871E-2,6.108652335E-3
2.534016065E0,3.665191587E-3,-3.970624134E-2,8.552113548E-3
2.536028911E0,3.665191587E-3,-3.970624134E-2,8.552113548E-3
2.538013912E0,2.443460980E-3,-3.054326214E-2,8.552113548E-3
2.540028604E0,2.443460980E-3,-7.941247895E-3,1.038470957E-2
2.542011989E0,1.221730490E-3,1.466076635E-2,1.221730467E-2
2.544026450E0,3.665191587E-3,2.321287990E-2,1.038470957E-2
2.546009527E0,1.221730490E-3,4.703662544E-2,1.038470957E-2
2.548023989E0,2.443460980E-3,6.352998316E-2,1.160643995E-2
2.550007451E0,0.000000000E0,7.330382615E-2,1.343903504E-2
2.552022144E0,1.221730490E-3,8.857546002E-2,1.343903504E-2
2.554005221E0,1.221730490E-3,1.026253626E-1,1.527163107E-2
2.556020375E0,-6.108652451E-4,1.105666086E-1,1.649336144E-2
2.558003759E0,-1.832595794E-3,1.246165112E-1,1.832595654E-2
2.560017528E0,-2.443460980E-3,1.301143020E-1,1.710422710E-2
2.562000914E0,-1.832595794E-3,1.374446750E-1,1.771509275E-2
2.564015068E0,-5.497787148E-3,1.453859210E-1,2.015855350E-2
2.566028991E0,-3.665191587E-3,1.459967941E-1,2.382374369E-2
2.568012683E0,-6.719517522E-3,1.502728462E-1,2.076941915E-2
2.570027683E0,-7.941247895E-3,1.527163088E-1,2.199114859E-2
2.572010453E0,-7.941247895E-3,1.545489132E-1,2.199114859E-2
2.574024069E0,-9.162978269E-3,1.514945775E-1,2.260201424E-2
2.576010223E0,-8.552113548E-3,1.484402567E-1,2.076941915E-2
2.578022761E0,-7.330383174E-3,1.466076523E-1,2.076941915E-2
2.580006530E0,-1.038470957E-2,1.398881376E-1,1.893682219E-2
2.582021300E0,-8.552113548E-3,1.319468915E-1,1.832595654E-2
2.584004069E0,-9.773843922E-3,1.264491081E-1,2.015855350E-2
2.586018455E0,-9.162978269E-3,1.191187203E-1,1.710422710E-2
2.588002531E0,-6.719517522E-3,1.069014147E-1,1.832595654E-2
2.590015993E0,-6.719517522E-3,1.026253626E-1,1.954768784E-2
2.592030839E0,-5.497787148E-3,9.224065393E-2,1.771509275E-2
2.594013531E0,-4.886921961E-3,8.613199741E-2,1.832595654E-2
2.596029531E0,-2.443460980E-3,7.147123665E-2,1.588249579E-2
2.598012379E0,-2.443460980E-3,6.047565863E-2,1.343903504E-2
2.600026148E0,0.000000000E0,5.436700583E-2,1.221730467E-2
2.602009225E0,6.108652451E-4,3.970624134E-2,1.221730467E-2
2.604023686E0,2.443460980E-3,2.932153270E-2,9.162978269E-3
2.606007148E0,3.054326167E-3,2.321287990E-2,9.162978269E-3
2.608021918E0,2.443460980E-3,9.773843922E-3,8.552113548E-3
2.610004995E0,4.276056774E-3,0.000000000E0,3.054326167E-3
2.612018534E0,3.054326167E-3,-3.054326167E-3,4.886921961E-3
2.614003380E0,4.276056774E-3,-1.221730467E-2,3.665191587E-3
2.616019687E0,1.832595794E-3,-2.199114859E-2,2.443460980E-3
2.618000303E0,2.443460980E-3,-2.382374369E-2,4.276056774E-3
2.620015381E0,3.665191587E-3,-3.176499158E-2,3.665191587E-3
2.622029611E0,1.221730490E-3,-3.726277873E-2,2.443460980E-3
2.624013227E0,3.665191587E-3,-4.153883830E-2,1.221730490E-3
2.626026765E0,6.108652451E-4,-4.764748737E-2,1.221730490E-3
2.628011073E0,-1.832595794E-3,-4.642575979E-2,-6.108652451E-4
2.630024919E0,-1.832595794E-3,-5.131268129E-2,-6.108652451E-4
2.632008997E0,-4.886921961E-3,-4.703662544E-2,-1.221730490E-3
2.634022766E0,-6.108652335E-3,-4.520402849E-2,-6.108652451E-4
2.636006843E0,-1.038470957E-2,-4.276056588E-2,-1.221730490E-3
2.638020997E0,-9.162978269E-3,-3.848451003E-2,-1.832595794E-3
2.640004613E0,-9.773843922E-3,-3.359758854E-2,-1.221730490E-3
2.642018228E0,-9.162978269E-3,-2.871066704E-2,0.000000000E0
2.644002152E0,-7.941247895E-3,-2.076941915E-2,1.832595794E-3
2.646015767E0,-6.719517522E-3,-1.771509275E-2,1.832595794E-3
2.648030460E0,-6.719517522E-3,-1.038470957E-2,3.054326167E-3
2.650014229E0,-6.719517522E-3,-1.221730490E-3,3.054326167E-3
2.652024614E0,-6.719517522E-3,1.221730490E-3,2.443460980E-3
2.654011383E0,-6.108652335E-3,4.886921961E-3,3.054326167E-3
2.656026845E0,-6.108652335E-3,1.343903504E-2,3.054326167E-3
2.658009922E0,-6.719517522E-3,1.404990070E-2,1.832595794E-3
2.660023461E0,-5.497787148E-3,2.199114859E-2,2.443460980E-3
2.662007153E0,-6.719517522E-3,2.199114859E-2,4.276056774E-3
2.664021922E0,-9.773843922E-3,2.809980139E-2,4.886921961E-3
2.666005307E0,-1.160643995E-2,2.809980139E-2,5.497787148E-3
2.668019154E0,-1.099557430E-2,3.054326214E-2,6.108652335E-3
2.670003077E0,-1.099557430E-2,3.298672289E-2,5.497787148E-3
2.672017539E0,-1.282817032E-2,3.176499158E-2,5.497787148E-3
2.674000693E0,-1.282817032E-2,3.237585723E-2,3.665191587E-3
2.676015385E0,-1.343903504E-2,3.115412779E-2,4.276056774E-3
2.678029231E0,-1.343903504E-2,2.809980139E-2,4.276056774E-3
2.680013001E0,-1.404990070E-2,2.748893574E-2,6.108652335E-3
2.682026155E0,-1.160643995E-2,2.504547499E-2,7.941247895E-3
2.684010232E0,-1.099557430E-2,1.954768784E-2,7.941247895E-3
2.686024309E0,-1.160643995E-2,1.771509275E-2,5.497787148E-3
2.688008694E0,-1.099557430E-2,1.404990070E-2,4.886921961E-3
2.690022770E0,-6.719517522E-3,6.719517522E-3,4.886921961E-3
2.692005002E0,-6.719517522E-3,3.054326167E-3,4.886921961E-3
2.694020618E0,-4.886921961E-3,-1.832595794E-3,4.886921961E-3
2.696005310E0,-7.941247895E-3,-4.886921961E-3,3.054326167E-3
2.698017310E0,-6.108652335E-3,-1.099557430E-2,2.443460980E-3
2.700032618E0,-4.276056774E-3,-1.588249579E-2,2.443460980E-3
2.702015695E0,-3.665191587E-3,-2.076941915E-2,3.665191587E-3
2.704029619E0,-1.832595794E-3,-2.932153270E-2,4.276056774E-3
2.706014157E0,0.000000000E0,-3.543018550E-2,1.832595794E-3
2.708027388E0,1.832595794E-3,-3.726277873E-2,3.665191587E-3
2.710011773E0,3.054326167E-3,-4.031710699E-2,1.832595794E-3
2.712025542E0,4.276056774E-3,-4.398229718E-2,6.108652451E-4
2.714009542E0,4.886921961E-3,-4.520402849E-2,1.832595794E-3
2.716024081E0,4.886921961E-3,-4.642575979E-2,-2.443460980E-3
2.718007389E0,8.552113548E-3,-4.886921868E-2,-1.221730490E-3
2.720021850E0,7.941247895E-3,-4.825835302E-2,-1.832595794E-3
2.722004620E0,1.099557430E-2,-4.886921868E-2,-3.054326167E-3
2.724018850E0,1.099557430E-2,-5.009094998E-2,-2.443460980E-3
2.726002850E0,1.099557430E-2,-4.948008433E-2,-1.221730490E-3
2.728016698E0,1.099557430E-2,-4.948008433E-2,-1.832595794E-3
2.730031159E0,1.282817032E-2,-4.886921868E-2,-3.054326167E-3
2.732013928E0,1.099557430E-2,-4.520402849E-2,-1.832595794E-3
2.734028313E0,8.552113548E-3,-3.909537569E-2,-2.443460980E-3
2.736013928E0,1.038470957E-2,-3.970624134E-2,-1.221730490E-3
2.738026852E0,9.773843922E-3,-3.543018550E-2,-1.221730490E-3
2.740010468E0,1.160643995E-2,-2.871066704E-2,-1.221730490E-3
2.742024699E0,9.162978269E-3,-2.382374369E-2,-3.054326167E-3
2.744008314E0,5.497787148E-3,-2.199114859E-2,-1.832595794E-3
2.746022237E0,4.886921961E-3,-1.893682219E-2,0.000000000E0
2.748005622E0,3.665191587E-3,-1.649336144E-2,-6.108652451E-4
2.750020006E0,6.108652451E-4,-1.282817032E-2,-1.221730490E-3
2.752003700E0,-1.221730490E-3,-1.099557430E-2,-3.665191587E-3
2.754017930E0,-3.054326167E-3,-9.162978269E-3,-2.443460980E-3
2.756002469E0,-3.665191587E-3,-6.719517522E-3,-3.665191587E-3
2.758016315E0,-3.054326167E-3,-6.108652335E-3,-1.221730490E-3
2.760029931E0,-4.276056774E-3,-1.832595794E-3,-1.221730490E-3
2.762013008E0,-7.330383174E-3,1.832595794E-3,-1.832595794E-3
2.764027393E0,-6.719517522E-3,1.832595794E-3,-3.054326167E-3
2.766011393E0,-7.941247895E-3,4.276056774E-3,-3.665191587E-3
2.768024932E0,-7.330383174E-3,4.276056774E-3,-2.443460980E-3
2.770008316E0,-4.886921961E-3,4.276056774E-3,-4.276056774E-3
2.772022855E0,-4.886921961E-3,6.719517522E-3,-3.665191587E-3
2.774006163E0,-2.443460980E-3,6.719517522E-3,-4.276056774E-3
2.776019394E0,-2.443460980E-3,6.719517522E-3,-4.276056774E-3
2.778003702E0,-6.108652451E-4,4.886921961E-3,-1.832595794E-3
2.780018548E0,0.000000000E0,5.497787148E-3,1.832595794E-3
2.782002471E0,6.108652451E-4,4.886921961E-3,1.221730490E-3
2.784016702E0,-6.108652451E-4,5.497787148E-3,-6.108652451E-4
2.786031164E0,-1.221730490E-3,4.886921961E-3,-1.221730490E-3
2.788015087E0,-6.108652451E-4,5.497787148E-3,6.108652451E-4
2.790028318E0,-3.054326167E-3,4.886921961E-3,0.000000000E0
2.792013010E0,-5.497787148E-3,6.108652335E-3,-1.832595794E-3
2.794027164E0,-3.665191587E-3,6.108652335E-3,6.108652451E-4
2.796010472E0,-3.665191587E-3,6.108652335E-3,0.000000000E0
2.798024704E0,-4.276056774E-3,6.719517522E-3,-6.108652451E-4
2.800008012E0,-3.665191587E-3,4.886921961E-3,6.108652451E-4
2.802022242E0,-2.443460980E-3,4.276056774E-3,-6.108652451E-4
2.804005858E0,-4.276056774E-3,6.108652335E-3,-1.221730490E-3
2.806019473E0,-3.665191587E-3,3.054326167E-3,2.443460980E-3
2.808003088E0,-1.832595794E-3,-1.221730490E-3,0.000000000E0
2.810017859E0,-1.832595794E-3,6.108652451E-4,2.443460980E-3
2.812000628E0,-1.221730490E-3,0.000000000E0,0.000000000E0
2.814015089E0,-6.108652451E-4,-1.832595794E-3,2.443460980E-3
2.816031089E0,-6.108652451E-4,-5.497787148E-3,1.221730490E-3
2.818013936E0,6.108652451E-4,-4.276056774E-3,3.054326167E-3
2.820026859E0,1.221730490E-3,-6.719517522E-3,1.832595794E-3
2.822011167E0,1.221730490E-3,-9.162978269E-3,-6.108652451E-4
2.824025629E0,1.221730490E-3,-9.162978269E-3,1.221730490E-3
2.826008706E0,3.054326167E-3,-9.773843922E-3,6.108652451E-4
2.828022244E0,2.443460980E-3,-9.162978269E-3,6.108652451E-4
2.830006860E0,3.665191587E-3,-7.941247895E-3,6.108652451E-4
2.832021629E0,3.665191587E-3,-7.941247895E-3,-6.108652451E-4
2.834004399E0,6.108652335E-3,-1.099557430E-2,0.000000000E0
2.836019399E0,6.719517522E-3,-9.162978269E-3,1.221730490E-3
2.838001938E0,7.941247895E-3,-9.162978269E-3,1.221730490E-3
2.840016399E0,9.162978269E-3,-8.552113548E-3,3.665191587E-3
2.842030245E0,9.773843922E-3,-8.552113548E-3,3.054326167E-3
2.844014245E0,1.160643995E-2,-1.038470957E-2,1.832595794E-3
2.846028093E0,1.221730467E-2,-1.160643995E-2,3.054326167E-3
2.848012016E0,1.221730467E-2,-1.160643995E-2,2.443460980E-3
2.850025939E0,1.221730467E-2,-1.160643995E-2,4.276056774E-3
2.852009554E0,1.343903504E-2,-1.221730467E-2,2.443460980E-3
2.854024631E0,1.466076635E-2,-1.404990070E-2,1.832595794E-3
2.856008708E0,1.282817032E-2,-1.466076635E-2,3.665191587E-3
2.858021324E0,1.404990070E-2,-1.588249579E-2,3.054326167E-3
2.860005632E0,1.404990070E-2,-1.466076635E-2,2.443460980E-3
2.862019709E0,1.527163107E-2,-1.771509275E-2,3.665191587E-3
2.864003171E0,1.649336144E-2,-1.771509275E-2,1.832595794E-3
2.866017017E0,1.649336144E-2,-1.771509275E-2,2.443460980E-3
2.868001247E0,2.199114859E-2,-2.138028294E-2,4.276056774E-3
2.870014864E0,2.321287990E-2,-2.199114859E-2,3.054326167E-3
2.872029633E0,2.199114859E-2,-2.260201424E-2,2.443460980E-3
2.874013018E0,2.382374369E-2,-2.504547499E-2,4.886921961E-3
2.876027479E0,2.687807009E-2,-2.565634064E-2,4.886921961E-3
2.878010787E0,2.809980139E-2,-2.809980139E-2,4.886921961E-3
2.880024633E0,3.115412779E-2,-2.871066704E-2,4.886921961E-3
2.882008096E0,3.420845419E-2,-3.115412779E-2,6.108652335E-3
2.884023173E0,3.420845419E-2,-3.176499158E-2,6.108652335E-3
2.886006173E0,4.031710699E-2,-3.237585723E-2,7.330383174E-3
2.888019788E0,4.153883830E-2,-3.481931984E-2,5.497787148E-3
2.890004403E0,4.459316283E-2,-3.665191308E-2,7.941247895E-3
2.892015173E0,4.703662544E-2,-3.848451003E-2,3.665191587E-3
2.894032097E0,4.825835302E-2,-3.787364438E-2,7.941247895E-3
2.896017020E0,5.253441259E-2,-3.970624134E-2,5.497787148E-3
2.898030789E0,5.253441259E-2,-4.337143153E-2,5.497787148E-3
2.900014789E0,5.436700583E-2,-4.214970022E-2,6.108652335E-3
2.902028404E0,5.803219974E-2,-4.703662544E-2,5.497787148E-3
2.904011790E0,5.681046844E-2,-4.642575979E-2,3.665191587E-3
2.906025944E0,5.742133409E-2,-4.886921868E-2,3.054326167E-3
2.908009328E0,6.108652428E-2,-5.253441259E-2,4.276056774E-3
2.910023482E0,6.230825558E-2,-5.497787148E-2,3.054326167E-3
2.912008021E0,6.352998316E-2,-5.681046844E-2,1.832595794E-3
2.914021559E0,6.536258012E-2,-5.986479297E-2,2.443460980E-3
2.916005868E0,6.658431143E-2,-6.352998316E-2,6.108652451E-4
2.918019483E0,6.719517708E-2,-6.536258012E-2,1.221730490E-3
2.920003714E0,6.597344577E-2,-6.597344577E-2,6.108652451E-4
2.922016945E0,6.414084882E-2,-7.147123665E-2,-6.108652451E-4
2.924031099E0,6.169738993E-2,-7.513642311E-2,-1.832595794E-3
2.926014560E0,6.108652428E-2,-7.941248268E-2,-3.665191587E-3
2.928029023E0,5.803219974E-2,-8.368854225E-2,-3.665191587E-3
2.930012407E0,5.375614017E-2,-8.613199741E-2,-4.886921961E-3
2.932026177E0,4.948008433E-2,-8.796459436E-2,-8.552113548E-3
2.934011715E0,4.948008433E-2,-8.918632567E-2,-7.941247895E-3
2.936026561E0,4.398229718E-2,-9.101892263E-2,-1.038470957E-2
2.938007407E0,3.787364438E-2,-9.224065393E-2,-1.099557430E-2
2.940022255E0,3.604105115E-2,-9.162978828E-2,-1.160643995E-2
2.942005870E0,3.054326214E-2,-9.834930301E-2,-1.221730467E-2
2.944020639E0,2.382374369E-2,-9.773843735E-2,-1.404990070E-2
2.946003716E0,2.321287990E-2,-9.712757170E-2,-1.527163107E-2
2.948018178E0,1.832595654E-2,-1.020144969E-1,-1.588249579E-2
2.950000716E0,1.588249579E-2,-1.044579595E-1,-1.588249579E-2
2.952016409E0,1.527163107E-2,-1.032362282E-1,-1.649336144E-2
2.954029948E0,1.527163107E-2,-1.020144969E-1,-1.771509275E-2
2.956015486E0,1.282817032E-2,-1.020144969E-1,-1.893682219E-2
2.958027717E0,1.649336144E-2,-1.007927656E-1,-1.649336144E-2
2.960011717E0,1.649336144E-2,-9.896016866E-2,-1.527163107E-2
2.962024948E0,1.832595654E-2,-9.896016866E-2,-1.404990070E-2
2.964009257E0,2.076941915E-2,-9.590584040E-2,-9.162978269E-3
2.966023180E0,2.199114859E-2,-9.285151958E-2,-7.330383174E-3
2.968007411E0,2.443460934E-2,-9.162978828E-2,-8.552113548E-3
2.970021872E0,2.504547499E-2,-8.674286306E-2,-6.108652335E-3
2.972004103E0,2.748893574E-2,-7.757988572E-2,-7.330383174E-3
2.974018872E0,3.115412779E-2,-7.391469181E-2,-6.719517522E-3
2.976003719E0,3.176499158E-2,-6.291911751E-2,-7.330383174E-3
2.978017027E0,3.420845419E-2,-4.886921868E-2,-6.108652335E-3
2.980031488E0,3.543018550E-2,-4.214970022E-2,-6.108652335E-3
2.982014873E0,3.726277873E-2,-3.176499158E-2,-6.719517522E-3
2.984028335E0,3.909537569E-2,-2.871066704E-2,-7.330383174E-3
2.986012027E0,4.092797264E-2,-2.199114859E-2,-6.719517522E-3
2.988026797E0,3.909537569E-2,-1.404990070E-2,-3.054326167E-3
2.990009566E0,3.543018550E-2,-1.038470957E-2,-3.665191587E-3
2.992025566E0,2.871066704E-2,0.000000000E0,0.000000000E0
2.994008105E0,1.710422710E-2,6.108652335E-3,2.443460980E-3
2.996023182E0,1.038470957E-2,1.221730467E-2,3.665191587E-3
2.998006182E0,3.665191587E-3,2.076941915E-2,6.108652335E-3
3.000019491E0,-8.552113548E-3,2.565634064E-2,8.552113548E-3
3.002003721E0,-1.343903504E-2,2.748893574E-2,8.552113548E-3
3.004017567E0,-2.809980139E-2,3.298672289E-2,1.099557430E-2
3.006001567E0,-4.092797264E-2,4.337143153E-2,1.343903504E-2
3.008015183E0,-4.764748737E-2,4.520402849E-2,1.771509275E-2
3.010029952E0,-6.047565863E-2,6.475171447E-2,2.443460934E-2
3.012013338E0,-6.719517708E-2,9.346238524E-2,3.176499158E-2
3.014027107E0,-7.330382615E-2,1.533271819E-1,4.703662544E-2
3.016009338E0,-7.941248268E-2,1.771509200E-1,5.253441259E-2
3.018024645E0,-7.941248268E-2,1.771509200E-1,5.253441259E-2
3.020008722E0,-8.979719132E-2,2.083050460E-1,6.719517708E-2
3.022023107E0,-1.026253626E-1,2.266310006E-1,8.185594529E-2
3.024006877E0,-1.105666086E-1,2.327396572E-1,9.407325089E-2
3.026021262E0,-1.252273768E-1,2.412917763E-1,1.221730486E-1
3.028004339E0,-1.429424733E-1,2.498438805E-1,1.502728462E-1
3.030018800E0,-1.508837193E-1,2.590068579E-1,1.661553532E-1
3.032003185E0,-1.692096740E-1,2.712241709E-1,2.015855312E-1
3.034017031E0,-1.887573600E-1,2.834414840E-1,2.406809032E-1
3.036030801E0,-1.985312104E-1,2.938261926E-1,2.559525371E-1
3.038015109E0,-2.162462920E-1,3.060434759E-1,2.919935882E-1
3.040028647E0,-2.266310006E-1,3.176499307E-1,3.255911767E-1
3.042012109E0,-2.296853364E-1,3.213151097E-1,3.433062732E-1
3.044025878E0,-2.321287990E-1,3.310889602E-1,3.732386529E-1
3.046010264E0,-2.278527319E-1,3.359758854E-1,4.013384581E-1
3.048024341E0,-2.241875380E-1,3.384193480E-1,4.166100919E-1
3.050007418E0,-2.125810981E-1,3.426954150E-1,4.392121136E-1
3.052021649E0,-2.083050460E-1,3.439171314E-1,4.495968223E-1
3.054005572E0,-1.863138974E-1,3.494149148E-1,4.642575979E-1
3.056021033E0,-1.655444801E-1,3.536909819E-1,4.752531648E-1
3.058004419E0,-1.527163088E-1,3.549126983E-1,4.795292318E-1
3.060017573E0,-1.264491081E-1,3.561344445E-1,4.831944108E-1
3.062001957E0,-1.020144969E-1,3.543018401E-1,4.813618064E-1
3.064015188E0,-9.040805697E-2,3.530801237E-1,4.801400900E-1
3.066030265E0,-6.352998316E-2,3.463605940E-1,4.758640230E-1
3.068012957E0,-3.848451003E-2,3.365867436E-1,4.709770977E-1
3.070026881E0,-2.565634064E-2,3.298672438E-1,4.667010605E-1
3.072011727E0,-6.108652335E-3,3.176499307E-1,4.605923891E-1
3.074024958E0,6.108652335E-3,3.090978265E-1,4.593706727E-1
3.076009266E0,4.886921961E-3,3.084869385E-1,4.575380683E-1
3.078023804E0,-1.221730490E-3,3.060434759E-1,4.569272101E-1
3.080007112E0,-2.443460980E-3,3.048217595E-1,4.587597847E-1
3.082020728E0,-1.282817032E-2,2.932153046E-1,4.605923891E-1
3.084003498E0,-1.588249579E-2,2.724458873E-1,4.679227769E-1
3.086017882E0,-1.343903504E-2,2.553416789E-1,4.758640230E-1
3.088002190E0,-3.054326167E-3,2.125810981E-1,4.899139404E-1
3.090015729E0,7.941247895E-3,1.612684280E-1,5.100724697E-1
3.092029652E0,1.221730467E-2,1.319468915E-1,5.229006410E-1
3.094014806E0,2.382374369E-2,7.269296050E-2,5.467243791E-1
3.096029345E0,3.787364438E-2,1.527163107E-2,5.723807216E-1
3.098011422E0,4.214970022E-2,-1.038470957E-2,5.876523852E-1
3.100026576E0,5.558873713E-2,-5.986479297E-2,6.157521605E-1
3.102009576E0,6.475171447E-2,-9.957103431E-2,6.438519955E-1
3.104024037E0,7.024950534E-2,-1.178969890E-1,6.554583907E-1
3.106007423E0,8.124507964E-2,-1.441642046E-1,6.823364496E-1
3.108021654E0,9.468411654E-2,-1.637118906E-1,7.092145681E-1
3.110005346E0,1.001819000E-1,-1.704314053E-1,7.202101350E-1
3.112019807E0,1.136209369E-1,-1.802052408E-1,7.385360599E-1
3.114002577E0,1.185078546E-1,-1.887573600E-1,7.476990819E-1
3.116018577E0,1.264491081E-1,-2.058615834E-1,7.629706860E-1
3.118000732E0,1.343903542E-1,-2.254092693E-1,7.764097452E-1
3.120015116E0,1.417207420E-1,-2.351831198E-1,7.794640660E-1
3.122029347E0,1.533271819E-1,-2.590068579E-1,7.904596329E-1
3.124012732E0,1.655444801E-1,-2.846632004E-1,7.947356701E-1
3.126027501E0,1.692096740E-1,-2.981022298E-1,7.953465581E-1
3.128010885E0,1.820378453E-1,-3.243694305E-1,7.977899909E-1
3.130025886E0,1.912008226E-1,-3.518583775E-1,8.020660877E-1
3.132007502E0,1.936442852E-1,-3.622430861E-1,8.032878041E-1
3.134021963E0,1.979203373E-1,-3.878994286E-1,8.032878041E-1
3.136007425E0,1.973094791E-1,-4.111123085E-1,8.038986921E-1
3.138021348E0,1.936442852E-1,-4.221078753E-1,8.002334833E-1
3.140004425E0,1.936442852E-1,-4.434881806E-1,7.965682745E-1
3.142017964E0,1.930334121E-1,-4.697553813E-1,7.953465581E-1
3.144002195E0,1.942551434E-1,-4.856378734E-1,7.922922373E-1
3.146016118E0,1.960877478E-1,-5.155702829E-1,7.922922373E-1
3.148029657E0,1.973094791E-1,-5.357288122E-1,7.898487449E-1
3.150014195E0,2.003637999E-1,-5.656611919E-1,7.867944241E-1
3.152029272E0,2.034181207E-1,-5.931501389E-1,7.831292152E-1
3.154012042E0,2.021963894E-1,-6.059783101E-1,7.794640660E-1
3.156026273E0,2.040289938E-1,-6.291912198E-1,7.794640660E-1
3.158010273E0,2.028072625E-1,-6.481280327E-1,7.782423496E-1
3.160023812E0,2.003637999E-1,-6.542366743E-1,7.806857824E-1
3.162006581E0,1.991420686E-1,-6.652322412E-1,7.819074988E-1
3.164021042E0,1.966986060E-1,-6.707300544E-1,7.837401032E-1
3.166005351E0,1.936442852E-1,-6.695083380E-1,7.861835957E-1
3.168019736E0,1.912008226E-1,-6.676757336E-1,7.947356701E-1
3.170002813E0,1.844813079E-1,-6.627888083E-1,8.045095205E-1
3.172016736E0,1.789835095E-1,-6.579018831E-1,8.081747293E-1
3.174031736E0,1.728748679E-1,-6.475171447E-1,8.216137290E-1
3.176016428E0,1.618792862E-1,-6.334672570E-1,8.338310719E-1
3.178028429E0,1.582140923E-1,-6.243042946E-1,8.417723179E-1
3.180012429E0,1.478293836E-1,-6.072000265E-1,8.576548100E-1
3.182026506E0,1.417207420E-1,-5.943718553E-1,8.649851680E-1
3.184010275E0,1.337794960E-1,-5.729916096E-1,8.833111525E-1
3.186024660E0,1.221730486E-1,-5.479460955E-1,9.034696817E-1
3.188007814E0,1.178969890E-1,-5.332853794E-1,9.138544202E-1
3.190022507E0,1.050688252E-1,-5.002986193E-1,9.315695167E-1
3.192005969E0,9.651670605E-2,-4.630358517E-1,9.529497623E-1
3.194020353E0,9.346238524E-2,-4.453207552E-1,9.651671052E-1
3.196004661E0,8.246681094E-2,-4.080579877E-1,9.841039181E-1
3.198019122E0,7.819075137E-2,-3.701843321E-1,1.007927656E0
3.200000431E0,7.330382615E-2,-3.488040566E-1,1.018923283E0
3.202016046E0,6.719517708E-2,-3.072652221E-1,1.040914416E0
3.204030200E0,5.803219974E-2,-2.675589919E-1,1.064738154E0
3.206013893E0,5.497787148E-2,-2.455678284E-1,1.074512005E0
3.208027816E0,4.886921868E-2,-2.058615834E-1,1.095281363E0
3.210011431E0,4.214970022E-2,-1.722639948E-1,1.112996459E0
3.212021971E0,3.970624134E-2,-1.576032341E-1,1.122770309E0
3.214008971E0,3.054326214E-2,-1.233947799E-1,1.141096234E0
3.216024048E0,2.687807009E-2,-1.105666086E-1,1.150870085E0
3.218007201E0,1.832595654E-2,-8.429940045E-2,1.167974353E0
3.220021278E0,8.552113548E-3,-5.925392732E-2,1.182635069E0
3.222005048E0,1.221730490E-3,-4.703662544E-2,1.188743711E0
3.224019202E0,-6.719517522E-3,-2.687807009E-2,1.204015374E0
3.226002510E0,-2.015855350E-2,-7.941247895E-3,1.221119642E0
3.228016125E0,-2.626720630E-2,-6.108652451E-4,1.225395679E0
3.230031433E0,-3.726277873E-2,1.527163107E-2,1.238223910E0
3.232015433E0,-4.825835302E-2,2.565634064E-2,1.252884626E0
3.234028741E0,-5.314527452E-2,3.359758854E-2,1.257771492E0
3.236012973E0,-6.414084882E-2,4.520402849E-2,1.268767118E0
3.238027126E0,-7.513642311E-2,5.436700583E-2,1.284038782E0
3.240010511E0,-8.124507964E-2,6.047565863E-2,1.287703991E0
3.242025050E0,-9.224065393E-2,7.086037099E-2,1.299921274E0
3.244008127E0,-9.834930301E-2,7.086037099E-2,1.307862520E0
3.246022819E0,-1.123992056E-1,7.757988572E-2,1.317636371E0
3.248005281E0,-1.227839142E-1,8.246681094E-2,1.329242826E0
3.250020666E0,-1.307251602E-1,8.429940045E-2,1.332297087E0
3.252003128E0,-1.404990107E-1,8.613199741E-2,1.344514370E0
3.254017281E0,-1.710422635E-1,7.574728876E-2,1.357953429E0
3.256030204E0,-1.765400618E-1,7.391469181E-2,1.363451242E0
3.258013666E0,-1.850921661E-1,7.024950534E-2,1.364062071E0
3.260029898E0,-1.912008226E-1,6.414084882E-2,1.368949056E0
3.262013590E0,-1.985312104E-1,5.742133409E-2,1.372003317E0
3.264027205E0,-2.174680233E-1,4.703662544E-2,1.379333735E0
3.266011436E0,-2.296853364E-1,3.298672289E-2,1.379944563E0
3.268025590E0,-2.376265824E-1,2.932153270E-2,1.384220600E0
3.270009052E0,-2.528982162E-1,1.466076635E-2,1.388496757E0
3.272023745E0,-2.657263875E-1,2.443460980E-3,1.392772794E0
3.274007437E0,-2.687807083E-1,-7.330383174E-3,1.396438003E0
3.276021668E0,-2.791654170E-1,-1.588249579E-2,1.400103092E0
3.278005360E0,-2.840523422E-1,-2.260201424E-2,1.403157473E0
3.280018591E0,-2.938261926E-1,-3.176499158E-2,1.408044338E0
3.282002283E0,-3.011565804E-1,-3.848451003E-2,1.410487890E0
3.284016361E0,-3.029891551E-1,-4.153883830E-2,1.412931323E0
3.286030823E0,-3.084869385E-1,-4.337143153E-2,1.418429136E0
3.288013977E0,-3.152064681E-1,-4.153883830E-2,1.418429136E0
3.290028669E0,-3.152064681E-1,-3.848451003E-2,1.420261741E0
3.292011438E0,-3.219259977E-1,-3.787364438E-2,1.422094345E0
3.294025900E0,-3.268128932E-1,-2.932153270E-2,1.425759435E0
3.296011132E0,-3.310889602E-1,-2.138028294E-2,1.425759435E0
3.298024132E0,-3.365867436E-1,-1.404990070E-2,1.423926830E0
3.300008132E0,-3.414736688E-1,-2.443460980E-3,1.428202987E0
3.302022209E0,-3.445279896E-1,1.832595794E-3,1.428202987E0
3.304006593E0,-3.481931984E-1,1.588249579E-2,1.430035591E0
3.306019132E0,-3.536909819E-1,2.871066704E-2,1.432479024E0
3.308002594E0,-3.555235863E-1,3.604105115E-2,1.433089852E0
3.310017902E0,-3.585779071E-1,4.948008433E-2,1.433089852E0
3.312001594E0,-3.591887653E-1,5.497787148E-2,1.433089852E0
3.314015517E0,-3.579670191E-1,6.414084882E-2,1.437365890E0
3.316030210E0,-3.597996235E-1,7.513642311E-2,1.437976837E0
3.318013287E0,-3.591887653E-1,8.063421398E-2,1.437976837E0
3.320028134E0,-3.567453027E-1,8.491026610E-2,1.438587666E0
3.322010595E0,-3.530801237E-1,9.040805697E-2,1.441031098E0
3.324025364E0,-3.512475193E-1,9.224065393E-2,1.444085479E0
3.326009057E0,-3.549126983E-1,9.285151958E-2,1.445307136E0
3.328023518E0,-3.530801237E-1,9.101892263E-2,1.445307136E0
3.330006595E0,-3.543018401E-1,8.796459436E-2,1.447139740E0
3.332020981E0,-3.567453027E-1,8.491026610E-2,1.448972344E0
3.334004750E0,-3.585779071E-1,7.696902007E-2,1.450804949E0
3.336019827E0,-3.579670191E-1,7.330382615E-2,1.450804949E0
3.338001365E0,-3.591887653E-1,6.658431143E-2,1.453859329E0
3.340016673E0,-3.610213697E-1,5.619960278E-2,1.455080986E0
3.342031136E0,-3.610213697E-1,5.375614017E-2,1.453859329E0
3.344013982E0,-3.622430861E-1,4.398229718E-2,1.455691934E0
3.346028136E0,-3.622430861E-1,4.214970022E-2,1.456302762E0
3.348012059E0,-3.640756905E-1,3.481931984E-2,1.456913590E0
3.350025982E0,-3.677408695E-1,3.359758854E-2,1.456913590E0
3.352010520E0,-3.701843321E-1,3.115412779E-2,1.458135366E0
3.354023752E0,-3.756821156E-1,2.993239649E-2,1.459967971E0
3.356008752E0,-3.805690408E-1,2.871066704E-2,1.460578799E0
3.358021675E0,-3.860668242E-1,2.932153270E-2,1.461800575E0
3.360005598E0,-3.952298164E-1,2.871066704E-2,1.463633180E0
3.362019521E0,-4.050036669E-1,3.543018550E-2,1.466687441E0
3.364002521E0,-4.105014503E-1,3.787364438E-2,1.466076612E0
3.366017907E0,-4.208861589E-1,4.398229718E-2,1.467909217E0
3.368001292E0,-4.331034720E-1,5.742133409E-2,1.470352650E0
3.370014830E0,-4.355469346E-1,6.352998316E-2,1.469130874E0
3.372028369E0,-4.428772926E-1,8.063421398E-2,1.472796082E0
3.374012446E0,-4.502076805E-1,9.101892263E-2,1.470963478E0
3.376028138E0,-4.557054639E-1,1.093448773E-1,1.475239515E0
3.378011139E0,-4.660901725E-1,1.380555481E-1,1.475850463E0
3.380024677E0,-4.697553813E-1,1.514945775E-1,1.477072120E0
3.382009062E0,-4.740314186E-1,1.795943826E-1,1.475850463E0
3.384022523E0,-4.819726646E-1,2.101376504E-1,1.474628687E0
3.386006600E0,-4.825835526E-1,2.272418737E-1,1.473407030E0
3.388020062E0,-4.886921942E-1,2.614503205E-1,1.471574426E0
3.390004755E0,-4.905247986E-1,2.926044464E-1,1.469130874E0
3.392018601E0,-4.941899776E-1,3.115412891E-1,1.465465665E0
3.394001371E0,-4.960225821E-1,3.439171314E-1,1.464854836E0
3.396017063E0,-4.954117239E-1,3.744603992E-1,1.456913590E0
3.398030909E0,-4.966334403E-1,3.915646076E-1,1.452026725E0
3.400013678E0,-4.954117239E-1,4.190535545E-1,1.445307136E0
3.402028141E0,-4.948008358E-1,4.453207552E-1,1.437365890E0
3.404011756E0,-4.948008358E-1,4.581489265E-1,1.429424644E0
3.406026295E0,-4.929682612E-1,4.825835526E-1,1.418429136E0
3.408009679E0,-4.911356568E-1,4.948008358E-1,1.413542151E0
3.410023449E0,-4.929682612E-1,5.161811113E-1,1.402546644E0
3.412006526E0,-4.893030524E-1,5.345070958E-1,1.386664152E0
3.414022527E0,-4.905247986E-1,5.485569835E-1,1.382387996E0
3.416006296E0,-4.899139404E-1,5.650503635E-1,1.370170712E0
3.418018911E0,-4.874704778E-1,5.845980644E-1,1.355509996E0
3.420002603E0,-4.838052690E-1,5.919284225E-1,1.348790407E0
3.422016680E0,-4.819726646E-1,6.090326309E-1,1.334740520E0
3.424030911E0,-4.813618064E-1,6.273586154E-1,1.322523236E0
3.426015143E0,-4.758640230E-1,6.346889734E-1,1.313971162E0
3.428029066E0,-4.728097022E-1,6.493497491E-1,1.302975535E0
3.430012066E0,-4.660901725E-1,6.621779203E-1,1.290758252E0
3.432028374E0,-4.630358517E-1,6.664539576E-1,1.285871387E0
3.434010604E0,-4.532620013E-1,6.780604124E-1,1.277930140E0
3.436025374E0,-4.483750761E-1,6.835582256E-1,1.267545342E0
3.438009067E0,-4.459316432E-1,6.835582256E-1,1.262047648E0
3.440022298E0,-4.386012554E-1,6.811147332E-1,1.255938888E0
3.442006221E0,-4.367686510E-1,6.792821288E-1,1.246775985E0
3.444020144E0,-4.294382632E-1,6.646214128E-1,1.240667343E0
3.446003529E0,-4.245513380E-1,6.438519955E-1,1.232115149E0
3.448017375E0,-4.227187634E-1,6.291912198E-1,1.226006508E0
3.450001683E0,-4.159992337E-1,5.986479521E-1,1.211345792E0
3.452015222E0,-4.117231667E-1,5.601634383E-1,1.196684957E0
3.454030299E0,-4.092797041E-1,5.345070958E-1,1.192408919E0
3.456014530E0,-4.043927789E-1,4.868595898E-1,1.177137375E0
3.458028453E0,-3.970624208E-1,4.337143302E-1,1.158200502E0
3.460011760E0,-3.952298164E-1,4.068362415E-1,1.148426652E0
3.462026223E0,-3.885102868E-1,3.500257730E-1,1.126435518E0
3.464009377E0,-3.769038618E-1,2.926044464E-1,1.104444385E0
3.466023531E0,-3.726277947E-1,2.669481039E-1,1.092227101E0
3.468007146E0,-3.646865487E-1,2.113593817E-1,1.069014192E0
3.470021685E0,-3.536909819E-1,1.539380401E-1,1.042747021E0
3.472005685E0,-3.494149148E-1,1.288925707E-1,1.031140566E0
3.474018532E0,-3.390302062E-1,7.696902007E-2,1.005484223E0
3.476003839E0,-3.335324228E-1,4.886921868E-2,9.920451641E-1
3.478017070E0,-3.231477141E-1,-3.054326167E-3,9.688322544E-1
3.480031147E0,-3.090978265E-1,-5.803219974E-2,9.431759119E-1
3.482014532E0,-3.066543639E-1,-8.246681094E-2,9.321803451E-1
3.484028994E0,-2.926044464E-1,-1.374446750E-1,9.065240026E-1
3.486012456E0,-2.755002379E-1,-1.936442852E-1,8.833111525E-1
3.488026610E0,-2.687807083E-1,-2.229658216E-1,8.729264140E-1
3.490010225E0,-2.510656118E-1,-2.797762752E-1,8.497135639E-1
3.492023763E0,-2.345722616E-1,-3.384193480E-1,8.240572214E-1
3.494007225E0,-2.083050460E-1,-4.178318381E-1,7.898487449E-1
3.496020688E0,-1.997529417E-1,-4.434881806E-1,7.776314616E-1
3.498005918E0,-1.905899495E-1,-4.654793143E-1,7.672467232E-1
3.500020380E0,-1.826487035E-1,-4.856378734E-1,7.556403279E-1
3.502004072E0,-1.649336219E-1,-5.247332454E-1,7.287622094E-1
3.504017995E0,-1.569923609E-1,-5.406157374E-1,7.171558142E-1
3.506001688E0,-1.398881376E-1,-5.699372888E-1,6.896668673E-1
3.508014919E0,-1.240056455E-1,-5.925393105E-1,6.664539576E-1
3.510029689E0,-1.160643995E-1,-6.017022729E-1,6.536257863E-1
3.512013996E0,-1.050688252E-1,-6.133087277E-1,6.285803318E-1
3.514027227E0,-9.407325089E-2,-6.243042946E-1,6.065891981E-1
3.516012689E0,-9.101892263E-2,-6.230825782E-1,5.955936313E-1
3.518025381E0,-8.552113175E-2,-6.169738770E-1,5.791002512E-1
3.520009382E0,-8.429940045E-2,-6.047565937E-1,5.650503635E-1
3.522023536E0,-8.185594529E-2,-5.913175344E-1,5.589417219E-1
3.524006613E0,-7.819075137E-2,-5.626068711E-1,5.479460955E-1
3.526020997E0,-7.880161703E-2,-5.210680366E-1,5.461135507E-1
3.528003843E0,-8.002334833E-2,-4.978551865E-1,5.467243791E-1
3.530018843E0,-8.307767659E-2,-4.440990388E-1,5.473352671E-1
3.532001383E0,-8.491026610E-2,-3.848451078E-1,5.577199459E-1
3.534015768E0,-8.491026610E-2,-3.543018401E-1,5.595525503E-1
3.536031845E0,-9.224065393E-2,-2.889392674E-1,5.711590052E-1
3.538014306E0,-9.224065393E-2,-2.559525371E-1,5.791002512E-1
3.540028152E0,-9.773843735E-2,-1.887573600E-1,5.968153477E-1
3.542011768E0,-1.038470939E-1,-1.276708394E-1,6.114761233E-1
3.544026615E0,-1.075122803E-1,-9.285151958E-2,6.212499738E-1
3.546009615E0,-1.142318025E-1,-3.298672289E-2,6.365215778E-1
3.548024076E0,-1.178969890E-1,2.260201424E-2,6.524040699E-1
3.550007769E0,-1.221730486E-1,4.825835302E-2,6.603453159E-1
3.552022307E0,-1.282816976E-1,1.001819000E-1,6.707300544E-1
3.554004999E0,-1.313360333E-1,1.466076523E-1,6.811147332E-1
3.556019847E0,-1.301143020E-1,1.685988009E-1,6.811147332E-1
3.558003847E0,-1.343903542E-1,2.076941878E-1,6.847799420E-1
3.560018308E0,-1.350012124E-1,2.431243658E-1,6.798930168E-1
3.562001385E0,-1.374446750E-1,2.638937831E-1,6.792821288E-1
3.564016154E0,-1.362229437E-1,2.950479090E-1,6.688974500E-1
3.566029923E0,-1.398881376E-1,3.243694305E-1,6.536257863E-1
3.568012463E0,-1.380555481E-1,3.384193480E-1,6.438519955E-1
3.570027232E0,-1.386664063E-1,3.665191531E-1,6.230825782E-1
3.572011540E0,-1.404990107E-1,3.762930036E-1,6.108652353E-1
3.574026617E0,-1.429424733E-1,3.964515328E-1,5.864306092E-1
3.576010540E0,-1.466076523E-1,4.153883755E-1,5.577199459E-1
3.578022001E0,-1.466076523E-1,4.233296216E-1,5.442809463E-1
3.580006849E0,-1.533271819E-1,4.398229718E-1,5.161811113E-1
3.582021002E0,-1.600466967E-1,4.532620013E-1,4.917465150E-1
3.584004464E0,-1.606575549E-1,4.599815309E-1,4.801400900E-1
3.586018849E0,-1.679879427E-1,4.728097022E-1,4.557054639E-1
3.588002233E0,-1.728748679E-1,4.862487316E-1,4.379903674E-1
3.590016772E0,-1.759291887E-1,4.917465150E-1,4.282165468E-1
3.592031542E0,-1.783726513E-1,5.002986193E-1,4.141666293E-1
3.594013927E0,-1.820378453E-1,5.070181489E-1,4.037819207E-1
3.596029003E0,-1.850921661E-1,5.125159621E-1,4.007275999E-1
3.598011465E0,-1.899790913E-1,5.180137157E-1,3.964515328E-1
3.600027157E0,-1.905899495E-1,5.235115290E-1,3.946189582E-1
3.602009696E0,-1.942551434E-1,5.271766782E-1,3.964515328E-1
3.604023235E0,-1.997529417E-1,5.320636034E-1,3.982841372E-1
3.606008081E0,-2.034181207E-1,5.314527750E-1,4.037819207E-1
3.608022005E0,-2.064724565E-1,5.338962078E-1,4.111123085E-1
3.610005081E0,-2.138028294E-1,5.369505286E-1,4.190535545E-1
3.612016466E0,-2.168571651E-1,5.375614166E-1,4.233296216E-1
3.614032774E0,-2.272418737E-1,5.369505286E-1,4.367686510E-1
3.616018006E0,-2.382374406E-1,5.320636034E-1,4.477642179E-1
3.618001390E0,-2.449569702E-1,5.314527750E-1,4.526511431E-1
3.620015159E0,-2.596177161E-1,5.259549618E-1,4.630358517E-1
3.622029390E0,-2.700024247E-1,5.155702829E-1,4.746423066E-1
3.624013313E0,-2.755002379E-1,5.100724697E-1,4.801400900E-1
3.626027544E0,-2.883284092E-1,4.954117239E-1,4.899139404E-1
3.628010545E0,-2.974913716E-1,4.776966274E-1,4.978551865E-1
3.630025007E0,-3.023782969E-1,4.679227769E-1,5.002986193E-1
3.632010007E0,-3.103195429E-1,4.434881806E-1,5.033529401E-1
3.634023160E0,-3.139847219E-1,4.202753007E-1,5.070181489E-1
3.636006853E0,-3.158173263E-1,4.037819207E-1,5.070181489E-1
3.638020392E0,-3.237585723E-1,3.726277947E-1,5.088507533E-1
3.640004392E0,-3.280346394E-1,3.555235863E-1,5.057964325E-1
3.642018008E0,-3.384193480E-1,3.207042515E-1,5.033529401E-1
3.644002623E0,-3.512475193E-1,2.834414840E-1,5.009095073E-1
3.646016469E0,-3.536909819E-1,2.632829249E-1,4.978551865E-1
3.648030315E0,-3.659082949E-1,2.229658216E-1,4.917465150E-1
3.650013932E0,-3.720169365E-1,1.814269722E-1,4.819726646E-1
3.652027547E0,-3.726277947E-1,1.563815027E-1,4.783074856E-1
3.654012162E0,-3.769038618E-1,1.142318025E-1,4.691445231E-1
3.656027855E0,-3.714060783E-1,7.024950534E-2,4.587597847E-1
3.658009009E0,-3.689626157E-1,4.764748737E-2,4.532620013E-1
3.660024162E0,-3.610213697E-1,1.832595794E-3,4.392121136E-1
3.662007163E0,-3.475823104E-1,-4.153883830E-2,4.282165468E-1
3.664021933E0,-3.371976018E-1,-6.475171447E-2,4.208861589E-1
3.666005087E0,-3.194825351E-1,-1.105666086E-1,4.074471295E-1
3.668020087E0,-3.090978265E-1,-1.343903542E-1,4.013384581E-1
3.670003240E0,-2.828305960E-1,-1.808161139E-1,3.872885704E-1
3.672017702E0,-2.608394623E-1,-2.309070677E-1,3.732386529E-1
3.674000780E0,-2.474004179E-1,-2.553416789E-1,3.671300113E-1
3.676015241E0,-2.278527319E-1,-3.066543639E-1,3.536909819E-1
3.678029395E0,-2.076941878E-1,-3.610213697E-1,3.390302062E-1
3.680013318E0,-1.979203373E-1,-3.854559660E-1,3.329215646E-1
3.682027780E0,-1.777617931E-1,-4.386012554E-1,3.219259977E-1
3.684010011E0,-1.631010175E-1,-4.899139404E-1,3.097086847E-1
3.686024781E0,-1.576032341E-1,-5.119050741E-1,3.042109013E-1
3.688008396E0,-1.453859210E-1,-5.552765131E-1,2.944370508E-1
3.690022858E0,-1.362229437E-1,-5.937610269E-1,2.858849466E-1
3.692005089E0,-1.331686229E-1,-6.114761233E-1,2.809980214E-1
3.694020089E0,-1.264491081E-1,-6.346889734E-1,2.773328125E-1
3.696005012E0,-1.240056455E-1,-6.511823535E-1,2.706133127E-1
3.698018320E0,-1.191187203E-1,-6.572909951E-1,2.700024247E-1
3.700002320E0,-1.166752651E-1,-6.652322412E-1,2.693915665E-1
3.702016167E0,-1.178969890E-1,-6.664539576E-1,2.669481039E-1
3.704030936E0,-1.172861308E-1,-6.603453159E-1,2.706133127E-1
3.706013705E0,-1.221730486E-1,-6.499606371E-1,2.718350291E-1
3.708028090E0,-1.221730486E-1,-6.426302195E-1,2.706133127E-1
3.710011783E0,-1.270599663E-1,-6.285803318E-1,2.761110961E-1
3.712025321E0,-1.343903542E-1,-6.078109145E-1,2.773328125E-1
3.714009629E0,-1.392772794E-1,-5.949827433E-1,2.767219543E-1
3.716025014E0,-1.478293836E-1,-5.632177591E-1,2.828305960E-1
3.718007552E0,-1.533271819E-1,-5.314527750E-1,2.895501256E-1
3.720022321E0,-1.551597714E-1,-5.155702829E-1,2.919935882E-1
3.722005015E0,-1.606575549E-1,-4.807509482E-1,3.017674387E-1
3.724018938E0,-1.673770845E-1,-4.349360466E-1,3.103195429E-1
3.726002861E0,-1.685988009E-1,-4.123340547E-1,3.145956099E-1
3.728016169E0,-1.692096740E-1,-3.671300113E-1,3.255911767E-1
3.730031784E0,-1.740965992E-1,-3.188716471E-1,3.329215646E-1
3.732013938E0,-1.765400618E-1,-2.932153046E-1,3.384193480E-1
3.734028708E0,-1.783726513E-1,-1.930334121E-1,3.567453027E-1
3.736011247E0,-1.783726513E-1,-1.930334121E-1,3.567453027E-1
3.738026247E0,-1.777617931E-1,-1.685988009E-1,3.585779071E-1
3.740010554E0,-1.759291887E-1,-1.154535338E-1,3.683517575E-1
3.742025016E0,-1.771509200E-1,-8.979719132E-2,3.689626157E-1
3.744008400E0,-1.759291887E-1,-4.092797264E-2,3.744603992E-1
3.746022555E0,-1.753183305E-1,7.941247895E-3,3.756821156E-1
3.748005940E0,-1.728748679E-1,2.809980139E-2,3.769038618E-1
3.750020401E0,-1.685988009E-1,7.086037099E-2,3.811798990E-1
3.752004094E0,-1.624901593E-1,1.105666086E-1,3.762930036E-1
3.754018632E0,-1.631010175E-1,1.325577646E-1,3.805690408E-1
3.756002017E0,-1.606575549E-1,1.643227488E-1,3.756821156E-1
3.758015787E0,-1.563815027E-1,1.973094791E-1,3.744603992E-1
3.760030326E0,-1.545489132E-1,2.138028294E-1,3.726277947E-1
3.762012479E0,-1.527163088E-1,2.400700450E-1,3.665191531E-1
3.764027556E0,-1.490511149E-1,2.675589919E-1,3.622430861E-1
3.766011249E0,-1.466076523E-1,2.773328125E-1,3.604104817E-1
3.768025403E0,-1.441642046E-1,2.987131178E-1,3.555235863E-1
3.770009096E0,-1.435533315E-1,3.078760803E-1,3.500257730E-1
3.772022634E0,-1.362229437E-1,3.213151097E-1,3.457497358E-1
3.774006865E0,-1.337794960E-1,3.298672438E-1,3.396410644E-1
3.776022019E0,-1.307251602E-1,3.335324228E-1,3.371976018E-1
3.778005019E0,-1.258382350E-1,3.371976018E-1,3.323107064E-1
3.780019481E0,-1.185078546E-1,3.316998184E-1,3.237585723E-1
3.782002328E0,-1.111774743E-1,3.255911767E-1,3.231477141E-1
3.784016712E0,-1.069014147E-1,3.152064681E-1,3.139847219E-1
3.786030866E0,-1.001819000E-1,3.029891551E-1,3.084869385E-1
3.788013943E0,-9.773843735E-2,2.919935882E-1,3.029891551E-1
3.790028405E0,-9.162978828E-2,2.693915665E-1,2.950479090E-1
3.792012790E0,-8.674286306E-2,2.486221492E-1,2.889392674E-1
3.794026329E0,-8.552113175E-2,2.357939780E-1,2.858849466E-1
3.796010636E0,-8.429940045E-2,2.095267773E-1,2.748893499E-1
3.798024483E0,-8.002334833E-2,1.948660165E-1,2.736676335E-1
3.800008175E0,-7.574728876E-2,1.673770845E-1,2.645046413E-1
3.802021713E0,-7.269296050E-2,1.404990107E-1,2.559525371E-1
3.804005407E0,-7.024950534E-2,1.258382350E-1,2.553416789E-1
3.806019484E0,-6.536258012E-2,1.014036313E-1,2.449569702E-1
3.808003560E0,-5.986479297E-2,7.452555746E-2,2.406809032E-1
3.810017407E0,-6.169738993E-2,6.475171447E-2,2.357939780E-1
3.812001099E0,-5.864306539E-2,3.909537569E-2,2.290744632E-1
3.814015868E0,-5.558873713E-2,1.343903504E-2,2.229658216E-1
3.816031254E0,-5.314527452E-2,3.665191587E-3,2.193006277E-1
3.818012485E0,-4.825835302E-2,-2.443460934E-2,2.138028294E-1
3.820026946E0,-4.276056588E-2,-5.253441259E-2,2.083050460E-1
3.822010561E0,-3.909537569E-2,-6.780604273E-2,2.070833147E-1
3.824025408E0,-3.298672289E-2,-9.834930301E-2,1.979203373E-1
3.826009023E0,-2.993239649E-2,-1.252273768E-1,1.924225539E-1
3.828022639E0,-2.626720630E-2,-1.398881376E-1,1.893682331E-1
3.830007255E0,-2.443460934E-2,-1.685988009E-1,1.844813079E-1
3.832021639E0,-1.954768784E-2,-1.863138974E-1,1.826487035E-1
3.834004178E0,-1.954768784E-2,-2.089159191E-1,1.740965992E-1
3.836020486E0,-1.588249579E-2,-2.321287990E-1,1.685988009E-1
3.838003178E0,-1.527163107E-2,-2.406809032E-1,1.661553532E-1
3.840016179E0,-1.160643995E-2,-2.602286041E-1,1.588249654E-1
3.842030640E0,-5.497787148E-3,-2.718350291E-1,1.490511149E-1
3.844013717E0,-1.221730490E-3,-2.773328125E-1,1.466076523E-1
3.846028794E0,5.497787148E-3,-2.816088796E-1,1.380555481E-1
3.848011871E0,1.221730467E-2,-2.858849466E-1,1.325577646E-1
3.850025410E0,1.588249579E-2,-2.852740586E-1,1.276708394E-1
3.852009103E0,2.382374369E-2,-2.809980214E-1,1.197295859E-1
3.854022949E0,2.932153270E-2,-2.736676335E-1,1.123992056E-1
3.856007872E0,3.115412779E-2,-2.681698501E-1,1.087340117E-1
3.858021949E0,3.420845419E-2,-2.553416789E-1,1.014036313E-1
3.860005334E0,3.604105115E-2,-2.412917763E-1,9.468411654E-2
3.862019488E0,3.604105115E-2,-2.327396572E-1,9.407325089E-2
3.864003181E0,3.970624134E-2,-2.150245607E-1,8.674286306E-2
3.866017104E0,3.787364438E-2,-2.034181207E-1,8.429940045E-2
3.868030950E0,3.848451003E-2,-1.802052408E-1,8.307767659E-2
3.870014950E0,3.726277873E-2,-1.557706445E-1,7.819075137E-2
3.872030335E0,3.481931984E-2,-1.453859210E-1,7.757988572E-2
3.874013412E0,3.604105115E-2,-1.172861308E-1,7.696902007E-2
3.876027797E0,2.932153270E-2,-9.101892263E-2,7.880161703E-2
3.878010336E0,2.871066704E-2,-7.513642311E-2,8.124507964E-2
3.880025336E0,2.565634064E-2,-4.886921868E-2,8.368854225E-2
3.882008720E0,2.260201424E-2,-2.565634064E-2,8.552113175E-2
3.884022644E0,2.199114859E-2,-1.466076635E-2,9.162978828E-2
3.886006567E0,2.076941915E-2,5.497787148E-3,9.407325089E-2
3.888020106E0,1.710422710E-2,2.687807009E-2,1.001819000E-1
3.890004106E0,1.771509275E-2,3.420845419E-2,1.020144969E-1
3.892017722E0,1.527163107E-2,5.253441259E-2,1.062905490E-1
3.894002645E0,1.893682219E-2,6.475171447E-2,1.062905490E-1
3.896017645E0,2.076941915E-2,7.208210230E-2,1.056796908E-1
3.897998875E0,2.565634064E-2,8.185594529E-2,1.075122803E-1
3.900014030E0,2.687807009E-2,8.735372871E-2,1.026253626E-1
3.902028415E0,3.359758854E-2,9.712757170E-2,1.014036313E-1
3.904011799E0,3.787364438E-2,1.020144969E-1,9.468411654E-2
3.906026261E0,4.398229718E-2,1.069014147E-1,8.918632567E-2
3.908009030E0,4.948008433E-2,1.111774743E-1,8.063421398E-2
3.910023876E0,5.619960278E-2,1.123992056E-1,6.902777404E-2
3.912008108E0,5.925392732E-2,1.123992056E-1,6.536258012E-2
3.914021724E0,6.475171447E-2,1.093448773E-1,5.497787148E-2
3.916005954E0,6.352998316E-2,1.056796908E-1,3.909537569E-2
3.918020108E0,6.414084882E-2,1.014036313E-1,3.420845419E-2
3.920003262E0,6.414084882E-2,9.896016866E-2,1.954768784E-2
3.922017031E0,6.108652428E-2,8.918632567E-2,8.552113548E-3
3.924031878E0,5.986479297E-2,8.979719132E-2,4.886921961E-3
3.926014648E0,5.742133409E-2,8.552113175E-2,-4.276056774E-3
3.928029725E0,5.619960278E-2,8.002334833E-2,-1.343903504E-2
3.930012802E0,5.864306539E-2,7.757988572E-2,-1.527163107E-2
3.932024109E0,5.803219974E-2,7.696902007E-2,-2.015855350E-2
3.934009726E0,5.619960278E-2,7.696902007E-2,-2.321287990E-2
3.936025341E0,5.681046844E-2,7.452555746E-2,-2.504547499E-2
3.938008803E0,5.619960278E-2,7.330382615E-2,-2.382374369E-2
3.940022956E0,5.681046844E-2,7.391469181E-2,-2.626720630E-2
3.942005726E0,5.619960278E-2,7.452555746E-2,-2.321287990E-2
3.944020110E0,5.192354694E-2,7.208210230E-2,-2.015855350E-2
3.946004111E0,4.948008433E-2,7.513642311E-2,-2.260201424E-2
3.948018034E0,4.764748737E-2,7.269296050E-2,-2.076941915E-2
3.950001957E0,4.581489414E-2,6.902777404E-2,-2.015855350E-2
