"Time (s)","Linear Acceleration x (m/s^2)","Linear Acceleration y (m/s^2)","Linear Acceleration z (m/s^2)"
1.564893400E-2,1.420331001E-2,-4.283809662E-2,1.523666382E-1
2.364463400E-2,-2.671475410E-1,-9.462022781E-2,2.147998810E-1
3.164148900E-2,-5.849636793E-1,-8.269309998E-3,2.627973557E-1
3.966772800E-2,-7.537391782E-1,3.055262566E-2,2.440958023E-1
4.766219900E-2,-6.991983652E-1,2.490758896E-3,2.047176361E-1
5.565905400E-2,-5.708093047E-1,1.106762886E-2,1.412734985E-1
6.365421600E-2,-4.405020475E-1,1.002204418E-1,8.128452301E-2
7.164899400E-2,-3.482738733E-1,1.794674397E-1,4.828548431E-2
7.964646300E-2,-2.245548964E-1,2.444877625E-1,-4.840850830E-3
8.764101100E-2,-1.142672300E-1,2.413313389E-1,-5.216217041E-2
9.566678800E-2,-2.050185204E-2,2.434682846E-1,-1.324367523E-2
1.036618740E-1,-7.709503174E-3,2.288389206E-1,-9.439468384E-3
1.116578830E-1,-7.573130727E-2,1.739091873E-1,-1.345443726E-2
1.196541990E-1,-1.429041177E-1,8.953166008E-2,-7.630348206E-3
1.276492850E-1,-1.951211840E-1,3.199172020E-2,1.439094543E-2
1.356446770E-1,-2.396214604E-1,-3.065013885E-2,6.682777405E-2
1.436407630E-1,-2.498048842E-1,-1.012935638E-1,1.048603058E-1
1.516668490E-1,-2.668277621E-1,-1.620531082E-1,1.329765320E-1
1.596626270E-1,-2.280526459E-1,-1.928648949E-1,1.407251358E-1
1.676580200E-1,-1.875092685E-1,-1.734948158E-1,1.432266235E-1
1.756534130E-1,-1.466918290E-1,-1.398293972E-1,1.326141357E-1
1.836484220E-1,-1.002961621E-1,-1.346712112E-1,1.173391342E-1
1.916445070E-1,-5.119803548E-2,-9.592676163E-2,1.002082825E-1
1.996413620E-1,-5.696492642E-2,-6.688904762E-2,1.350936890E-1
2.076663710E-1,-9.515506029E-2,-6.464052200E-2,1.291875839E-1
2.156623020E-1,-6.074775383E-2,-5.911254883E-2,1.048173904E-1
2.236583880E-1,-3.666925058E-2,-5.383872986E-2,8.775138855E-2
2.316534730E-1,-1.527081802E-2,-3.431487083E-2,6.089782715E-2
2.396494820E-1,-2.199117467E-2,-2.530789375E-2,2.612876892E-2
2.476444910E-1,2.272520773E-2,-4.349088669E-2,-1.001453400E-2
2.556399610E-1,3.802689537E-2,-5.295729637E-2,-3.617382050E-2
2.636660470E-1,4.745486751E-2,-1.403307915E-2,-8.087539673E-2
2.716618240E-1,7.467135787E-2,3.423190117E-2,-8.082008362E-2
2.796589870E-1,9.704168886E-2,2.960252762E-2,-5.032634735E-2
2.876532250E-1,1.061532870E-1,5.005645752E-2,-3.515815735E-2
2.956486190E-1,1.149484962E-1,4.524898529E-2,-2.685356140E-2
3.036443200E-1,7.297635078E-2,4.531455040E-2,-4.006099701E-2
3.116400210E-1,8.007935435E-2,3.735828400E-2,-5.703544617E-2
3.196674140E-1,8.798322082E-2,5.673646927E-3,-5.719280243E-2
3.276621150E-1,1.102717817E-1,-4.256844521E-2,-3.814315796E-2
3.356569700E-1,6.029158831E-2,-6.448984146E-2,-5.261421204E-2
3.436525940E-1,3.368729353E-2,-7.209944725E-2,-2.639579773E-2
3.516480640E-1,-7.250811905E-4,-1.395063400E-1,-4.949569702E-3
3.596455340E-1,-7.321976591E-3,-1.683657169E-1,9.380340576E-3
3.676391580E-1,1.157941576E-2,-2.303311825E-1,6.212902069E-2
3.756658590E-1,6.348218024E-2,-2.486543655E-1,-2.383899689E-2
3.836622520E-1,8.733679354E-2,-2.207448483E-1,-1.862907410E-2
3.916575680E-1,1.024108082E-1,-2.137420177E-1,-4.916191101E-2
3.996529620E-1,1.422699690E-1,-1.679494381E-1,-5.322933197E-2
4.076481240E-1,1.085204780E-1,-1.102001667E-1,-4.054164886E-2
4.156443640E-1,9.146943688E-2,-9.556388855E-2,-4.461669922E-2
4.236699100E-1,4.771499708E-2,-1.215066910E-1,-7.954597473E-3
4.316656880E-1,4.597387090E-2,-1.234853268E-1,-2.874755859E-2
4.396619280E-1,3.144704178E-2,-9.924769402E-2,-1.365661621E-2
4.476573210E-1,7.112606615E-2,-1.132059097E-1,-1.050567627E-2
4.556530990E-1,1.249102354E-1,-1.246080399E-1,-3.604125977E-2
4.636478760E-1,1.694105268E-1,-1.142132282E-1,-5.671787262E-2
4.716435780E-1,1.543783545E-1,-1.441009045E-1,-1.060123444E-1
4.796404320E-1,1.327145994E-1,-1.424241066E-1,-1.192731857E-1
4.876654410E-1,7.796998322E-2,-1.572430134E-1,-3.669261932E-2
4.956610650E-1,1.349934191E-1,-2.167096138E-1,-5.443477631E-2
5.036562270E-1,1.240114719E-1,-2.729239464E-1,9.463310242E-3
5.116525440E-1,1.621084213E-1,-3.163671494E-1,-5.420684814E-3
5.196488600E-1,2.253873348E-1,-3.612177372E-1,3.915786743E-3
5.276432530E-1,3.138304055E-1,-4.234802723E-1,-5.408287048E-3
5.356698010E-1,4.333771765E-1,-4.455552101E-1,-7.008552551E-3
5.436654240E-1,5.638151169E-1,-5.392537117E-1,-3.060340881E-3
5.516611250E-1,6.706325412E-1,-6.063828468E-1,-3.970241547E-2
5.596571330E-1,7.489361763E-1,-6.895854473E-1,-7.609272003E-2
5.676528350E-1,7.920761704E-1,-7.413077354E-1,-5.246257782E-2
5.756473810E-1,8.191940188E-1,-8.208866119E-1,-1.194887161E-1
5.836426980E-1,8.473643064E-1,-8.467578888E-1,-1.597948074E-1
5.916692450E-1,8.910493851E-1,-8.573479652E-1,-1.638278961E-1
5.996664070E-1,9.546314478E-1,-8.188138008E-1,-2.511825562E-1
6.076611860E-1,1.001466990E0,-7.524664402E-1,-3.044347763E-1
6.156565780E-1,1.013727069E0,-6.835849285E-1,-4.596872330E-1
6.236522800E-1,9.660283923E-1,-6.579995155E-1,-4.440746307E-1
6.316479810E-1,8.646515608E-1,-6.543557644E-1,-4.204635620E-1
6.396439890E-1,7.681465149E-1,-6.612439156E-1,-4.488849640E-1
6.476695360E-1,6.929436922E-1,-5.946404934E-1,-5.205001831E-1
6.556646980E-1,6.580270529E-1,-5.389640331E-1,-5.660915375E-1
6.636603230E-1,6.372002363E-1,-5.106325150E-1,-6.478366852E-1
6.716567150E-1,6.226762533E-1,-4.903297424E-1,-6.220293045E-1
6.796533400E-1,5.463955402E-1,-4.207479954E-1,-5.581245422E-1
6.876475030E-1,4.637501240E-1,-3.285946846E-1,-4.969692230E-1
6.956434340E-1,2.833914757E-1,-2.049372196E-1,-4.125623703E-1
7.036695970E-1,1.551625133E-1,-5.719113350E-2,-4.487457275E-1
7.116646810E-1,2.978920937E-2,8.312320709E-2,-3.830814362E-1
7.196616140E-1,-9.957104921E-2,1.209709644E-1,-4.859218597E-1
7.276560840E-1,-2.516156137E-1,1.647436619E-1,-6.038627625E-1
7.356514770E-1,-4.724951088E-1,2.773056030E-1,-7.735166550E-1
7.436468700E-1,-8.009604216E-1,2.926506996E-1,-6.254758835E-1
7.516426480E-1,-8.486174941E-1,2.438776493E-1,-6.759843826E-1
7.596705800E-1,-6.776130795E-1,1.899225712E-1,-6.299324036E-1
7.676648190E-1,-4.574751556E-1,1.806325912E-1,-6.836957932E-1
7.756604430E-1,-3.587258458E-1,2.137696743E-1,-7.534008026E-1
7.836567600E-1,-4.267978668E-1,2.723641396E-1,-8.033266068E-1
7.916512290E-1,-6.367630363E-1,4.093177319E-1,-9.125566483E-1
7.996479310E-1,-9.066653252E-1,5.146694183E-1,-9.279279709E-1
8.076430150E-1,-1.153956532E0,6.080896854E-1,-1.021554947E0
8.156691010E-1,-1.372774124E0,6.862311363E-1,-1.073125839E0
8.236639570E-1,-1.581573248E0,7.109615803E-1,-1.063306808E0
8.316601950E-1,-1.921524286E0,6.968543530E-1,-1.123562813E0
8.396565890E-1,-2.169733286E0,6.852567196E-1,-1.181701660E0
8.476515970E-1,-2.434602499E0,6.488013268E-1,-1.293183327E0
8.556466830E-1,-2.550655842E0,5.723257065E-1,-1.333762169E0
8.636735370E-1,-2.566573381E0,4.242057800E-1,-1.183843136E0
8.716689310E-1,-2.468432665E0,3.737537861E-1,-1.202754498E0
8.796651710E-1,-2.464090824E0,5.266344547E-1,-1.215572834E0
8.876606400E-1,-2.597698689E0,8.043153286E-1,-1.155069828E0
8.956557260E-1,-2.678961039E0,9.294950962E-1,-9.755640030E-1
9.036505030E-1,-2.827503204E0,9.217064381E-1,-6.361236572E-1
9.116458200E-1,-3.153227568E0,9.238438606E-1,-5.215721130E-1
9.196434430E-1,-3.426797867E0,8.662133217E-1,-2.241325378E-1
9.276686060E-1,-3.479861975E0,7.823047638E-1,-2.965164185E-2
9.356637690E-1,-3.354181767E0,7.413527966E-1,5.994987488E-2
9.436600080E-1,-3.113055706E0,7.865860462E-1,9.532928467E-3
9.516554020E-1,-2.869980812E0,9.019744396E-1,-6.515884399E-2
9.596520250E-1,-2.557026148E0,9.473750591E-1,8.214473724E-2
9.676468800E-1,-2.246595621E0,9.723374844E-1,3.218555450E-2
9.756419660E-1,-1.950308919E0,9.768388271E-1,8.415794373E-2
9.836686660E-1,-1.590715289E0,1.038844347E0,2.182741165E-1
9.916638290E-1,-1.290766358E0,1.109570265E0,2.368011475E-1
9.996606830E-1,-9.971488714E-1,1.190133572E0,3.925046921E-1
1.007654923E0,-7.433853149E-1,1.248458862E0,3.574466705E-1
1.015650854E0,-6.722242832E-1,1.376129150E0,2.428913116E-1
1.023645633E0,-7.327419519E-1,1.495944262E0,2.092475891E-1
1.031642872E0,-7.720268965E-1,1.408018112E0,4.373922348E-1
1.039669034E0,-8.510578871E-1,9.698235989E-1,5.560617447E-1
1.047663582E0,-7.852951288E-1,4.793703556E-1,7.335033417E-1
1.055659821E0,-7.883214951E-1,3.463993073E-1,6.974039078E-1
1.063654599E0,-7.733500004E-1,3.585505486E-1,6.288223267E-1
1.071650992E0,-6.077314615E-1,3.788986206E-1,5.934371948E-1
1.079646923E0,-2.310192585E-1,3.210577965E-1,4.531402588E-1
1.087642086E0,2.327466011E-2,3.467283249E-1,3.412427902E-1
1.095667941E0,2.388478518E-1,2.537250519E-1,5.456047058E-1
1.103664257E0,2.477455139E-1,2.597093582E-2,5.760583878E-1
1.111658958E0,-5.917024612E-2,-1.436314583E-1,6.641283035E-1
1.119656274E0,-2.948930264E-1,-3.200964928E-1,7.269754410E-1
1.127650129E0,-2.822904587E-1,-4.643192291E-1,8.189468384E-1
1.135645830E0,-4.473114014E-2,-6.362500191E-1,8.364028931E-1
1.143641454E0,3.906993866E-1,-7.869138718E-1,8.547763824E-1
1.151667693E0,7.055545449E-1,-8.760709763E-1,9.117221832E-1
1.159663933E0,8.410362601E-1,-9.332375526E-1,9.634876251E-1
1.167659403E0,7.027340531E-1,-9.670739174E-1,8.754262924E-1
1.175654181E0,5.160659552E-1,-9.373555183E-1,5.878982544E-1
1.183651113E0,4.594063759E-1,-8.949251175E-1,4.699125290E-1
1.191646428E0,6.537921429E-1,-9.641671181E-1,3.828783035E-1
1.199641899E0,9.367913604E-1,-1.081624985E0,1.834564209E-1
1.207667985E0,1.139211416E0,-1.128660202E0,1.522626877E-1
1.215663147E0,1.209023356E0,-1.119327545E0,1.024475098E-1
1.223658156E0,1.191537976E0,-1.110839844E0,4.853534698E-2
1.231654548E0,1.186204910E0,-1.054404736E0,-2.460861206E-1
1.239651096E0,1.202028394E0,-1.007541656E0,-2.710824013E-1
1.247645565E0,1.244040012E0,-9.320654869E-1,-4.046878815E-1
1.255641344E0,1.188893199E0,-8.797049522E-1,-5.961422920E-1
1.263667737E0,9.966905117E-1,-1.011467934E0,-4.764609337E-1
1.271662207E0,5.742530823E-1,-1.284944534E0,-4.354362488E-1
1.279659216E0,1.102290154E-1,-1.434380531E0,-1.958165169E-1
1.287654609E0,-5.659050941E-1,-1.520892143E0,1.499786377E-1
1.295650233E0,-1.617106915E0,-2.875730991E0,2.349523067E0
1.303644779E0,-3.008183479E0,-3.956659317E0,2.508342266E0
1.311641327E0,-3.134680748E0,-3.395269394E0,1.349837780E0
1.319668105E0,-1.879118681E0,-2.152315140E0,6.461000443E-1
1.327662959E0,-3.151581287E-1,-1.195554733E0,5.317831039E-2
1.335658353E0,4.871089458E-1,-8.826618195E-1,4.505348206E-2
1.343654361E0,8.077914119E-1,-1.042413712E0,6.988000870E-2
1.351649447E0,6.450880170E-1,-1.226796150E0,-6.068387032E-1
1.359647302E0,5.664929748E-1,-1.030912876E0,-1.009399891E0
1.367671541E0,6.863672137E-1,-6.633992195E-1,-1.052507877E0
1.375667011E0,1.001111031E0,-4.505038261E-1,-1.055109978E0
1.383662019E0,1.383964062E0,-2.500691414E-1,-9.395747185E-1
1.391658336E0,1.342448592E0,-3.894090652E-1,-2.381963730E-1
1.399654652E0,6.876358986E-1,-5.947356224E-1,-3.794493675E-1
1.407649199E0,-5.258834362E-2,-8.678936958E-1,-4.668469429E-1
1.415644516E0,-2.388795614E-1,-9.047312737E-1,-4.667601585E-1
1.423672293E0,-1.190727949E-1,-8.985805511E-1,-4.684133530E-1
1.431666456E0,5.037891865E-2,-7.534251213E-1,-4.582152367E-1
1.439663618E0,5.566453934E-2,-5.901923180E-1,-1.518287659E-1
1.447658396E0,9.060728550E-2,-4.754481316E-1,-1.535224915E-2
1.455653251E0,4.273538589E-1,-5.558958054E-1,-4.386091232E-2
1.463648644E0,6.405563354E-1,-6.298313141E-1,-1.520442963E-1
1.471644961E0,6.434072256E-1,-5.840134621E-1,-4.519529343E-1
1.479672584E0,5.252864957E-1,-4.644703865E-1,-4.539380074E-1
1.487666824E0,4.800021052E-1,-3.986811638E-1,-5.593032837E-1
1.495662217E0,6.408423185E-1,-5.000529289E-1,-4.907455444E-1
1.503657918E0,7.523831129E-1,-5.937361717E-1,-4.711918831E-1
1.511653850E0,7.563968897E-1,-6.004691124E-1,-4.838180542E-1
1.519649627E0,7.610442638E-1,-6.362638474E-1,-3.407478333E-1
1.527644406E0,7.804712653E-1,-6.224770546E-1,-2.869720459E-1
1.535671106E0,8.012049198E-1,-6.804232597E-1,-3.921079636E-2
1.543666192E0,5.767832994E-1,-6.928043365E-1,2.165484428E-1
1.551662278E0,1.336027384E-1,-6.029715538E-1,2.912430763E-1
1.559658901E0,-9.827685356E-2,-5.866723061E-1,5.365629196E-1
1.567652449E0,-4.437656403E-1,-4.239625931E-1,2.265014648E-1
1.575649380E0,-2.320747375E-1,-3.062248230E-1,3.087902069E-2
1.583644773E0,-1.293206215E-2,-2.145891190E-1,-1.784334183E-1
1.591671243E0,2.560043335E-2,-1.193289757E-1,-2.786850929E-1
1.599666560E0,-8.624076843E-3,-7.120323181E-2,-4.115200043E-1
1.607662338E0,-4.758989811E-2,5.397176743E-2,-7.022590637E-1
1.615657654E0,-2.448900938E-1,1.140275002E-1,-5.021800995E-1
1.623652432E0,-5.281141996E-1,6.050539017E-2,-6.783671379E-1
1.631648825E0,-7.966415882E-1,-2.737617493E-2,-6.299600601E-1
1.639645141E0,-1.088982701E0,-6.796455383E-2,-5.550045967E-1
1.647670381E0,-1.186848760E0,-6.110334396E-2,-4.581861496E-1
1.655666081E0,-1.213839531E0,-2.651214600E-3,-4.193553925E-1
1.663661167E0,-9.430575371E-1,1.368379593E-2,-2.334952354E-1
1.671657406E0,-6.101260185E-1,1.749515533E-3,-3.108549118E-2
1.679654030E0,-1.368590593E-1,9.405612946E-3,1.033277512E-1
1.687647885E0,1.834236383E-1,3.787088394E-2,-1.333808899E-2
1.695644586E0,1.566112041E-1,1.296877861E-1,-1.460032463E-1
1.703669441E0,-2.071150541E-1,2.800931931E-1,-3.877716064E-1
1.711665757E0,-4.508802891E-1,2.860450745E-1,-1.957893372E-3
1.719662381E0,-5.098549128E-1,4.509968758E-1,-4.530506134E-1
1.727657466E0,-3.391717672E-1,4.559674263E-1,-1.541934013E-1
1.735652860E0,-5.269060135E-1,4.926152229E-1,-2.146968842E-1
1.743648946E0,-7.448250055E-1,3.737740517E-1,-6.752061844E-2
1.751644031E0,-8.826763630E-1,1.151547432E-1,2.001767159E-1
1.759670424E0,-1.004330397E0,-1.610445976E-1,5.822610855E-1
1.767665279E0,-1.282459617E0,-3.662271500E-1,9.990687370E-1
1.775661288E0,-2.133842945E0,-4.909129143E-1,1.451649189E0
1.783656680E0,-3.027101994E0,-5.401782990E-1,1.474710941E0
1.791652920E0,-2.530521870E0,-4.179921150E-1,5.396213531E-1
1.799648391E0,-6.606833935E-1,-2.909669876E-1,-2.503066063E-1
1.807644937E0,1.207520008E0,-1.603512764E-1,-3.797731400E-1
1.815669946E0,1.590989590E0,1.067352295E-1,-6.774935722E-1
1.823665031E0,1.211158276E0,3.531408310E-1,-7.109918594E-1
1.831661348E0,2.818676233E-1,6.654734612E-1,-1.363891602E0
1.839658280E0,-2.930424213E-1,5.804476738E-1,-7.416262627E-1
1.847652057E0,-4.520912170E-1,2.431888580E-1,1.383686066E-2
1.855648374E0,-1.721029282E-1,-1.177787781E-1,3.553442955E-1
1.863643151E0,5.151939392E-2,-1.784820557E-1,3.388295174E-1
1.871670314E0,5.154252052E-2,2.279090881E-2,2.869925499E-1
1.879665937E0,4.315471649E-2,2.411837578E-1,1.274447441E-1
1.887661408E0,1.444129944E-1,3.785371780E-1,-7.564783096E-2
1.895656417E0,4.525358677E-1,4.935212135E-1,-2.370781898E-1
1.903652117E0,6.681160927E-1,5.327625275E-1,-3.803629875E-1
1.911648434E0,4.243681431E-1,6.040644646E-1,-2.280597687E-1
1.919644211E0,5.969190598E-2,5.581688881E-1,-3.690052032E-2
1.927669989E0,-1.989762783E-1,4.585804939E-1,1.113476753E-1
1.935665460E0,-1.560626030E-1,3.885531425E-1,3.451290131E-1
1.943661160E0,-6.868910789E-2,3.582224846E-1,2.345018387E-1
1.951656246E0,1.035680771E-1,3.469114304E-1,1.880636215E-1
1.959652793E0,3.337767124E-1,3.672542572E-1,3.572273254E-2
1.967648186E0,6.187057495E-1,4.297299385E-1,-7.740592957E-2
1.975643887E0,8.040761948E-1,4.792642593E-1,-1.411123276E-1
1.983669434E0,8.492903709E-1,3.947005272E-1,9.147739410E-2
1.991664597E0,6.473040581E-1,3.024191856E-1,9.731388092E-2
1.999661836E0,4.606482983E-1,2.574467659E-1,1.598691940E-1
2.007656229E0,2.906005383E-1,3.352589607E-1,3.962578773E-1
2.015651930E0,1.190705299E-1,4.577884674E-1,6.358571053E-1
2.023647016E0,-1.622552872E-1,6.813793182E-1,6.941213608E-1
2.031643102E0,-3.422894478E-1,9.887094498E-1,2.911963463E-1
2.039669879E0,-8.388447762E-1,1.496313572E0,-7.326698303E-2
2.047664580E0,-1.365244865E0,1.220691204E0,3.235783577E-1
2.055660665E0,-9.012861252E-1,4.015240669E-1,6.199302673E-1
2.063656290E0,3.245265484E-1,-1.763052940E-1,6.286439896E-1
2.071651759E0,1.235497475E0,1.324405670E-1,-7.065296173E-2
2.079647691E0,1.097852945E0,9.482669830E-1,-4.168715477E-1
2.087642777E0,2.538251877E-1,1.306026459E0,-4.309887886E-1
2.095669247E0,-2.425460815E-1,1.037257195E0,-1.153278351E-1
2.103663794E0,-3.753163815E-1,5.793175697E-1,-8.210325241E-2
2.111660341E0,-4.703733921E-1,2.345657349E-1,-1.218318939E-2
2.119657042E0,-5.940215588E-1,-9.341955185E-2,1.018929482E-1
2.127650897E0,-6.794147491E-1,-2.871608734E-1,7.116699219E-2
2.135647136E0,-7.445607185E-1,-3.819837570E-1,3.971624374E-2
2.143673299E0,-7.643439770E-1,-5.008106232E-1,-1.461029053E-2
2.151668768E0,-7.573854923E-1,-5.765786171E-1,1.974105835E-4
2.159665008E0,-7.415027618E-1,-6.990351677E-1,1.211514473E-1
2.167660170E0,-7.462227345E-1,-7.895154953E-1,1.477341652E-1
2.175655256E0,-8.308019638E-1,-8.433265686E-1,1.520414352E-1
2.183651265E0,-9.463770390E-1,-8.613524437E-1,1.398215294E-1
2.191646581E0,-9.119465351E-1,-8.843898773E-1,9.961843491E-2
2.199644436E0,-8.832478523E-1,-8.359894753E-1,1.017508507E-1
2.207668136E0,-8.766345978E-1,-7.408790588E-1,8.221530914E-2
2.215664222E0,-7.474048138E-1,-5.866112709E-1,-3.360319138E-2
2.223660847E0,-5.498552322E-1,-3.772673607E-1,-2.686681747E-1
2.231655624E0,-3.453402519E-1,-1.907405853E-1,-5.364460945E-1
2.239651864E0,-7.138299942E-2,-5.728435516E-2,-6.743369102E-1
2.247646718E0,1.977763176E-1,-2.677440643E-2,-7.250909805E-1
2.255642342E0,2.999882698E-1,-1.288032532E-2,-6.751747131E-1
2.263667658E0,2.066595554E-1,2.002859116E-2,-6.851191521E-1
2.271663667E0,2.617607117E-1,-2.547264099E-2,-5.450038910E-1
2.279660907E0,4.525170326E-1,-1.088542938E-1,-3.659319878E-1
2.287655915E0,5.763254166E-1,-1.450109482E-1,-1.773905754E-1
2.295651078E0,5.637235641E-1,-1.694669724E-1,1.275205612E-2
2.303647393E0,4.070317745E-1,-2.327113152E-1,1.613378525E-1
2.311641864E0,6.422233582E-2,-3.696293831E-1,3.423805237E-1
2.319669181E0,-2.783298492E-1,-5.537581444E-1,5.420360565E-1
2.327664035E0,-3.910822868E-1,-7.267861366E-1,6.386885643E-1
2.335659428E0,-4.058682919E-1,-7.774405479E-1,7.300167084E-1
2.343654206E0,-3.922359943E-1,-6.783690453E-1,7.532334328E-1
2.351651445E0,-3.969507217E-1,-5.321850777E-1,8.228545189E-1
2.359647146E0,-4.647009373E-1,-5.566635132E-1,8.675842285E-1
2.367672001E0,-4.397273064E-1,-6.584463120E-1,7.475266457E-1
2.375667779E0,-3.487031460E-1,-8.513607979E-1,6.797056198E-1
2.383664710E0,-3.243370056E-1,-1.024032116E0,4.192776680E-1
2.391659412E0,-3.959941864E-1,-1.243747234E0,4.417471886E-1
2.399656420E0,-5.723028183E-1,-1.376581192E0,5.666556358E-1
2.407650813E0,-8.313846588E-1,-1.318142414E0,6.939454079E-1
2.415647130E0,-9.666819572E-1,-8.801298141E-1,7.717003822E-1
2.423641676E0,-8.698389530E-1,-3.692765236E-1,7.009220123E-1
2.431668070E0,-4.939858913E-1,1.869502068E-1,5.351424217E-1
2.439664386E0,-1.117641926E-1,5.074820518E-1,3.886227608E-1
2.447659241E0,3.565814495E-1,6.854763031E-1,1.730003357E-1
2.455654941E0,6.980116367E-1,7.241883278E-1,-3.209114075E-3
2.463650643E0,8.999848366E-1,7.925076485E-1,-2.660622597E-1
2.471645729E0,8.222632408E-1,8.576202393E-1,-3.618636131E-1
2.479673044E0,5.980627537E-1,8.601322174E-1,-4.055299759E-1
2.487668207E0,2.609722614E-1,8.011856079E-1,-3.050017357E-1
2.495663215E0,5.117106438E-2,6.374039650E-1,-2.432246208E-1
2.503658070E0,8.447170258E-3,4.530248642E-1,-2.369117737E-1
2.511654695E0,1.065404415E-1,3.513736725E-1,-2.855353355E-1
2.519651241E0,1.793754101E-1,2.740240097E-1,-1.675558090E-1
2.527646096E0,2.215132713E-1,3.012471199E-1,-4.014029503E-1
2.535671874E0,-1.005632877E-1,6.214308739E-1,-1.418662071E0
2.543667575E0,-1.369953156E-3,4.530444145E-1,-6.455087662E-1
2.551662968E0,4.433627129E-1,1.542840004E-1,-4.656329155E-1
2.559659669E0,4.182024002E-1,7.183980942E-2,-6.890344620E-1
2.567654755E0,-5.628585815E-2,1.198410988E-1,-8.157973289E-1
2.575649840E0,-3.256270885E-1,1.057806015E-1,-7.673497200E-1
2.583644541E0,-4.379091263E-1,2.984142303E-2,-7.373123169E-1
2.591671934E0,-3.835628033E-1,5.339908600E-2,-9.090046883E-1
2.599669174E0,-1.691005230E-1,1.604399681E-1,-9.915928841E-1
2.607663106E0,-1.027226448E-2,1.785602570E-1,-1.005483150E0
2.615658114E0,8.346009254E-2,1.765475273E-1,-1.042145252E0
2.621667121E0,1.406741142E-1,2.562413216E-1,-1.115837097E0
2.623654507E0,1.789813042E-1,2.873663902E-1,-1.166115284E0
2.631649900E0,2.767684460E-1,4.194040298E-1,-1.240127087E0
2.639647063E0,3.566100597E-1,6.079940796E-1,-1.189829350E0
2.647671686E0,2.868516445E-1,7.141780853E-1,-1.144578934E0
2.655667157E0,1.840696335E-1,7.551946640E-1,-1.034887314E0
2.663662550E0,1.379530430E-1,8.729496002E-1,-9.996733665E-1
2.671658866E0,2.552301884E-1,9.511370659E-1,-8.877201080E-1
2.679655183E0,3.978364468E-1,1.051908016E0,-8.889832497E-1
2.687649960E0,5.490965843E-1,1.122626305E0,-9.363436699E-1
2.695645584E0,7.372944355E-1,1.275847912E0,-1.206040382E0
2.703671209E0,7.806599140E-1,1.258044720E0,-1.406965256E0
2.711667140E0,7.731008530E-1,1.071066856E0,-1.502325535E0
2.719664149E0,7.296493053E-1,8.325142860E-1,-1.616066456E0
2.727658003E0,6.250641346E-1,7.155308723E-1,-1.633191586E0
2.735653935E0,4.306788445E-1,7.067518234E-1,-1.644860744E0
2.743649097E0,1.825337410E-1,6.556606293E-1,-1.496177197E0
2.751645721E0,7.232046127E-2,5.164303780E-1,-1.257859230E0
2.759671807E0,4.305219650E-2,3.100519180E-1,-9.144906998E-1
2.767666662E0,1.411306858E-1,9.523344040E-2,-6.089968681E-1
2.775662671E0,2.681815624E-1,-1.147570610E-1,-5.089063644E-1
2.783658371E0,3.857018948E-1,-2.340865135E-1,-5.238175392E-1
2.791653765E0,5.369989872E-1,-3.441915512E-1,-5.245709419E-1
2.799649696E0,6.191332340E-1,-3.345837593E-1,-7.408757210E-1
2.807645397E0,5.705635548E-1,-2.841362953E-1,-1.005920410E0
2.815671252E0,4.833555222E-1,-1.264162064E-1,-1.168772697E0
2.823665799E0,3.681190014E-1,2.096605301E-2,-1.306719780E0
2.831662423E0,3.182528019E-1,1.457595825E-1,-2.214534283E0
2.839658046E0,1.625732422E0,4.202513695E-1,-4.375396729E0
2.847653825E0,2.887275934E0,-9.466834068E-1,-4.105868340E-1
2.855648834E0,7.406508923E-1,-1.199690819E0,6.131134033E-1
2.863643919E0,-1.597846746E0,-1.000767231E0,8.377184868E-1
2.871671082E0,-1.662508011E0,-8.850760460E-1,6.349272728E-1
2.879667628E0,1.145775318E-1,-7.855281830E-1,7.558073997E-1
2.887661483E0,1.566438079E0,-5.843768120E-1,8.918008804E-1
2.895656876E0,1.422413826E0,-3.471865654E-1,7.720122337E-1
2.903653193E0,7.216322422E-1,-2.933802605E-1,6.662173271E-1
2.911648586E0,1.741027832E-1,-5.599651337E-1,1.009304047E0
2.919646210E0,-5.866265297E-2,-8.730311394E-1,1.138017178E0
2.927671065E0,-5.560743809E-1,-9.452600479E-1,1.172231674E0
2.935665919E0,-1.130980730E0,-7.317137718E-1,1.116724491E0
2.943661543E0,-1.461632252E0,-6.161451340E-1,1.354791164E0
2.951657860E0,-1.638358116E0,-6.925020218E-1,1.706886292E0
2.959655099E0,-2.114128113E0,-2.513534069E0,7.941979408E0
2.967648416E0,-4.460781097E0,-3.212718487E0,3.966138363E0
2.975644347E0,-4.898466110E0,-1.745918274E0,1.809387684E0
2.983669356E0,-2.761157990E0,-4.671492577E-1,1.386495113E0
2.991665903E0,-8.392739296E-2,6.805171967E-1,5.472707748E-1
2.999662296E0,1.037147760E0,1.282223701E0,-2.581768036E-1
3.007657612E0,1.221922159E0,1.408386707E0,-2.582163811E-1
3.015653313E0,9.011392593E-1,9.655776024E-1,7.182359695E-2
3.023648476E0,5.296120644E-1,7.098960876E-2,5.388832092E-1
3.031643868E0,3.459286690E-2,-6.317186356E-1,7.794141769E-1
3.039671185E0,-3.825523853E-1,-7.535481453E-1,6.318078041E-1
3.047665348E0,-5.456392765E-1,-4.007649422E-1,3.352713585E-1
3.055661664E0,-3.547441959E-1,-1.498208046E-1,1.989178658E-1
3.063656750E0,-2.706222534E-1,-2.285575867E-2,-4.294586182E-2
3.071652527E0,-3.520879745E-1,-1.354184151E-1,-2.694907188E-1
3.079648843E0,-4.015667439E-1,-2.191696167E-1,-2.835488319E-1
3.087644544E0,-3.795800209E-1,-3.082480431E-1,-3.197879791E-1
3.095670630E0,-3.410203457E-1,-3.260574341E-1,-3.470201492E-1
3.103665485E0,-3.653688431E-1,-2.605986595E-1,-3.846230507E-1
3.111661108E0,-4.359877110E-1,-2.434206009E-1,-3.463382721E-1
3.119657733E0,-3.963153362E-1,-3.037190437E-1,-1.352705956E-1
3.127652510E0,-2.890582085E-1,-3.464975357E-1,2.403259277E-2
3.135648211E0,-9.032773972E-2,-2.043747902E-1,5.950069427E-2
3.143643297E0,1.266677380E-1,1.200017929E-1,7.677125931E-2
3.151669459E0,3.094215393E-1,2.821645737E-1,7.753562927E-2
3.159666468E0,4.800496101E-1,2.825913429E-1,-2.710676193E-2
3.167662168E0,6.105012894E-1,2.924919128E-1,-4.989337921E-2
3.175656639E0,6.829679012E-1,1.594519615E-1,1.698994637E-1
3.183652262E0,5.570230484E-1,-1.854677200E-1,5.635514259E-1
3.191647733E0,4.274995327E-1,-6.084284782E-1,8.247032166E-1
3.199644665E0,1.258089542E-1,-8.959674835E-1,1.005911827E0
3.207670135E0,-2.984886169E-1,-8.584189415E-1,1.037950993E0
3.215665528E0,-6.554136276E-1,-9.996519089E-1,1.588165760E0
3.223660382E0,-7.758221626E-1,-1.267478943E0,1.535218716E0
3.231656084E0,-8.142499924E-1,-1.416254044E0,1.588490963E0
3.239653016E0,-1.058695793E0,-1.337382317E0,1.493150711E0
3.247647793E0,-1.225942373E0,-1.309863091E0,1.385877132E0
3.255644033E0,-1.305449009E0,-1.311381817E0,1.212950706E0
3.263669964E0,-9.644792080E-1,-1.336783409E0,9.569525719E-1
3.271666511E0,-2.438123226E-1,-1.481201649E0,8.018589020E-1
3.279661673E0,3.952941895E-1,-1.538108826E0,6.554450989E-1
3.287656067E0,5.070192814E-1,-1.476911545E0,7.217907906E-1
3.295652153E0,1.434435844E-1,-1.255388260E0,5.102825165E-1
3.303646853E0,-4.773623943E-1,-9.837036133E-1,3.993654251E-1
3.311643555E0,-1.118504524E0,-9.254550934E-1,3.922352791E-1
3.319669947E0,-1.349583626E0,-8.479986191E-1,4.192509651E-1
3.327665033E0,-1.340678453E0,-6.652455330E-1,2.175145149E-1
3.335660811E0,-1.255694866E0,-2.766833305E-1,-5.468797684E-2
3.343655512E0,-1.136742830E0,9.612560272E-2,-3.286471367E-1
3.351651905E0,-8.294861317E-1,3.830523491E-1,-4.820747375E-1
3.359648760E0,-4.088373184E-1,4.253053665E-1,-5.205993652E-1
3.367673461E0,-7.286310196E-3,4.011969566E-1,-5.415639877E-1
3.375669161E0,4.096224308E-1,4.829764366E-1,-5.974559784E-1
3.383665170E0,6.877012253E-1,6.185188293E-1,-6.812758446E-1
3.391660487E0,9.114856720E-1,8.251547813E-1,-7.753701210E-1
3.399656803E0,1.039224863E0,8.713927269E-1,-7.617220879E-1
3.407651350E0,1.050246239E0,8.430228233E-1,-8.687314987E-1
3.415647358E0,9.740350246E-1,7.773556709E-1,-9.474163055E-1
3.423672906E0,8.513536453E-1,8.163390160E-1,-8.989753723E-1
3.431669145E0,6.590862274E-1,9.055356979E-1,-9.511265755E-1
3.439665461E0,4.576931000E-1,9.456243515E-1,-9.433078766E-1
3.447659701E0,2.509253025E-1,9.133934975E-1,-8.394994736E-1
3.455656247E0,7.331609726E-2,8.666725159E-1,-7.573881149E-1
3.463650718E0,-8.462667465E-3,8.485007286E-1,-6.373147964E-1
3.471646803E0,-9.971380234E-3,8.389983177E-1,-6.037549973E-1
3.479642812E0,7.736349106E-2,8.645367622E-1,-5.817313194E-1
3.487668359E0,1.934804916E-1,8.938241005E-1,-5.822734833E-1
3.495664983E0,2.239327431E-1,8.806295395E-1,-5.423994064E-1
3.503659684E0,1.924526691E-1,9.104328156E-1,-6.412901878E-1
3.511655461E0,1.785199642E-1,9.305348396E-1,-6.776986122E-1
3.519652317E0,1.429164410E-1,8.784942627E-1,-6.714253426E-1
3.527647095E0,1.374864578E-1,8.505682945E-1,-5.924696922E-1
3.535673334E0,1.422359943E-1,7.802495956E-1,-5.616068840E-1
3.543668343E0,1.886885166E-1,7.545681000E-1,-5.766487122E-1
3.551664735E0,2.378444672E-1,7.476572990E-1,-6.159377098E-1
3.559660129E0,2.240052223E-1,7.833261490E-1,-6.573853493E-1
3.567655752E0,2.358872890E-1,7.509946823E-1,-6.547079086E-1
3.575651761E0,2.303974628E-1,6.978359222E-1,-6.193981171E-1
3.583646309E0,2.589268684E-1,6.425805092E-1,-5.465517044E-1
3.591673009E0,2.328255177E-1,6.064720154E-1,-4.388766289E-1
3.599669326E0,1.826930046E-1,5.942087173E-1,-4.188051224E-1
3.607663795E0,1.327016354E-1,6.344237328E-1,-3.929600716E-1
3.615659574E0,1.216695309E-1,6.363749504E-1,-4.447374344E-1
3.623655583E0,1.134765148E-1,7.349290848E-1,-4.945592880E-1
3.631650668E0,1.606228352E-1,7.294411659E-1,-5.421104431E-1
3.639647215E0,2.431807518E-1,6.365342140E-1,-5.998072624E-1
3.647673069E0,2.506694794E-1,5.735621452E-1,-6.007232666E-1
3.655668463E0,2.538306713E-1,5.882825851E-1,-5.502123833E-1
3.663663548E0,2.339448929E-1,6.639380455E-1,-4.754462242E-1
3.671659326E0,2.048075199E-1,6.903986931E-1,-4.700317383E-1
3.679655335E0,1.691982746E-1,6.819701195E-1,-4.524407387E-1
3.687650958E0,1.545667648E-1,6.379408836E-1,-3.485755920E-1
3.695646352E0,1.569495201E-1,5.817170143E-1,-2.830448151E-1
3.703671668E0,1.005921364E-1,5.107426643E-1,-2.699851990E-1
3.711667908E0,3.775453568E-2,4.510841370E-1,-2.800550461E-1
3.719663994E0,-4.467034340E-2,4.049320221E-1,-3.535957336E-1
3.727659078E0,-9.879040718E-2,3.797497749E-1,-3.897957802E-1
3.735655088E0,-1.290309429E-1,3.471055031E-1,-4.467167854E-1
3.743649865E0,-1.042354107E-1,3.195242882E-1,-4.841899872E-1
3.751646181E0,-7.417869568E-2,2.712373734E-1,-4.737997055E-1
3.759673266E0,-1.811408997E-2,2.218298912E-1,-5.448002815E-1
3.767668891E0,2.783777714E-1,4.407076836E-1,-2.671955585E0
3.775663131E0,1.155120492E0,-1.553583145E-1,-2.410521507E-1
3.783659677E0,5.767376423E-1,-2.380695343E-1,4.227805138E-1
3.791653840E0,-6.503384113E-1,1.021862030E-1,4.938068390E-1
3.799651156E0,-9.055492878E-1,2.569718361E-1,-2.806520462E-2
3.807645857E0,9.741067886E-2,1.316270828E-1,-1.930241585E-1
3.815672328E0,9.604558945E-1,5.597066879E-2,-3.218774796E-1
3.823667720E0,7.886366844E-1,2.431044579E-1,-5.099000931E-1
3.831663191E0,4.345111847E-1,4.365000725E-1,-6.929335594E-1
3.839659814E0,3.151080608E-1,5.324521065E-1,-7.711853981E-1
3.847654285E0,3.658275604E-1,5.244798660E-1,-8.684606552E-1
3.855650216E0,4.859664440E-1,4.900937080E-1,-1.135851383E0
3.863646533E0,5.848398209E-1,4.283957481E-1,-1.335806370E0
3.871672388E0,4.972012043E-1,3.973770142E-1,-1.333696365E0
3.879667780E0,3.073487282E-1,3.612976074E-1,-1.370849133E0
3.887663251E0,1.696197987E-1,2.309355736E-1,-1.306019306E0
3.895658874E0,2.919983864E-2,7.925033569E-3,-1.067903996E0
3.903653422E0,-1.166820526E-1,-2.025737762E-1,-8.746232986E-1
3.911649969E0,-3.296377659E-1,-4.488892555E-1,-4.197735786E-1
3.919646593E0,-5.298681259E-1,-6.269950867E-1,-1.549100876E-2
3.927671832E0,-6.185271740E-1,-7.291626930E-1,1.714701653E-1
3.935667533E0,-5.497150421E-1,-7.123060226E-1,5.111408234E-1
3.943663003E0,-5.036377907E-1,-6.806559563E-1,6.904897690E-1
3.951658088E0,-5.102202892E-1,-6.992955208E-1,1.065074444E0
3.959655328E0,-5.034039021E-1,-6.842961311E-1,1.026144028E0
3.967650337E0,-5.835747719E-1,-7.385635376E-1,1.182958126E0
3.975645191E0,-6.478750706E-1,-7.371625900E-1,1.230531216E0
3.983671046E0,-8.295459747E-1,-7.507734299E-1,1.139358997E0
3.991666747E0,-1.772237301E0,-2.695630550E0,8.179967880E0
3.999663910E0,-4.198288918E0,-3.528283119E0,4.301339149E0
4.007658380E0,-4.659088135E0,-2.076008797E0,1.774226189E0
4.015653850E0,-2.666789055E0,-3.758201599E-1,2.096434593E0
4.023649859E0,-1.300894022E0,5.928578377E-1,1.354862690E0
4.031645251E0,-1.299595833E-1,9.609212875E-1,-3.606367111E-2
4.039672260E0,7.620756626E-1,9.027614594E-1,-4.392600060E-1
4.047667730E0,1.066473722E0,5.099949837E-1,-2.433753014E-1
4.055662431E0,9.185025692E-1,1.055526733E-1,-1.831178665E-1
4.063657825E0,7.283530235E-1,-2.278199196E-1,-7.765007019E-2
4.071653602E0,7.101116180E-1,-5.224094391E-1,-4.138946533E-3
4.079650534E0,6.395878792E-1,-4.804792404E-1,4.113674164E-2
4.087645004E0,3.871972561E-1,-2.270841599E-1,1.172513962E-1
4.095671397E0,9.493231773E-2,-5.245399475E-2,1.963820457E-1
4.103667406E0,-2.433967590E-2,-3.344058990E-2,2.816877365E-1
4.111662799E0,6.561398506E-2,5.779504776E-2,2.002010345E-1
4.119659500E0,1.826124191E-1,1.860418320E-1,1.442046165E-1
4.127653278E0,2.303290367E-1,1.790838242E-1,1.220293045E-1
4.135649364E0,1.848812103E-1,5.402040482E-2,1.173205376E-1
4.143644141E0,1.283605099E-1,-1.131796837E-1,2.757573128E-1
4.151670919E0,5.845165253E-2,-2.155933380E-1,3.379111290E-1
4.159667159E0,-2.267146111E-2,-1.796813011E-1,3.292636871E-1
4.167662321E0,-1.098339558E-1,-9.891843796E-2,3.408660889E-1
4.175657945E0,-1.133406162E-1,-1.556644440E-1,4.661860466E-1
4.183652492E0,-1.012761593E-1,-2.609934807E-1,3.854303360E-1
4.191649116E0,-2.164375782E-1,-3.477993011E-1,3.265266418E-1
4.199645971E0,-4.172101021E-1,-4.766225815E-1,4.328122139E-1
4.207670979E0,-4.709835052E-1,-5.048255920E-1,5.812344551E-1
4.215665988E0,-4.198498726E-1,-4.924840927E-1,6.918644905E-1
4.223661689E0,-3.997209072E-1,-5.230717659E-1,7.569932938E-1
4.231657467E0,-3.815720081E-1,-5.634355545E-1,7.931227684E-1
4.239653706E0,-3.240306377E-1,-5.940632820E-1,7.938137054E-1
4.247648869E0,-2.427687645E-1,-5.939750671E-1,8.619432449E-1
4.255644493E0,-2.571444511E-1,-6.307926178E-1,7.983536720E-1
4.263670962E0,-1.945905685E-1,-7.403697968E-1,5.577688217E-1
4.271666971E0,3.403806686E-2,-8.242764473E-1,4.843955040E-1
4.279662672E0,2.610619068E-1,-8.144164085E-1,4.285902977E-1
4.287657219E0,2.717845440E-1,-7.188835144E-1,4.546475410E-1
4.295653228E0,1.936545372E-1,-6.258988380E-1,5.034103394E-1
4.303648544E0,1.294071674E-1,-6.460509300E-1,4.558148384E-1
4.311644553E0,1.199851036E-1,-6.066279411E-1,3.494534492E-1
4.319671715E0,1.601889133E-1,-6.175146103E-1,3.483719826E-1
4.327666109E0,1.699047089E-1,-6.306943893E-1,3.647370338E-1
4.335661578E0,1.330184937E-1,-6.532297134E-1,3.079795837E-1
4.343657279E0,1.069920063E-1,-6.033654213E-1,3.125033379E-1
4.351653288E0,6.719803810E-2,-5.676112175E-1,3.872222900E-1
4.359649912E0,1.992607117E-2,-5.122847557E-1,3.594880104E-1
4.367674459E0,-4.405379295E-2,-4.832911491E-1,3.439655304E-1
4.375670544E0,-2.575635910E-3,-4.091606140E-1,3.570876122E-1
4.383665553E0,4.355382919E-2,-3.548960686E-1,3.864297867E-1
4.391661870E0,9.170198441E-2,-3.011918068E-1,3.961324692E-1
4.399657570E0,1.185362339E-1,-2.342209816E-1,4.099068642E-1
4.407652964E0,1.177039146E-1,-2.020740509E-1,4.255499840E-1
4.415648357E0,7.546281815E-2,-2.125167847E-1,4.571728706E-1
4.423644058E0,4.230451584E-2,-1.766200066E-1,3.400158882E-1
4.431670220E0,-1.485304832E-1,-3.889226913E-2,1.490736008E-1
4.439667229E0,-2.539899349E-1,4.034376144E-2,-9.688854218E-3
4.447661315E0,-2.154150009E-1,1.194701195E-1,-8.566999435E-2
4.455656092E0,-8.589434624E-2,2.420620918E-1,-1.682415009E-1
4.463652101E0,9.389996529E-2,3.519210815E-1,-3.219490051E-1
4.471648186E0,3.983621597E-1,5.153293610E-1,-5.415434837E-1
4.479675887E0,5.852668285E-1,6.135382652E-1,-6.896328926E-1
4.487670358E0,6.518740654E-1,6.428422928E-1,-6.946640015E-1
4.495665750E0,7.177159786E-1,6.723718643E-1,-6.660952568E-1
4.503661760E0,7.507650852E-1,7.354722023E-1,-6.034574509E-1
4.511656844E0,7.586114407E-1,7.528371811E-1,-4.086790085E-1
4.519653777E0,7.126402855E-1,7.248749733E-1,-2.537631989E-1
4.527647631E0,5.417020321E-1,6.799378395E-1,-7.651329041E-2
4.535673717E0,2.718787193E-1,6.702151299E-1,-6.322002411E-2
4.543669187E0,7.665610313E-2,6.522793770E-1,1.612710953E-2
4.551665118E0,-7.071375847E-2,6.620907784E-1,2.493619919E-2
4.559662666E0,-1.523110867E-1,6.858954430E-1,-1.523160934E-2
4.567656828E0,-1.315593719E-1,7.339105606E-1,-1.476511955E-1
4.575651683E0,-8.885359764E-2,8.169865608E-1,-3.215951920E-1
4.583648537E0,-6.311678886E-2,8.808517456E-1,-4.960112572E-1
4.591673777E0,-2.388525009E-2,8.565168381E-1,-5.008668900E-1
4.599669863E0,4.214286804E-3,8.515977859E-1,-5.233268738E-1
4.607665255E0,7.303547859E-2,8.231925964E-1,-4.989690781E-1
4.615660957E0,1.459381580E-1,7.928171158E-1,-5.239162445E-1
4.623655657E0,2.519137859E-1,7.749099731E-1,-5.190210342E-1
4.631652281E0,3.030629158E-1,7.071838379E-1,-5.079941750E-1
4.639649214E0,2.526736259E-1,6.678209305E-1,-4.503040314E-1
4.647673529E0,1.572356224E-1,6.630439758E-1,-4.035749435E-1
4.655668923E0,7.058310509E-2,6.732172966E-1,-4.586825371E-1
4.663664931E0,-7.359790802E-2,6.814527512E-1,-5.268454552E-1
4.671660325E0,-2.081356049E-1,6.993312836E-1,-5.292978287E-1
4.679657257E0,-3.001947403E-1,6.715703011E-1,-5.550656319E-1
4.687651188E0,-3.772509098E-1,6.458592415E-1,-5.018134117E-1
4.695647735E0,-3.936731815E-1,6.420660019E-1,-5.423078537E-1
4.703673051E0,-4.007940292E-1,6.897039413E-1,-6.500558853E-1
4.711669675E0,-3.991062641E-1,7.778582573E-1,-7.957310677E-1
4.719665376E0,-3.049523830E-1,8.691205978E-1,-9.547605515E-1
4.727660692E0,-2.302238941E-1,8.532919884E-1,-8.659563065E-1
4.735656394E0,-1.842367649E-1,8.494410515E-1,-7.667183876E-1
4.743652786E0,-2.047333717E-1,8.615956306E-1,-6.334409714E-1
4.751647257E0,-2.749729156E-1,8.734288216E-1,-8.153381348E-1
4.759673957E0,-3.854787350E-1,8.389339447E-1,-8.330059052E-1
4.767668735E0,-4.412074089E-1,7.160749435E-1,-6.628441811E-1
4.775665052E0,-4.476084709E-1,6.091241837E-1,-4.615912437E-1
4.783659522E0,-3.680899143E-1,5.489921570E-1,-3.618049622E-1
4.791655531E0,-2.333085537E-1,5.818700790E-1,-3.996434212E-1
4.799652846E0,-1.064612865E-1,5.796837807E-1,-5.481987000E-1
4.807647625E0,-2.268052101E-2,5.308990479E-1,-6.655306816E-1
4.815672863E0,-3.715443611E-2,5.027732849E-1,-7.481322289E-1
4.823668565E0,-5.419778824E-2,5.380096436E-1,-8.049468994E-1
4.831664497E0,1.536273956E-2,5.475225449E-1,-8.241667747E-1
4.839661428E0,1.294901371E-1,5.315933228E-1,-8.659577370E-1
4.847655899E0,2.938227654E-1,4.763340950E-1,-8.730845451E-1
4.855651907E0,4.712665081E-1,4.584279060E-1,-8.627080917E-1
4.863647069E0,6.157846451E-1,4.257464409E-1,-8.992271423E-1
4.871673155E0,7.071213722E-1,4.766530991E-1,-1.060936928E0
4.879669856E0,7.667191029E-1,5.296516418E-1,-1.346964836E0
4.887664557E0,7.183949947E-1,5.659308434E-1,-1.504472256E0
4.895659334E0,6.341204643E-1,5.630822182E-1,-1.573808670E0
4.903654805E0,5.807471275E-1,5.378427505E-1,-1.471194267E0
4.911651428E0,4.258916378E-1,5.468926430E-1,-1.469006062E0
4.919647745E0,3.651604652E-1,6.172490120E-1,-1.524774551E0
4.927673292E0,4.616796970E-1,6.832475662E-1,-1.658021450E0
4.935668377E0,6.497514248E-1,6.524820328E-1,-1.546057701E0
4.943663694E0,7.497930527E-1,4.985384941E-1,-1.472412109E0
4.951660087E0,5.995326042E-1,2.538170815E-1,-1.286949158E0
4.959656327E0,3.016889095E-1,1.638598442E-1,-1.056684971E0
4.967650488E0,-5.578756332E-3,1.700148582E-1,-6.981515884E-1
4.975646574E0,-2.439928055E-1,5.330705643E-2,-2.786936760E-1
4.983672353E0,-3.808131218E-1,-5.790042877E-2,-4.513072968E-2
4.991668053E0,-3.486735821E-1,-1.157388687E-1,1.616191864E-1
4.999665062E0,-3.271903992E-1,-1.453204155E-1,3.604650497E-1
5.007659531E0,-3.300702572E-1,-2.152786255E-1,4.264807701E-1
5.015655464E0,-3.709893227E-1,-2.734589577E-1,3.411068916E-1
5.023650550E0,-3.499925137E-1,-1.972045898E-1,1.893253326E-1
5.031646019E0,-2.168946266E-1,-8.086442947E-2,1.774158478E-1
5.039673336E0,-1.941127777E-1,-3.736877441E-2,2.562127113E-1
5.047668113E0,-2.787935734E-1,-4.967212677E-2,2.264890671E-1
5.055664199E0,-4.383797646E-1,-9.301280975E-2,1.796803474E-1
5.063659515E0,-5.462551117E-1,-6.585788727E-2,-5.401234627E-1
5.071654678E0,-3.824646473E-1,-3.281292915E-1,6.520805359E-1
5.079650994E0,5.733942986E-2,-7.997560501E-1,1.311909199E0
5.087646387E0,-3.129642010E-1,-8.175072670E-1,1.431096554E0
5.095671934E0,-6.744732857E-1,-6.746220589E-1,1.145481586E0
5.103666635E0,-3.067355156E-1,-6.330156326E-1,1.074879169E0
5.111663644E0,2.374644279E-1,-7.517380714E-1,1.101861477E0
5.119660268E0,3.390176296E-1,-8.578009605E-1,1.185742855E0
5.127655584E0,8.396768570E-2,-9.221282005E-1,1.074154854E0
5.135650747E0,-2.115042210E-1,-8.760781288E-1,8.536529541E-1
5.143646062E0,-5.061814785E-1,-1.097410202E0,1.003980160E0
5.151672533E0,-8.039803505E-1,-2.483719826E0,2.124100685E0
5.159668541E0,-9.558205605E-1,-2.176102638E0,1.113029003E0
5.167663627E0,-9.480888844E-1,-5.584383011E-1,5.630941391E-1
5.175659021E0,-7.159600258E-1,-1.304664612E-1,3.101134300E-1
5.183653875E0,-3.069143295E-1,-6.762275696E-1,-5.520820618E-3
5.191650499E0,-2.301590443E-1,-7.458801270E-1,-1.365866661E-1
5.199646507E0,-2.478997707E-1,-2.534093857E-1,-2.756476402E-1
5.207672362E0,-1.678164005E-1,1.779351234E-1,-6.039428711E-2
5.215667064E0,-1.352572441E-2,1.331892014E-1,2.092528343E-1
5.223663687E0,-2.690768242E-2,-2.612161636E-2,4.290971756E-1
5.231659081E0,-2.163078785E-1,-3.702545166E-2,5.765442848E-1
5.239655166E0,-4.955933094E-1,-1.405239105E-3,7.386636734E-1
5.247649636E0,-7.308697701E-1,-3.505611420E-2,9.239425659E-1
5.255645337E0,-9.202976227E-1,-1.306838989E-1,1.043606758E0
5.263670884E0,-1.095285892E0,-2.781085968E-1,1.158002853E0
5.271667508E0,-1.227598190E0,-4.233484268E-1,1.306607246E0
5.279663440E0,-1.237710714E0,-5.208234787E-1,1.439504623E0
5.287659141E0,-1.078391314E0,-4.884715080E-1,1.541363239E0
5.295654841E0,-8.785893917E-1,-3.903951645E-1,1.646497250E0
5.303650004E0,-4.368760586E-1,-2.401614189E-1,1.626670837E0
5.311645628E0,5.334639549E-2,-1.734390259E-1,1.528546333E0
5.319672713E0,5.286612511E-1,-1.879024506E-1,1.352723122E0
5.327668107E0,7.708089352E-1,-3.656082153E-1,1.085246563E0
5.335662577E0,8.565759659E-1,-4.922690392E-1,8.412127495E-1
5.343657663E0,9.154269695E-1,-5.406093597E-1,5.928993225E-1
5.351654055E0,8.939969540E-1,-4.172687531E-1,4.559769630E-1
5.359650603E0,7.449531555E-1,-2.547554970E-1,3.316187859E-1
5.367676458E0,4.256300926E-1,-1.955614090E-1,1.289591789E-1
5.375671620E0,-1.605033875E-2,-3.183946609E-1,2.064337730E-1
5.383666398E0,1.037573814E-1,-6.950531006E-1,3.600368500E-1
5.391662406E0,4.617455006E-1,-1.029967785E0,6.095733643E-1
5.399658646E0,5.470376015E-1,-1.155633926E0,7.580184937E-1
5.407654039E0,2.764124870E-1,-1.083045006E0,8.199710846E-1
5.415649509E0,-2.268610001E-1,-9.897794724E-1,9.277276993E-1
5.423644210E0,-4.926636219E-1,-1.062588215E0,1.095185757E0
5.431671064E0,-5.292894840E-1,-1.111163139E0,1.158793449E0
5.439667689E0,-4.276695251E-1,-9.807176590E-1,1.090117455E0
5.447662466E0,-4.380688667E-1,-8.042039871E-1,1.009320736E0
5.455657552E0,-6.703464985E-1,-6.340003014E-1,9.647841454E-1
5.463654099E0,-8.508701324E-1,-5.951147079E-1,9.636554718E-1
5.471648954E0,-8.859186172E-1,-6.377167702E-1,1.008163929E0
5.479645270E0,-8.027412891E-1,-6.299982071E-1,9.734759331E-1
5.487671355E0,-6.768896580E-1,-5.687351227E-1,9.530425072E-1
5.495666826E0,-5.585021973E-1,-3.911056519E-1,8.493757248E-1
5.503661604E0,-4.846365452E-1,-2.310185432E-1,6.610102654E-1
5.511657612E0,-3.338251114E-1,-2.637910843E-2,3.792762756E-1
5.519654775E0,-4.413366318E-3,2.052302361E-1,1.436710358E-3
5.527648398E0,3.642871380E-1,4.692654610E-1,-4.845190048E-1
5.535675407E0,8.438799381E-1,7.274961472E-1,-9.012713432E-1
5.543671108E0,1.211494207E0,7.321376801E-1,-1.172590256E0
5.551666886E0,1.270653009E0,6.055517197E-1,-1.510241985E0
5.559663510E0,1.121594667E0,5.315718651E-1,-1.653559685E0
5.567657595E0,7.983448505E-1,5.082101822E-1,-1.690123081E0
5.575653681E0,4.458196163E-1,5.046806335E-1,-1.564182758E0
5.583648997E0,2.345728874E-1,4.762911797E-1,-1.413939953E0
5.591675160E0,3.507852554E-3,4.606375694E-1,-1.213420391E0
5.599672169E0,-1.909704208E-1,4.585227966E-1,-1.075096130E0
5.607666562E0,-3.974690437E-1,4.443335533E-1,-9.207925797E-1
5.615662032E0,-5.215849876E-1,4.462184906E-1,-7.849540710E-1
5.623656732E0,-5.835137367E-1,4.964518547E-1,-7.191624641E-1
5.631652818E0,-5.833475590E-1,5.439820290E-1,-6.964321136E-1
5.639649980E0,-5.437567234E-1,5.665311813E-1,-5.993375778E-1
5.647675220E0,-4.656319618E-1,6.282482147E-1,-7.160744667E-1
5.655670306E0,-3.768420219E-1,7.082710266E-1,-7.692108154E-1
5.663665775E0,-3.438229561E-1,7.762298584E-1,-9.434933662E-1
5.671661785E0,-3.298475742E-1,8.856587410E-1,-1.009283543E0
5.679658408E0,-3.005287647E-1,9.292540550E-1,-1.084432125E0
5.687653186E0,-2.315077782E-1,9.678125381E-1,-1.138213634E0
5.695647964E0,-1.476311684E-1,9.994173050E-1,-1.139672279E0
5.703675280E0,1.352643967E-2,1.022108078E0,-1.215279579E0
5.711670443E0,1.682591438E-1,9.739279747E-1,-1.241304874E0
5.719667297E0,2.856914997E-1,9.458804131E-1,-1.205628872E0
5.727661768E0,3.545353413E-1,9.039235115E-1,-1.235163689E0
5.735656622E0,4.257376194E-1,8.648819923E-1,-1.312719345E0
5.743652554E0,5.697798729E-1,8.714327812E-1,-2.084458828E0
5.751648871E0,1.420576811E0,9.889211655E-1,-4.236936569E0
5.759676571E0,2.542320728E0,3.868069649E-1,-2.661009789E0
5.767669811E0,1.648093224E0,2.571587563E-1,-1.084481239E0
5.775665896E0,1.725053787E-2,5.411629677E-1,-6.030607224E-1
5.783661520E0,-1.038644552E0,8.411760330E-1,-6.123609543E-1
5.791656375E0,-3.995084763E-1,8.197813034E-1,-8.953666687E-1
5.799653306E0,1.003146172E0,6.240215302E-1,-1.233190060E0
5.807648623E0,1.619069338E0,5.948681831E-1,-1.328446388E0
5.815674477E0,1.382277012E0,6.867442131E-1,-1.406888008E0
5.823670179E0,7.624449730E-1,7.077765465E-1,-1.245034218E0
5.831665341E0,3.690478802E-1,6.265215874E-1,-1.149414062E0
5.839661888E0,2.846317291E-1,4.612469673E-1,-1.169347763E0
5.847656743E0,2.117114067E-1,3.950014114E-1,-1.117838860E0
5.855651828E0,1.400794983E-1,3.400464058E-1,-1.042741299E0
5.863648683E0,1.570510864E-1,2.472133636E-1,-1.057658195E0
5.871673922E0,1.927978992E-1,2.183456421E-1,-9.785027504E-1
5.879670931E0,2.891736031E-1,1.739058495E-1,-8.454899788E-1
5.887665940E0,3.796257973E-1,1.850490570E-1,-7.601947784E-1
5.895660487E0,5.058329105E-1,1.023702621E-1,-6.601252556E-1
5.903656111E0,5.052344799E-1,-2.904510498E-2,-4.948410988E-1
5.911651888E0,4.589951038E-1,-1.869883537E-1,-2.191596031E-1
5.919649051E0,3.867700100E-1,-4.470453262E-1,2.699093819E-1
5.927673675E0,2.294039726E-1,-6.312298775E-1,4.753212929E-1
5.935669453E0,-6.612324715E-2,-7.328915596E-1,5.852603912E-1
5.943664846E0,-4.048604965E-1,-8.740615845E-1,1.080302238E0
5.951660470E0,-6.351573467E-1,-9.752655029E-1,1.228242874E0
5.959657479E0,-9.076397419E-1,-1.051113129E0,1.538641453E0
5.967651871E0,-1.105297327E0,-1.058764935E0,1.356184006E0
5.975648188E0,-1.488988400E0,-2.419299603E0,7.629010201E0
5.983673428E0,-4.105522156E0,-3.560822964E0,6.593409061E0
5.991669436E0,-5.216069221E0,-2.479408741E0,1.579228401E0
5.999665214E0,-2.847381353E0,-8.793396950E-1,2.348724842E0
6.007660530E0,-1.382980824E0,-5.369424820E-2,2.768603325E0
6.015656231E0,-8.293440342E-1,2.720799446E-1,2.118047237E0
6.023652009E0,-6.411688328E-1,4.098639488E-1,1.534942627E0
6.031647325E0,-2.035264969E-1,5.722894669E-1,1.368318081E0
6.039674180E0,2.900671959E-1,6.102581024E-1,9.616603851E-1
6.047669188E0,6.001288891E-1,4.476537704E-1,6.206927299E-1
6.055665197E0,7.993965149E-1,2.885580063E-1,1.788945198E-1
6.063659975E0,7.356195450E-1,2.701086998E-1,-2.343792915E-1
6.071655368E0,5.880506039E-1,4.885892868E-1,-1.108681679E0
6.079652377E0,8.560967445E-1,6.962022781E-1,-1.266353607E0
6.087647385E0,1.158732891E0,6.663317680E-1,-5.512142181E-1
6.095673317E0,6.372902393E-1,3.035001755E-1,2.819204330E-2
6.103668633E0,5.805706978E-2,-2.200407982E-1,3.306531906E-1
6.111664950E0,-4.457020760E-1,-6.887726784E-1,3.559226990E-1
6.119661343E0,-7.192680836E-1,-8.014397621E-1,5.640521049E-1
6.127656121E0,-6.510941982E-1,-7.718772888E-1,7.272977829E-1
6.135651514E0,-3.088464737E-1,-7.350478172E-1,6.815910339E-1
6.143646830E0,-2.123889923E-1,-7.823019028E-1,8.466587067E-1
6.151673916E0,-4.922385216E-1,-7.874093056E-1,9.197177887E-1
6.159670001E0,-8.350570202E-1,-7.060670853E-1,8.470005989E-1
6.167664702E0,-9.358084202E-1,-6.776294708E-1,7.579751015E-1
6.175660096E0,-6.527500153E-1,-8.261737823E-1,6.522235870E-1
6.183657104E0,-2.254893780E-1,-9.700589180E-1,4.765787125E-1
6.191651267E0,-3.075933456E-2,-9.976625443E-1,3.672585487E-1
6.199647813E0,-7.959008217E-2,-9.712209702E-1,3.449907303E-1
6.207673053E0,-2.546937466E-1,-9.273791313E-1,3.611311913E-1
6.215669138E0,-4.342012405E-1,-9.124398232E-1,4.793863297E-1
6.223663609E0,-5.044705868E-1,-8.639492989E-1,5.148677826E-1
6.231660156E0,-5.734753609E-1,-7.329564095E-1,4.933900833E-1
6.239656241E0,-6.547334194E-1,-6.016893387E-1,5.519795418E-1
6.247650942E0,-7.811686993E-1,-4.748787880E-1,6.167840958E-1
6.255646643E0,-8.275330067E-1,-3.957023621E-1,6.306962967E-1
6.263672498E0,-8.348081112E-1,-3.571348190E-1,6.499071121E-1
6.271667968E0,-7.362809181E-1,-3.186945915E-1,6.275711060E-1
6.279665207E0,-6.159996986E-1,-2.996282578E-1,5.672793388E-1
6.287659985E0,-4.167397022E-1,-2.187633514E-1,4.365777969E-1
6.295655686E0,-3.164415359E-1,-1.281385422E-1,2.968339920E-1
6.303650387E0,-1.807956696E-1,-7.908344269E-3,3.624534607E-2
6.311646780E0,-1.292371750E-2,9.492588043E-2,-1.341929436E-1
6.319673866E0,1.082463264E-1,2.171730995E-1,-2.653980255E-1
6.327668875E0,2.902419567E-1,3.715887070E-1,-3.918218613E-1
6.335664267E0,4.376633167E-1,4.896645546E-1,-5.379085541E-1
6.343659123E0,5.524444580E-1,6.447720528E-1,-5.969967842E-1
6.351655977E0,5.528182983E-1,7.633881569E-1,-6.527633667E-1
6.359651755E0,5.410723686E-1,8.257646561E-1,-5.777721405E-1
6.367676995E0,4.204218388E-1,7.939448357E-1,-5.049695969E-1
6.375672387E0,2.547969818E-1,7.901215553E-1,-5.577692986E-1
6.383667396E0,9.290981293E-2,7.882018089E-1,-5.199790001E-1
6.391663481E0,-3.930473328E-2,7.789106369E-1,-4.849476814E-1
6.399660413E0,-4.991483688E-2,7.986426353E-1,-6.039676666E-1
6.407654575E0,9.217357635E-2,8.536157608E-1,-6.762456894E-1
6.415651123E0,2.819004059E-1,9.422435760E-1,-7.790632248E-1
6.423677055E0,4.958050251E-1,1.019691944E0,-1.061555862E0
6.431672447E0,4.011507034E-1,1.243061543E0,-1.795528889E0
6.439669072E0,4.187765121E-1,1.330164433E0,-1.891217232E0
6.447663465E0,4.846355915E-1,1.337168694E0,-1.721327305E0
6.455658858E0,5.120575428E-1,1.157551765E0,-1.265520573E0
6.463654559E0,4.510374069E-1,9.556341171E-1,-1.174610615E0
6.471650644E0,3.663997650E-1,9.016718864E-1,-1.215126038E0
6.479646038E0,2.328481674E-1,9.117045403E-1,-1.325801849E0
6.487672431E0,1.947197914E-1,8.473963737E-1,-1.342107296E0
6.495667286E0,3.303456306E-1,9.159507751E-1,-3.406262398E0
6.503662909E0,1.154807329E0,2.458901405E-1,-2.261378765E0
6.511659534E0,6.150934696E-1,1.634035110E-1,-1.666773319E0
6.519655850E0,-5.004782677E-1,2.297930717E-1,-5.947942734E-1
6.527650089E0,-9.979515076E-1,1.548080444E-1,-2.752609253E-1
6.535676252E0,-5.056085587E-1,4.430961609E-2,-9.400300980E-1
6.543671568E0,3.039946556E-1,7.446765900E-2,-1.094424248E0
6.551667654E0,1.147730350E0,1.263551712E-1,-1.149075031E0
6.559663970E0,1.398317575E0,2.578763962E-1,-1.304726601E0
6.567659055E0,1.298197269E0,5.138750076E-1,-1.567236423E0
6.575654141E0,1.150872707E0,7.741394043E-1,-1.782632351E0
6.583649765E0,8.649280071E-1,7.877216339E-1,-2.166205406E0
6.591676004E0,9.061462879E-1,5.581164360E-1,-2.036687374E0
6.599672936E0,1.114045382E0,5.057864189E-1,-2.036420822E0
6.607667329E0,1.103212595E0,5.822734833E-1,-1.856933594E0
6.615662723E0,9.515316486E-1,7.689595222E-1,-1.715300560E0
6.623658192E0,8.999106884E-1,8.456430435E-1,-1.487299919E0
6.631654201E0,9.885828495E-1,8.080315590E-1,-1.213783741E0
6.639651440E0,1.065877914E0,6.820306778E-1,-9.776120186E-1
6.647675757E0,1.155702591E0,5.498285294E-1,-7.985248566E-1
6.655671766E0,1.164048433E0,4.420800209E-1,-7.340359688E-1
6.663668312E0,1.074192286E0,2.977194786E-1,-4.374713898E-1
6.679659176E0,9.236621857E-1,-1.142063141E-1,2.721509933E-1
6.687654492E0,4.627864361E-1,-3.863682747E-1,6.228160858E-1
6.695649577E0,5.824089050E-3,-7.013797760E-1,7.782883644E-1
6.703674817E0,-4.142763615E-1,-9.967346191E-1,9.478678703E-1
6.711671441E0,-8.654203415E-1,-1.285740376E0,1.172761917E0
6.719668065E0,-1.321580172E0,-2.042425156E0,3.430053711E0
6.727663458E0,-4.444458961E0,-5.080640316E0,9.567617416E0
6.735658543E0,-6.816125870E0,-4.520174980E0,3.450621605E0
6.743653399E0,-5.101510048E0,-1.750088692E0,1.937345505E0
6.751649945E0,-2.875806808E0,-3.437833786E-1,3.962463856E0
6.759675569E0,-2.687984228E0,-3.341321945E-1,3.887104511E0
6.767670963E0,-3.039193630E0,-6.238012314E-1,2.951305866E0
6.775666587E0,-2.469276905E0,-4.593372345E-1,2.730509281E0
6.783662057E0,-1.432432413E0,-3.737869263E-1,2.809379578E0
6.791658296E0,-6.663446426E-1,-5.305233002E-1,2.382462978E0
6.799654305E0,-2.859208584E-1,-4.129552841E-1,1.747692108E0
6.807649160E0,-1.020951271E-1,2.392983437E-1,6.009659767E-1
6.815675630E0,5.459504128E-1,1.140249252E0,-1.811299801E0
6.823670716E0,1.626533747E0,1.368137836E0,-1.632605553E0
6.831666416E0,1.388643503E0,1.066393375E0,-7.236990929E-1
6.839662656E0,-3.969430923E-3,3.869347572E-1,1.301350594E-1
6.847657741E0,-8.446986675E-1,-3.396048546E-1,1.776032448E-1
6.855653750E0,-8.936996460E-1,-6.236958504E-1,1.646552086E-1
6.863648913E0,-5.481767654E-1,-6.399149895E-1,2.777037621E-1
6.871674997E0,-4.695515633E-1,-6.836647987E-1,2.624111176E-1
6.879672006E0,-8.310046196E-1,-7.259478569E-1,2.364234924E-1
6.895661870E0,-1.214053154E0,-9.602503777E-1,1.987438202E-1
6.903657802E0,-1.187738419E0,-1.011971951E0,2.055306435E-1
6.911653810E0,-1.188464165E0,-9.405503273E-1,2.828912735E-1
6.919649588E0,-1.227371216E0,-7.807302475E-1,4.381880760E-1
6.927675135E0,-1.149761200E0,-6.256666183E-1,3.765878677E-1
6.935670528E0,-9.930658340E-1,-5.494036674E-1,3.335151672E-1
6.943665844E0,-8.176593781E-1,-4.273076057E-1,3.103995323E-1
6.951661007E0,-7.029480934E-1,-2.327919006E-1,3.016605377E-1
6.959658247E0,-6.274881363E-1,-4.179191589E-2,3.214573860E-1
6.967653870E0,-5.069055557E-1,1.296162605E-1,2.918210030E-1
6.975649033E0,-4.182386398E-1,2.960643768E-1,2.606244087E-1
6.983674579E0,-3.430714607E-1,4.262332916E-1,2.607645988E-1
6.991669588E0,-4.025378227E-1,4.984192848E-1,1.044473648E-1
6.999666905E0,-3.540983200E-1,5.874114037E-1,-1.498608589E-1
7.007661375E0,-2.727537155E-1,5.894665718E-1,-3.959832191E-1
7.015657614E0,-2.271518707E-1,6.057581902E-1,-5.292091370E-1
7.023652776E0,-8.442449570E-2,6.254758835E-1,-5.966672897E-1
7.031648401E0,4.406261444E-2,6.438078880E-1,-5.915060043E-1
7.039675255E0,1.664061546E-1,6.927704811E-1,-5.058836937E-1
7.047670264E0,2.758150101E-1,6.699595451E-1,-4.900488853E-1
7.055665965E0,3.730349541E-1,6.521148682E-1,-5.058422089E-1
7.063660512E0,5.051579475E-1,6.678414345E-1,-5.434007645E-1
7.071657674E0,6.637129784E-1,7.264723778E-1,-6.747131348E-1
7.079653759E0,8.421692848E-1,7.853622437E-1,-7.608723640E-1
7.087648768E0,9.775218964E-1,8.370866776E-1,-8.009614944E-1
7.095674316E0,9.831423759E-1,8.861794472E-1,-8.146657944E-1
7.103670401E0,8.845887184E-1,8.915767670E-1,-9.704022408E-1
7.111666718E0,6.709094048E-1,8.773121834E-1,-1.015289783E0
7.119663264E0,5.985856056E-1,9.639306068E-1,-2.571078300E0
7.127656812E0,5.453367233E-1,6.919045448E-1,-7.368159294E-1
7.135652512E0,8.453335762E-1,3.243675232E-1,-7.781238556E-1
7.143647367E0,2.894606590E-1,4.642434120E-1,-4.184312820E-1
7.151674453E0,1.270503998E-1,6.282229424E-1,-7.143712044E-1
7.159670461E0,2.984232903E-1,6.802420616E-1,-7.707257271E-1
7.167665547E0,4.673633575E-1,6.590285301E-1,-8.998050690E-1
7.175660940E0,4.698295593E-1,6.025943756E-1,-8.383021355E-1
7.183657179E0,3.994951248E-1,5.932488441E-1,-9.883360863E-1
7.191652573E0,7.307682037E-1,4.267191887E-1,-9.032640457E-1
7.199648658E0,1.067740202E0,3.691539764E-1,-1.076645851E0
7.207673898E0,1.304932594E0,4.098305702E-1,-9.586777687E-1
7.215669213E0,1.489687920E0,6.259827614E-1,-1.197380543E0
7.223664992E0,1.422350883E0,8.232007027E-1,-1.276498318E0
7.231661000E0,1.411944389E0,8.893828392E-1,-1.204405308E0
7.239656932E0,1.453139305E0,8.013372421E-1,-1.341638088E0
7.247652402E0,1.424416542E0,6.914672852E-1,-1.482868671E0
7.255678180E0,1.454812288E0,5.787153244E-1,-1.709596634E0
7.263673958E0,1.590711832E0,5.082359314E-1,-1.736264706E0
7.271669966E0,1.655794621E0,4.103870392E-1,-1.796755791E0
7.279665975E0,1.749562025E0,3.449144363E-1,-1.842015266E0
7.287660753E0,1.675289392E0,1.872553825E-1,-2.040401459E0
7.295656146E0,1.713046789E0,5.373668671E-2,-1.993419647E0
7.303649386E0,1.529741526E0,-1.734828949E-2,-1.815923691E0
7.311647471E0,1.128206968E0,-1.632294655E-1,-1.510365963E0
7.319674556E0,7.862195969E-1,-3.256716728E-1,-1.164930820E0
7.327669718E0,6.372399330E-1,-4.104518890E-1,-9.090147018E-1
7.335664420E0,5.456247330E-1,-3.869767189E-1,-6.874923706E-1
7.343660813E0,4.826505184E-1,-4.143261909E-1,-4.342889786E-1
7.351656821E0,4.830555916E-1,-4.231481552E-1,-3.154168129E-1
7.359652523E0,3.960709572E-1,-4.594430923E-1,-2.020549774E-1
7.367677146E0,2.858574390E-1,-5.475521088E-1,-6.438255310E-3
7.375673694E0,2.992937565E-1,-5.347394943E-1,2.255678177E-2
7.383668549E0,1.591763496E-1,-4.770855904E-1,1.187338829E-1
7.391664864E0,4.812121391E-2,-5.598249435E-1,4.992632866E-1
7.399660796E0,-2.142903805E-1,-6.505570412E-1,5.009965897E-1
7.407655958E0,-6.747612953E-1,-7.534708977E-1,7.247524261E-1
7.415652198E0,-1.125115395E0,-1.015557766E0,1.018327236E0
7.423678129E0,-1.429970980E0,-1.253586292E0,2.629995346E-1
7.431673215E0,-1.956397295E0,-3.009735107E0,6.371560574E0
7.439670455E0,-5.262784004E0,-4.279010296E0,5.754208565E0
7.447664925E0,-5.831376553E0,-2.336780548E0,2.124571800E0
7.455660549E0,-3.102831602E0,-6.572551727E-1,2.223452568E0
7.463655326E0,-8.812103271E-1,-2.971191406E-1,3.004299641E0
7.471651643E0,-1.100718737E0,-6.672244072E-1,2.695635319E0
7.479648652E0,-1.668521166E0,-5.913152695E-1,1.886509418E0
7.487672891E0,-1.287993431E0,-1.955924034E-1,1.468081951E0
7.495669207E0,-4.569003582E-1,6.803369522E-2,1.235167027E0
7.503664062E0,8.764433861E-2,-1.342945099E-1,8.910875320E-1
7.511659994E0,8.463406563E-2,-3.007068634E-1,6.912603378E-1
7.519657002E0,-1.942911148E-1,-1.846094131E-1,6.232895851E-1
7.527651472E0,-3.217928410E-1,-1.562023163E-1,5.833330154E-1
7.535677327E0,-4.581720829E-1,-3.003220558E-1,4.637031555E-1
7.543672412E0,-6.151127815E-1,-5.624942780E-1,2.218995094E-1
7.551668652E0,-6.783998013E-1,-9.983606339E-1,7.341666222E-1
7.559664968E0,-1.162576675E0,-1.165462017E0,8.887243271E-1
7.567659746E0,-1.320356607E0,-1.169068336E0,8.150863647E-1
7.575656063E0,-1.116953611E0,-1.078037262E0,5.984649658E-1
7.583651225E0,-8.827333450E-1,-8.916683197E-1,5.174140930E-1
7.591677388E0,-9.123885632E-1,-6.527099609E-1,4.946908951E-1
7.599673626E0,-1.046089649E0,-5.221028328E-1,4.916830063E-1
7.607668789E0,-1.097881794E0,-4.549641609E-1,4.839591980E-1
7.615663797E0,-1.088845491E0,-3.168716431E-1,4.387764931E-1
7.623658960E0,-1.154388428E0,-1.839814186E-1,3.678960800E-1
7.631655200E0,-1.208092213E0,1.209354401E-2,2.786288261E-1
7.639651593E0,-1.103093863E0,2.097115517E-1,1.060094833E-1
7.647677063E0,-9.301342964E-1,3.118715286E-1,-2.178382874E-2
7.655672840E0,-6.419358253E-1,4.220204353E-1,-1.319160461E-1
7.663669157E0,-3.734955788E-1,5.191683769E-1,-2.436099052E-1
7.671664243E0,-1.304006577E-1,6.659994125E-1,-3.570008278E-1
7.679661174E0,8.204174042E-2,7.858324051E-1,-4.414095879E-1
7.687654722E0,2.513580322E-1,8.474907875E-1,-4.006309509E-1
7.695650960E0,3.024268150E-1,8.211803436E-1,-3.264203072E-1
7.703675969E0,3.467650414E-1,7.956881523E-1,-5.050950050E-1
7.711672593E0,4.138445854E-1,8.388943672E-1,-7.088875771E-1
7.719668909E0,5.029902458E-1,8.675394058E-1,-8.668365479E-1
7.727663995E0,6.038677692E-1,9.200191498E-1,-9.171752930E-1
7.735659080E0,7.196075916E-1,9.462389946E-1,-9.231557846E-1
7.743653859E0,8.531448841E-1,9.372463226E-1,-9.573831558E-1
7.751649867E0,1.080791473E0,9.168586731E-1,-9.843463898E-1
7.759677876E0,1.208929777E0,9.286594391E-1,-1.029851437E0
7.767672577E0,1.343582392E0,9.227895737E-1,-1.095572472E0
7.775667739E0,1.479272366E0,9.661498070E-1,-1.151819706E0
7.783662748E0,1.603130341E0,9.842524529E-1,-1.245740891E0
7.791659371E0,1.718336582E0,1.029964447E0,-1.355134487E0
7.799654842E0,1.786572695E0,1.139738083E0,-1.505926609E0
7.807650542E0,1.783052683E0,1.249443531E0,-1.686313152E0
7.815676090E0,1.760806084E0,1.271537304E0,-1.734028816E0
7.823672406E0,1.736991882E0,1.191850185E0,-1.839416027E0
7.831668030E0,1.847880602E0,1.224813461E0,-3.257708549E0
7.839664423E0,2.552730083E0,1.133595943E0,-3.892510176E0
7.847658816E0,3.430795193E0,3.791575432E-1,-2.357731342E0
7.855654210E0,3.067204475E0,2.164616585E-1,-2.080981255E0
7.863649296E0,1.738226652E0,3.070669174E-1,-1.504889488E0
7.871675842E0,1.097930908E0,3.951821327E-1,-1.367215157E0
7.879672082E0,1.339865446E0,3.796792030E-1,-1.351791382E0
7.887667244E0,2.018051147E0,2.510480881E-1,-1.415368080E0
7.895663791E0,2.441401958E0,2.371773720E-1,-1.519559860E0
7.903659492E0,2.567983866E0,3.386130333E-1,-1.508707047E0
7.911653962E0,2.368104935E0,4.102983475E-1,-1.413869381E0
7.919650971E0,1.922861814E0,3.854022026E-1,-1.300020218E0
7.927676133E0,1.566180229E0,2.482829094E-1,-1.011766434E0
7.935671296E0,1.217288017E0,1.369838715E-1,-7.782926559E-1
7.943666688E0,8.093891144E-1,-1.285085678E-1,-5.774116516E-2
7.951662697E0,7.492961884E-1,-4.819197655E-1,9.422159195E-2
7.959659553E0,6.944856644E-1,-8.787512779E-1,3.337163925E-1
7.967653791E0,9.126479626E-1,-1.684165478E0,1.033803940E0
7.975650339E0,-3.137762547E-1,-4.504954815E0,9.391470909E0
7.983676193E0,-5.710818291E0,-5.074534416E0,5.624516964E0
7.991671894E0,-7.158755779E0,-2.805203438E0,2.103486061E0
7.999668287E0,-3.929809570E0,-3.744091988E-1,2.622355938E0
8.007662758E0,-1.833379030E0,5.446147919E-2,3.494324684E0
8.015658690E0,-2.337762594E0,-6.036777496E-1,3.725401402E0
8.023653236E0,-3.798250198E0,-1.294771194E0,3.829752922E0
8.031650091E0,-4.192830086E0,-1.205694675E0,3.464149952E0
8.039677484E0,-3.592006683E0,-8.789725304E-1,3.229656696E0
8.047670801E0,-2.574324131E0,-6.680493355E-1,2.906699657E0
8.055667117E0,-1.647194624E0,-3.266730309E-1,2.327685356E0
8.063663972E0,-1.174843550E0,1.606545448E-1,1.848897457E0
8.071658750E0,-9.415366650E-1,5.230355263E-1,1.555751801E0
8.079655066E0,-6.727533340E-1,6.222672462E-1,1.503714561E0
8.087649228E0,-3.580625057E-1,6.697063446E-1,8.069686890E-1
8.095676390E0,3.469769955E-1,3.673563004E-1,6.184582710E-1
8.103670476E0,4.961211681E-1,2.239341736E-1,3.440632820E-1
8.111666793E0,3.970599174E-2,2.191710472E-1,2.403974533E-1
8.119663493E0,-5.568156242E-1,9.509420395E-2,2.535328865E-1
8.127658579E0,-5.530519485E-1,-2.143526077E-1,3.139662743E-1
8.135653356E0,-3.391175270E-1,-5.261340141E-1,3.874955177E-1
8.137667513E0,-2.870488167E-1,-5.852289200E-1,3.976197243E-1
8.139652438E0,-3.085966110E-1,-5.828347206E-1,4.191679955E-1
8.141662210E0,-3.445096016E-1,-5.900173187E-1,4.646577835E-1
8.143680135E0,-3.899993896E-1,-5.852289200E-1,4.885997772E-1
8.151675451E0,-7.582149506E-1,-5.306534767E-1,5.860047340E-1
8.159672152E0,-1.018011570E0,-4.685392380E-1,5.460538864E-1
8.167666622E0,-1.067922592E0,-3.966670036E-1,4.975848198E-1
8.175661938E0,-9.866106510E-1,-2.693605423E-1,4.306120872E-1
8.183657024E0,-8.902137280E-1,-1.719884872E-1,4.066085815E-1
8.191653340E0,-8.375997543E-1,-1.092438698E-1,4.598422050E-1
8.199649733E0,-8.011584282E-1,-6.949996948E-2,4.256124496E-1
8.207674973E0,-7.516679764E-1,-7.168722153E-2,3.787093163E-1
8.215671212E0,-6.529164314E-1,-6.000518799E-3,2.975182533E-1
8.223665682E0,-5.268831253E-1,1.325688362E-1,1.437287331E-1
8.231661998E0,-3.822717667E-1,2.891826630E-1,3.875494003E-2
8.239658392E0,-2.329869270E-1,3.957395554E-1,-1.011943817E-1
8.247653785E0,1.227283478E-2,4.771900177E-1,-3.005146980E-1
8.255649178E0,2.412948608E-1,5.853738785E-1,-4.970040321E-1
8.263674033E0,4.047837257E-1,6.401720047E-1,-5.756678581E-1
8.271670734E0,5.257613659E-1,7.078013420E-1,-6.002049446E-1
8.279667050E0,5.738537312E-1,7.465872765E-1,-6.285223961E-1
8.287661751E0,5.941693783E-1,7.350153923E-1,-6.521735191E-1
8.295657452E0,5.285677910E-1,7.475957870E-1,-6.842417717E-1
8.303653461E0,5.248222351E-1,7.121901512E-1,-7.407026291E-1
8.311649161E0,6.100285053E-1,6.885905266E-1,-8.259687424E-1
8.319675709E0,7.030999660E-1,7.131495476E-1,-8.868694305E-1
8.327670486E0,9.525480270E-1,7.425932884E-1,-1.055239677E0
8.335665803E0,1.138478518E0,7.983741760E-1,-1.307025433E0
8.343661504E0,1.277265787E0,8.579497337E-1,-1.469027996E0
8.351657512E0,1.419243336E0,9.004426003E-1,-1.626930237E0
8.359653598E0,1.566023350E0,8.784279823E-1,-1.778519630E0
8.367679144E0,1.800626516E0,1.034197807E0,-3.607077837E0
8.375675077E0,2.305155039E0,9.794769287E-1,-3.161078215E0
8.383670469E0,3.133173466E0,4.035973549E-1,-2.288978100E0
8.391665940E0,2.333186626E0,4.433488846E-1,-1.721829414E0
8.399662564E0,1.597618341E0,5.654525757E-1,-1.197061062E0
8.407657034E0,1.431551933E0,7.117967606E-1,-1.117061615E0
8.415652966E0,1.662136316E0,7.260041237E-1,-1.102476597E0
8.423647512E0,2.025383234E0,6.690859795E-1,-1.231682777E0
8.431674291E0,2.290071487E0,5.658016205E-1,-1.321279049E0
8.439670915E0,2.250152111E0,5.451178551E-1,-1.391513348E0
8.447665385E0,2.107043505E0,4.860248566E-1,-1.338683128E0
8.455661317E0,1.959718466E0,4.618120193E-1,-1.328143120E0
8.463657325E0,1.687690258E0,4.760265350E-1,-1.351733685E0
8.471652103E0,1.528101206E0,5.172891617E-1,-1.364752769E0
8.479680111E0,1.420657873E0,5.457696915E-1,-1.420699120E0
8.487674581E0,1.434180975E0,4.573292732E-1,-1.347744942E0
8.495669975E0,1.568192005E0,4.009599686E-1,-1.209077835E0
8.503665060E0,1.512634754E0,3.475408554E-1,-9.551076889E-1
8.511661069E0,1.294350624E0,2.486062050E-1,-5.712642670E-1
8.519657385E0,9.331409931E-1,-4.544115067E-2,-1.818037033E-1
8.527652778E0,6.350238323E-1,-3.499403000E-1,1.065149307E-1
8.535678018E0,4.562327862E-1,-6.594853401E-1,3.920879364E-1
8.543674103E0,1.844358444E-1,-1.134337425E0,6.017708778E-1
8.551670343E0,-2.497065067E-1,-1.507494450E0,9.053773880E-1
8.559666120E0,-8.592021465E-1,-1.759313107E0,7.788214684E-1
8.567661206E0,-8.836114407E-1,-2.121218681E0,1.422144413E0
8.575656830E0,-1.788518190E0,-3.797158718E0,6.386998177E0
8.583651608E0,-5.015242577E0,-3.858551979E0,5.775458336E0
8.591678155E0,-6.666337013E0,-2.571818352E0,3.596656322E0
8.599674702E0,-4.519777298E0,-8.876633644E-1,1.934130192E0
8.607669865E0,-1.914131641E0,-2.506127357E-1,1.990722179E0
8.615665257E0,-9.748139381E-1,-3.087191582E-1,2.146572113E0
8.623660959E0,-1.243153334E0,-4.324035645E-1,2.210697651E0
8.631656274E0,-1.316407204E0,-2.863383293E-1,1.953528404E0
8.639652591E0,-1.087602854E0,-2.889809608E-1,1.619496822E0
8.647678215E0,-3.463380337E-1,-2.893776894E-1,1.129652977E0
8.655673531E0,5.517091751E-1,-5.656576157E-2,7.420167923E-1
8.663668694E0,8.076841831E-1,2.439732552E-1,4.101366997E-1
8.671664702E0,5.246233940E-1,4.974255562E-1,1.139936447E-1
8.679661249E0,3.446104527E-1,4.198966026E-1,3.570318222E-2
8.687655797E0,3.233628273E-1,1.806979179E-1,3.387904167E-1
8.695651728E0,-2.385909557E-1,1.032557487E-1,2.699546814E-1
8.703678199E0,-7.013211250E-1,4.491233826E-2,2.784337997E-1
8.711673591E0,-7.141299248E-1,-1.394481659E-1,3.429780006E-1
8.719670216E0,-6.215918064E-1,-2.852854729E-1,3.908429146E-1
8.727664993E0,-6.867711544E-1,-2.889933586E-1,3.950452805E-1
8.735660156E0,-8.102953434E-1,-2.353963852E-1,4.198293686E-1
8.743655472E0,-8.203058243E-1,-2.139310837E-1,4.558563232E-1
8.751651480E0,-7.367103100E-1,-2.102560997E-1,4.658083916E-1
8.759678336E0,-5.915138721E-1,-1.429667473E-1,4.075345993E-1
8.767673344E0,-4.478754997E-1,-5.488300323E-2,3.181500435E-1
8.775668507E0,-3.903560638E-1,4.676675797E-2,2.369174957E-1
8.783664746E0,-3.674128056E-1,1.308007240E-1,1.645641327E-1
8.791660216E0,-4.815099239E-1,1.586551666E-1,1.801724434E-1
8.799656840E0,-5.231645107E-1,1.545052528E-1,2.784862518E-1
8.807651002E0,-5.708296299E-1,1.445636749E-1,2.547960281E-1
8.815678088E0,-6.142761707E-1,1.387128830E-1,3.190398216E-1
8.823672481E0,-6.043395996E-1,1.508617401E-1,3.863162994E-1
8.831668874E0,-5.057654381E-1,1.404318810E-1,3.557949066E-1
8.839665422E0,-4.186134338E-1,2.032008171E-1,2.613277435E-1
8.847660199E0,-1.982388496E-1,2.939391136E-1,1.085767746E-1
8.855655670E0,2.869129181E-3,4.087743759E-1,-4.129886627E-2
8.863681832E0,2.136335373E-1,4.788317680E-1,-1.709260941E-1
8.871677764E0,4.155342579E-1,5.596737862E-1,-3.656902313E-1
8.879674080E0,6.689615250E-1,6.374340057E-1,-4.764108658E-1
8.887668319E0,8.683426380E-1,6.433591843E-1,-4.931001663E-1
8.895664020E0,8.937914371E-1,6.166257858E-1,-4.717288017E-1
8.903659644E0,8.116450310E-1,5.716156960E-1,-3.888535500E-1
8.911655422E0,5.958817005E-1,4.978270531E-1,-2.355613708E-1
8.919650815E0,3.051133156E-1,3.767867088E-1,-1.299476624E-1
8.927677285E0,5.432701111E-2,2.005672455E-1,2.075767517E-2
8.935672679E0,-1.115260124E-1,1.361842155E-1,1.008076668E-1
8.943668995E0,-2.018437386E-1,2.122821808E-1,1.163482666E-4
8.951664004E0,-3.981590271E-2,3.513035774E-1,-2.970905304E-1
8.959660319E0,2.621121407E-1,5.093626976E-1,-4.853897095E-1
8.967655175E0,5.819981098E-1,6.105098724E-1,-5.761437416E-1
8.975650568E0,7.962703705E-1,6.427841187E-1,-7.052679062E-1
8.983676345E0,1.013813496E0,6.517405510E-1,-8.001918793E-1
8.991672354E0,1.206882715E0,6.707067490E-1,-8.341317177E-1
8.999669362E0,1.371240139E0,6.605730057E-1,-8.672542572E-1
9.007664064E0,1.366671562E0,7.242827415E-1,-8.677644730E-1
9.015659226E0,1.247832537E0,7.742404938E-1,-8.941035271E-1
9.023654850E0,9.983143806E-1,7.744956017E-1,-9.164900780E-1
9.031650551E0,8.080246449E-1,7.370243073E-1,-8.952822685E-1
9.039677098E0,6.636378765E-1,6.906056404E-1,-8.840112686E-1
9.047672799E0,7.260806561E-1,6.382207870E-1,-9.408965111E-1
9.055668423E0,8.412697315E-1,6.378207207E-1,-1.003849506E0
9.063663278E0,9.976305962E-1,6.948504448E-1,-1.981837273E0
9.071658979E0,1.585784197E0,6.834950447E-1,-2.665855885E0
9.079655910E0,2.274684668E0,1.049475670E-1,-1.483467579E0
9.087650073E0,1.688963175E0,1.292581558E-1,-1.296088696E0
9.095676466E0,7.263653278E-1,3.672375679E-1,-1.156808376E0
9.103672552E0,6.298406124E-1,3.997440338E-1,-9.934692383E-1
9.111668175E0,8.704051971E-1,3.065810204E-1,-9.026217461E-1
9.119664492E0,1.069206476E0,2.237520218E-1,-9.362683296E-1
9.127659270E0,1.075692415E0,2.577972412E-1,-1.058700085E0
9.135654047E0,1.088555098E0,3.174796104E-1,-1.222130299E0
9.143649825E0,1.294016838E0,3.956670761E-1,-1.342892170E0
9.151676295E0,1.460939646E0,5.286641121E-1,-1.373384476E0
9.159673227E0,1.480970144E0,5.992178917E-1,-1.387929440E0
9.167668005E0,1.351763487E0,5.402779579E-1,-1.118093491E0
9.175663321E0,1.052397728E0,3.001594543E-1,-6.794710159E-1
9.183659022E0,6.731824875E-1,-7.062244415E-2,-2.428545952E-1
9.191654492E0,1.754992008E-1,-3.679270744E-1,1.674599648E-1
9.199650809E0,-1.623630524E-2,-8.082103729E-1,-9.751682281E-1
9.207676355E0,-1.641144753E-1,-2.641208172E0,4.076619625E0
9.215671980E0,-1.528485060E0,-3.831269264E0,4.914557457E0
9.223667066E0,-2.831155300E0,-2.716718197E0,3.938101768E0
9.231663381E0,-3.587669373E0,-1.002327442E0,3.229404449E0
9.239659775E0,-3.705421209E0,-7.270636559E-1,3.673489094E0
9.247653860E0,-2.855310202E0,-1.285493851E0,3.105558872E0
9.255650253E0,-1.268397808E0,-1.259936333E0,2.042085171E0
9.263676339E0,-6.943104267E-1,-5.878100395E-1,1.677937984E0
9.271671809E0,-9.443774223E-1,1.057744026E-1,1.882858753E0
9.279668049E0,-1.095272064E0,2.989583015E-1,1.856597424E0
9.287663134E0,-7.167832851E-1,3.125610352E-1,1.607288837E0
9.295658220E0,-1.722311974E-1,3.709406853E-1,1.347764015E0
9.303653381E0,2.698707581E-2,5.012416840E-1,1.122533321E0
9.311680160E0,7.293605804E-2,6.217002869E-1,9.736714363E-1
9.319677015E0,1.515383720E-1,6.983780861E-1,8.360714912E-1
9.327671484E0,2.865595818E-1,8.295159340E-1,6.872053146E-1
9.335667186E0,3.841588497E-1,8.190526962E-1,3.929128647E-1
9.343663271E0,4.197826385E-1,6.516594887E-1,2.306365967E-1
9.351658587E0,3.792150021E-1,3.457727432E-1,3.397254944E-1
9.359655289E0,3.027529716E-1,1.354498863E-1,1.232452393E-1
9.367680220E0,4.252216816E-1,2.485513687E-2,-5.206584930E-2
9.375675921E0,9.644196033E-1,1.606893539E-1,-9.184598923E-2
9.383670929E0,1.072102308E0,3.441858292E-1,2.495012283E-1
9.391667246E0,6.555504799E-1,1.147456169E-1,6.809058189E-1
9.399663562E0,2.765347958E-1,-3.048501015E-1,9.118885994E-1
9.407658340E0,1.647653580E-1,-4.739527702E-1,8.519778252E-1
9.415653810E0,3.567318916E-1,-3.143968582E-1,6.467332840E-1
9.423681126E0,8.395681381E-1,-9.112977982E-2,2.782611847E-1
9.431675674E0,1.313348532E0,-9.625673294E-2,9.427547455E-2
9.439671297E0,1.424169779E0,-2.160677910E-1,7.464838028E-2
9.447666691E0,1.254820585E0,-3.130035400E-1,1.508831978E-1
9.455663007E0,9.417922497E-1,-3.105406761E-1,2.299113274E-1
9.463657554E0,6.534931660E-1,-2.768468857E-1,1.662812233E-1
9.471653794E0,4.576280117E-1,-2.866387367E-1,2.207398415E-1
9.479680879E0,2.780940533E-1,-2.898325920E-1,2.555541992E-1
9.487675965E0,6.144762039E-2,-2.746701241E-1,2.868318558E-1
9.495671434E0,-3.315281868E-2,-1.906185150E-1,1.872286797E-1
9.503666751E0,-5.581998825E-2,-1.332616806E-1,1.556925774E-1
9.511661914E0,-1.397085190E-1,-7.448339462E-2,-7.242441177E-2
9.519658229E0,-7.205510139E-2,-1.986217499E-2,-3.905248642E-1
9.527653546E0,2.076902390E-1,-3.189516068E-2,-4.779458046E-1
9.535679785E0,3.754692078E-1,-4.063129425E-3,-6.106090546E-1
9.543675102E0,3.413209915E-1,9.767913818E-2,-6.532125473E-1
9.551670803E0,1.904437542E-1,1.644062996E-1,-7.617406845E-1
9.559667734E0,4.551053047E-2,2.120347023E-1,-6.948504448E-1
9.567661974E0,-1.336221695E-1,3.935217857E-1,-8.499474525E-1
9.575657366E0,-3.993124962E-1,6.409888268E-1,-1.027931690E0
9.583684068E0,-4.765911102E-1,6.964011192E-1,-1.028544426E0
9.591679230E0,-4.856863022E-1,6.298079491E-1,-1.121975422E0
9.599676392E0,-5.443804264E-1,5.996465683E-1,-1.100925922E0
9.607670248E0,-6.046800613E-1,6.819729805E-1,-1.020841599E0
9.615666871E0,-6.710393429E-1,7.941660881E-1,-9.807496071E-1
9.623661111E0,-6.925802231E-1,7.944197655E-1,-9.328775406E-1
9.631657427E0,-6.262888908E-1,7.534141541E-1,-8.471269608E-1
9.639653666E0,-5.228598118E-1,6.930871010E-1,-1.004704475E0
9.647679291E0,-5.193216801E-1,6.742396355E-1,-1.083092213E0
9.655675222E0,-5.916366577E-1,6.734342575E-1,-1.047206879E0
9.663670692E0,-7.113656998E-1,7.963428497E-1,-1.037173271E0
9.671666085E0,-8.825159073E-1,9.239015579E-1,-1.084484100E0
9.679663325E0,-1.199448824E0,1.036677837E0,-1.085711956E0
9.687656871E0,-1.356996536E0,9.727292061E-1,-9.326434135E-1
9.695652573E0,-1.446029425E0,7.523560524E-1,-8.822669983E-1
9.703678351E0,-1.403404951E0,5.644955635E-1,-8.777995110E-1
9.711674667E0,-1.347730875E0,4.237394333E-1,-9.518356323E-1
9.719671599E0,-1.279003382E0,3.240528107E-1,-1.210850716E0
9.727665837E0,-1.764780998E0,5.217299461E-1,-2.016093731E0
9.735661539E0,-3.158968210E0,6.817245483E-1,-2.072008133E0
9.743657779E0,-3.948866844E0,3.034262657E-1,-1.722515106E0
9.751652556E0,-3.089743614E0,-5.286555290E-1,-1.107722759E0
9.759679103E0,-1.064637184E0,-9.829587936E-1,-3.663854599E-1
9.767674496E0,2.342562675E-1,-8.736472130E-1,3.325867653E-1
9.775669582E0,1.523575783E-1,-1.935925484E-1,3.244447708E-2
9.783665590E0,-4.584140778E-1,1.643414497E-1,-2.275228500E-2
9.791660907E0,-8.546967506E-1,2.836275101E-2,3.136811256E-1
9.799656916E0,-6.644744873E-1,-3.639268875E-1,1.647644043E-1
9.807652385E0,-3.864769936E-1,-6.298236847E-1,4.249420166E-1
9.815678548E0,-2.506484985E-1,-6.731905937E-1,1.712031364E-1
9.823674171E0,3.635692596E-2,-9.098219872E-1,7.069220543E-1
9.831669334E0,8.136749268E-3,-1.246940136E0,7.177133560E-1
9.839666190E0,-3.946614265E-1,-1.477948666E0,1.015966415E0
9.847661351E0,-4.525580406E-1,-1.429164886E0,1.017671585E0
9.855656745E0,6.799459457E-2,-1.077228069E0,7.591190338E-1
9.863652138E0,3.645944595E-1,-9.430232048E-1,8.005194664E-1
9.871678224E0,3.772797585E-1,-1.018258572E0,9.257130623E-1
9.879674847E0,8.479213715E-2,-1.148604870E0,1.319698334E0
9.887670318E0,-8.971691132E-3,-1.232467175E0,1.311460495E0
9.895665327E0,2.548356056E-1,-1.515686512E0,2.005978584E0
9.903661719E0,1.576809883E-1,-1.508396626E0,2.042641640E0
9.911656113E0,-3.766479492E-1,-1.124437332E0,2.030327320E0
9.919653659E0,-7.676033974E-1,-9.872441292E-1,1.657307148E0
9.927677668E0,-1.035047054E0,-9.475030899E-1,1.405375957E0
9.935673062E0,-1.108799934E0,-8.985209465E-1,1.217838764E0
9.943669070E0,-1.186340332E0,-9.373903275E-1,1.313355446E0
9.951665464E0,-1.334462166E0,-8.872256279E-1,1.405049801E0
9.959661087E0,-1.262785912E0,-8.201479912E-1,1.362071514E0
9.967656481E0,-1.133489132E0,-7.044005394E-1,1.440057278E0
9.975651566E0,-1.252532005E0,-5.591616631E-1,1.472558022E0
9.983678113E0,-1.548721790E0,-3.679604530E-1,1.348518848E0
9.991673814E0,-1.524057865E0,-2.964968681E-1,1.133743763E0
9.999670438E0,-1.314228058E0,-1.956386566E-1,9.793500900E-1
1.000766522E1,-1.104760647E0,-9.298324585E-5,9.939332008E-1
1.001566084E1,-9.899239540E-1,1.052837372E-1,1.112666607E0
1.002365562E1,-1.091404438E0,1.343617439E-1,1.480587006E0
1.003165140E1,-1.322560310E0,8.743953705E-2,1.872692585E0
1.003967840E1,-1.559444904E0,-8.236408234E-3,2.332863808E0
1.004767295E1,-1.642698765E0,-2.951765060E-2,2.495538235E0
1.005566896E1,-1.547428608E0,1.034245491E-1,2.392557621E0
1.006366520E1,-1.471584797E0,5.220394135E-1,2.068638325E0
1.007166036E1,-1.511387825E0,1.068521500E0,1.298940182E0
1.007965637E1,-2.020859718E0,1.944215059E0,4.138641357E-1
1.008765138E1,-2.888864040E0,2.320825338E0,1.657853127E-1
1.009567793E1,-3.303042889E0,2.170828104E0,1.789360046E-1
1.010367270E1,-3.324310780E0,1.783132315E0,1.922249794E-1
1.011166933E1,-2.946578503E0,1.338284492E0,1.522431374E-1
1.011966564E1,-2.186138630E0,9.594943523E-1,1.545906067E-1
1.012765942E1,-1.511016369E0,7.543587685E-1,1.861753464E-1
1.013565612E1,-9.614057541E-1,7.088594437E-1,1.902689934E-1
1.014368252E1,-6.039376259E-1,7.098271847E-1,1.496510506E-1
1.015167768E1,-3.722200394E-1,7.084629536E-1,-1.036357880E-2
1.015967392E1,-3.687810898E-2,6.941120625E-1,-2.144756317E-1
1.016766870E1,1.992754936E-1,7.997059822E-1,-7.103981972E-1
1.017566440E1,2.392616272E-1,1.059201956E0,-1.195786476E0
1.018365918E1,5.203819275E-2,1.258538961E0,-1.620778561E0
1.019165611E1,-2.577304840E-1,1.261965513E0,-1.809915066E0
1.019965188E1,-4.474983215E-1,1.025504589E0,-1.818331718E0
1.020767774E1,-2.917313576E-1,6.057887077E-1,-1.636080742E0
1.021567306E1,1.512842178E-1,1.492357254E-1,-1.460987568E0
1.022366906E1,6.750907898E-1,-1.499495506E-1,-1.294396877E0
1.023166423E1,1.092283249E0,-2.738068104E-1,-1.141516685E0
1.023965962E1,1.385184050E0,-3.413474560E-1,-1.133058548E0
1.024765524E1,1.523596287E0,-2.926089764E-1,-1.396196842E0
1.025565033E1,1.666417837E0,-1.607561111E-1,-1.894410133E0
1.026367718E1,1.692499399E0,8.421754837E-2,-2.701338768E0
1.027167258E1,1.556320906E0,4.179525375E-1,-3.511245728E0
1.027966912E1,1.372825146E0,4.605407715E-1,-3.475643635E0
1.028766390E1,1.384762764E0,1.650900841E-1,-3.136978626E0
1.029566030E1,1.658880711E0,-3.483107090E-1,-2.609505653E0
1.030365500E1,2.028309107E0,-7.390770912E-1,-2.272602081E0
1.031165070E1,2.401650190E0,-1.004306078E0,-1.940649509E0
1.031967871E1,2.583629131E0,-1.064817667E0,-1.774339199E0
1.032767287E1,2.567563534E0,-1.060295820E0,-1.914543152E0
1.033566765E1,2.492987871E0,-1.125938416E0,-2.242322922E0
1.034366335E1,2.576509476E0,-1.295797586E0,-2.516274452E0
1.035165966E1,2.903023243E0,-1.496024132E0,-2.724995136E0
1.035965598E1,3.275079250E0,-1.649467945E0,-2.798073769E0
1.036768153E1,3.699418068E0,-1.758850574E0,-2.768229008E0
1.037567723E1,3.977771521E0,-1.859730244E0,-2.794415474E0
1.038367324E1,3.989152908E0,-1.828685760E0,-2.900825024E0
1.039166801E1,3.823375702E0,-1.917031765E0,-2.561679840E0
1.039966464E1,3.615591049E0,-2.084233284E0,-2.138650894E0
1.040765857E1,3.381728172E0,-2.390909195E0,-1.602006912E0
1.041565512E1,3.157655478E0,-2.575170517E0,-1.177953243E0
1.042364997E1,3.043018341E0,-2.652592182E0,-8.677949905E-1
1.043167644E1,2.956327915E0,-2.671579838E0,-4.719114304E-1
1.043967337E1,2.698036194E0,-2.614230633E0,-4.849638939E-1
1.044766807E1,2.163186550E0,-2.610458374E0,-3.465933800E-1
1.045566377E1,1.595314145E0,-2.617754936E0,-4.380850792E-1
1.046365924E1,9.959135056E-1,-2.590026379E0,-3.298649788E-1
1.047165495E1,5.459680557E-1,-2.580254078E0,-1.513195038E-2
1.047965118E1,4.208226204E-1,-2.654725552E0,3.254647255E-1
1.048767681E1,5.277547836E-1,-2.839756489E0,6.738152504E-1
1.049567189E1,7.383527756E-1,-2.903130054E0,8.481035233E-1
1.050366760E1,1.091768742E0,-2.915622234E0,8.963189125E-1
1.051166330E1,1.459020495E0,-2.804235935E0,9.136924744E-1
1.051966054E1,1.736335278E0,-2.650454521E0,1.211397648E0
1.052765462E1,1.991482735E0,-2.419435501E0,1.274937153E0
1.053568078E1,2.252169847E0,-2.249780178E0,1.124970913E0
1.054367679E1,2.443284512E0,-2.247976303E0,1.661637783E0
1.055167219E1,2.320987463E0,-2.553830147E0,2.211325645E0
1.055966819E1,2.008242607E0,-2.304564476E0,1.428840160E0
1.056766274E1,1.500915766E0,-1.735110283E0,1.107496738E0
1.057565867E1,1.328005075E0,-1.427507401E0,8.706979752E-1
1.058365353E1,1.236515880E0,-1.261543751E0,8.668370247E-1
1.059167992E1,1.164487004E0,-1.113795757E0,9.140634537E-1
1.059967662E1,1.063607454E0,-8.363881111E-1,9.102191925E-1
1.060767163E1,9.593324661E-1,-5.381979942E-1,9.375395775E-1
1.061566741E1,9.240131378E-1,-3.272480965E-1,9.769210815E-1
1.062366365E1,8.501884937E-1,-1.001253128E-1,8.239879608E-1
1.063165904E1,8.255438805E-1,1.350474358E-1,8.144259453E-1
1.063965482E1,8.616814613E-1,3.274588585E-1,1.292325974E0
1.064767998E1,6.664464474E-1,5.499343872E-1,1.380705833E0
1.065567630E1,9.936094284E-3,7.983517647E-1,1.225210667E0
1.066367138E1,-7.956564426E-1,8.065366745E-1,1.508908749E0
1.067166716E1,-1.053296566E0,6.250438690E-1,1.805665016E0
1.067966432E1,-7.692482471E-1,3.916673660E-1,1.844254494E0
1.068765756E1,-3.397426605E-1,4.215054512E-1,1.286239147E0
1.069565457E1,-4.498481750E-2,6.195030212E-1,7.743625641E-1
1.070368043E1,-3.504729271E-2,9.430003166E-1,1.233215332E-1
1.071167520E1,-1.070868969E-1,1.140470505E0,-8.250474930E-2
1.071967267E1,-1.440501213E-2,1.094462872E0,-3.523349762E-2
1.072766714E1,2.450885773E-1,9.138607979E-1,-1.268143654E-1
1.073566261E1,5.301628113E-1,8.990402222E-1,-6.370782852E-2
1.074365739E1,3.844711781E-1,1.005695343E0,1.216835976E-1
1.075165332E1,-1.945090294E-2,1.093241692E0,7.729244232E-2
1.075968072E1,-4.795689583E-1,1.005029202E0,1.196074486E-1
1.076767580E1,-6.960289478E-1,8.442034721E-1,1.004023552E-1
1.077567120E1,-7.683174610E-1,7.268781662E-1,2.151250839E-2
1.078366666E1,-7.326810360E-1,8.179402351E-1,-2.467913628E-1
1.079166290E1,-3.771908283E-1,9.633145332E-1,-4.158692360E-1
1.079965891E1,2.117395401E-2,1.163983107E0,-5.175881386E-1
1.080765400E1,2.400434017E-1,1.226413488E0,-9.308161736E-1
1.081567955E1,5.075159073E-1,1.100677490E0,-9.480957985E-1
1.082367494E1,7.723367214E-1,7.932415009E-1,-5.797142982E-1
1.083167072E1,6.042798758E-1,7.462296486E-1,-1.293841362E0
1.083966703E1,1.214709282E-1,7.763342857E-1,-1.140121460E0
1.084766173E1,-6.091690063E-2,8.253145218E-1,-1.106351852E0
1.085565744E1,-1.170017719E-1,7.967967987E-1,-9.499926567E-1
1.086368360E1,-2.330665588E-1,6.932415962E-1,-8.740897179E-1
1.087168022E1,-3.707506657E-1,5.451974869E-1,-7.103404999E-1
1.087967592E1,-4.751589298E-1,4.842920303E-1,-6.988706589E-1
1.088767078E1,-4.937129021E-1,4.941949844E-1,-5.616378784E-1
1.089566579E1,-4.600579739E-1,4.661459923E-1,-3.966917992E-1
1.090366180E1,-3.483948708E-1,3.701605797E-1,-2.131519318E-1
1.091165780E1,-3.344593048E-1,2.572665215E-1,7.821464539E-2
1.091965450E1,-3.735842705E-1,1.414732933E-1,5.196380615E-2
1.092767967E1,-4.059913158E-1,2.805948257E-2,6.320858002E-2
1.093567514E1,-4.025375843E-1,-6.038761139E-2,-9.809970856E-2
1.094367053E1,-3.027727604E-1,-5.805397034E-2,-1.899385452E-1
1.095166585E1,-1.261539459E-1,-1.192235947E-1,-2.439212799E-1
1.095966278E1,3.904461861E-2,-2.684454918E-1,-3.415260315E-1
1.096765725E1,3.366174698E-1,-5.308241844E-1,-1.983013153E-1
1.097565303E1,6.628472805E-1,-6.403937340E-1,-1.288003922E-1
1.098367826E1,6.480894089E-1,-6.043763161E-1,-1.775360107E-1
1.099167512E1,2.761384249E-1,-4.659028053E-1,-1.707706451E-1
1.099967082E1,-4.219913483E-2,-4.088015556E-1,-5.298614502E-2
1.100766652E1,-1.216962337E-1,-4.157915115E-1,1.725187302E-1
1.101566130E1,-8.539056778E-2,-4.770150185E-1,2.010087967E-1
1.102365669E1,3.437232971E-2,-5.967736244E-1,1.414299011E-2
1.103165247E1,1.439046860E-1,-6.668286324E-1,-1.787090302E-1
1.103967979E1,1.927098036E-1,-7.060265541E-1,-4.108910561E-1
1.104767487E1,2.963685989E-1,-8.517827988E-1,-4.825940132E-1
1.105566996E1,5.027095079E-1,-1.094626904E0,-4.177403450E-1
1.106366566E1,7.750210762E-1,-1.290843487E0,-4.677400589E-1
1.107166136E1,8.625429869E-1,-1.369246006E0,-4.962172508E-1
1.107965868E1,7.071568966E-1,-1.361138821E0,-4.390473366E-1
1.108766885E1,4.313596487E-1,-1.529761314E0,-9.752273560E-3
1.109569509E1,1.964529753E-1,-1.791972637E0,-9.882068634E-2
1.110369041E1,2.540503740E-1,-2.058424473E0,-3.433427811E-1
1.111168588E1,5.405197144E-1,-1.949525833E0,-5.723085403E-1
1.111968282E1,8.242252469E-1,-1.669069767E0,-6.036782265E-1
1.112767721E1,9.749321938E-1,-1.421513557E0,-6.476964951E-1
1.113567207E1,1.079199076E0,-1.373195648E0,-5.874404907E-1
1.114366839E1,1.282210827E0,-1.453679085E0,-5.477452278E-1
1.115169509E1,1.464291811E0,-1.452443600E0,-5.547723770E-1
1.115969118E1,1.680625796E0,-1.373407841E0,-6.650643349E-1
1.116768558E1,1.772963405E0,-1.218204021E0,-7.505192757E-1
1.117568128E1,1.605254531E0,-1.018605709E0,-7.650351524E-1
1.118367698E1,1.294824004E0,-9.117622375E-1,-6.259012222E-1
1.119167338E1,1.075158834E0,-9.313492775E-1,-2.929949760E-1
1.119966908E1,1.012957931E0,-9.145483971E-1,-7.018136978E-2
1.120769455E1,1.079125524E0,-8.481216431E-1,2.205610275E-1
1.121569033E1,1.177136779E0,-6.781687737E-1,2.225193977E-1
1.122368504E1,1.189095020E0,-5.202326775E-1,2.262582779E-1
1.123168166E1,1.180584311E0,-4.085292816E-1,1.083474159E-1
1.123967806E1,1.212134719E0,-3.330602646E-1,9.179925919E-2
1.124767253E1,1.294456482E0,-3.209376335E-1,2.167830467E-1
1.125566846E1,1.379897237E0,-2.961454391E-1,2.984552383E-1
1.126369371E1,1.426497459E0,-1.510152817E-1,3.629755974E-1
1.127169010E1,1.292106867E0,1.193232536E-1,3.672494888E-1
1.127968642E1,8.984299302E-1,3.225231171E-1,4.903612137E-1
1.128768143E1,6.730322838E-1,3.410763741E-1,4.976224899E-1
1.129567660E1,8.354951143E-1,3.357663155E-1,5.927057266E-1
1.130367191E1,1.017438293E0,4.694066048E-1,5.671463013E-1
1.131166800E1,1.045351028E0,6.249475479E-1,4.043474197E-1
1.131969501E1,9.475817680E-1,8.333005905E-1,2.335267067E-1
1.132768956E1,9.160149097E-1,9.505152702E-1,2.197937965E-1
1.133568527E1,9.016299248E-1,1.051964760E0,3.431558609E-1
1.134368089E1,8.275291920E-1,1.167905807E0,2.894372940E-1
1.135167667E1,6.087517738E-1,1.336205006E0,1.815438271E-1
1.135967353E1,3.834190965E-1,1.601457119E0,7.073497772E-2
1.136769846E1,2.889740169E-1,1.847711086E0,-1.575040817E-2
1.137569417E1,2.442493588E-1,2.127250671E0,-7.892751694E-2
1.138368926E1,2.793684602E-1,2.254026413E0,-4.888916016E-2
1.139168534E1,4.201104045E-1,2.349223852E0,-1.185455322E-1
1.139968166E1,4.415913224E-1,2.422981977E0,-8.881378174E-2
1.140767667E1,3.231206536E-1,2.529942513E0,-2.361555099E-1
1.141567214E1,-6.754741073E-3,2.610395432E0,-1.559357643E-1
1.142369831E1,-1.321574748E-1,2.556623459E0,1.613330841E-2
1.143169340E1,-9.028971195E-3,2.508839130E0,6.390285492E-2
1.143969064E1,1.499644220E-1,2.572073460E0,1.452617645E-1
1.144768542E1,2.023496628E-1,2.606769562E0,1.496009827E-1
1.145568082E1,8.085143566E-2,2.580263615E0,2.218618393E-1
1.146367644E1,-1.793110073E-1,2.493427277E0,4.022922516E-1
1.147167191E1,-5.821791291E-1,2.269678354E0,8.566007614E-1
1.147969892E1,-9.427484274E-1,1.966518402E0,1.023616791E0
1.148769409E1,-1.339790344E0,1.608600616E0,1.006858826E0
1.149568941E1,-1.629860640E0,1.284557343E0,9.494724274E-1
1.150368519E1,-1.781332970E0,1.096495152E0,8.736238480E-1
1.151168081E1,-1.953827858E0,9.927153587E-1,6.709756851E-1
1.151967713E1,-2.059929132E0,9.314284325E-1,5.476856232E-1
1.152767199E1,-2.081779003E0,7.944564819E-1,4.857721329E-1
1.153569785E1,-1.978674054E0,5.896925926E-1,4.643220901E-1
1.154369355E1,-1.819319129E0,2.717123032E-1,5.984201431E-1
1.155168948E1,-1.673561931E0,-1.012864113E-1,5.619297028E-1
1.155968488E1,-1.589609623E0,-3.014907837E-1,2.070512772E-1
1.156768097E1,-1.432110906E0,-3.748321533E-1,1.062784195E-1
1.157567636E1,-1.202326417E0,-3.650326729E-1,-1.301918030E-1
1.158367237E1,-1.005807757E0,-4.547128677E-1,-1.214599609E-2
1.159169754E1,-8.954548836E-1,-6.609416008E-1,-1.551656723E-1
1.159969509E1,-7.630997896E-1,-7.888560295E-1,-4.246587753E-1
1.160768925E1,-4.849720001E-1,-9.134211540E-1,-4.045867920E-1
1.161568496E1,-2.519605160E-1,-8.911433220E-1,-6.099114418E-1
1.162367943E1,-1.424873173E-1,-8.564720154E-1,-6.052207947E-1
1.163167552E1,-1.225600541E-1,-9.166173935E-1,-5.782914162E-1
1.163967237E1,-1.151192188E-1,-1.036005020E0,-5.723857880E-1
1.164769762E1,-7.419490814E-2,-1.208889484E0,-4.685535431E-1
1.165569363E1,-8.899807930E-3,-1.237355709E0,-5.545082092E-1
1.166368871E1,1.959913969E-2,-1.202876091E0,-5.716147423E-1
1.167168419E1,-8.954405785E-4,-1.167866230E0,-6.347007751E-1
1.167968166E1,7.834672928E-2,-1.171280384E0,-6.147847176E-1
1.168767552E1,3.285948038E-1,-1.214000225E0,-5.628447533E-1
1.169567099E1,5.217553377E-1,-1.202015400E0,-4.514226913E-1
1.170369715E1,6.240738630E-1,-1.186852932E0,-3.746914864E-1
1.171169286E1,6.615591049E-1,-1.173374653E0,-4.067950249E-1
1.171968941E1,6.846269369E-1,-1.095719814E0,-4.869532585E-1
1.172768457E1,8.253099918E-1,-1.046914577E0,-5.167579651E-1
1.173568027E1,9.840079546E-1,-9.888954163E-1,-4.820938110E-1
1.174367621E1,1.092742443E0,-9.263815880E-1,-4.595789909E-1
1.175167068E1,1.051368713E0,-8.592801094E-1,-4.467048645E-1
1.175969846E1,9.337154031E-1,-8.200855255E-1,-2.981719971E-1
1.176769316E1,9.415515661E-1,-8.115601540E-1,-2.655878067E-1
1.177568856E1,1.071416020E0,-8.390994072E-1,-1.291751862E-1
1.178368365E1,1.167119026E0,-8.415794373E-1,3.125286102E-2
1.179168027E1,1.217446089E0,-7.976808548E-1,1.149950027E-1
1.179967575E1,1.282310963E0,-6.819558144E-1,2.627782822E-1
1.180767107E1,1.403484464E0,-5.736217499E-1,3.834648132E-1
1.181569692E1,1.580221653E0,-4.648041725E-1,3.888597488E-1
1.182369201E1,1.689761043E0,-3.200030327E-1,5.372667313E-1
1.183168779E1,1.674478292E0,-2.082991600E-1,5.080575943E-1
1.183968465E1,1.636435151E0,-1.040978432E-1,3.957014084E-1
1.184767920E1,1.579518795E0,2.465391159E-2,3.085470200E-1
1.185567513E1,1.479428530E0,1.990303993E-1,3.755464554E-1
1.186366991E1,1.407795191E0,2.994351387E-1,3.358144760E-1
1.187169677E1,1.285487533E0,3.995370865E-1,3.350229263E-1
1.187969370E1,1.095963120E0,5.585942268E-1,3.296794891E-1
1.188768817E1,9.198503494E-1,7.041087151E-1,3.552589417E-1
1.189568442E1,6.417268515E-1,8.687753677E-1,2.819547653E-1
1.190367927E1,4.561195970E-1,1.011126041E0,2.481775284E-1
1.191167490E1,3.323992789E-1,1.194524288E0,3.345432281E-1
1.191967099E1,2.306794375E-1,1.407481670E0,1.344690323E-1
1.192769684E1,1.700636446E-1,1.566903591E0,5.857658386E-2
1.193569255E1,9.370601177E-2,1.632530451E0,1.238908768E-1
1.194368756E1,-3.807590902E-2,1.669110537E0,1.533069611E-1
1.195168357E1,-2.166115344E-1,1.767596245E0,-4.325485229E-2
1.195967958E1,-2.772825956E-1,1.834657192E0,3.452301025E-3
1.196767528E1,-2.990229726E-1,1.942861795E0,-7.720184326E-2
1.197567129E1,-3.639466166E-1,2.073817015E0,-8.360958099E-2
1.198369654E1,-4.187496603E-1,2.135026932E0,6.468296051E-2
1.199169170E1,-3.905008137E-1,1.926456213E0,3.127298355E-1
1.199968863E1,-2.993465066E-1,1.795544863E0,4.414291382E-1
1.200768341E1,-4.668419361E-1,1.792049170E0,4.864101410E-1
1.201567881E1,-7.714071274E-1,1.677120209E0,5.854187012E-1
1.202367420E1,-1.001845717E0,1.518653870E0,6.992216110E-1
1.203167083E1,-1.246067762E0,1.336825609E0,7.016067505E-1
1.203969792E1,-1.356122255E0,1.159599543E0,6.319627762E-1
1.204769239E1,-1.436557770E0,1.020473242E0,5.660858154E-1
1.205568710E1,-1.487176180E0,8.776941299E-1,4.977445602E-1
1.206368434E1,-1.571861386E0,7.310857773E-1,3.875818253E-1
1.207167881E1,-1.590035677E0,5.252246857E-1,2.966060638E-1
1.207967451E1,-1.519329071E0,2.663278580E-1,2.758159637E-1
1.208766960E1,-1.382238150E0,-7.718086243E-2,2.471170425E-1
1.209569607E1,-1.327967644E0,-2.599344254E-1,-6.315517426E-2
1.210369093E1,-1.349224091E0,-3.958511353E-1,-1.997117996E-1
1.211168717E1,-1.297235727E0,-4.908037186E-1,-2.254095078E-1
1.211968411E1,-1.170602441E0,-5.863089561E-1,-3.250484467E-1
1.212767927E1,-8.947721124E-1,-7.071499825E-1,-3.316192627E-1
1.213567459E1,-7.246115208E-1,-8.543896675E-1,-2.913494110E-1
1.214367060E1,-6.640975475E-1,-9.855461121E-1,-3.220348358E-1
1.215169592E1,-7.051679492E-1,-1.089167118E0,-3.401727676E-1
1.215969278E1,-6.735669971E-1,-1.198137283E0,-2.557506561E-1
1.216768663E1,-5.170868039E-1,-1.337026596E0,-2.367591858E-1
1.217568295E1,-3.261449933E-1,-1.398443699E0,-2.833747864E-1
1.218367842E1,-1.564877629E-1,-1.448438644E0,-4.500465393E-1
1.219167436E1,-4.788213968E-2,-1.499369144E0,-4.735183716E-1
1.219967098E1,2.351170778E-2,-1.597307682E0,-5.216617584E-1
1.220769623E1,1.257799864E-1,-1.681673050E0,-4.278383255E-1
1.221569078E1,2.787216604E-1,-1.716284752E0,-3.321876526E-1
1.222368732E1,4.180785418E-1,-1.674666882E0,-3.567256927E-1
1.223168188E1,5.454670191E-1,-1.674048901E0,-3.624114990E-1
1.223967881E1,6.464883685E-1,-1.658310890E0,-4.538164139E-1
1.224767474E1,6.756116152E-1,-1.609968185E0,-5.321683884E-1
1.225566898E1,6.653521061E-1,-1.553732872E0,-5.020060539E-1
1.226369515E1,7.897085547E-1,-1.501042843E0,-5.186901093E-1
1.227169116E1,9.229964614E-1,-1.402578831E0,-4.774947166E-1
1.227968802E1,9.893211126E-1,-1.295262814E0,-6.003689766E-1
1.228768249E1,9.485856891E-1,-1.208464622E0,-5.596022606E-1
1.229567788E1,9.990865588E-1,-1.141292095E0,-4.662327766E-1
1.230367367E1,1.188257933E0,-9.973483086E-1,-5.020146370E-1
1.231166875E1,1.359822989E0,-8.357362747E-1,-5.636777878E-1
1.231969615E1,1.528273582E0,-5.986866951E-1,-5.959858894E-1
1.232769147E1,1.598178625E0,-3.995938301E-1,-6.184501648E-1
1.233568625E1,1.668772459E0,-2.797245979E-1,-6.311993599E-1
1.234368195E1,1.628625512E0,-2.056789398E-1,-4.919033051E-1
1.235167865E1,1.530969501E0,-1.034426689E-1,-5.310120583E-1
1.235967436E1,1.304491043E0,-4.909229279E-2,-1.813154221E-1
1.236769983E1,1.049340606E0,6.633758545E-3,1.062269211E-1
1.237569592E1,8.461413383E-1,1.033844948E-1,3.115596771E-1
1.238369124E1,7.994318008E-1,1.668419838E-1,5.061836243E-1
1.239168671E1,7.972289324E-1,3.358745575E-1,5.893821716E-1
1.239968326E1,7.449527383E-1,6.906375885E-1,7.900848389E-1
1.240767773E1,6.753545403E-1,1.014926434E0,8.947334290E-1
1.241567320E1,6.796526313E-1,1.432364464E0,8.837184906E-1
1.242369937E1,7.633008361E-1,1.812794685E0,6.968917847E-1
1.243169468E1,8.088802695E-1,2.091129541E0,5.857553482E-1
1.243969193E1,7.769045830E-1,2.252512455E0,4.317998886E-1
1.244768671E1,6.121265292E-1,2.329429626E0,3.212566376E-1
1.245568187E1,3.260761499E-1,2.389583349E0,3.694429398E-1
1.246367788E1,1.702601910E-1,2.415202379E0,3.354110718E-1
1.247167266E1,5.953210592E-2,2.475592136E0,4.034280777E-1
1.247966952E1,9.202271700E-3,2.526805878E0,6.410551071E-1
1.248769484E1,-4.232361913E-2,2.434370995E0,7.570514679E-1
1.249569085E1,-1.885322928E-1,2.363480568E0,9.368858337E-1
1.250368563E1,-3.477106690E-1,2.241437912E0,9.814748764E-1
1.251168187E1,-5.478164554E-1,2.009793758E0,1.065194130E0
1.251967796E1,-7.640484571E-1,1.708542585E0,1.040647507E0
1.252767305E1,-1.074644089E0,1.410188198E0,8.388881683E-1
1.253570006E1,-1.389508367E0,1.232607365E0,5.702924728E-1
1.254369545E1,-1.593804598E0,1.112745762E0,3.517150879E-1
1.255169062E1,-1.780026197E0,1.003374815E0,3.609848022E-2
1.255968655E1,-1.888033152E0,8.862154484E-1,-1.751728058E-1
1.256768080E1,-1.847882390E0,6.650552750E-1,-2.848720551E-1
1.257567765E1,-1.726064444E0,4.568786621E-1,-4.250373840E-1
1.258367220E1,-1.648004413E0,2.925636768E-1,-5.481662750E-1
1.259169921E1,-1.521656394E0,7.410073280E-2,-4.400014877E-1
1.259969499E1,-1.447120786E0,-2.052600384E-1,-2.236223221E-1
1.260769093E1,-1.345895767E0,-5.858795643E-1,-1.119804382E-1
1.261568571E1,-1.303485394E0,-8.605623245E-1,-9.007072449E-2
1.262368233E1,-1.268207908E0,-1.078936577E0,1.495647430E-2
1.263167742E1,-1.148189425E0,-1.256786585E0,1.234970093E-1
1.263967351E1,-1.002019167E0,-1.440681219E0,2.313919067E-1
1.264769898E1,-8.115079403E-1,-1.685139656E0,2.490520477E-1
1.265569499E1,-6.798548698E-1,-1.775329351E0,2.767562866E-2
1.266368985E1,-6.486682892E-1,-1.772385120E0,-3.737277985E-1
1.267168586E1,-6.820595860E-1,-1.770573854E0,-5.593862534E-1
1.267968241E1,-5.231065154E-1,-1.876564026E0,-7.059478760E-1
1.268767657E1,-8.309906721E-2,-2.064879656E0,-8.367519379E-1
1.270369906E1,5.377016664E-1,-2.157957077E0,-8.934869766E-1
1.271169422E1,5.237130523E-1,-2.173804760E0,-7.738142014E-1
1.271969177E1,4.495081902E-1,-2.232098103E0,-4.139738083E-1
1.272768555E1,3.673359752E-1,-2.356231689E0,-3.989887238E-1
1.273568126E1,5.001484752E-1,-2.426083088E0,-4.079303741E-1
1.274367611E1,7.052330971E-1,-2.359649181E0,-5.113830566E-1
1.275167212E1,8.183712959E-1,-2.166935921E0,-6.666688919E-1
1.275969921E1,8.634383082E-1,-1.906270981E0,-9.376974106E-1
1.276769399E1,8.844430447E-1,-1.685148239E0,-1.083495617E0
1.277568962E1,9.431583881E-1,-1.535188675E0,-1.087319851E0
1.278368501E1,1.164762020E0,-1.295525074E0,-1.031566620E0
1.279168079E1,1.311045408E0,-1.028009892E0,-8.179645538E-1
1.279967742E1,1.350092888E0,-7.197842598E-1,-5.024566650E-1
1.280767243E1,1.289434671E0,-4.657783508E-1,-1.362476349E-1
1.281569860E1,1.322692037E0,-2.475490570E-1,3.446979523E-1
1.282369345E1,1.402864456E0,2.732181549E-2,8.234252930E-1
1.283168969E1,1.447593093E0,3.021378517E-1,1.115797997E0
1.283968578E1,1.431013107E0,6.472425461E-1,1.468893051E0
1.284768087E1,1.339475036E0,9.435324669E-1,1.436655045E0
1.285567719E1,1.149196506E0,1.307965755E0,1.312337875E0
1.286367251E1,9.429975748E-1,1.726295710E0,1.189398766E0
1.287169806E1,8.549320698E-1,2.156225920E0,9.065361023E-1
1.287969414E1,8.381410837E-1,2.593219995E0,8.937530518E-1
1.288768954E1,7.326171398E-1,2.861583710E0,7.306566238E-1
1.289568547E1,4.465616345E-1,3.091002941E0,6.347341537E-1
1.290368064E1,4.552241787E-2,3.109298706E0,5.914230347E-1
1.291167657E1,-2.087676227E-1,2.954631329E0,4.623947144E-1
1.291967320E1,-3.059668243E-1,2.734506130E0,3.681755066E-1
1.292769821E1,-2.624076307E-1,2.516425133E0,4.129762650E-1
1.293569330E1,-1.546638757E-1,2.222639561E0,4.644937515E-1
1.294368900E1,-1.855835021E-1,1.977503061E0,4.172563553E-1
1.295168532E1,-5.576180816E-1,1.784054756E0,2.508783340E-1
1.295968156E1,-1.105870605E0,1.624123335E0,2.152538300E-2
1.296767611E1,-1.394280314E0,1.431931734E0,-1.269588470E-1
1.297567204E1,-1.565862060E0,1.123620510E0,-1.924085617E-1
1.298369698E1,-1.633473873E0,8.327894211E-1,-2.565231323E-1
1.299169430E1,-1.796099544E0,5.052127838E-1,-3.430042267E-1
1.299969054E1,-2.032570362E0,2.061371803E-1,-4.828357697E-1
1.300768416E1,-2.167591810E0,-2.855396271E-2,-5.563545227E-1
1.301568041E1,-2.237905264E0,-2.181735039E-1,-6.881113052E-1
1.302367680E1,-2.125972986E0,-3.605661392E-1,-7.106018066E-1
1.303167089E1,-1.906155944E0,-5.276520252E-1,-7.963590622E-1
1.303969890E1,-1.740245581E0,-6.863441467E-1,-7.325448990E-1
1.304769337E1,-1.578464746E0,-8.325929642E-1,-6.176481247E-1
1.305568846E1,-1.398527622E0,-9.662320614E-1,-4.180669785E-1
1.306368393E1,-1.159095526E0,-1.113485575E0,-2.605962753E-1
1.307168018E1,-8.948639035E-1,-1.271559715E0,-1.138219833E-1
1.307967719E1,-7.318218946E-1,-1.388156652E0,-3.034934998E-1
1.308767189E1,-4.486352801E-1,-1.518845797E0,-2.506246567E-1
1.309569744E1,-1.235910654E-1,-1.728628874E0,-8.246803284E-2
1.310369314E1,1.316213012E-1,-1.934455872E0,8.689212799E-2
1.311168885E1,3.705747128E-1,-2.159788132E0,1.632242203E-1
1.311968516E1,4.782421589E-1,-2.313796520E0,9.387302399E-2
1.312767971E1,6.965579391E-1,-2.402975798E0,-1.776695251E-2
1.313567603E1,9.268412590E-1,-2.403523207E0,-3.513240814E-2
1.314367104E1,1.099132776E0,-2.423112631E0,-8.014011383E-2
1.315169690E1,1.314252973E0,-2.475093842E0,-1.784524918E-1
1.315969445E1,1.498192191E0,-2.478690147E0,-3.578109741E-1
1.316768831E1,1.642384529E0,-2.387062311E0,-4.499397278E-1
1.317568401E1,1.719831586E0,-2.299295664E0,-5.548028946E-1
1.318367948E1,1.734738588E0,-2.117210627E0,-5.167722702E-1
1.319167580E1,1.664793730E0,-1.854990005E0,-4.698543549E-1
1.319967204E1,1.655215025E0,-1.610279083E0,-3.287086487E-1
1.320769705E1,1.626135945E0,-1.306487560E0,-1.160144806E-1
1.321569306E1,1.597803116E0,-9.715523720E-1,2.071838379E-1
1.322368784E1,1.591409087E0,-5.543003082E-1,4.365863800E-1
1.323168378E1,1.594635963E0,-8.350944519E-2,5.768642426E-1
1.323968048E1,1.530405283E0,3.275809288E-1,7.018127441E-1
1.324767495E1,1.342892766E0,6.792988777E-1,9.470129013E-1
1.325567058E1,1.226000547E0,8.696818352E-1,1.156306267E0
1.326369798E1,1.167039871E0,1.124361992E0,1.112031937E0
1.327169306E1,1.101409912E0,1.464915514E0,1.087181091E0
1.327968969E1,9.273747206E-1,1.909001589E0,9.613494873E-1
1.328768393E1,7.533589602E-1,2.270182133E0,8.367185593E-1
1.329567987E1,7.732338905E-1,2.491324425E0,5.640277863E-1
1.330367411E1,7.731763124E-1,2.663370609E0,3.196210861E-1
1.331167166E1,5.703105927E-1,2.706564426E0,7.263469696E-2
1.331969844E1,1.617094874E-1,2.605833054E0,-1.808481216E-1
1.332769229E1,-2.544187605E-1,2.384170294E0,-4.016857147E-1
1.333568823E1,-4.629162848E-1,2.191767693E0,-5.539350510E-1
1.334368486E1,-6.053590178E-1,1.993621230E0,-7.024650574E-1
1.335167910E1,-6.902384758E-1,1.784558535E0,-7.880210876E-1
1.335967534E1,-8.131745458E-1,1.470410109E0,-7.211427689E-1
1.336767081E1,-9.250341058E-1,1.160425901E0,-6.325216293E-1
1.337569690E1,-1.166418314E0,8.268458843E-1,-4.709453583E-1
1.338369168E1,-1.460996866E0,6.028566360E-1,-4.354076385E-1
1.339168800E1,-1.684155941E0,3.841311932E-1,-3.035697937E-1
1.339968370E1,-1.857604861E0,1.374516487E-1,-2.451009750E-1
1.340767948E1,-1.995322704E0,-1.068413258E-1,-2.999286652E-1
1.341567426E1,-2.153922558E0,-4.378793240E-1,-2.899122238E-1
1.342370066E1,-2.256251812E0,-6.904635429E-1,-3.551635742E-1
1.343169667E1,-2.221809864E0,-8.963060379E-1,-3.751707077E-1
1.343969276E1,-2.008500576E0,-1.059005499E0,-3.304138184E-1
1.344768815E1,-1.747012854E0,-1.175199986E0,-3.694620132E-1
1.345568324E1,-1.470691800E0,-1.292432070E0,-4.568996429E-1
1.346367925E1,-1.236497045E0,-1.395991802E0,-4.782238007E-1
1.347167434E1,-9.566662312E-1,-1.446713686E0,-3.832540512E-1
1.347970173E1,-6.127181053E-1,-1.516329765E0,-2.860050201E-1
1.348769644E1,-3.089567423E-1,-1.578542471E0,-1.300058365E-1
1.349569245E1,3.615319729E-2,-1.681420088E0,8.876228333E-2
1.350368884E1,2.897507548E-1,-1.758522511E0,3.073034286E-1
1.351168301E1,5.015053153E-1,-1.857820034E0,4.748563766E-1
1.351967956E1,7.252869010E-1,-1.939962864E0,5.293102264E-1
1.352767441E1,1.065789461E0,-2.024002552E0,4.998502731E-1
1.353570050E1,1.600878596E0,-2.089223862E0,6.256160736E-1
1.354369536E1,1.937535167E0,-2.048644781E0,4.785146713E-1
1.355169168E1,2.213239908E0,-1.909529448E0,3.348693848E-1
1.355968923E1,2.337831020E0,-1.715070724E0,1.717243195E-1
1.356768301E1,2.337282419E0,-1.440847635E0,-5.005836487E-3
1.357567909E1,2.285979986E0,-1.065725565E0,-2.487888336E-1
1.358367388E1,2.155732870E0,-6.781682968E-1,-3.935146332E-1
1.359170035E1,1.908904076E0,-2.222318649E-1,-3.226022720E-1
1.359969720E1,1.695559263E0,9.041690826E-2,-4.070281982E-2
1.360769198E1,1.442342758E0,3.418724537E-1,4.352970123E-1
1.361568715E1,1.275728345E0,4.672701359E-1,6.181306839E-1
1.362368224E1,1.204705000E0,7.049281597E-1,6.698007584E-1
1.363167825E1,1.220841885E0,1.075904846E0,6.542110443E-1
1.363967603E1,1.117500663E0,1.453026533E0,4.487466812E-1
1.364770004E1,8.469610214E-1,1.859438896E0,1.934947968E-1
1.365569543E1,5.973774195E-1,2.252965450E0,4.064178467E-2
1.366369175E1,3.760181665E-1,2.499979496E0,-9.591293335E-2
1.367168684E1,1.688596904E-1,2.609797001E0,-1.819829941E-1
1.367968408E1,9.441971779E-4,2.589193821E0,-2.855281830E-1
1.368767832E1,-1.598613262E-1,2.414698601E0,-3.434629440E-1
1.369567457E1,-2.650610805E-1,2.254407167E0,-3.391933441E-1
1.370369958E1,-4.941343069E-1,1.967848539E0,-2.424392700E-1
1.371169613E1,-7.924227715E-1,1.614607930E0,-2.928056717E-1
1.371969221E1,-1.112417579E0,1.323925257E0,-3.322153091E-1
1.372768761E1,-1.496183872E0,9.819107056E-1,-4.678668976E-1
1.373568201E1,-1.764039755E0,7.081539631E-1,-5.009708405E-1
1.374367779E1,-1.881195664E0,4.182491302E-1,-4.915275574E-1
1.375167380E1,-1.917134047E0,7.257914543E-2,-5.348844528E-1
1.375970150E1,-1.967848897E0,-2.317755222E-1,-6.113853455E-1
1.376769567E1,-2.004046440E0,-5.513436794E-1,-5.098867416E-1
1.377569168E1,-1.903527856E0,-8.616392612E-1,-2.683639526E-1
1.378368607E1,-1.663417339E0,-1.162307501E0,-1.494398117E-1
1.379168331E1,-1.348187685E0,-1.352891445E0,-9.302806854E-2
1.379967902E1,-1.001535416E0,-1.534799337E0,-7.278728485E-2
1.380767387E1,-7.777973413E-1,-1.563668966E0,-3.657913208E-2
1.381569942E1,-5.459131002E-1,-1.618174553E0,7.142829895E-2
1.382369451E1,-1.791869402E-1,-1.687461376E0,9.480476379E-3
1.383169083E1,1.427038312E-1,-1.774508476E0,-4.190444946E-3
1.383968707E1,4.643105865E-1,-1.870736599E0,-5.655288696E-4
1.384768277E1,8.346742988E-1,-1.962009430E0,3.585977554E-1
1.385567855E1,1.194167376E0,-2.020277023E0,4.139671326E-1
1.386367272E1,1.698628902E0,-1.992308140E0,3.309297562E-1
1.387170004E1,1.967932940E0,-1.881354570E0,1.580085754E-1
1.387969612E1,2.037557840E0,-1.703747988E0,1.373691559E-1
1.388769083E1,1.979178905E0,-1.427688122E0,6.596851349E-2
1.389568653E1,1.886318684E0,-1.165898561E0,1.139039993E-1
1.390368293E1,1.747797012E0,-7.810325623E-1,6.846904755E-2
1.391167771E1,1.536479712E0,-4.422380924E-1,2.571029663E-1
1.391967395E1,1.155197263E0,-7.018446922E-2,4.155826569E-1
1.392769919E1,9.345738292E-1,1.924412251E-1,5.815620422E-1
1.393569559E1,7.550117373E-1,4.599125385E-1,6.946754456E-1
1.394368998E1,5.782046914E-1,6.334803104E-1,8.358573914E-1
1.395168576E1,4.584631324E-1,8.202524185E-1,8.992261887E-1
1.395968293E1,4.713722467E-1,1.152439356E0,6.068115234E-1
1.396767686E1,5.324015021E-1,1.514951468E0,2.214937210E-1
1.397567349E1,5.110103488E-1,1.811136723E0,-1.215877533E-1
1.398370050E1,2.558297515E-1,1.901941180E0,-4.587926865E-1
1.399169505E1,-1.612923145E-1,1.932364464E0,-6.667499542E-1
1.399969160E1,-5.408540368E-1,1.855710745E0,-7.682466507E-1
1.400768615E1,-7.587668896E-1,1.744989276E0,-7.920589447E-1
1.401568239E1,-8.539032340E-1,1.572293520E0,-8.413085938E-1
1.402367694E1,-8.694609404E-1,1.431707382E0,-9.401082993E-1
1.403167256E1,-8.646292090E-1,1.154975653E0,-9.763813019E-1
1.403969942E1,-8.716320992E-1,6.994056702E-1,-6.285333633E-1
1.404769543E1,-9.031279683E-1,2.893185616E-1,-4.026412964E-1
1.405569052E1,-1.186539888E0,7.948160172E-3,-2.241563797E-1
1.406368591E1,-1.611640215E0,-1.275141239E-1,-2.214231491E-1
1.407168131E1,-1.972247362E0,-3.445956707E-1,-9.918975830E-2
1.407967763E1,-2.089517117E0,-6.032445431E-1,-1.920795441E-2
1.408767295E1,-2.081528902E0,-7.931668758E-1,2.889537811E-2
1.409569888E1,-2.036882877E0,-8.979251385E-1,-3.605651855E-2
1.410369397E1,-1.997039437E0,-9.327845573E-1,-1.693334579E-1
1.411169060E1,-1.765692234E0,-1.036861897E0,-3.036813736E-1
1.411968722E1,-1.299083352E0,-1.174214602E0,-3.252191544E-1
1.412768139E1,-6.025007963E-1,-1.244083405E0,-3.516407013E-1
1.413567709E1,5.986750126E-2,-1.263724804E0,-3.140182495E-1
1.414370349E1,5.199126601E-1,-1.229209185E0,-3.197927475E-1
1.415169857E1,9.259946346E-1,-1.232365131E0,-8.487129211E-2
1.415969551E1,1.204123020E0,-1.328359127E0,6.023788452E-2
1.416769090E1,1.567134738E0,-1.513595581E0,1.804714203E-1
1.417568545E1,1.833612442E0,-1.590370417E0,2.211437225E-1
1.418368054E1,1.887819290E0,-1.551002264E0,2.875919342E-1
1.419167686E1,1.834883451E0,-1.436134338E0,4.223260880E-1
1.419967341E1,1.836653471E0,-1.323615789E0,2.978239059E-1
1.420769865E1,1.878200531E0,-1.102442980E0,7.544517517E-2
1.421569405E1,1.885717630E0,-8.365719318E-1,2.814960480E-2
1.422369044E1,1.842891932E0,-4.380290508E-1,7.615470886E-2
1.423168491E1,1.647827864E0,-1.016402245E-1,1.039838791E-1
1.423968185E1,1.356916785E0,1.443099976E-1,1.803092957E-1
1.424767686E1,9.941701889E-1,2.278771400E-1,4.121637344E-1
1.425567225E1,7.812654972E-1,2.819731236E-1,5.668487549E-1
1.426369788E1,6.554227471E-1,5.146412849E-1,5.936441422E-1
1.427169420E1,5.954360962E-1,8.993365765E-1,5.590724945E-1
1.427968990E1,4.897042215E-1,1.233996630E0,4.504222870E-1
1.428768499E1,3.231647909E-1,1.657937765E0,3.003921509E-1
1.429568069E1,2.518889308E-1,1.940109253E0,2.451457977E-1
1.430367670E1,2.793212831E-1,2.185796022E0,7.077217102E-2
1.431167172E1,2.509646118E-1,2.218052387E0,-5.744838715E-2
1.431969950E1,5.120974779E-2,2.063499689E0,-1.694192886E-1
1.432769420E1,-3.053781986E-1,1.826048613E0,-3.283014297E-1
1.433568936E1,-6.271252632E-1,1.604156733E0,-3.712949753E-1
1.434368468E1,-8.584697247E-1,1.313616753E0,-3.897972107E-1
1.435168100E1,-9.493706226E-1,1.008369446E0,-3.581876755E-1
1.435967770E1,-1.027536631E0,6.696710587E-1,-2.175045013E-1
1.436770256E1,-1.137957096E0,3.661649227E-1,-1.715421677E-1
1.437569857E1,-1.312098742E0,1.414690018E-1,-1.624727249E-1
1.438369427E1,-1.536153793E0,-1.505477428E-1,-6.546592712E-2
1.439168944E1,-1.724764109E0,-3.514397144E-1,2.190685272E-2
1.439968637E1,-1.925487757E0,-5.337104797E-1,4.567432404E-2
1.440768015E1,-2.050040722E0,-7.544405460E-1,-9.579658508E-3
1.441567616E1,-2.093469620E0,-9.062073231E-1,-7.934188843E-2
1.442367125E1,-1.925159097E0,-1.044206381E0,-2.698621750E-1
1.443169780E1,-1.717010379E0,-1.085231543E0,-4.308290482E-1
1.443969404E1,-1.470310569E0,-1.100256205E0,-3.934249878E-1
1.444768944E1,-1.060465455E0,-1.173564672E0,-4.216518402E-1
1.445568460E1,-2.598612309E-1,-1.341816187E0,-5.108537674E-1
1.446368023E1,5.247060657E-1,-1.407263994E0,-3.440980911E-1
1.447167632E1,9.284174442E-1,-1.441113949E0,-2.382631302E-1
1.447967294E1,1.059382677E0,-1.503257751E0,-1.383857727E-1
1.448769757E1,1.279888630E0,-1.629204512E0,-2.515029907E-2
1.449569358E1,1.471052885E0,-1.680232763E0,7.734775543E-2
1.450368836E1,1.621340990E0,-1.669196367E0,1.048374176E-1
1.451168406E1,1.790766239E0,-1.541742325E0,-8.048725128E-2
1.451968154E1,1.875610232E0,-1.422340393E0,-5.227088928E-2
1.452767609E1,1.803590059E0,-1.286539078E0,2.669506073E-1
1.453570194E1,1.774439335E0,-1.180469036E0,2.327642441E-1
1.454369788E1,1.889093399E0,-1.030167580E0,3.165616989E-1
1.455169304E1,1.877511501E0,-7.255849838E-1,3.934631348E-1
1.455968990E1,1.651197195E0,-2.814249992E-1,3.937673569E-1
1.456768468E1,1.387606382E0,1.974325180E-1,3.102684021E-2
1.457568008E1,1.193167806E0,7.473206520E-1,2.354841232E-1
1.458367462E1,1.016810417E0,1.092792749E0,2.801904678E-1
1.459170194E1,7.876030207E-1,1.429683447E0,3.982877731E-1
1.459969803E1,4.679621458E-1,1.639742374E0,4.003400803E-1
1.460769281E1,2.434270382E-1,1.701332092E0,3.511934280E-1
1.461568852E1,7.067972422E-2,1.730419636E0,3.570365906E-1
1.462368391E1,-1.631289721E-2,1.723457813E0,2.751483917E-1
1.463167992E1,-1.749776602E-1,1.725157976E0,2.260475159E-1
1.463967739E1,-3.343213797E-1,1.716786861E0,3.871345520E-2
1.464770110E1,-5.231964588E-1,1.708263636E0,-1.682481766E-1
1.465569742E1,-6.859084368E-1,1.614030361E0,-3.576726913E-1
1.466369250E1,-8.584311008E-1,1.450546503E0,-5.551137924E-1
1.467168790E1,-9.373753071E-1,1.147409439E0,-7.266635895E-1
1.467968460E1,-9.590192437E-1,8.067290783E-1,-7.699651718E-1
1.468768023E1,-1.028230429E0,4.147086143E-1,-7.410106659E-1
1.469567532E1,-1.188007832E0,7.148361206E-2,-4.853649139E-1
1.470370217E1,-1.434665084E0,-2.364315987E-1,-3.172073364E-1
1.471169749E1,-1.793149233E0,-5.609533787E-1,-1.856336594E-1
1.471969327E1,-1.988266230E0,-7.565269470E-1,-1.733903885E-1
1.472768836E1,-1.952144146E0,-9.361670017E-1,-1.094722748E-1
1.473568406E1,-1.693061590E0,-1.117058754E0,-4.103565216E-2
1.474367877E1,-1.333833456E0,-1.239262342E0,4.812240601E-3
1.475167508E1,-9.657681584E-1,-1.345969915E0,-3.435325623E-2
1.475970194E1,-6.402964592E-1,-1.348002911E0,-2.897558212E-1
1.476769726E1,-3.949810863E-1,-1.332763910E0,-4.804677963E-1
1.477569273E1,-2.379286885E-1,-1.295747042E0,-3.632478714E-1
1.478368867E1,9.264099598E-2,-1.383027554E0,-1.978702545E-1
1.479168414E1,6.870627403E-1,-1.517274857E0,-2.847385406E-2
1.479967977E1,1.260181904E0,-1.571295738E0,8.178138733E-2
1.480767455E1,1.776364565E0,-1.487821579E0,5.393981934E-2
1.481570102E1,1.956758261E0,-1.367098808E0,-1.795864105E-2
1.482369641E1,1.898345947E0,-1.216237545E0,-1.260004044E-1
1.483169250E1,1.797990084E0,-1.078225136E0,-1.595029831E-1
1.483968936E1,1.835076094E0,-9.626550674E-1,-1.949539185E-1
1.484768391E1,1.914860249E0,-8.015418053E-1,-5.111694336E-2
1.485567961E1,1.882426977E0,-6.513834000E-1,2.222442627E-2
1.486367585E1,1.769375205E0,-4.679684639E-1,1.392374039E-1
1.487170110E1,1.515375733E0,-1.918702126E-1,1.582765579E-1
1.487969772E1,1.096338868E0,1.356515884E-1,1.339950562E-1
1.488769281E1,9.214158058E-1,3.720526695E-1,5.578241348E-1
1.489568728E1,9.383790493E-1,6.027879715E-1,6.317853928E-1
1.490368368E1,8.465461731E-1,8.900916576E-1,7.459135056E-1
1.491167877E1,6.024534106E-1,1.116216183E0,7.035703659E-1
1.491967570E1,3.596562743E-1,1.408068180E0,6.627941132E-1
1.492770125E1,2.159941494E-1,1.657497644E0,5.324554443E-1
1.493569626E1,1.556217670E-1,1.868996143E0,3.773450851E-1
1.494369204E1,-3.794392943E-2,2.018256903E0,1.905546188E-1
1.495168797E1,-3.077106178E-1,2.040678263E0,7.905769348E-2
1.495968399E1,-6.230996847E-1,1.934085131E0,-2.777862549E-2
1.496767907E1,-8.169124722E-1,1.768037081E0,-1.337146759E-1
1.497567447E1,-9.313969612E-1,1.572342396E0,-2.264604568E-1
1.498369948E1,-1.070757389E0,1.373014212E0,-2.584209442E-1
1.499169549E1,-1.269430161E0,1.184454441E0,-3.326158524E-1
1.499969296E1,-1.477595091E0,9.360208511E-1,-3.059644699E-1
1.500768751E1,-1.620239854E0,6.559095383E-1,-3.128309250E-1
1.501568291E1,-1.751046658E0,3.488695621E-1,-2.957954407E-1
1.502367915E1,-1.872158527E0,1.859383583E-1,-4.149217606E-1
1.503167401E1,-1.823593616E0,-5.828094482E-2,-2.753381729E-1
1.503970140E1,-1.596531391E0,-4.421088696E-1,8.200550079E-2
1.504769580E1,-1.399534702E0,-7.694964409E-1,2.221069336E-1
1.505569158E1,-1.244006157E0,-1.018694639E0,2.658262253E-1
1.506368697E1,-1.028740168E0,-1.224184513E0,1.549501419E-1
1.507168298E1,-7.369499803E-1,-1.413757801E0,4.214954376E-2
1.507967984E1,-6.416045427E-1,-1.631664515E0,8.491516113E-3
1.508767408E1,-5.173736215E-1,-1.784456968E0,-2.576923370E-2
1.509570025E1,-2.084085345E-1,-1.823230505E0,-6.836891174E-2
1.510369649E1,1.423603296E-1,-1.768170357E0,-3.795547485E-1
1.511169135E1,4.619784951E-1,-1.852482796E0,-3.348999023E-1
1.511968890E1,7.429134846E-1,-2.042264462E0,-6.326007843E-2
1.512768306E1,6.044820547E-1,-2.190652847E0,-6.763458252E-3
1.513567776E1,8.765752316E-1,-2.476710320E0,6.581497192E-2
1.514367324E1,1.968096256E0,-2.582874775E0,-3.184108734E-1
1.515170002E1,2.974236965E0,-2.308077812E0,-3.494777679E-1
1.515969633E1,3.180015326E0,-1.628742218E0,-6.041641235E-1
1.516769142E1,3.199872017E0,-1.220790863E0,-5.765466690E-1
1.517568705E1,3.237739563E0,-9.568376541E-1,-3.588361740E-1
1.518368368E1,3.195952415E0,-6.609125137E-1,-3.344688416E-1
1.519167822E1,2.980570555E0,-2.030372620E-1,2.836894989E-2
1.519967477E1,2.561979055E0,2.213931084E-1,2.186889648E-1
1.520769978E1,1.896931052E0,8.205435276E-1,2.839536667E-1
1.521569603E1,1.272160292E0,1.292053938E0,5.048809052E-1
1.522369081E1,8.717355132E-1,1.477467537E0,7.265634537E-1
1.523168682E1,6.119457483E-1,1.529762268E0,8.697366714E-1
1.523968375E1,4.558052719E-1,1.688998938E0,8.102560043E-1
1.524767799E1,2.497687042E-1,1.977835178E0,5.476589203E-1
1.525567339E1,2.895232290E-2,2.280573368E0,2.794141769E-1
1.526370017E1,-2.880215645E-1,2.493255615E0,-1.386413574E-1
1.527169526E1,-6.022450328E-1,2.513823748E0,-4.071207047E-1
1.527969158E1,-6.367419362E-1,2.241117954E0,-5.133476257E-1
1.528768659E1,-5.428652167E-1,1.809354305E0,-7.195844650E-1
1.529568237E1,-6.103089452E-1,1.625479698E0,-1.034451008E0
1.530367707E1,-9.626989961E-1,1.558287144E0,-1.242400169E0
1.531167370E1,-1.331406236E0,1.334059000E0,-1.220470905E0
1.531970109E1,-1.480021119E0,9.116389751E-1,-1.143456459E0
1.532769533E1,-1.572091818E0,4.470450878E-1,-1.018159389E0
1.533569096E1,-1.731830359E0,1.943941116E-1,-9.832363129E-1
1.534368674E1,-1.896657467E0,1.198387146E-2,-8.401784897E-1
1.535168214E1,-1.969191313E0,-2.914085388E-1,-5.469970703E-1
1.535967868E1,-1.880636692E0,-6.142401695E-1,-3.331375122E-1
1.536770277E1,-1.789758205E0,-9.448933601E-1,5.873680115E-3
1.537569994E1,-1.661528468E0,-1.173521042E0,3.706264496E-1
1.538369472E1,-1.464809537E0,-1.416699886E0,5.138988495E-1
1.539169104E1,-1.249935150E0,-1.610229969E0,6.667699814E-1
1.539968705E1,-9.338468909E-1,-1.817434788E0,8.441886902E-1
1.540768244E1,-5.123679638E-1,-2.025779247E0,1.034151077E0
1.541567753E1,-3.970313817E-2,-2.119685173E0,8.766431808E-1
1.542370370E1,4.804731905E-1,-2.049050808E0,7.571763992E-1
1.543169940E1,9.138662815E-1,-1.888099670E0,6.710872650E-1
1.543969633E1,1.304002762E0,-1.809031963E0,5.562734604E-1
1.544769080E1,1.692098975E0,-1.681030273E0,3.512144089E-1
1.545568559E1,1.988325477E0,-1.429887772E0,1.479787827E-1
1.546368098E1,2.293775558E0,-1.024185181E0,1.006126404E-2
1.547167830E1,2.317239285E0,-5.419373512E-1,-2.931337357E-1
1.547970377E1,2.110572338E0,1.287508011E-2,-3.062677383E-1
1.548769863E1,1.704993844E0,4.749269485E-1,-2.245178223E-1
1.549569548E1,1.137474179E0,7.845346928E-1,9.640693665E-3
1.550369065E1,5.620922446E-1,9.446606636E-1,2.360229492E-1
1.551168635E1,2.269869447E-1,1.017378330E0,4.653024673E-1
1.551968206E1,5.609883368E-2,1.154214144E0,5.985803604E-1
1.552767714E1,-4.066431522E-2,1.297387600E0,6.023473740E-1
1.553570354E1,-9.450364113E-2,1.589044809E0,4.473285675E-1
1.554369832E1,-1.686459631E-1,1.778727055E0,1.138286591E-1
1.555169441E1,-2.538388371E-1,1.866918564E0,-1.646833420E-1
1.555969188E1,-4.483692050E-1,1.935605764E0,-6.206283569E-1
1.556768612E1,-6.906305552E-1,1.893275023E0,-9.026775360E-1
1.557568175E1,-9.340699911E-1,1.732705116E0,-1.100813389E0
1.558367714E1,-1.103093386E0,1.382363558E0,-1.241214752E0
1.559170339E1,-1.395552635E0,1.067131519E0,-1.207649231E0
1.559970024E1,-1.748401165E0,6.374969482E-1,-1.116514683E0
1.560769479E1,-2.116166830E0,3.786246777E-1,-1.016615391E0
1.561569050E1,-2.493798256E0,1.412458420E-1,-9.538464546E-1
1.562368528E1,-2.705435276E0,-5.132246017E-2,-7.681827545E-1
1.563168067E1,-2.577106476E0,-4.176926613E-1,-4.672822952E-1
1.563967814E1,-2.166005373E0,-8.101124763E-1,-1.628847122E-1
1.564770316E1,-1.736430883E0,-1.085564613E0,1.865892410E-1
1.565569886E1,-1.320185542E0,-1.320291519E0,7.299585342E-1
1.566369456E1,-9.648670554E-1,-1.537006855E0,1.043300629E0
1.567168988E1,-6.791418195E-1,-1.809784412E0,1.414115906E0
1.567968658E1,-4.619658291E-1,-1.996904850E0,1.338335991E0
1.568768075E1,-1.924675703E-1,-2.083699226E0,1.394334793E0
1.569567637E1,2.662299275E-1,-2.034600735E0,1.112774849E0
1.570370200E1,7.791770697E-1,-1.834304333E0,7.155885696E-1
1.571169894E1,1.041477561E0,-1.383780479E0,4.853248596E-2
1.571969556E1,1.014958382E0,-9.598264694E-1,-2.465639114E-1
1.572768973E1,9.450868368E-1,-7.122163773E-1,-1.560173035E-1
1.573568512E1,1.129833460E0,-5.643029213E-1,7.725429535E-2
1.574368167E1,1.321548223E0,-3.246631622E-1,1.028823853E-2
1.575167676E1,1.306602120E0,1.995205879E-1,-2.700710297E-2
1.575970423E1,9.475385547E-1,6.911163330E-1,1.050281525E-1
1.576769832E1,4.324419796E-1,1.116489410E0,3.395051956E-1
1.577569410E1,1.524559557E-1,1.377548933E0,4.000482559E-1
1.578368942E1,1.916833222E-1,1.506962776E0,3.246002197E-1
1.579168489E1,3.077308536E-1,1.583629608E0,2.065267563E-1
1.579968182E1,2.713656127E-1,1.543553352E0,1.444349289E-1
1.580767684E1,-1.980020478E-2,1.504422903E0,-1.536655426E-1
1.581570277E1,-3.977341354E-1,1.492168903E0,-5.028247833E-1
1.582369870E1,-6.371953487E-1,1.482849360E0,-9.418172836E-1
1.583169410E1,-6.572411656E-1,1.448337555E0,-1.297142029E0
1.583969103E1,-6.058271527E-1,1.307902098E0,-1.503985882E0
1.584768489E1,-6.180384755E-1,1.048357725E0,-1.625142574E0
1.585568036E1,-7.412650585E-1,7.342851162E-1,-1.671211720E0
1.586367568E1,-9.965209961E-1,3.960833549E-1,-1.632533073E0
1.587170161E1,-1.273985147E0,-6.842613220E-3,-1.513828278E0
1.587969847E1,-1.485926032E0,-3.048229218E-1,-1.312816143E0
1.588769387E1,-1.580339789E0,-6.012303829E-1,-8.620452881E-1
1.589568957E1,-1.505618215E0,-8.214671612E-1,-5.420255661E-1
1.590368497E1,-1.395594239E0,-1.015808821E0,-1.770191193E-1
1.591168067E1,-1.241508007E0,-1.208109140E0,1.142940521E-1
1.591967737E1,-9.343335629E-1,-1.452880383E0,5.510416031E-1
1.592770254E1,-3.818870187E-1,-1.772593737E0,1.040650368E0
1.593569793E1,1.094448194E-1,-2.042094707E0,1.739573479E0
1.594369271E1,5.300443769E-1,-2.188690662E0,1.713442802E0
1.595168942E1,8.173111081E-1,-2.183073521E0,1.966797829E0
1.595968596E1,1.232910633E0,-2.035712719E0,1.727917671E0
1.596768021E1,1.606599331E0,-1.647441387E0,1.091400146E0
1.597567530E1,1.696661949E0,-1.151968002E0,6.761713028E-1
1.598370177E1,1.687198997E0,-5.620472431E-1,4.517488480E-1
1.599169770E1,1.718011975E0,-1.473746300E-1,3.465814590E-1
1.599969441E1,1.786261678E0,2.464659214E-1,2.928943634E-1
1.600768880E1,1.867052555E0,5.970685482E-1,2.856101990E-1
1.601568520E1,1.612881422E0,8.563876152E-1,4.793128967E-1
1.602367936E1,9.133582115E-1,1.062638998E0,4.827404022E-1
1.603167560E1,2.411295027E-1,1.120547295E0,5.057678223E-1
1.603970215E1,-3.079416752E-1,1.122383118E0,5.599451065E-1
1.604769755E1,-5.060996413E-1,1.134862423E0,4.704895020E-1
1.605569325E1,-5.241602659E-1,1.317272663E0,1.245346069E-1
