"Time (s)","Acceleration x (m/s^2)","Acceleration y (m/s^2)","Acceleration z (m/s^2)"
5.777307000E-3,2.329558372E0,-8.109161377E0,4.417302132E0
7.825081000E-3,2.346317768E0,-8.149862289E0,4.412513733E0
9.899238000E-3,2.365471363E0,-8.180987358E0,4.400542736E0
1.191331900E-2,2.382230759E0,-8.176198959E0,4.400542736E0
1.392847700E-2,2.432508945E0,-8.190564156E0,4.419696331E0
1.591278800E-2,2.477998734E0,-8.183381081E0,4.458003521E0
1.792694600E-2,2.506729126E0,-8.173804283E0,4.469974518E0
1.991002700E-2,2.552218914E0,-8.169015884E0,4.510675907E0
2.192287700E-2,2.578555346E0,-8.173804283E0,4.560954094E0
2.390849600E-2,2.580949545E0,-8.171410561E0,4.584896088E0
2.592142300E-2,2.568978310E0,-8.169015884E0,4.611232281E0
2.790473500E-2,2.557007313E0,-8.180987358E0,4.620809078E0
2.991981600E-2,2.549824715E0,-8.185775757E0,4.618414879E0
3.190389600E-2,2.552218914E0,-8.216899872E0,4.625597477E0
3.391713100E-2,2.554613113E0,-8.231265068E0,4.642356873E0
3.590144200E-2,2.559401512E0,-8.233659744E0,4.644751072E0
3.791460000E-2,2.557007313E0,-8.248024940E0,4.668693542E0
3.992906600E-2,2.571372509E0,-8.248024940E0,4.680664539E0
4.191337700E-2,2.609679937E0,-8.238448143E0,4.692635536E0
4.392638100E-2,2.631227732E0,-8.245630264E0,4.702212334E0
4.591130800E-2,2.633621931E0,-8.257601738E0,4.714183331E0
4.792454200E-2,2.638410330E0,-8.262390137E0,4.726154327E0
4.990823900E-2,2.633621931E0,-8.231265068E0,4.730942726E0
5.192262700E-2,2.624045134E0,-8.233659744E0,4.728548527E0
5.390578500E-2,2.604891539E0,-8.209717751E0,4.707000732E0
5.592048100E-2,2.576161146E0,-8.207323074E0,4.683058739E0
5.790448500E-2,2.573766708E0,-8.204929352E0,4.678270340E0
5.991864300E-2,2.566584110E0,-8.197746277E0,4.683058739E0
6.190110900E-2,2.554613113E0,-8.176198959E0,4.666299343E0
6.391618900E-2,2.547430515E0,-8.171410561E0,4.675876141E0
6.589965400E-2,2.540247917E0,-8.188169479E0,4.692635536E0
6.791381200E-2,2.533065319E0,-8.190564156E0,4.654327869E0
6.992827800E-2,2.547430515E0,-8.188169479E0,4.632780075E0
7.191166600E-2,2.552218914E0,-8.157045364E0,4.606443882E0
7.392543900E-2,2.557007313E0,-8.145073891E0,4.592078686E0
7.591067400E-2,2.580949545E0,-8.123526573E0,4.582501888E0
7.792367800E-2,2.576161146E0,-8.152256966E0,4.572925091E0
7.990698900E-2,2.580949545E0,-8.157045364E0,4.560954094E0
8.192176200E-2,2.592920542E0,-8.142680168E0,4.529829502E0
8.390553500E-2,2.616862535E0,-8.133103371E0,4.496310711E0
8.591900100E-2,2.626439333E0,-8.128314972E0,4.481945515E0
8.790239000E-2,2.652775526E0,-8.106766701E0,4.479551315E0
8.991662400E-2,2.650381327E0,-8.111555099E0,4.460397720E0
9.190024400E-2,2.655169725E0,-8.125920296E0,4.455609322E0
9.391386300E-2,2.659958124E0,-8.125920296E0,4.434061527E0
9.593017400E-2,2.657563925E0,-8.123526573E0,4.438849926E0
9.791317800E-2,2.662352324E0,-8.113949776E0,4.438849926E0
9.992710500E-2,2.655169725E0,-8.113949776E0,4.424484730E0
1.019098010E-1,2.647987127E0,-8.113949776E0,4.431667328E0
1.039251900E-1,2.636016130E0,-8.106766701E0,4.434061527E0
1.059086550E-1,2.621650934E0,-8.104372978E0,4.431667328E0
1.079221210E-1,2.624045134E0,-8.109161377E0,4.429273129E0
1.099068170E-1,2.600103140E0,-8.090007782E0,4.419696331E0
1.119203590E-1,2.597708941E0,-8.094796181E0,4.414907932E0
1.139043630E-1,2.595314741E0,-8.092401505E0,4.419696331E0
1.159188280E-1,2.564189911E0,-8.097189903E0,4.429273129E0
1.179025250E-1,2.533065319E0,-8.085219383E0,4.429273129E0
1.199153750E-1,2.525882721E0,-8.075642586E0,4.431667328E0
1.219307630E-1,2.501940727E0,-8.094796181E0,4.434061527E0
1.239136140E-1,2.468421936E0,-8.104372978E0,4.460397720E0
1.259274640E-1,2.456450939E0,-8.092401505E0,4.474762917E0
1.279120050E-1,2.432508945E0,-8.097189903E0,4.498704910E0
1.299259320E-1,2.422932148E0,-8.099584579E0,4.513070107E0
1.319083980E-1,2.415749550E0,-8.104372978E0,4.515464306E0
1.339237090E-1,2.396595955E0,-8.104372978E0,4.522646904E0
1.359074060E-1,2.384624958E0,-8.097189903E0,4.529829502E0
1.379212560E-1,2.341529369E0,-8.106766701E0,4.537012100E0
1.399047210E-1,2.346317768E0,-8.113949776E0,4.529829502E0
1.419182640E-1,2.331952572E0,-8.121131897E0,4.541800499E0
1.439031900E-1,2.319981337E0,-8.137891769E0,4.553771496E0
1.459167320E-1,2.305616140E0,-8.157045364E0,4.570530891E0
1.479004290E-1,2.319981337E0,-8.152256966E0,4.560954094E0
1.499148170E-1,2.324769735E0,-8.147468567E0,4.565742493E0
1.519284370E-1,2.298433542E0,-8.157045364E0,4.587290287E0
1.539126720E-1,2.303221941E0,-8.152256966E0,4.592078686E0
1.559278290E-1,2.296039343E0,-8.166622162E0,4.606443882E0
1.579099870E-1,2.305616140E0,-8.183381081E0,4.613626480E0
1.599240670E-1,2.308010340E0,-8.176198959E0,4.611232281E0
1.619089940E-1,2.317587137E0,-8.161833763E0,4.587290287E0
1.639219980E-1,2.327163935E0,-8.183381081E0,4.563348293E0
1.659056180E-1,2.329558372E0,-8.190564156E0,4.553771496E0
1.679201600E-1,2.341529369E0,-8.176198959E0,4.556165695E0
1.699040870E-1,2.343923569E0,-8.176198959E0,4.553771496E0
1.719182450E-1,2.346317768E0,-8.190564156E0,4.570530891E0
1.739016340E-1,2.382230759E0,-8.202534676E0,4.580107689E0
1.759164060E-1,2.391807556E0,-8.197746277E0,4.570530891E0
1.778997950E-1,2.410961151E0,-8.195352554E0,4.548983097E0
1.799131060E-1,2.437297344E0,-8.190564156E0,4.522646904E0
1.819269560E-1,2.451662540E0,-8.176198959E0,4.520252705E0
1.839118830E-1,2.449268341E0,-8.185775757E0,4.527435303E0
1.859257340E-1,2.458845139E0,-8.200140953E0,4.522646904E0
1.879081990E-1,2.466027737E0,-8.209717751E0,4.517858505E0
1.899235880E-1,2.468421936E0,-8.200140953E0,4.510675907E0
1.919066680E-1,2.492363930E0,-8.195352554E0,4.510675907E0
1.939214410E-1,2.501940727E0,-8.180987358E0,4.505887508E0
1.959054450E-1,2.511517525E0,-8.188169479E0,4.484339714E0
1.979186800E-1,2.506729126E0,-8.200140953E0,4.491522312E0
1.999029910E-1,2.509123325E0,-8.212111473E0,4.501099110E0
2.019167650E-1,2.509123325E0,-8.248024940E0,4.496310711E0
2.039008460E-1,2.530671120E0,-8.255207062E0,4.486733913E0
2.059146960E-1,2.554613113E0,-8.262390137E0,4.465186119E0
2.079285450E-1,2.576161146E0,-8.293514252E0,4.446032524E0
2.099125490E-1,2.585737944E0,-8.298302650E0,4.431667328E0
2.119270140E-1,2.600103140E0,-8.298302650E0,4.388571739E0
2.139100180E-1,2.597708941E0,-8.291120529E0,4.355052948E0
2.159254840E-1,2.609679937E0,-8.310274124E0,4.340687752E0
2.179081800E-1,2.643198729E0,-8.329427719E0,4.302380562E0
2.199214150E-1,2.647987127E0,-8.339004517E0,4.292803764E0
2.219051110E-1,2.643198729E0,-8.343792915E0,4.276044369E0
2.239198840E-1,2.643198729E0,-8.331821442E0,4.240131378E0
2.259032720E-1,2.667140722E0,-8.331821442E0,4.232948780E0
2.279175070E-1,2.674323320E0,-8.339004517E0,4.220977783E0
2.299011260E-1,2.681505919E0,-8.358158112E0,4.201824188E0
2.319153610E-1,2.679111719E0,-8.382100105E0,4.185064793E0
2.339291340E-1,2.676717520E0,-8.386888504E0,4.180276394E0
2.359143690E-1,2.705447912E0,-8.355764389E0,4.189853191E0
2.379279120E-1,2.724601507E0,-8.353369713E0,4.185064793E0
2.399119150E-1,2.741360903E0,-8.336610794E0,4.153939724E0
2.419260730E-1,2.741360903E0,-8.322244644E0,4.158728123E0
2.439089230E-1,2.738966703E0,-8.319850922E0,4.165910721E0
2.459236960E-1,2.738966703E0,-8.303091049E0,4.156333923E0
2.479070850E-1,2.724601507E0,-8.283937454E0,4.156333923E0
2.499208580E-1,2.726995707E0,-8.267178535E0,4.158728123E0
2.519039390E-1,2.691082716E0,-8.262390137E0,4.158728123E0
2.539187890E-1,2.664746523E0,-8.238448143E0,4.151545525E0
2.559034070E-1,2.650381327E0,-8.226476669E0,4.144362926E0
2.579168730E-1,2.619256735E0,-8.228871346E0,4.153939724E0
2.599006460E-1,2.619256735E0,-8.224082947E0,4.156333923E0
2.619134960E-1,2.621650934E0,-8.209717751E0,4.168305397E0
2.639291930E-1,2.612074137E0,-8.200140953E0,4.189853191E0
2.659125810E-1,2.609679937E0,-8.192957878E0,4.211400986E0
2.679261240E-1,2.604891539E0,-8.190564156E0,4.220977783E0
2.699098200E-1,2.612074137E0,-8.180987358E0,4.244919777E0
2.719239770E-1,2.604891539E0,-8.180987358E0,4.254496574E0
2.739079810E-1,2.597708941E0,-8.197746277E0,4.278438568E0
2.759228310E-1,2.604891539E0,-8.173804283E0,4.299986362E0
2.779052960E-1,2.604891539E0,-8.161833763E0,4.299986362E0
2.799199930E-1,2.595314741E0,-8.145073891E0,4.309563160E0
2.819037660E-1,2.585737944E0,-8.125920296E0,4.314351559E0
2.839178470E-1,2.595314741E0,-8.128314972E0,4.311957359E0
2.859013130E-1,2.607285738E0,-8.135497093E0,4.311957359E0
2.879153920E-1,2.597708941E0,-8.135497093E0,4.307168961E0
2.899289350E-1,2.585737944E0,-8.137891769E0,4.295197964E0
2.919136310E-1,2.583343744E0,-8.130708694E0,4.290409565E0
2.939271740E-1,2.592920542E0,-8.154650688E0,4.299986362E0
2.959121010E-1,2.595314741E0,-8.171410561E0,4.302380562E0
2.979253360E-1,2.604891539E0,-8.185775757E0,4.297592163E0
2.999092630E-1,2.616862535E0,-8.185775757E0,4.304774761E0
3.019221900E-1,2.624045134E0,-8.192957878E0,4.319139957E0
3.039068850E-1,2.645592928E0,-8.212111473E0,4.307168961E0
3.059209660E-1,2.640804529E0,-8.221688271E0,4.309563160E0
3.079047390E-1,2.669534922E0,-8.259995461E0,4.299986362E0
3.099185890E-1,2.683900118E0,-8.255207062E0,4.302380562E0
3.119032090E-1,2.679111719E0,-8.262390137E0,4.314351559E0
3.139166740E-1,2.683900118E0,-8.283937454E0,4.285621166E0
3.159007550E-1,2.669534922E0,-8.303091049E0,4.273650169E0
3.179145280E-1,2.664746523E0,-8.300697327E0,4.268861771E0
3.199290700E-1,2.647987127E0,-8.327033043E0,4.244919777E0
3.219133050E-1,2.607285738E0,-8.341399193E0,4.206612587E0
3.239263090E-1,2.600103140E0,-8.348581314E0,4.194641590E0
3.259096970E-1,2.583343744E0,-8.355764389E0,4.182670593E0
3.279243940E-1,2.571372509E0,-8.372523308E0,4.161122322E0
3.299074750E-1,2.566584110E0,-8.379706383E0,4.151545525E0
3.319217090E-1,2.545036316E0,-8.377311707E0,4.134786129E0
3.339044830E-1,2.535459518E0,-8.365341187E0,4.118026733E0
3.359204860E-1,2.511517525E0,-8.384494781E0,4.098873138E0
3.379031820E-1,2.492363930E0,-8.410830498E0,4.094084740E0
3.399170320E-1,2.480392933E0,-8.420407295E0,4.084507942E0
3.419011130E-1,2.463633537E0,-8.437167168E0,4.050989151E0
3.439164250E-1,2.430114746E0,-8.451532364E0,4.012681961E0
3.459299670E-1,2.410961151E0,-8.449137688E0,4.000710964E0
3.479122020E-1,2.379836559E0,-8.451532364E0,3.998316765E0
3.499275140E-1,2.334346771E0,-8.468291283E0,4.007893562E0
3.519109010E-1,2.324769735E0,-8.461109161E0,4.017470360E0
3.539260590E-1,2.296039343E0,-8.473079681E0,4.034229755E0
3.559097550E-1,2.272097349E0,-8.494627953E0,4.041412354E0
3.579232210E-1,2.267308950E0,-8.492233276E0,4.022258759E0
3.599066100E-1,2.262520552E0,-8.489839554E0,3.981557369E0
3.619211520E-1,2.250549555E0,-8.508993149E0,3.952826977E0
3.639039250E-1,2.252943754E0,-8.513781548E0,3.924096584E0
3.659183140E-1,2.245761156E0,-8.528146744E0,3.888183594E0
3.679020090E-1,2.236184359E0,-8.530540466E0,3.892971992E0
3.699164750E-1,2.243366957E0,-8.578424454E0,3.876212597E0
3.719304020E-1,2.252943754E0,-8.592789650E0,3.861847401E0
3.739140210E-1,2.269703150E0,-8.611943245E0,3.854664803E0
3.759284870E-1,2.312798738E0,-8.635885239E0,3.835511208E0
3.779113370E-1,2.336740971E0,-8.655038834E0,3.818751812E0
3.799260330E-1,2.358288765E0,-8.652645111E0,3.813963413E0
3.819094220E-1,2.410961151E0,-8.669404030E0,3.811569214E0
3.839239630E-1,2.456450939E0,-8.686163902E0,3.818751812E0
3.859078900E-1,2.482787132E0,-8.688557625E0,3.811569214E0
3.879214330E-1,2.518700123E0,-8.683769226E0,3.799597979E0
3.899057450E-1,2.571372509E0,-8.681375504E0,3.797203779E0
3.919193640E-1,2.585737944E0,-8.686163902E0,3.799597979E0
3.939029830E-1,2.612074137E0,-8.693346024E0,3.797203779E0
3.959186800E-1,2.631227732E0,-8.683769226E0,3.797203779E0
3.979020680E-1,2.657563925E0,-8.678980827E0,3.804386616E0
3.999153020E-1,2.669534922E0,-8.688557625E0,3.790021181E0
4.019303830E-1,2.671929121E0,-8.695740700E0,3.792415380E0
4.039128480E-1,2.664746523E0,-8.705317497E0,3.816357613E0
4.059266990E-1,2.655169725E0,-8.700529099E0,3.818751812E0
4.079103950E-1,2.657563925E0,-8.700529099E0,3.816357613E0
4.099242450E-1,2.645592928E0,-8.710105896E0,3.818751812E0
4.119080180E-1,2.647987127E0,-8.738836288E0,3.816357613E0
4.139230220E-1,2.650381327E0,-8.750806808E0,3.816357613E0
4.159070250E-1,2.638410330E0,-8.769960403E0,3.811569214E0
4.179206450E-1,2.631227732E0,-8.793902397E0,3.825934410E0
4.199034180E-1,2.636016130E0,-8.801085472E0,3.837905407E0
4.219174990E-1,2.647987127E0,-8.813055992E0,3.871424198E0
4.239028110E-1,2.669534922E0,-8.839392662E0,3.919308186E0
4.259163530E-1,2.688688517E0,-8.860940933E0,3.950432777E0
4.279292800E-1,2.712630510E0,-8.896853447E0,3.971980572E0
4.299144380E-1,2.719813108E0,-8.932766914E0,3.962403774E0
4.319285950E-1,2.741360903E0,-8.954314232E0,3.890577793E0
4.339113680E-1,2.741360903E0,-8.975862503E0,3.833117008E0
4.359262180E-1,2.731784105E0,-8.983044624E0,3.809175014E0
4.379102220E-1,2.707842112E0,-9.009381294E0,3.792415380E0
4.399239950E-1,2.657563925E0,-9.059659004E0,3.770867586E0
4.419077690E-1,2.636016130E0,-9.081207275E0,3.770867586E0
4.439218500E-1,2.614468336E0,-9.107542992E0,3.727771997E0
4.459055460E-1,2.602497339E0,-9.150638580E0,3.682282209E0
4.479194720E-1,2.607285738E0,-9.176975250E0,3.667917013E0
4.499024760E-1,2.619256735E0,-9.234436035E0,3.651157618E0
4.519172490E-1,2.650381327E0,-9.251194954E0,3.598485231E0
4.539007150E-1,2.681505919E0,-9.255983353E0,3.576937437E0
4.559160270E-1,2.717418909E0,-9.296685219E0,3.526659012E0
4.579289540E-1,2.738966703E0,-9.344569206E0,3.493140221E0
4.599120350E-1,2.750937700E0,-9.358934402E0,3.483563423E0
4.619268850E-1,2.786850691E0,-9.392453194E0,3.462015629E0
4.639095800E-1,2.803610086E0,-9.397241592E0,3.457227230E0
4.659253530E-1,2.810792685E0,-9.440337181E0,3.447650433E0
4.679080500E-1,2.834734917E0,-9.493009567E0,3.440467834E0
4.699225920E-1,2.829946518E0,-9.507374763E0,3.440467834E0
4.719059040E-1,2.832340717E0,-9.528923035E0,3.440467834E0
4.739204460E-1,2.827552319E0,-9.569623947E0,3.428496838E0
4.759052960E-1,2.827552319E0,-9.581595421E0,3.409343243E0
4.779176080E-1,2.810792685E0,-9.593565941E0,3.375824451E0
4.799023030E-1,2.822763920E0,-9.603142738E0,3.366247654E0
4.819166920E-1,2.822763920E0,-9.610325813E0,3.356670856E0
4.839299270E-1,2.827552319E0,-9.622296333E0,3.325546265E0
4.859145460E-1,2.825158119E0,-9.615114212E0,3.313575268E0
4.879275500E-1,2.829946518E0,-9.595960617E0,3.306392431E0
4.899114770E-1,2.820369720E0,-9.567230225E0,3.287238836E0
4.919256350E-1,2.839523315E0,-9.531316757E0,3.275267839E0
4.939099470E-1,2.829946518E0,-9.507374763E0,3.275267839E0
4.959247190E-1,2.817975283E0,-9.471462250E0,3.284844637E0
4.979078770E-1,2.822763920E0,-9.442731857E0,3.296815634E0
4.999211120E-1,2.834734917E0,-9.416395187E0,3.292027235E0
5.019047310E-1,2.817975283E0,-9.380482674E0,3.289633036E0
5.039189660E-1,2.808398485E0,-9.351752281E0,3.282450438E0
5.059032770E-1,2.782062292E0,-9.308655739E0,3.289633036E0
5.079167430E-1,2.772485495E0,-9.277531624E0,3.280056238E0
5.099312860E-1,2.746149302E0,-9.267954826E0,3.260902643E0
5.119149810E-1,2.703053713E0,-9.241618156E0,3.205836058E0
5.139282160E-1,2.667140722E0,-9.208099365E0,3.169923067E0
5.159133730E-1,2.652775526E0,-9.186552048E0,3.150769472E0
5.179272240E-1,2.600103140E0,-9.155426979E0,3.122039080E0
5.199103810E-1,2.552218914E0,-9.119514465E0,3.119644880E0
5.219251550E-1,2.535459518E0,-9.107542992E0,3.112462282E0
5.239091590E-1,2.504334927E0,-9.059659004E0,3.100491285E0
5.259229320E-1,2.494758129E0,-9.021351814E0,3.083731890E0
5.279048580E-1,2.482787132E0,-8.997409821E0,3.071760893E0
5.299205540E-1,2.446874142E0,-8.956708908E0,3.045424461E0
5.319035580E-1,2.430114746E0,-8.939949036E0,3.026270866E0
5.339183320E-1,2.403778553E0,-8.901641846E0,2.987963676E0
5.359027200E-1,2.379836559E0,-8.865729332E0,2.942473888E0
5.379159550E-1,2.363077164E0,-8.839392662E0,2.930502892E0
5.399301130E-1,2.322375536E0,-8.793902397E0,2.899378300E0
5.419125780E-1,2.303221941E0,-8.762778282E0,2.877830505E0
5.439267350E-1,2.291250944E0,-8.734047890E0,2.875436306E0
5.459118930E-1,2.240972757E0,-8.681375504E0,2.868253708E0
5.479252050E-1,2.217030764E0,-8.638279915E0,2.841917515E0
5.499095160E-1,2.209848166E0,-8.621520042E0,2.829946518E0
5.519227510E-1,2.176329374E0,-8.595184326E0,2.808398485E0
5.539073710E-1,2.152387381E0,-8.561665535E0,2.786850691E0
5.559214520E-1,2.138022184E0,-8.556877136E0,2.772485495E0
5.579051480E-1,2.102109194E0,-8.530540466E0,2.755726099E0
5.599193050E-1,2.087743998E0,-8.492233276E0,2.741360903E0
5.619036930E-1,2.047042370E0,-8.475474358E0,2.726995707E0
5.639168510E-1,2.023100376E0,-8.427590370E0,2.698265314E0
5.659000090E-1,1.999158382E0,-8.415618896E0,2.683900118E0
5.679144750E-1,1.958456993E0,-8.401253700E0,2.652775526E0
5.699289400E-1,1.920149803E0,-8.391676903E0,2.645592928E0
5.719122520E-1,1.903390408E0,-8.396465302E0,2.645592928E0
5.739257940E-1,1.867477298E0,-8.415618896E0,2.638410330E0
5.759107970E-1,1.848323703E0,-8.398859978E0,2.626439333E0
5.779248780E-1,1.829170108E0,-8.403648376E0,2.616862535E0
5.799085750E-1,1.783680320E0,-8.394071579E0,2.624045134E0
5.819221170E-1,1.769315004E0,-8.415618896E0,2.612074137E0
5.839067360E-1,1.757344007E0,-8.425195694E0,2.604891539E0
5.859205870E-1,1.728613615E0,-8.432378769E0,2.590526342E0
5.879030520E-1,1.675941229E0,-8.432378769E0,2.578555346E0
5.899185180E-1,1.661576033E0,-8.432378769E0,2.578555346E0
5.919015210E-1,1.625662923E0,-8.441955566E0,2.588132143E0
5.939169090E-1,1.613691926E0,-8.451532364E0,2.583343744E0
5.959319900E-1,1.601720929E0,-8.449137688E0,2.568978310E0
5.979138400E-1,1.556231141E0,-8.475474358E0,2.576161146E0
5.999277670E-1,1.534683347E0,-8.489839554E0,2.573766708E0
6.019111560E-1,1.513135433E0,-8.518569946E0,2.588132143E0
6.039258520E-1,1.508347034E0,-8.523358345E0,2.585737944E0
6.059090100E-1,1.508347034E0,-8.530540466E0,2.588132143E0
6.079231670E-1,1.501164436E0,-8.580819130E0,2.600103140E0
6.099065560E-1,1.517923832E0,-8.623914719E0,2.636016130E0
6.119203290E-1,1.525106430E0,-8.647856712E0,2.669534922E0
6.139046410E-1,1.570596337E0,-8.686163902E0,2.710236311E0
6.159191830E-1,1.625662923E0,-8.736441612E0,2.686294317E0
6.179025720E-1,1.666364431E0,-8.760383606E0,2.667140722E0
6.199163450E-1,1.745373011E0,-8.791508675E0,2.655169725E0
6.219302720E-1,1.807622313E0,-8.841787338E0,2.691082716E0
6.239145060E-1,1.855506301E0,-8.872911453E0,2.726995707E0
6.259293560E-1,1.963245392E0,-8.930372238E0,2.808398485E0
6.279120520E-1,2.032677174E0,-8.956708908E0,2.817975283E0
6.299268250E-1,2.171540976E0,-9.006986618E0,2.760514498E0
6.319105220E-1,2.317587137E0,-9.023746490E0,2.600103140E0
6.339244490E-1,2.389413357E0,-9.033323288E0,2.509123325E0
6.359092990E-1,2.533065319E0,-9.076418877E0,2.377442360E0
6.379226110E-1,2.683900118E0,-9.109937668E0,2.310404539E0
6.399056910E-1,2.748543501E0,-9.136273384E0,2.284068346E0
6.419203870E-1,2.873042107E0,-9.165003777E0,2.240972757E0
6.439038530E-1,2.980781078E0,-9.184157372E0,2.188300371E0
6.459179330E-1,3.045424461E0,-9.191340446E0,2.164358377E0
6.479010140E-1,3.160346270E0,-9.217676163E0,2.109291792E0
6.499155570E-1,3.246537447E0,-9.229647636E0,2.080561161E0
6.519303300E-1,3.296815634E0,-9.224859238E0,2.070984364E0
6.539131030E-1,3.397372246E0,-9.239224434E0,2.054224968E0
6.559281060E-1,3.469198227E0,-9.212887764E0,2.011129379E0
6.579121100E-1,3.502717018E0,-9.200917244E0,1.994369984E0
6.599250370E-1,3.560178041E0,-9.169792175E0,1.975216389E0
6.619081180E-1,3.584120035E0,-9.165003777E0,1.965639591E0
6.639245070E-1,3.612850428E0,-9.143456459E0,1.963245392E0
6.659075110E-1,3.641580820E0,-9.097966194E0,1.946485996E0
6.679202070E-1,3.648763418E0,-9.085995674E0,1.944091797E0
6.699047500E-1,3.658340216E0,-9.042900085E0,1.946485996E0
6.719185990E-1,3.648763418E0,-9.014169693E0,1.936909199E0
6.739022950E-1,3.632004023E0,-8.997409821E0,1.934514999E0
6.759174530E-1,3.603273630E0,-8.939949036E0,1.927332401E0
6.778999190E-1,3.517082214E0,-8.923190117E0,1.927332401E0
6.799143840E-1,3.478775024E0,-8.916007042E0,1.932120800E0
6.819294650E-1,3.416525841E0,-8.889671326E0,1.924938202E0
6.839125460E-1,3.371036053E0,-8.887276649E0,1.912967205E0
6.859263190E-1,3.351882458E0,-8.892065048E0,1.912967205E0
6.879100910E-1,3.277662039E0,-8.889671326E0,1.905784607E0
6.899247880E-1,3.248931646E0,-8.875306129E0,1.908178806E0
6.919079460E-1,3.177105665E0,-8.875306129E0,1.910573006E0
6.939224110E-1,3.141192675E0,-8.892065048E0,1.908178806E0
6.959066460E-1,3.119644880E0,-8.899248123E0,1.912967205E0
6.979201880E-1,3.057395458E0,-8.911218643E0,1.905784607E0
6.999036540E-1,3.021482468E0,-8.887276649E0,1.920149803E0
7.019168890E-1,3.004723072E0,-8.872911453E0,1.929726601E0
7.039313530E-1,2.973598480E0,-8.894459724E0,1.951274395E0
7.059162800E-1,2.916137695E0,-8.882488251E0,1.975216389E0
7.079294380E-1,2.904166698E0,-8.868123055E0,1.989581585E0
7.099138270E-1,2.896984100E0,-8.865729332E0,2.015917778E0
7.119272920E-1,2.896984100E0,-8.846575737E0,2.044648170E0
7.139113730E-1,2.899378300E0,-8.848969460E0,2.066195965E0
7.159263770E-1,2.899378300E0,-8.860940933E0,2.099714994E0
7.179092270E-1,2.908955097E0,-8.870517731E0,2.114080191E0
7.199233840E-1,2.901772499E0,-8.863334656E0,2.123656988E0
7.219076190E-1,2.925714493E0,-8.841787338E0,2.145204782E0
7.239206230E-1,2.932897091E0,-8.839392662E0,2.159569979E0
7.259045500E-1,2.940079689E0,-8.829815865E0,2.166752577E0
7.279187850E-1,2.959233284E0,-8.832210541E0,2.173935175E0
7.299018660E-1,2.978386879E0,-8.817844391E0,2.181117773E0
7.319163310E-1,3.011905670E0,-8.808267593E0,2.197877169E0
7.339310280E-1,3.040636063E0,-8.822632790E0,2.209848166E0
7.359153380E-1,3.057395458E0,-8.822632790E0,2.209848166E0
7.379288810E-1,3.093308687E0,-8.820239067E0,2.202665567E0
7.399120390E-1,3.148375273E0,-8.820239067E0,2.176329374E0
7.419261200E-1,3.174711466E0,-8.815450668E0,2.171540976E0
7.439104310E-1,3.189076662E0,-8.832210541E0,2.152387381E0
7.459249740E-1,3.244143248E0,-8.841787338E0,2.140416384E0
7.479071320E-1,3.272873640E0,-8.846575737E0,2.135627985E0
7.499224430E-1,3.303998232E0,-8.844181061E0,2.114080191E0
7.519052930E-1,3.330334663E0,-8.856152534E0,2.097320795E0
7.539191430E-1,3.363853455E0,-8.858546257E0,2.090138197E0
7.559043770E-1,3.411737442E0,-8.848969460E0,2.063801765E0
7.579176120E-1,3.428496838E0,-8.872911453E0,2.047042370E0
7.599013090E-1,3.438073635E0,-8.872911453E0,2.015917778E0
7.619163890E-1,3.469198227E0,-8.865729332E0,1.996764183E0
7.639298550E-1,3.495534420E0,-8.870517731E0,1.984793186E0
7.659132440E-1,3.514688015E0,-8.882488251E0,1.975216389E0
7.679274770E-1,3.529053211E0,-8.894459724E0,1.960851192E0
7.699114050E-1,3.533841610E0,-8.899248123E0,1.941697598E0
7.719250240E-1,3.538630009E0,-8.896853447E0,1.910573006E0
7.739089510E-1,3.543418407E0,-8.906430244E0,1.891419291E0
7.759238010E-1,3.538630009E0,-8.920795441E0,1.872265697E0
7.779065740E-1,3.531447411E0,-8.913613319E0,1.857900500E0
7.799212710E-1,3.509899616E0,-8.896853447E0,1.838746905E0
7.819037360E-1,3.485957623E0,-8.899248123E0,1.833958507E0
7.839185850E-1,3.476380825E0,-8.901641846E0,1.836352706E0
7.859018970E-1,3.483563423E0,-8.896853447E0,1.843535304E0
7.879161320E-1,3.469198227E0,-8.889671326E0,1.843535304E0
7.899299050E-1,3.466804028E0,-8.894459724E0,1.829170108E0
7.919139860E-1,3.469198227E0,-8.889671326E0,1.814804912E0
7.939286820E-1,3.466804028E0,-8.899248123E0,1.805228114E0
7.959133790E-1,3.462015629E0,-8.904036522E0,1.788468719E0
7.979266130E-1,3.464409828E0,-8.904036522E0,1.790862918E0
7.999090010E-1,3.481169224E0,-8.925583839E0,1.838746905E0
8.019253900E-1,3.517082214E0,-8.918401718E0,1.912967205E0
8.039077780E-1,3.538630009E0,-8.937555313E0,1.965639591E0
8.059217050E-1,3.567360640E0,-8.983044624E0,2.047042370E0
8.079056320E-1,3.605667830E0,-9.011775017E0,2.013523579E0
8.099197900E-1,3.620033026E0,-9.006986618E0,1.970427990E0
8.119028710E-1,3.699041605E0,-8.997409821E0,1.941697598E0
8.139174140E-1,3.725377798E0,-9.011775017E0,1.817199111E0
8.159019550E-1,3.770867586E0,-9.016563416E0,1.781286120E0
8.179154980E-1,3.821146011E0,-8.985439301E0,1.800439715E0
8.199297320E-1,3.861847401E0,-8.968679428E0,1.783680320E0
8.219125060E-1,3.881000996E0,-8.963891029E0,1.769315004E0
8.239275100E-1,3.904942989E0,-8.944737434E0,1.752555609E0
8.259109750E-1,3.938461781E0,-8.949525833E0,1.742978811E0
8.279244410E-1,3.983951569E0,-8.956708908E0,1.731007814E0
8.299082140E-1,4.027047157E0,-8.947132111E0,1.738190413E0
8.319232170E-1,4.046200752E0,-8.942343712E0,1.738190413E0
8.339076060E-1,4.091690540E0,-8.942343712E0,1.740584612E0
8.359223020E-1,4.141968727E0,-8.925583839E0,1.719036818E0
8.379047670E-1,4.161122322E0,-8.918401718E0,1.709460020E0
8.399183100E-1,4.194641590E0,-8.911218643E0,1.719036818E0
8.419033140E-1,4.223371983E0,-8.911218643E0,1.714248419E0
8.439167790E-1,4.232948780E0,-8.913613319E0,1.714248419E0
8.459303220E-1,4.254496574E0,-8.908824921E0,1.711854219E0
8.479137860E-1,4.247313976E0,-8.889671326E0,1.723825216E0
8.499278670E-1,4.240131378E0,-8.901641846E0,1.716642618E0
8.519118710E-1,4.230554581E0,-8.908824921E0,1.714248419E0
8.539254910E-1,4.228160381E0,-8.906430244E0,1.726219416E0
8.559106490E-1,4.177882195E0,-8.918401718E0,1.726219416E0
8.579242680E-1,4.141968727E0,-8.930372238E0,1.731007814E0
8.599070410E-1,4.120420933E0,-8.930372238E0,1.731007814E0
8.619211220E-1,4.082113743E0,-8.949525833E0,1.735796213E0
8.639051250E-1,4.010287762E0,-8.939949036E0,1.742978811E0
8.659196680E-1,3.983951569E0,-8.935160637E0,1.750161409E0
8.679030560E-1,3.914519787E0,-8.935160637E0,1.750161409E0
8.699174450E-1,3.845088005E0,-8.944737434E0,1.757344007E0
8.719313720E-1,3.801992416E0,-8.939949036E0,1.764526606E0
8.739152990E-1,3.715801001E0,-8.942343712E0,1.759738207E0
8.759304570E-1,3.634398222E0,-8.959102631E0,1.759738207E0
8.779128460E-1,3.600879431E0,-8.963891029E0,1.754949808E0
8.799264640E-1,3.536235809E0,-8.961497307E0,1.769315004E0
8.819120060E-1,3.459621429E0,-8.985439301E0,1.776497602E0
8.839246260E-1,3.433285236E0,-8.985439301E0,1.778891921E0
8.859086300E-1,3.380612850E0,-9.004592896E0,1.788468719E0
8.879230180E-1,3.344699860E0,-9.021351814E0,1.798045516E0
8.899064840E-1,3.294421434E0,-9.030928612E0,1.810016513E0
8.919205650E-1,3.258508444E0,-9.026140213E0,1.793257117E0
8.939042610E-1,3.234566450E0,-9.038111687E0,1.790862918E0
8.959184180E-1,3.213018656E0,-9.047688484E0,1.786074519E0
8.979027300E-1,3.165134668E0,-9.050082207E0,1.759738207E0
8.999165800E-1,3.143586874E0,-9.057265282E0,1.752555609E0
9.019298920E-1,3.131615877E0,-9.071630478E0,1.738190413E0
9.039144340E-1,3.100491285E0,-9.066842079E0,1.742978811E0
9.059282840E-1,3.081337690E0,-9.074024200E0,1.754949808E0
9.079114420E-1,3.071760893E0,-9.062053680E0,1.793257117E0
9.099267540E-1,3.076549292E0,-9.062053680E0,1.821987510E0
9.119098340E-1,3.090914488E0,-9.059659004E0,1.821987510E0
9.139231450E-1,3.114856482E0,-9.088389397E0,1.802833915E0
9.159086880E-1,3.136404276E0,-9.105149269E0,1.766920805E0
9.179221530E-1,3.141192675E0,-9.119514465E0,1.752555609E0
9.199053110E-1,3.162740469E0,-9.136273384E0,1.723825216E0
9.219194690E-1,3.167528868E0,-9.143456459E0,1.719036818E0
9.239034730E-1,3.179499865E0,-9.136273384E0,1.721431017E0
9.259169390E-1,3.191470861E0,-9.136273384E0,1.695094824E0
9.279317880E-1,3.210624456E0,-9.160215378E0,1.678335428E0
9.299154070E-1,3.239354849E0,-9.176975250E0,1.661576033E0
9.319286420E-1,3.272873640E0,-9.184157372E0,1.642422318E0
9.339130310E-1,3.289633036E0,-9.188945770E0,1.628057122E0
9.359271120E-1,3.320757866E0,-9.200917244E0,1.604115129E0
9.379108080E-1,3.356670856E0,-9.193734169E0,1.577778935E0
9.399246580E-1,3.366247654E0,-9.200917244E0,1.565807939E0
9.419080470E-1,3.378218651E0,-9.212887764E0,1.537077546E0
9.439222800E-1,3.385401249E0,-9.241618156E0,1.513135433E0
9.459065150E-1,3.392583847E0,-9.239224434E0,1.501164436E0
9.479204420E-1,3.399766445E0,-9.248801231E0,1.477222443E0
9.499041390E-1,3.406949043E0,-9.251194954E0,1.438915253E0
9.519179890E-1,3.406949043E0,-9.263166428E0,1.426944256E0
9.539016080E-1,3.411737442E0,-9.299078941E0,1.412579060E0
9.559176120E-1,3.411737442E0,-9.315838814E0,1.407790542E0
9.579305390E-1,3.430891037E0,-9.313444138E0,1.369483352E0
9.599133880E-1,3.454833031E0,-9.313444138E0,1.357512355E0
9.619283920E-1,3.457227230E0,-9.327810287E0,1.347935557E0
9.639120890E-1,3.462015629E0,-9.368511200E0,1.335964561E0
9.659254000E-1,3.469198227E0,-9.378087997E0,1.312022567E0
9.679099430E-1,3.483563423E0,-9.392453194E0,1.304839969E0
9.699232550E-1,3.490746021E0,-9.404424667E0,1.297657371E0
9.719074890E-1,3.507505417E0,-9.418789864E0,1.271321058E0
9.739207240E-1,3.521870613E0,-9.428366661E0,1.261744261E0
9.759059580E-1,3.564966440E0,-9.411606789E0,1.233013868E0
9.779191930E-1,3.600879431E0,-9.437943459E0,1.201889277E0
9.799032740E-1,3.612850428E0,-9.440337181E0,1.189918280E0
9.819164310E-1,3.624821424E0,-9.435548782E0,1.165976286E0
9.839318200E-1,3.639186621E0,-9.428366661E0,1.154005170E0
9.859152860E-1,3.658340216E0,-9.421183586E0,1.142034173E0
9.879282130E-1,3.667917013E0,-9.404424667E0,1.120486379E0
9.899130630E-1,3.672705412E0,-9.406818390E0,1.120486379E0
9.919275270E-1,3.684676409E0,-9.404424667E0,1.110909581E0
9.939106080E-1,3.706224203E0,-9.404424667E0,1.091755986E0
9.959253820E-1,3.708618402E0,-9.404424667E0,1.077390790E0
9.979078470E-1,3.744531393E0,-9.411606789E0,1.048660398E0
9.999223900E-1,3.744531393E0,-9.394847870E0,1.024718285E0
1.001906624E0,3.756502390E0,-9.385271072E0,1.019929886E0
1.003919859E0,3.756502390E0,-9.366117477E0,1.007958889E0
1.005904478E0,3.782838583E0,-9.356540680E0,1.017535686E0
1.007918328E0,3.801992416E0,-9.356540680E0,1.017535686E0
1.009902024E0,3.830722809E0,-9.339780807E0,1.010353088E0
1.011915643E0,3.835511208E0,-9.320627213E0,9.840168953E-1
1.013929493E0,3.833117008E0,-9.308655739E0,9.648633003E-1
1.015914651E0,3.835511208E0,-9.296685219E0,9.313444495E-1
1.017928194E0,3.837905407E0,-9.267954826E0,9.145850539E-1
1.019911352E0,3.866635799E0,-9.239224434E0,9.145850539E-1
1.021924894E0,3.890577793E0,-9.205705643E0,9.145850539E-1
1.023908897E0,3.909731388E0,-9.193734169E0,9.074024558E-1
1.025923901E0,3.940855980E0,-9.165003777E0,9.002198577E-1
1.027906674E0,3.960009575E0,-9.148244858E0,8.690952063E-1
1.029921140E0,3.964797974E0,-9.138668060E0,8.619126081E-1
1.031905144E0,3.945644379E0,-9.112331390E0,8.571242094E-1
1.033919302E0,3.945644379E0,-9.085995674E0,8.571242094E-1
1.035903921E0,3.940855980E0,-9.074024200E0,8.619126081E-1
1.037916925E0,3.928884983E0,-9.064447403E0,8.738836050E-1
1.039931313E0,3.921702385E0,-9.071630478E0,8.906430602E-1
1.041915701E0,3.907337189E0,-9.074024200E0,9.002198577E-1
1.043929475E0,3.897760391E0,-9.093177795E0,9.193734527E-1
1.045912017E0,3.897760391E0,-9.117119789E0,9.337386489E-1
1.047925790E0,3.907337189E0,-9.121908188E0,9.433154464E-1
1.049910487E0,3.909731388E0,-9.100360870E0,9.696516991E-1
1.051924337E0,3.904942989E0,-9.126696587E0,9.768342972E-1
1.053907725E0,3.895366192E0,-9.136273384E0,9.864110947E-1
1.055923113E0,3.900154591E0,-9.143456459E0,1.003170490E0
1.057905809E0,3.890577793E0,-9.148244858E0,1.022324085E0
1.059920352E0,3.871424198E0,-9.174580574E0,1.058237195E0
1.061903971E0,3.849876404E0,-9.181763649E0,1.082179189E0
1.063918744E0,3.845088005E0,-9.193734169E0,1.089361787E0
1.065901518E0,3.828328609E0,-9.212887764E0,1.108515382E0
1.067915445E0,3.813963413E0,-9.208099365E0,1.118092179E0
1.069929603E0,3.806780815E0,-9.198522568E0,1.120486379E0
1.071913836E0,3.787626982E0,-9.212887764E0,1.125274777E0
1.073928917E0,3.744531393E0,-9.198522568E0,1.125274777E0
1.075912691E0,3.746925592E0,-9.196128845E0,1.127668977E0
1.077926771E0,3.725377798E0,-9.227252960E0,1.110909581E0
1.079909237E0,3.711012602E0,-9.193734169E0,1.108515382E0
1.081924010E0,3.706224203E0,-9.188945770E0,1.098938584E0
1.083906553E0,3.677493811E0,-9.169792175E0,1.086967587E0
1.085921634E0,3.660734415E0,-9.172186852E0,1.079784989E0
1.087904944E0,3.639186621E0,-9.174580574E0,1.067813993E0
1.089918871E0,3.615244627E0,-9.165003777E0,1.053448796E0
1.091902491E0,3.605667830E0,-9.167398453E0,1.055842996E0
1.093917033E0,3.572149038E0,-9.176975250E0,1.053448796E0
1.095931191E0,3.569754839E0,-9.162610054E0,1.048660398E0
1.097914503E0,3.569754839E0,-9.162610054E0,1.043871999E0
1.099928661E0,3.548206806E0,-9.181763649E0,1.043871999E0
1.101911511E0,3.531447411E0,-9.205705643E0,1.039083481E0
1.103925668E0,3.521870613E0,-9.212887764E0,1.031900883E0
1.105910902E0,3.497928619E0,-9.205705643E0,1.036689281E0
1.107924368E0,3.517082214E0,-9.222464561E0,1.039083481E0
1.109907526E0,3.519476414E0,-9.224859238E0,1.046266198E0
1.111922299E0,3.509899616E0,-9.227252960E0,1.046266198E0
1.113905995E0,3.509899616E0,-9.227252960E0,1.086967587E0
1.115920769E0,3.521870613E0,-9.229647636E0,1.103726983E0
1.117903234E0,3.536235809E0,-9.241618156E0,1.137245774E0
1.119918622E0,3.531447411E0,-9.227252960E0,1.156399369E0
1.121902318E0,3.533841610E0,-9.227252960E0,1.209071875E0
1.123916399E0,3.550601006E0,-9.212887764E0,1.271321058E0
1.125930249E0,3.555389643E0,-9.217676163E0,1.295263171E0
1.127913330E0,3.567360640E0,-9.220070839E0,1.340752959E0
1.129927565E0,3.586514235E0,-9.212887764E0,1.391031146E0
1.131910646E0,3.574543238E0,-9.203310966E0,1.414973259E0
1.133925111E0,3.552995205E0,-9.208099365E0,1.467645645E0
1.135909730E0,3.569754839E0,-9.210494041E0,1.489193439E0
1.137924195E0,3.572149038E0,-9.210494041E0,1.510741234E0
1.139907276E0,3.555389643E0,-9.210494041E0,1.525106430E0
1.141920203E0,3.548206806E0,-9.210494041E0,1.537077546E0
1.143905669E0,3.543418407E0,-9.210494041E0,1.546654344E0
1.145918904E0,3.524264812E0,-9.227252960E0,1.551442742E0
1.147901754E0,3.507505417E0,-9.234436035E0,1.544260144E0
1.149917758E0,3.469198227E0,-9.236829758E0,1.546654344E0
1.151930376E0,3.430891037E0,-9.239224434E0,1.565807939E0
1.153913996E0,3.409343243E0,-9.224859238E0,1.565807939E0
1.155929384E0,3.378218651E0,-9.215282440E0,1.541865945E0
1.157912234E0,3.351882458E0,-9.200917244E0,1.532289028E0
1.159926623E0,3.325546265E0,-9.200917244E0,1.525106430E0
1.161910704E0,3.282450438E0,-9.176975250E0,1.510741234E0
1.163924169E0,3.251325846E0,-9.172186852E0,1.498770237E0
1.165907866E0,3.246537447E0,-9.179368973E0,1.486799240E0
1.167921715E0,3.203441858E0,-9.165003777E0,1.472434044E0
1.169906334E0,3.179499865E0,-9.162610054E0,1.467645645E0
1.171919877E0,3.172317266E0,-9.160215378E0,1.467645645E0
1.173903881E0,3.143586874E0,-9.133879662E0,1.455674648E0
1.175918039E0,3.124433279E0,-9.119514465E0,1.450886250E0
1.177931658E0,3.114856482E0,-9.119514465E0,1.438915253E0
1.179915277E0,3.102885485E0,-9.097966194E0,1.424550056E0
1.181929435E0,3.095702887E0,-9.105149269E0,1.419761658E0
1.183913515E0,3.076549292E0,-9.095572472E0,1.410184860E0
1.185926981E0,3.069366693E0,-9.107542992E0,1.398213744E0
1.187911292E0,3.071760893E0,-9.117119789E0,1.381454349E0
1.189925220E0,3.057395458E0,-9.133879662E0,1.379060149E0
1.191908916E0,3.064578056E0,-9.136273384E0,1.369483352E0
1.193923612E0,3.069366693E0,-9.136273384E0,1.362300754E0
1.195908308E0,3.064578056E0,-9.153033257E0,1.364694953E0
1.197920236E0,3.062183857E0,-9.169792175E0,1.326387763E0
1.199904315E0,3.069366693E0,-9.172186852E0,1.309628367E0
1.201919627E0,3.090914488E0,-9.179368973E0,1.316810966E0
1.203902785E0,3.093308687E0,-9.186552048E0,1.316810966E0
1.205915327E0,3.100491285E0,-9.186552048E0,1.307234168E0
1.207930793E0,3.136404276E0,-9.203310966E0,1.300051570E0
1.209914105E0,3.153163671E0,-9.227252960E0,1.314416766E0
1.211929186E0,3.148375273E0,-9.241618156E0,1.316810966E0
1.213912343E0,3.172317266E0,-9.234436035E0,1.314416766E0
1.215927731E0,3.201047659E0,-9.232041359E0,1.321599364E0
1.217910197E0,3.239354849E0,-9.251194954E0,1.326387763E0
1.219924047E0,3.263296843E0,-9.282320023E0,1.323993564E0
1.221907051E0,3.277662039E0,-9.291896820E0,1.319205165E0
1.223922516E0,3.294421434E0,-9.287108421E0,1.316810966E0
1.225906443E0,3.301604033E0,-9.279925346E0,1.309628367E0
1.227919140E0,3.306392431E0,-9.282320023E0,1.316810966E0
1.229903759E0,3.308786631E0,-9.277531624E0,1.333570361E0
1.231917224E0,3.306392431E0,-9.263166428E0,1.335964561E0
1.233931151E0,3.313575268E0,-9.255983353E0,1.335964561E0
1.235915462E0,3.323152065E0,-9.236829758E0,1.347935557E0
1.237930159E0,3.313575268E0,-9.212887764E0,1.367089152E0
1.239913009E0,3.318363667E0,-9.208099365E0,1.374271750E0
1.241928013E0,3.332728863E0,-9.193734169E0,1.405396342E0
1.243910863E0,3.349488258E0,-9.184157372E0,1.388636947E0
1.245924944E0,3.368641853E0,-9.172186852E0,1.381454349E0
1.247909255E0,3.380612850E0,-9.172186852E0,1.369483352E0
1.249922490E0,3.392583847E0,-9.150638580E0,1.369483352E0
1.251906263E0,3.416525841E0,-9.138668060E0,1.381454349E0
1.253920344E0,3.430891037E0,-9.117119789E0,1.398213744E0
1.255905271E0,3.428496838E0,-9.117119789E0,1.407790542E0
1.257918813E0,3.440467834E0,-9.107542992E0,1.414973259E0
1.259901894E0,3.440467834E0,-9.078812599E0,1.426944256E0
1.261915514E0,3.440467834E0,-9.064447403E0,1.434126854E0
1.263930824E0,3.438073635E0,-9.074024200E0,1.441309452E0
1.265914290E0,3.464409828E0,-9.069235802E0,1.434126854E0
1.267927755E0,3.478775024E0,-9.069235802E0,1.446097851E0
1.269911836E0,3.476380825E0,-9.057265282E0,1.458068848E0
1.271926225E0,3.481169224E0,-9.062053680E0,1.474828243E0
1.273909306E0,3.483563423E0,-9.078812599E0,1.486799240E0
1.275924464E0,3.505111217E0,-9.093177795E0,1.520318031E0
1.277907545E0,3.505111217E0,-9.093177795E0,1.534683347E0
1.279921624E0,3.509899616E0,-9.095572472E0,1.546654344E0
1.281906629E0,3.529053211E0,-9.117119789E0,1.563413739E0
1.283920094E0,3.538630009E0,-9.129091263E0,1.558625340E0
1.285902560E0,3.531447411E0,-9.121908188E0,1.551442742E0
1.287917641E0,3.531447411E0,-9.124302864E0,1.563413739E0
1.289931568E0,3.531447411E0,-9.133879662E0,1.577778935E0
1.291915264E0,3.529053211E0,-9.148244858E0,1.589749932E0
1.293929345E0,3.533841610E0,-9.141061783E0,1.635239720E0
1.295914348E0,3.524264812E0,-9.141061783E0,1.649604917E0
1.297927275E0,3.490746021E0,-9.129091263E0,1.654393315E0
1.299910664E0,3.457227230E0,-9.138668060E0,1.632845521E0
1.301924437E0,3.430891037E0,-9.133879662E0,1.618480325E0
1.303909672E0,3.380612850E0,-9.133879662E0,1.606509328E0
1.305922676E0,3.315969467E0,-9.136273384E0,1.611297727E0
1.307905756E0,3.280056238E0,-9.148244858E0,1.628057122E0
1.309920837E0,3.208230257E0,-9.165003777E0,1.637633920E0
1.311904225E0,3.177105665E0,-9.174580574E0,1.642422318E0
1.313919537E0,3.141192675E0,-9.196128845E0,1.668758631E0
1.315903233E0,3.100491285E0,-9.224859238E0,1.685518026E0
1.317916468E0,3.076549292E0,-9.236829758E0,1.678335428E0
1.319930395E0,3.074155092E0,-9.253589630E0,1.654393315E0
1.321914322E0,3.069366693E0,-9.270348549E0,1.584961534E0
1.323927941E0,3.078943491E0,-9.272743225E0,1.546654344E0
1.325912253E0,3.119644880E0,-9.258378029E0,1.510741234E0
1.327926025E0,3.160346270E0,-9.248801231E0,1.472434044E0
1.329910337E0,3.172317266E0,-9.234436035E0,1.460463047E0
1.331923879E0,3.215412855E0,-9.229647636E0,1.398213744E0
1.333907268E0,3.258508444E0,-9.212887764E0,1.328781962E0
1.335922964E0,3.287238836E0,-9.208099365E0,1.300051570E0
1.337904891E0,3.311181068E0,-9.181763649E0,1.266532660E0
1.339919588E0,3.332728863E0,-9.188945770E0,1.252167463E0
1.341902746E0,3.327940464E0,-9.184157372E0,1.240196466E0
1.343917210E0,3.327940464E0,-9.184157372E0,1.223437071E0
1.345931291E0,3.323152065E0,-9.179368973E0,1.213860273E0
1.347915064E0,3.296815634E0,-9.181763649E0,1.216254473E0
1.349929453E0,3.263296843E0,-9.172186852E0,1.206677675E0
1.351913765E0,3.244143248E0,-9.174580574E0,1.201889277E0
1.353926692E0,3.213018656E0,-9.196128845E0,1.192312479E0
1.355911388E0,3.186682463E0,-9.210494041E0,1.173158884E0
1.357924546E0,3.177105665E0,-9.222464561E0,1.163581967E0
1.359908857E0,3.162740469E0,-9.239224434E0,1.173158884E0
1.361923091E0,3.134010077E0,-9.239224434E0,1.175553083E0
1.363906480E0,3.129221678E0,-9.236829758E0,1.177947283E0
1.365920561E0,3.119644880E0,-9.244012833E0,1.168370485E0
1.367904642E0,3.110068083E0,-9.255983353E0,1.156399369E0
1.369918184E0,3.107673883E0,-9.248801231E0,1.149216771E0
1.371932650E0,3.119644880E0,-9.248801231E0,1.137245774E0
1.373915962E0,3.119644880E0,-9.227252960E0,1.137245774E0
1.375931349E0,3.129221678E0,-9.222464561E0,1.132457376E0
1.377913892E0,3.155557871E0,-9.220070839E0,1.137245774E0
1.379927973E0,3.167528868E0,-9.224859238E0,1.139639974E0
1.381910823E0,3.181894064E0,-9.210494041E0,1.146822572E0
1.383925596E0,3.191470861E0,-9.208099365E0,1.144428372E0
1.385910138E0,3.201047659E0,-9.208099365E0,1.144428372E0
1.387923142E0,3.215412855E0,-9.212887764E0,1.161187768E0
1.389907377E0,3.220201254E0,-9.198522568E0,1.175553083E0
1.391921303E0,3.215412855E0,-9.191340446E0,1.180341482E0
1.393905615E0,3.203441858E0,-9.176975250E0,1.201889277E0
1.395920311E0,3.186682463E0,-9.188945770E0,1.197100878E0
1.397902777E0,3.174711466E0,-9.191340446E0,1.192312479E0
1.399917319E0,3.134010077E0,-9.203310966E0,1.204283476E0
1.401932708E0,3.098097086E0,-9.196128845E0,1.254561663E0
1.403915173E0,3.081337690E0,-9.203310966E0,1.266532660E0
1.405929947E0,3.057395458E0,-9.220070839E0,1.264138460E0
1.407912411E0,3.057395458E0,-9.222464561E0,1.292868972E0
1.409927108E0,3.057395458E0,-9.232041359E0,1.307234168E0
1.411910573E0,3.035847664E0,-9.244012833E0,1.335964561E0
1.413924423E0,3.043030262E0,-9.258378029E0,1.350329757E0
1.415909350E0,3.055001259E0,-9.258378029E0,1.347935557E0
1.417922893E0,3.078943491E0,-9.255983353E0,1.362300754E0
1.419906205E0,3.088520288E0,-9.253589630E0,1.374271750E0
1.421919516E0,3.098097086E0,-9.258378029E0,1.388636947E0
1.423904058E0,3.119644880E0,-9.241618156E0,1.388636947E0
1.425918600E0,3.122039080E0,-9.239224434E0,1.381454349E0
1.427901912E0,3.143586874E0,-9.260771751E0,1.376665950E0
1.429916377E0,3.148375273E0,-9.270348549E0,1.371877551E0
1.431929997E0,3.150769472E0,-9.270348549E0,1.364694953E0
1.433913924E0,3.169923067E0,-9.255983353E0,1.357512355E0
1.435929082E0,3.165134668E0,-9.241618156E0,1.352723956E0
1.437911778E0,3.150769472E0,-9.239224434E0,1.340752959E0
1.439925935E0,3.153163671E0,-9.232041359E0,1.326387763E0
1.441910016E0,3.150769472E0,-9.227252960E0,1.302445769E0
1.443923174E0,3.148375273E0,-9.244012833E0,1.300051570E0
1.445906870E0,3.153163671E0,-9.232041359E0,1.297657371E0
1.447921951E0,3.145981073E0,-9.217676163E0,1.288080573E0
1.449904724E0,3.145981073E0,-9.217676163E0,1.261744261E0
1.451918574E0,3.145981073E0,-9.222464561E0,1.240196466E0
1.453902578E0,3.141192675E0,-9.234436035E0,1.225831270E0
1.455917966E0,3.157952070E0,-9.212887764E0,1.201889277E0
1.457931278E0,3.172317266E0,-9.205705643E0,1.170764685E0
1.459915512E0,3.189076662E0,-9.217676163E0,1.165976286E0
1.461929132E0,3.229778051E0,-9.210494041E0,1.146822572E0
1.463913367E0,3.246537447E0,-9.200917244E0,1.125274777E0
1.465927217E0,3.251325846E0,-9.198522568E0,1.101332784E0
1.467909682E0,3.280056238E0,-9.198522568E0,1.065419793E0
1.469924532E0,3.282450438E0,-9.196128845E0,1.055842996E0
1.471907920E0,3.294421434E0,-9.196128845E0,1.053448796E0
1.473921693E0,3.306392431E0,-9.193734169E0,1.039083481E0
1.475907620E0,3.308786631E0,-9.196128845E0,1.029506683E0
1.477920163E0,3.332728863E0,-9.179368973E0,9.959878922E-1
1.479904167E0,3.359065056E0,-9.160215378E0,9.864110947E-1
1.481918017E0,3.359065056E0,-9.150638580E0,9.720458984E-1
1.483932175E0,3.373430252E0,-9.143456459E0,9.576807022E-1
1.485915333E0,3.368641853E0,-9.138668060E0,9.720458984E-1
1.487930643E0,3.368641853E0,-9.126696587E0,9.720458984E-1
1.489913494E0,3.373430252E0,-9.107542992E0,9.672574997E-1
1.491927882E0,3.380612850E0,-9.107542992E0,9.457096457E-1
1.493911655E0,3.375824451E0,-9.109937668E0,9.385270476E-1
1.495926736E0,3.356670856E0,-9.105149269E0,9.337386489E-1
1.497909125E0,3.330334663E0,-9.105149269E0,9.433154464E-1
1.499922744E0,3.323152065E0,-9.097966194E0,9.433154464E-1
1.501906748E0,3.315969467E0,-9.076418877E0,9.169792533E-1
1.503921521E0,3.303998232E0,-9.071630478E0,9.145850539E-1
1.505905217E0,3.292027235E0,-9.069235802E0,9.193734527E-1
1.507918990E0,3.287238836E0,-9.069235802E0,9.409212470E-1
1.509902686E0,3.282450438E0,-9.062053680E0,9.504981041E-1
1.511917460E0,3.268085241E0,-9.042900085E0,9.648633003E-1
1.513931387E0,3.248931646E0,-9.042900085E0,9.720458984E-1
1.515916006E0,3.236960649E0,-9.042900085E0,9.744400978E-1
1.517928933E0,3.208230257E0,-9.040505409E0,9.768342972E-1
1.519912629E0,3.179499865E0,-9.028534889E0,9.768342972E-1
1.521927709E0,3.162740469E0,-9.016563416E0,9.768342972E-1
1.523910406E0,3.138798475E0,-9.011775017E0,9.864110947E-1
1.525924564E0,3.122039080E0,-9.009381294E0,9.911994934E-1
1.527908029E0,3.100491285E0,-9.014169693E0,9.935936928E-1
1.529922418E0,3.090914488E0,-9.026140213E0,9.959878922E-1
1.531905576E0,3.095702887E0,-9.026140213E0,9.983820915E-1
1.533920272E0,3.107673883E0,-9.018958092E0,9.959878922E-1
1.535904890E0,3.117250681E0,-9.030928612E0,9.983820915E-1
1.537918125E0,3.129221678E0,-9.035717010E0,1.005564690E0
1.539931975E0,3.143586874E0,-9.033323288E0,1.015141487E0
1.541914825E0,3.172317266E0,-9.030928612E0,1.022324085E0
1.543929906E0,3.184288263E0,-9.028534889E0,1.019929886E0
1.545913603E0,3.201047659E0,-9.021351814E0,1.031900883E0
1.547927068E0,3.224989653E0,-9.014169693E0,1.034295082E0
1.549911149E0,3.241749048E0,-9.004592896E0,1.039083481E0
1.551925921E0,3.265691042E0,-9.009381294E0,1.046266198E0
1.553909310E0,3.287238836E0,-9.014169693E0,1.055842996E0
1.555924083E0,3.277662039E0,-9.009381294E0,1.051054597E0
1.557907087E0,3.277662039E0,-9.002198219E0,1.055842996E0
1.559921322E0,3.284844637E0,-8.995016098E0,1.048660398E0
1.561905018E0,3.282450438E0,-9.004592896E0,1.051054597E0
1.563918792E0,3.270479441E0,-8.999804497E0,1.051054597E0
1.565902488E0,3.256114244E0,-8.985439301E0,1.051054597E0
1.567916952E0,3.251325846E0,-8.983044624E0,1.034295082E0
1.569930803E0,3.248931646E0,-8.983044624E0,1.031900883E0
1.571914883E0,3.258508444E0,-8.992621422E0,1.036689281E0
1.573928657E0,3.289633036E0,-8.983044624E0,1.034295082E0
1.575912968E0,3.315969467E0,-8.978256226E0,1.036689281E0
1.577926588E0,3.318363667E0,-8.978256226E0,1.027112484E0
1.579909592E0,3.337517262E0,-8.983044624E0,1.024718285E0
1.581923750E0,3.368641853E0,-8.966285706E0,1.007958889E0
1.583907445E0,3.366247654E0,-8.973467827E0,1.003170490E0
1.585921680E0,3.392583847E0,-8.968679428E0,9.840168953E-1
1.587905684E0,3.418920040E0,-8.978256226E0,9.696516991E-1
1.589919842E0,3.426102638E0,-8.987833023E0,9.624691010E-1
1.591903153E0,3.450044632E0,-8.990227699E0,9.648633003E-1
1.593918003E0,3.435679436E0,-8.990227699E0,9.576807022E-1
1.595932777E0,3.438073635E0,-8.992621422E0,9.433154464E-1
1.597915858E0,3.430891037E0,-8.999804497E0,9.169792533E-1
1.599929938E0,3.440467834E0,-8.990227699E0,9.169792533E-1
1.601913942E0,3.452438831E0,-8.973467827E0,9.121908545E-1
1.603927869E0,3.466804028E0,-8.975862503E0,9.050082564E-1
1.605910642E0,3.473986626E0,-8.980650902E0,9.097966552E-1
1.607925107E0,3.485957623E0,-8.987833023E0,9.121908545E-1
1.609908804E0,3.490746021E0,-8.995016098E0,9.026140571E-1
1.611922962E0,3.483563423E0,-8.995016098E0,9.026140571E-1
1.613906966E0,3.497928619E0,-9.002198219E0,9.002198577E-1
1.615921661E0,3.495534420E0,-8.999804497E0,8.930372596E-1
1.617905050E0,3.497928619E0,-8.999804497E0,8.810662031E-1
1.619918284E0,3.471592426E0,-9.006986618E0,8.906430602E-1
1.621932519E0,3.471592426E0,-8.992621422E0,9.050082564E-1
1.623917138E0,3.469198227E0,-8.992621422E0,9.050082564E-1
1.625930912E0,3.445256233E0,-8.992621422E0,9.074024558E-1
1.627913685E0,3.438073635E0,-9.004592896E0,8.954314590E-1
1.629928458E0,3.445256233E0,-9.006986618E0,8.930372596E-1
1.631912153E0,3.452438831E0,-8.992621422E0,8.834604025E-1
1.633926081E0,3.469198227E0,-8.980650902E0,8.667010069E-1
1.635911315E0,3.473986626E0,-8.987833023E0,8.643068075E-1
1.637924781E0,3.466804028E0,-8.987833023E0,8.427590132E-1
1.639907862E0,3.464409828E0,-8.963891029E0,8.259995580E-1
1.641923327E0,3.466804028E0,-8.966285706E0,8.212111592E-1
1.643906101E0,3.466804028E0,-8.971074104E0,8.523358107E-1
1.645919643E0,3.457227230E0,-8.973467827E0,8.523358107E-1
1.647903646E0,3.457227230E0,-8.973467827E0,8.355764151E-1
1.649917419E0,3.457227230E0,-8.983044624E0,7.996633649E-1
1.651931654E0,3.457227230E0,-8.963891029E0,7.924807668E-1
1.653915581E0,3.459621429E0,-8.961497307E0,7.852981687E-1
1.655930124E0,3.473986626E0,-8.983044624E0,7.637503147E-1
1.657912589E0,3.481169224E0,-8.985439301E0,7.422025204E-1
1.659927593E0,3.483563423E0,-8.995016098E0,7.230489254E-1
1.661910059E0,3.452438831E0,-8.997409821E0,7.038952708E-1
1.663926062E0,3.454833031E0,-8.990227699E0,7.038952708E-1
1.665908604E0,3.452438831E0,-8.983044624E0,7.086837292E-1
1.667922685E0,3.428496838E0,-8.951920509E0,7.086837292E-1
1.669906458E0,3.421314240E0,-8.942343712E0,7.086837292E-1
1.671920539E0,3.392583847E0,-8.939949036E0,7.206547260E-1
1.673904543E0,3.383007050E0,-8.937555313E0,7.230489254E-1
1.675920009E0,3.347094059E0,-8.932766914E0,7.326257229E-1
1.677902167E0,3.306392431E0,-8.927978516E0,7.493851185E-1
1.679916016E0,3.294421434E0,-8.920795441E0,7.565677166E-1
1.681931020E0,3.256114244E0,-8.925583839E0,7.517793179E-1
1.683914178E0,3.246537447E0,-8.935160637E0,7.469909191E-1
1.685928566E0,3.248931646E0,-8.939949036E0,7.517793179E-1
1.687912263E0,3.260902643E0,-8.961497307E0,7.422025204E-1
1.689926113E0,3.265691042E0,-8.971074104E0,7.326257229E-1
1.691909194E0,3.277662039E0,-8.995016098E0,7.541735172E-1
1.693923659E0,3.303998232E0,-9.018958092E0,7.805097699E-1
1.695908585E0,3.335123062E0,-9.021351814E0,8.188169599E-1
1.697921897E0,3.354276657E0,-9.023746490E0,8.451532125E-1
1.699905593E0,3.375824451E0,-9.016563416E0,8.738836050E-1
1.701919444E0,3.390189648E0,-9.018958092E0,9.050082564E-1
1.703904063E0,3.387795448E0,-9.021351814E0,9.097966552E-1
1.705917528E0,3.385401249E0,-9.040505409E0,9.074024558E-1
1.707931071E0,3.373430252E0,-9.045293808E0,9.097966552E-1
1.709915075E0,3.351882458E0,-9.054870605E0,9.193734527E-1
1.711929539E0,3.330334663E0,-9.071630478E0,9.672574997E-1
1.713912697E0,3.320757866E0,-9.071630478E0,9.840168953E-1
1.715927778E0,3.303998232E0,-9.078812599E0,9.911994934E-1
1.717911090E0,3.294421434E0,-9.095572472E0,9.816226959E-1
1.719924709E0,3.296815634E0,-9.109937668E0,9.696516991E-1
1.721908944E0,3.294421434E0,-9.143456459E0,9.337386489E-1
1.723923102E0,3.296815634E0,-9.150638580E0,9.337386489E-1
1.725905875E0,3.299209833E0,-9.157821655E0,9.313444495E-1
1.727920340E0,3.332728863E0,-9.174580574E0,9.457096457E-1
1.729904113E0,3.363853455E0,-9.188945770E0,9.337386489E-1
1.731918886E0,3.383007050E0,-9.203310966E0,9.289502501E-1
1.733932429E0,3.430891037E0,-9.205705643E0,9.097966552E-1
1.735917663E0,3.466804028E0,-9.196128845E0,9.002198577E-1
1.737931514E0,3.541024208E0,-9.208099365E0,9.074024558E-1
1.739913979E0,3.608062029E0,-9.217676163E0,9.145850539E-1
1.741927445E0,3.636792421E0,-9.198522568E0,9.217676520E-1
1.743910909E0,3.689464808E0,-9.203310966E0,9.169792533E-1
1.745926298E0,3.720589399E0,-9.196128845E0,9.097966552E-1
1.747910225E0,3.722983599E0,-9.188945770E0,9.002198577E-1
1.749923844E0,3.720589399E0,-9.165003777E0,9.169792533E-1
1.751907771E0,3.708618402E0,-9.119514465E0,9.002198577E-1
1.753922237E0,3.689464808E0,-9.102754593E0,9.074024558E-1
1.755906010E0,3.641580820E0,-9.057265282E0,9.241618514E-1
1.757919860E0,3.588908434E0,-9.004592896E0,9.050082564E-1
1.759903248E0,3.550601006E0,-8.968679428E0,8.906430602E-1
1.761918021E0,3.466804028E0,-8.889671326E0,8.738836050E-1
1.763931256E0,3.371036053E0,-8.834604263E0,8.714894056E-1
1.765914875E0,3.330334663E0,-8.813055992E0,8.906430602E-1
1.767929341E0,3.241749048E0,-8.772355080E0,9.840168953E-1
1.769913345E0,3.191470861E0,-8.731653214E0,1.036689281E0
1.771926887E0,3.122039080E0,-8.738836288E0,1.175553083E0
1.773910584E0,3.078943491E0,-8.746018410E0,1.338358760E0
1.775925741E0,3.074155092E0,-8.743624687E0,1.412579060E0
1.777909052E0,3.066972494E0,-8.753201485E0,1.501164436E0
1.779922672E0,3.069366693E0,-8.757989883E0,1.520318031E0
1.781905753E0,3.074155092E0,-8.774748802E0,1.522712231E0
1.783921449E0,3.090914488E0,-8.791508675E0,1.594538331E0
1.785904453E0,3.141192675E0,-8.822632790E0,1.735796213E0
1.787917688E0,3.160346270E0,-8.839392662E0,1.819593310E0
1.789932461E0,3.236960649E0,-8.880094528E0,2.018311977E0
1.791916156E0,3.313575268E0,-8.916007042E0,2.255337954E0
1.793930314E0,3.363853455E0,-8.939949036E0,2.379836559E0
1.795914626E0,3.454833031E0,-8.987833023E0,2.669534922E0
1.797928860E0,3.572149038E0,-9.078812599E0,2.966415882E0
1.799911326E0,3.629609823E0,-9.121908188E0,3.131615877E0
1.801926715E0,3.742137194E0,-9.208099365E0,3.471592426E0
1.803909488E0,3.797203779E0,-9.330204010E0,3.629609823E0
1.805923030E0,3.885789394E0,-9.392453194E0,3.943250179E0
1.807907264E0,3.971980572E0,-9.536105156E0,4.285621166E0
1.809921422E0,3.991134167E0,-9.607931137E0,4.479551315E0
1.811905118E0,4.019864559E0,-9.765948296E0,4.912901878E0
1.813918738E0,4.027047157E0,-9.957485199E0,5.339069843E0
1.815934434E0,4.022258759E0,-1.003649330E1,5.523423195E0
1.817917130E0,3.995922565E0,-1.021845245E1,5.851428986E0
1.819931673E0,3.921702385E0,-1.038125896E1,6.181828976E0
1.821914369E0,3.869029999E0,-1.045787334E1,6.347028732E0
1.823929141E0,3.742137194E0,-1.061110210E1,6.732495308E0
1.825912299E0,3.596091032E0,-1.076911926E1,7.101202011E0
1.827926995E0,3.524264812E0,-1.085052204E1,7.273584843E0
1.829910461E0,3.347094059E0,-1.096783829E1,7.558494568E0
1.831924234E0,3.157952070E0,-1.109951878E1,7.845798969E0
1.833908008E0,3.062183857E0,-1.117613316E1,7.996633530E0
1.835924627E0,2.885013103E0,-1.133415127E1,8.315062523E0
1.837906400E0,2.796427488E0,-1.141315937E1,8.461109161E0
1.839920249E0,2.600103140E0,-1.154005241E1,8.734047890E0
1.841904638E0,2.425326347E0,-1.168130970E1,8.990227699E0
1.843918103E0,2.339135170E0,-1.173637676E1,9.102754593E0
1.845932261E0,2.166752577E0,-1.183932781E1,9.296685219E0
1.847916035E0,2.013523579E0,-1.193509579E1,9.481039047E0
1.849930423E0,1.941697598E0,-1.197340298E1,9.562441826E0
1.851913812E0,1.771709204E0,-1.201171017E1,9.713275909E0
1.853928047E0,1.620874524E0,-1.203804588E1,9.854534149E0
1.855912896E0,1.565807939E0,-1.202846909E1,9.938331604E0
1.857925900E0,1.477222443E0,-1.199016190E1,1.012507915E1
1.859909827E0,1.381454349E0,-1.194467258E1,1.028070164E1
1.861923369E0,1.335964561E0,-1.191594219E1,1.033816338E1
1.863907681E0,1.264138460E0,-1.185369301E1,1.043632507E1
1.865922147E0,1.240196466E0,-1.178665543E1,1.056321812E1
1.867904074E0,1.242590666E0,-1.176271248E1,1.064222622E1
1.869919693E0,1.261744261E0,-1.173158836E1,1.080024433E1
1.871903158E0,1.285686255E0,-1.172201157E1,1.090558910E1
1.873916931E0,1.359906554E0,-1.173637676E1,1.109712505E1
1.875932319E0,1.491587639E0,-1.174355888E1,1.126711273E1
1.877914246E0,1.580173135E0,-1.174834728E1,1.134372807E1
1.879928712E0,1.774103403E0,-1.178904915E1,1.150174522E1
1.881912716E0,1.984793186E0,-1.182496262E1,1.165018559E1
1.883926258E0,2.078166962E0,-1.185369301E1,1.171243477E1
1.885910186E0,2.274491549E0,-1.190875912E1,1.182256794E1
1.887924419E0,2.466027737E0,-1.193509579E1,1.190875912E1
1.889908346E0,2.545036316E0,-1.195185471E1,1.194467258E1
1.891922581E0,2.686294317E0,-1.198537350E1,1.202846909E1
1.893905970E0,2.801215887E0,-1.202607536E1,1.207156467E1
1.895921051E0,2.841917515E0,-1.204522896E1,1.208592987E1
1.897903824E0,2.925714493E0,-1.208114147E1,1.208353615E1
1.899918520E0,2.952050686E0,-1.212902546E1,1.204044056E1
1.901933063E0,2.964021683E0,-1.214099693E1,1.201889229E1
1.903915450E0,2.959233284E0,-1.216733265E1,1.194946098E1
1.905930531E0,2.964021683E0,-1.217690945E1,1.189200020E1
1.907913920E0,2.949656487E0,-1.217690945E1,1.178186703E1
1.909927847E0,2.928108692E0,-1.217690945E1,1.165736771E1
1.911911774E0,2.918531895E0,-1.217451572E1,1.160469532E1
1.913925701E0,2.894589901E0,-1.218409252E1,1.152329254E1
1.915910551E0,2.882618904E0,-1.219845772E1,1.145386124E1
1.917923555E0,2.863465309E0,-1.219845772E1,1.141076565E1
1.919906635E0,2.827552319E0,-1.220803452E1,1.126950741E1
1.921921639E0,2.825158119E0,-1.223197651E1,1.112824917E1
1.923905412E0,2.815581083E0,-1.225831223E1,1.105163479E1
1.925919493E0,2.808398485E0,-1.231816769E1,1.089361763E1
1.927903497E0,2.815581083E0,-1.233732128E1,1.074517727E1
1.929917117E0,2.820369720E0,-1.235886955E1,1.068292809E1
1.931930890E0,2.827552319E0,-1.240914726E1,1.054885292E1
1.933914586E0,2.832340717E0,-1.246421432E1,1.047702694E1
1.935929743E0,2.856282711E0,-1.249533844E1,1.031661510E1
1.937912516E0,2.882618904E0,-1.256237602E1,1.015620327E1
1.939926982E0,2.904166698E0,-1.259350109E1,1.008677197E1
1.941909678E0,2.954444885E0,-1.264377880E1,9.969455719E0
1.943925452E0,3.014299870E0,-1.271081638E1,9.818621635E0
1.945909379E0,3.057395458E0,-1.275630665E1,9.744400978E0
1.947921690E0,3.138798475E0,-1.282095051E1,9.615114212E0
1.949905387E0,3.229778051E0,-1.289756489E1,9.452308655E0
1.951919928E0,3.284844637E0,-1.293108368E1,9.375694275E0
1.953904163E0,3.387795448E0,-1.299333286E1,9.222464561E0
1.955919244E0,3.478775024E0,-1.303642845E1,9.064447403E0
1.957932171E0,3.521870613E0,-1.305079365E1,8.992621422E0
1.959916175E0,3.622427225E0,-1.309867764E1,8.841787338E0
1.961930410E0,3.737348795E0,-1.313459015E1,8.681375504E0
1.963913721E0,3.778050184E0,-1.316092682E1,8.590395927E0
1.965927956E0,3.854664803E0,-1.319444561E1,8.418013573E0
1.967910421E0,3.900154591E0,-1.321599293E1,8.346187592E0
1.969925425E0,3.945644379E0,-1.326148319E1,8.190564156E0
1.971909429E0,4.000710964E0,-1.332133865E1,8.049305916E0
1.973923356E0,4.029441357E0,-1.336443424E1,7.991845131E0
1.975907360E0,4.082113743E0,-1.343147182E1,7.891288757E0
1.977921133E0,4.163516521E0,-1.348174953E1,7.788338184E0
1.979904829E0,4.199429989E0,-1.351287460E1,7.745242596E0
1.981918987E0,4.280832767E0,-1.355836391E1,7.649474621E0
1.983932913E0,4.350264549E0,-1.360385418E1,7.568071365E0
1.985916840E0,4.400542736E0,-1.362061310E1,7.541735172E0
1.987930998E0,4.505887508E0,-1.365413189E1,7.508216381E0
1.989914387E0,4.601655483E0,-1.368525696E1,7.498639584E0
1.991928852E0,4.647145271E0,-1.370441055E1,7.486668587E0
1.993913241E0,4.747702122E0,-1.374990082E1,7.462726593E0
1.995927091E0,4.869806290E0,-1.380257320E1,7.419631004E0
1.997910480E0,4.932055473E0,-1.383369732E1,7.398083210E0
1.999924252E0,5.018246651E0,-1.389594650E1,7.343016624E0
2.001908256E0,5.051765442E0,-1.392228317E1,7.323863029E0
2.003922491E0,5.145139217E0,-1.396298409E1,7.271190643E0
2.005905572E0,5.216965675E0,-1.398453236E1,7.218518257E0
2.007919730E0,5.243301868E0,-1.401565647E1,7.192182064E0
2.009903657E0,5.276820660E0,-1.403959846E1,7.125144482E0
2.011918199E0,5.276820660E0,-1.403241634E1,7.036558628E0
2.013932665E0,5.269638062E0,-1.401565647E1,6.993463039E0
2.015916360E0,5.252878666E0,-1.399650288E1,6.904877663E0
2.017929902E0,5.224148273E0,-1.399171448E1,6.823474884E0
2.019913291E0,5.204994678E0,-1.397495556E1,6.768408298E0
2.021927757E0,5.171475887E0,-1.393425369E1,6.641515732E0
2.023912068E0,5.121197224E0,-1.388876438E1,6.517016888E0
2.025925842E0,5.116408825E0,-1.386482239E1,6.452373505E0
2.027908384E0,5.102043629E0,-1.381693840E1,6.320692539E0
2.029922850E0,5.092466831E0,-1.375229454E1,6.179434776E0
2.031907160E0,5.102043629E0,-1.371398735E1,6.117185116E0
2.033922164E0,5.142745018E0,-1.368765068E1,6.026205540E0
2.035905322E0,5.166687489E0,-1.367568016E1,6.002263546E0
2.037919172E0,5.245696068E0,-1.367328548E1,5.971138954E0
2.039933253E0,5.341464043E0,-1.363737297E1,5.944802761E0
2.041917026E0,5.389348030E0,-1.361103630E1,5.930437565E0
2.043930569E0,5.511452198E0,-1.359667110E1,5.911283970E0
2.045914881E0,5.640739441E0,-1.355357552E1,5.928043365E0
2.047928730E0,5.705382824E0,-1.352484512E1,5.956773758E0
2.049912426E0,5.837063789E0,-1.351287460E1,6.016628742E0
2.051926199E0,5.966350555E0,-1.349372101E1,6.076483727E0
2.053909357E0,6.028599739E0,-1.348893261E1,6.112396717E0
2.055924130E0,6.165069580E0,-1.347217274E1,6.174646378E0
2.057908365E0,6.289567947E0,-1.346738434E1,6.244078159E0
2.059922831E0,6.349422932E0,-1.347217274E1,6.268020153E0
2.061905373E0,6.447585106E0,-1.345301914E1,6.330269337E0
2.063919145E0,6.478709698E0,-1.340992355E1,6.373364925E0
2.065933996E0,6.564900875E0,-1.339076996E1,6.390124321E0
2.067917384E0,6.624756336E0,-1.335246277E1,6.404489517E0
2.069931773E0,6.646304131E0,-1.332373238E1,6.406883717E0
2.071915546E0,6.694188118E0,-1.324711800E1,6.426037312E0
2.073929627E0,6.732495308E0,-1.317768574E1,6.442796707E0
2.075914631E0,6.746860504E0,-1.313937855E1,6.447585106E0
2.077927173E0,6.768408298E0,-1.304839897E1,6.426037312E0
2.079910869E0,6.804321289E0,-1.297657299E1,6.368576527E0
2.081925950E0,6.833051682E0,-1.295981407E1,6.337451935E0
2.083909338E0,6.919242859E0,-1.292868900E1,6.282385349E0
2.085922265E0,7.003039837E0,-1.289038181E1,6.222530365E0
2.087906654E0,7.036558628E0,-1.287601662E1,6.200982571E0
2.089920735E0,7.125144482E0,-1.286404610E1,6.172252178E0
2.091904124E0,7.194576263E0,-1.284968090E1,6.131550789E0
2.093918051E0,7.220912457E0,-1.282813263E1,6.107608318E0
2.095933054E0,7.278373241E0,-1.279222012E1,6.066906929E0
2.097917135E0,7.287950039E0,-1.273715305E1,6.033388138E0
2.099931215E0,7.292738438E0,-1.268208599E1,5.983109951E0
2.101913989E0,7.256825447E0,-1.255998230E1,5.966350555E0
2.103928839E0,7.230489254E0,-1.249533844E1,5.978321552E0
2.105912151E0,7.139509678E0,-1.236605167E1,6.016628742E0
2.107926001E0,7.012616634E0,-1.220563984E1,6.045359135E0
2.109909697E0,6.936002254E0,-1.212663174E1,6.062118530E0
2.111924469E0,6.780379295E0,-1.194227791E1,6.076483727E0
2.113907319E0,6.631938934E0,-1.177468395E1,6.057330132E0
2.115923016E0,6.564900875E0,-1.169806957E1,6.059724331E0
2.117905481E0,6.445190907E0,-1.155681133E1,6.033388138E0
2.119919254E0,6.368576527E0,-1.145146656E1,6.002263546E0
2.121934335E0,6.339846134E0,-1.139879417E1,5.985504150E0
2.123917493E0,6.275202751E0,-1.128626728E1,5.959167957E0
2.125931882E0,6.272808552E0,-1.120246983E1,5.971138954E0
2.127915577E0,6.268020153E0,-1.117373943E1,5.973533154E0
2.129929197E0,6.260837555E0,-1.112106705E1,5.968744755E0
2.131913201E0,6.246472359E0,-1.109233665E1,5.959167957E0
2.133927282E0,6.205770969E0,-1.101093388E1,5.944802761E0
2.135911593E0,6.186617374E0,-1.094389629E1,5.975927353E0
2.137925213E0,6.167463779E0,-1.091277122E1,5.992686749E0
2.139908524E0,6.124367714E0,-1.084573364E1,6.057330132E0
2.141922374E0,6.095637321E0,-1.078348446E1,6.138733387E0
2.143906685E0,6.069301128E0,-1.073320580E1,6.181828976E0
2.145921458E0,6.004657745E0,-1.064222622E1,6.282385349E0
2.147904309E0,5.975927353E0,-1.052969933E1,6.426037312E0
2.149918159E0,5.959167957E0,-1.046505547E1,6.502651691E0
2.151932624E0,5.954379559E0,-1.032379818E1,6.684611320E0
2.153916321E0,5.990292549E0,-1.019690514E1,6.837840080E0
2.155931940E0,6.019022942E0,-1.013226128E1,6.912060261E0
2.157914790E0,6.095637321E0,-1.000297451E1,7.043741226E0
2.159928255E0,6.208165169E0,-9.900024414E0,7.149086475E0
2.161912951E0,6.270414352E0,-9.859322548E0,7.177816868E0
2.163926417E0,6.397306919E0,-9.804255486E0,7.201758862E0
2.165910113E0,6.457161903E0,-9.782708168E0,7.206547260E0
2.167923732E0,6.600813866E0,-9.732429504E0,7.196970463E0
2.169907736E0,6.698976517E0,-9.734824181E0,7.161057472E0
2.171921279E0,6.742072105E0,-9.722852707E0,7.137115479E0
2.173905283E0,6.804321289E0,-9.686940193E0,7.062894821E0
2.175921209E0,6.854599476E0,-9.607931137E0,6.959944248E0
2.177903444E0,6.866570473E0,-9.574412346E0,6.904877663E0
2.179917524E0,6.852205276E0,-9.473855972E0,6.823474884E0
2.181931452E0,6.818686485E0,-9.318233490E0,6.758831501E0
2.183916071E0,6.811503887E0,-9.246406555E0,6.710947514E0
2.185929613E0,6.763619900E0,-9.112331390E0,6.605602264E0
2.187912310E0,6.675034523E0,-8.925583839E0,6.526593685E0
2.189928006E0,6.631938934E0,-8.834604263E0,6.493074894E0
2.191910778E0,6.540958881E0,-8.647856712E0,6.438008308E0
2.193925859E0,6.485892296E0,-8.458714485E0,6.385335922E0
2.195909940E0,6.394912720E0,-8.360552788E0,6.356605530E0
2.197922867E0,6.279991150E0,-8.173804283E0,6.296750546E0
2.199907102E0,6.215347767E0,-8.092401505E0,6.268020153E0
2.201921337E0,6.081272125E0,-7.924807549E0,6.193799973E0
2.203904110E0,5.983109951E0,-7.754819393E0,6.136339188E0
2.205918191E0,5.928043365E0,-7.678205013E0,6.112396717E0
2.207932655E0,5.801150799E0,-7.505822182E0,6.042964935E0
2.209916044E0,5.659893036E0,-7.335834026E0,5.990292549E0
2.211929971E0,5.585672379E0,-7.271190643E0,5.966350555E0
2.213913898E0,5.446808815E0,-7.137115479E0,5.913678169E0
2.215929056E0,5.293580055E0,-6.988674641E0,5.861005783E0
2.217912137E0,5.221754074E0,-6.919242859E0,5.851428986E0
2.219926295E0,5.070919037E0,-6.811503887E0,5.839457989E0
2.221909376E0,4.910507679E0,-6.706159115E0,5.851428986E0
2.223924379E0,4.836287498E0,-6.648698330E0,5.872976780E0
2.225906921E0,4.711789131E0,-6.536170483E0,5.925649166E0
2.227921695E0,4.649539471E0,-6.464344501E0,5.956773758E0
2.229905314E0,4.517858505E0,-6.414066315E0,5.959167957E0
2.231919241E0,4.405331135E0,-6.327875137E0,5.971138954E0
2.233934553E0,4.352658749E0,-6.294356346E0,5.971138954E0
2.235917941E0,4.230554581E0,-6.227318764E0,5.973533154E0
2.237931253E0,4.139574528E0,-6.169857979E0,5.966350555E0
2.239915256E0,4.115632534E0,-6.136339188E0,5.978321552E0
2.241929414E0,4.046200752E0,-6.076483727E0,6.007051945E0
2.243913033E0,3.998316765E0,-6.002263546E0,6.054935932E0
2.245927191E0,3.983951569E0,-5.963956356E0,6.071695328E0
2.247910887E0,3.964797974E0,-5.937620163E0,6.129156113E0
2.249925353E0,3.921702385E0,-5.899312973E0,6.217741966E0
2.251908126E0,3.909731388E0,-5.870582581E0,6.256049156E0
2.253922669E0,3.897760391E0,-5.817910194E0,6.291962147E0
2.255906979E0,3.881000996E0,-5.772420406E0,6.318298340E0
2.257920830E0,3.869029999E0,-5.746084213E0,6.337451935E0
2.259904449E0,3.861847401E0,-5.664681435E0,6.392518520E0
2.261917684E0,3.852270603E0,-5.588066578E0,6.426037312E0
2.263933380E0,3.816357613E0,-5.547365189E0,6.490680695E0
2.265916538E0,3.768473387E0,-5.444414616E0,6.507440090E0
2.267929388E0,3.744531393E0,-5.384559631E0,6.502651691E0
2.269914084E0,3.703830004E0,-5.248090267E0,6.497863293E0
2.271928241E0,3.636792421E0,-5.070919037E0,6.531382084E0
2.273912245E0,3.612850428E0,-4.999093056E0,6.557718277E0
2.275926711E0,3.531447411E0,-4.845864296E0,6.603208065E0
2.277909792E0,3.433285236E0,-4.680664539E0,6.591237068E0
2.279924180E0,3.387795448E0,-4.606443882E0,6.564900875E0
2.281907030E0,3.296815634E0,-4.460397720E0,6.512228489E0
2.283921804E0,3.201047659E0,-4.333505154E0,6.440402508E0
2.285905115E0,3.157952070E0,-4.273650169E0,6.394912720E0
2.287919657E0,3.052607059E0,-4.161122322E0,6.272808552E0
2.289933738E0,2.959233284E0,-4.048594952E0,6.167463779E0
2.291916896E0,2.896984100E0,-4.012681961E0,6.102819920E0
2.293931361E0,2.762908697E0,-3.960009575E0,5.971138954E0
2.295915288E0,2.695871115E0,-3.936067581E0,5.894524574E0
2.297928831E0,2.557007313E0,-3.878606796E0,5.734113216E0
2.299912835E0,2.379836559E0,-3.821146011E0,5.580883980E0
2.301925531E0,2.303221941E0,-3.794809580E0,5.509057999E0
2.303909534E0,2.142810583E0,-3.744531393E0,5.386953831E0
2.305924615E0,1.984793186E0,-3.699041605E0,5.291185856E0
2.307907696E0,1.898601890E0,-3.675099611E0,5.245696068E0
2.309922469E0,1.754949808E0,-3.603273630E0,5.183446884E0
2.311906088E0,1.596932530E0,-3.531447411E0,5.135562420E0
2.313920246E0,1.520318031E0,-3.485957623E0,5.099649429E0
2.315935712E0,1.388636947E0,-3.394978046E0,5.008669853E0
2.317917793E0,1.268926859E0,-3.280056238E0,4.917690277E0
2.319931642E0,1.216254473E0,-3.210624456E0,4.860229492E0
2.321916646E0,1.134851575E0,-3.066972494E0,4.762067318E0
2.323930188E0,1.051054597E0,-2.932897091E0,4.656722069E0
2.325913885E0,1.024718285E0,-2.868253708E0,4.599261284E0
2.327928658E0,9.481038451E-1,-2.693476915E0,4.486733913E0
2.329911662E0,9.313444495E-1,-2.607285738E0,4.431667328E0
2.331925820E0,8.858546019E-1,-2.446874142E0,4.345476151E0
2.333909824E0,8.738836050E-1,-2.288856745E0,4.261679173E0
2.335924288E0,8.762778044E-1,-2.221819162E0,4.211400986E0
2.337906754E0,8.834604025E-1,-2.078166962E0,4.079719543E0
2.339921219E0,9.097966552E-1,-1.924938202E0,3.924096584E0
2.341905223E0,9.241618514E-1,-1.838746905E0,3.835511208E0
2.343919766E0,9.361328483E-1,-1.704671621E0,3.632004023E0
2.345933308E0,9.504981041E-1,-1.592144132E0,3.421314240E0
2.347916005E0,9.624691010E-1,-1.525106430E0,3.308786631E0
2.349930778E0,9.576807022E-1,-1.386242747E0,3.064578056E0
2.351914550E0,9.337386489E-1,-1.261744261E0,2.834734917E0
2.353928631E0,9.193734527E-1,-1.189918280E0,2.741360903E0
2.355913635E0,9.050082564E-1,-1.065419793E0,2.525882721E0
2.357926178E0,8.906430602E-1,-9.169792533E-1,2.298433542E0
2.359910489E0,8.595184088E-1,-8.355764151E-1,2.173935175E0
2.361925570E0,8.236053586E-1,-6.775590777E-1,1.917755604E0
2.363908651E0,8.092401624E-1,-5.961562395E-1,1.793257117E0
2.365922271E0,7.972691655E-1,-4.261679053E-1,1.599326730E0
2.367905658E0,7.685387731E-1,-2.753331959E-1,1.436521053E0
2.369920124E0,7.493851185E-1,-1.867477298E-1,1.352723956E0
2.371903435E0,7.110779285E-1,-2.873042040E-2,1.185129881E0
2.373917978E0,6.871358752E-1,1.364694983E-1,1.007958889E0
2.375933597E0,6.895300746E-1,2.106897533E-1,9.193734527E-1
2.377915447E0,6.631938815E-1,3.375824392E-1,7.326257229E-1
2.379929990E0,6.488286853E-1,4.548983276E-1,5.386953950E-1
2.381913071E0,6.464344859E-1,5.075707436E-1,4.429273009E-1
2.383926920E0,6.248866320E-1,6.177040339E-1,2.466027737E-1
2.385911462E0,6.009446383E-1,6.943184733E-1,6.224924326E-2
2.387925005E0,5.961562395E-1,7.445967197E-1,-3.112462163E-2
2.389909701E0,5.817909837E-1,8.236053586E-1,-1.963245422E-1
2.391923782E0,5.746083856E-1,9.002198577E-1,-2.801215947E-1
2.393906863E0,5.434837937E-1,9.289502501E-1,-4.477157295E-1
2.395922252E0,4.955997467E-1,1.019929886E0,-5.961562395E-1
2.397905333E0,4.764461517E-1,1.072602391E0,-6.703764796E-1
2.399919489E0,4.429273009E-1,1.175553083E0,-7.900865674E-1
2.401933647E0,4.261679053E-1,1.252167463E0,-9.337386489E-1
2.403917036E0,4.285621047E-1,1.292868972E0,-1.010353088E0
2.405931271E0,4.189853072E-1,1.381454349E0,-1.165976286E0
2.407915275E0,4.333505034E-1,1.493981838E0,-1.292868972E0
2.409929048E0,4.477157295E-1,1.549048543E0,-1.345541358E0
2.411912514E0,4.932055473E-1,1.661576033E0,-1.458068848E0
2.413926594E0,5.554547906E-1,1.769315004E0,-1.572990537E0
2.415911290E0,6.033388376E-1,1.829170108E0,-1.625662923E0
2.417924217E0,6.991068721E-1,1.987187386E0,-1.699883223E0
2.419907913E0,7.852981687E-1,2.128445387E0,-1.752555609E0
2.421921686E0,8.547300100E-1,2.200271368E0,-1.754949808E0
2.423906613E0,9.457096457E-1,2.348711967E0,-1.747767210E0
2.425920848E0,9.888052940E-1,2.475604534E0,-1.757344007E0
2.427903006E0,1.003170490E0,2.559401512E0,-1.764526606E0
2.429917779E0,1.003170490E0,2.710236311E0,-1.742978811E0
2.431932782E0,9.983820915E-1,2.794033289E0,-1.726219416E0
2.433915632E0,9.816226959E-1,2.980781078E0,-1.680729628E0
2.435930713E0,9.433154464E-1,3.119644880E0,-1.601720929E0
2.437913102E0,9.074024558E-1,3.217807055E0,-1.565807939E0
2.439927875E0,8.140285611E-1,3.387795448E0,-1.472434044E0
2.441911956E0,7.182605267E-1,3.541024208E0,-1.379060149E0
2.443926114E0,6.607996821E-1,3.622427225E0,-1.328781962E0
2.445909426E0,5.075707436E-1,3.737348795E0,-1.223437071E0
2.447923044E0,3.519476354E-1,3.845088005E0,-1.091755986E0
2.449907279E0,2.896983922E-1,3.900154591E0,-1.012747288E0
2.451921744E0,1.508347094E-1,3.962403774E0,-8.427590132E-1
2.453904287E0,7.422025502E-2,3.986345768E0,-6.679822803E-1
2.455919291E0,-2.154781483E-2,3.991134167E0,-5.770025849E-1
2.457933833E0,-1.101332754E-1,3.998316765E0,-4.070142806E-1
2.459916837E0,-1.508347094E-1,3.979163170E0,-3.208230138E-1
2.461930149E0,-2.274491638E-1,3.914519787E0,-1.484405100E-1
2.463914998E0,-2.705447972E-1,3.837905407E0,3.351882473E-2
2.465928310E0,-2.944868207E-1,3.790021181E0,1.244984865E-1
2.467911929E0,-3.615244627E-1,3.679888010E0,3.088520169E-1
2.469926472E0,-4.141969085E-1,3.569754839E0,5.171475410E-1
2.471910168E0,-4.429273009E-1,3.519476414E0,6.392518282E-1
2.473924326E0,-5.147533417E-1,3.406949043E0,8.690952063E-1
2.475909253E0,-5.865794420E-1,3.313575268E0,1.113303781E0
2.477922719E0,-6.320692301E-1,3.287238836E0,1.230619669E0
2.479905260E0,-7.469909191E-1,3.227383852E0,1.455674648E0
2.481920264E0,-8.451532125E-1,3.167528868E0,1.663970232E0
2.483934499E0,-8.930372596E-1,3.157952070E0,1.764526606E0
2.485918503E0,-1.017535686E0,3.148375273E0,1.970427990E0
2.487931968E0,-1.144428372E0,3.174711466E0,2.183511972E0
2.489915357E0,-1.194706678E0,3.189076662E0,2.296039343E0
2.491929592E0,-1.283292055E0,3.229778051E0,2.504334927E0
2.493912903E0,-1.326387763E0,3.248931646E0,2.595314741E0
2.495929214E0,-1.419761658E0,3.303998232E0,2.779668093E0
2.497911141E0,-1.527500629E0,3.349488258E0,2.944868088E0
2.499925222E0,-1.568202138E0,3.375824451E0,3.033453465E0
2.501908380E0,-1.663970232E0,3.430891037E0,3.184288263E0
2.503923769E0,-1.742978811E0,3.483563423E0,3.311181068E0
2.505906773E0,-1.774103403E0,3.500322819E0,3.380612850E0
2.507920315E0,-1.831564307E0,3.514688015E0,3.493140221E0
2.509935088E0,-1.903390408E0,3.526659012E0,3.576937437E0
2.511918553E0,-1.941697598E0,3.541024208E0,3.624821424E0
2.513933326E0,-1.994369984E0,3.505111217E0,3.706224203E0
2.515917869E0,-2.025494576E0,3.478775024E0,3.780444384E0
2.517930488E0,-2.054224968E0,3.459621429E0,3.828328609E0
2.519914800E0,-2.073378563E0,3.390189648E0,3.928884983E0
2.521928958E0,-2.068590164E0,3.311181068E0,4.048594952E0
2.523912654E0,-2.078166962E0,3.260902643E0,4.115632534E0
2.525926273E0,-2.066195965E0,3.157952070E0,4.244919777E0
2.527910199E0,-2.054224968E0,3.090914488E0,4.304774761E0
2.529923819E0,-2.013523579E0,2.973598480E0,4.438849926E0
2.531907746E0,-1.975216389E0,2.853888512E0,4.587290287E0
2.533921904E0,-1.953668594E0,2.786850691E0,4.651933670E0
2.535906292E0,-1.896207690E0,2.664746523E0,4.788403511E0
2.537920065E0,-1.807622313E0,2.561795712E0,4.951209068E0
2.539934223E0,-1.759738207E0,2.509123325E0,5.037400246E0
2.541917304E0,-1.671152830E0,2.413355350E0,5.200206280E0
2.543931769E0,-1.556231141E0,2.329558372E0,5.346252441E0
2.545916081E0,-1.489193439E0,2.296039343E0,5.410895824E0
2.547929700E0,-1.374271750E0,2.233790159E0,5.530605793E0
2.549913089E0,-1.240196466E0,2.193088770E0,5.643133640E0
2.551927554E0,-1.182735682E0,2.181117773E0,5.705382824E0
2.553910635E0,-1.084573388E0,2.161964178E0,5.829881191E0
2.555925716E0,-1.034295082E0,2.121262789E0,5.880159378E0
2.557909412E0,-9.265560508E-1,2.099714994E0,5.997475147E0
2.559922338E0,-8.331822157E-1,2.090138197E0,6.083666325E0
2.561906958E0,-7.805097699E-1,2.075772762E0,6.117185116E0
2.563921116E0,-6.991068721E-1,2.070984364E0,6.205770969E0
2.565903812E0,-6.320692301E-1,2.030282974E0,6.282385349E0
2.567918585E0,-5.817909837E-1,2.011129379E0,6.325480938E0
2.569933358E0,-5.123591423E-1,1.996764183E0,6.399701118E0
2.571916208E0,-4.740519226E-1,1.980004787E0,6.442796707E0
2.573930597E0,-4.501099288E-1,1.984793186E0,6.464344501E0
2.575914600E0,-4.070142806E-1,1.968033791E0,6.531382084E0
2.577928835E0,-3.399766386E-1,1.956062794E0,6.631938934E0
2.579912147E0,-3.112462163E-1,1.929726601E0,6.670246124E0
2.581926381E0,-2.777273953E-1,1.877054095E0,6.722918510E0
2.583910616E0,-2.394201756E-1,1.836352706E0,6.751648903E0
2.585924466E0,-2.298433632E-1,1.805228114E0,6.766014099E0
2.587907316E0,-1.987187415E-1,1.750161409E0,6.811503887E0
2.589921782E0,-1.771709323E-1,1.723825216E0,6.825869083E0
2.591905093E0,-1.604115069E-1,1.680729628E0,6.873753071E0
2.593919327E0,-1.316810995E-1,1.632845521E0,6.897695065E0
2.595934947E0,-1.268926859E-1,1.601720929E0,6.912060261E0
2.597917489E0,-1.173158810E-1,1.561019540E0,6.926425457E0
2.599932263E0,-1.244984865E-1,1.532289028E0,6.926425457E0
2.601915882E0,-1.173158810E-1,1.522712231E0,6.924031258E0
2.603928578E0,-1.077390760E-1,1.477222443E0,6.904877663E0
2.605913121E0,-1.197100878E-1,1.453280449E0,6.866570473E0
2.607928201E0,-1.173158810E-1,1.453280449E0,6.864176273E0
2.609910974E0,-1.125274822E-1,1.455674648E0,6.854599476E0
2.611924901E0,-1.101332754E-1,1.443703651E0,6.845022678E0
2.613908520E0,-1.221042871E-1,1.441309452E0,6.840234280E0
2.615923601E0,-1.484405100E-1,1.450886250E0,6.842628479E0
2.617906144E0,-1.699883193E-1,1.446097851E0,6.868964672E0
2.619920532E0,-2.059013397E-1,1.438915253E0,6.880935669E0
2.621934690E0,-2.274491638E-1,1.434126854E0,6.926425457E0
2.623918386E0,-2.418143749E-1,1.436521053E0,6.947973251E0
2.625932620E0,-2.705447972E-1,1.441309452E0,6.983886242E0
2.627916009E0,-2.801215947E-1,1.443703651E0,7.041347027E0
2.629930090E0,-2.849099934E-1,1.422155857E0,7.072471619E0
2.631914094E0,-2.825157940E-1,1.391031146E0,7.127538681E0
2.633927406E0,-2.705447972E-1,1.381454349E0,7.199364662E0
2.635912948E0,-2.537853718E-1,1.371877551E0,7.242460251E0
2.637926414E0,-2.537853718E-1,1.343147159E0,7.345410824E0
2.639909570E0,-2.394201756E-1,1.309628367E0,7.436390400E0
2.641924574E0,-2.154781520E-1,1.288080573E0,7.477091789E0
2.643907732E0,-1.771709323E-1,1.242590666E0,7.577648163E0
2.645921813E0,-1.484405100E-1,1.223437071E0,7.647080421E0
2.647905202E0,-1.388636976E-1,1.209071875E0,7.687781811E0
2.649919437E0,-9.337386489E-2,1.192312479E0,7.793126583E0
2.651933825E0,-4.788403213E-2,1.165976286E0,7.900865555E0
2.653917522E0,-2.633621916E-2,1.156399369E0,7.943961143E0
2.655932063E0,2.873042040E-2,1.110909581E0,8.013393402E0
2.657915375E0,5.746084079E-2,1.091755986E0,8.044517517E0
2.659929533E0,9.816227108E-2,1.070208192E0,8.111555099E0
2.661912613E0,1.364694983E-1,1.034295082E0,8.185775757E0
2.663927156E0,1.604115069E-1,1.007958889E0,8.221688271E0
2.665911698E0,1.963245422E-1,9.481038451E-1,8.262390137E0
2.667924010E0,2.394201756E-1,9.026140571E-1,8.312667847E0
2.669908937E0,2.537853718E-1,8.786720037E-1,8.331821442E0
2.671923479E0,2.466027737E-1,8.116343617E-1,8.365341187E0
2.673906560E0,2.298433632E-1,7.422025204E-1,8.386888504E0
2.675921256E0,2.202665508E-1,6.991068721E-1,8.386888504E0
2.677904337E0,1.987187415E-1,6.296750307E-1,8.365341187E0
2.679918264E0,1.819593310E-1,5.746083856E-1,8.317456245E0
2.681933345E0,1.651999205E-1,5.434837937E-1,8.293514252E0
2.683916349E0,1.149216816E-1,4.812345505E-1,8.255207062E0
2.685930199E0,9.097966552E-2,4.213795066E-1,8.209717751E0
2.687914510E0,5.506663769E-2,3.926490843E-1,8.190564156E0
2.689928129E0,3.351882473E-2,3.088520169E-1,8.128314972E0
2.691911441E0,2.154781483E-2,2.777273953E-1,8.101978302E0
2.693925676E0,4.788403399E-3,2.370259613E-1,8.113949776E0
2.695910833E0,-1.915361360E-2,1.771709323E-1,8.145073891E0
2.697923837E0,-3.591302410E-2,1.532289088E-1,8.166622162E0
2.699906918E0,-5.267243832E-2,1.244984865E-1,8.207323074E0
2.701921076E0,-5.506663769E-2,1.053448766E-1,8.236053467E0
2.703906002E0,-5.027823523E-2,9.097966552E-2,8.248024940E0
2.705919237E0,-3.591302410E-2,9.576806426E-2,8.245630264E0
2.707933933E0,-2.154781483E-2,1.268926859E-1,8.252813339E0
2.709917707E0,-9.576806799E-3,1.292868853E-1,8.257601738E0
2.711931480E0,9.576806799E-3,1.412578970E-1,8.255207062E0
2.713915176E0,3.112462163E-2,1.628057212E-1,8.240841866E0
2.715930334E0,5.267243832E-2,1.867477298E-1,8.250418663E0
2.717912723E0,9.576806426E-2,1.891419291E-1,8.293514252E0
2.719926956E0,1.077390760E-1,2.202665508E-1,8.322244644E0
2.721911268E0,1.221042871E-1,2.394201756E-1,8.408436775E0
2.723924811E0,1.628057212E-1,2.489969730E-1,8.485051155E0
2.725908738E0,1.843535304E-1,2.537853718E-1,8.516175270E0
2.727923203E0,2.322375625E-1,2.801215947E-1,8.576030731E0
2.729906284E0,2.729389966E-1,2.849099934E-1,8.631096840E0
2.731920211E0,3.088520169E-1,2.753331959E-1,8.662221909E0
2.733934677E0,3.830722570E-1,2.633621991E-1,8.695740700E0
2.735918680E0,4.429273009E-1,2.298433632E-1,8.693346024E0
2.737931838E0,4.740519226E-1,2.154781520E-1,8.688557625E0
2.739916149E0,5.530605912E-1,1.939303428E-1,8.683769226E0
2.741929999E0,6.368576288E-1,1.268926859E-1,8.688557625E0
2.743914696E0,6.823474765E-1,9.576806426E-2,8.686163902E0
2.745928546E0,7.445967197E-1,4.309562966E-2,8.667010307E0
2.747911011E0,8.212111592E-1,2.394201700E-3,8.655038834E0
2.749925477E0,8.547300100E-1,-4.070143029E-2,8.655038834E0
2.751909403E0,9.361328483E-1,-1.125274822E-1,8.647856712E0
2.753924176E0,9.792284966E-1,-1.412578970E-1,8.638279915E0
2.755908257E0,1.051054597E0,-2.011129409E-1,8.626308441E0
2.757922030E0,1.098938584E0,-2.777273953E-1,8.619126320E0
2.759904573E0,1.134851575E0,-3.303998411E-1,8.616731644E0
2.761919962E0,1.180341482E0,-4.118026793E-1,8.626308441E0
2.763933427E0,1.206677675E0,-4.884171486E-1,8.635885239E0
2.765916585E0,1.225831270E0,-5.243301988E-1,8.647856712E0
2.767931050E0,1.237802267E0,-6.177040339E-1,8.683769226E0
2.769914977E0,1.233013868E0,-7.182605267E-1,8.712499619E0
2.771929211E0,1.237802267E0,-7.637503147E-1,8.731653214E0
2.773912215E0,1.244984865E0,-8.571242094E-1,8.791508675E0
2.775927604E0,1.233013868E0,-9.504981041E-1,8.872911453E0
2.777911300E0,1.230619669E0,-9.911994934E-1,8.913613319E0
2.779924920E0,1.216254473E0,-1.072602391E0,9.009381294E0
2.781907924E0,1.213860273E0,-1.127668977E0,9.081207275E0
2.783923081E0,1.206677675E0,-1.163581967E0,9.117119789E0
2.785905777E0,1.197100878E0,-1.204283476E0,9.193734169E0
2.787919704E0,1.199495077E0,-1.223437071E0,9.248801231E0
2.789934169E0,1.225831270E0,-1.244984865E0,9.358934402E0
2.791918712E0,1.233013868E0,-1.256955862E0,9.449913979E0
2.793932254E0,1.230619669E0,-1.261744261E0,9.483432770E0
2.795917797E0,1.264138460E0,-1.259350061E0,9.548076630E0
2.797930109E0,1.304839969E0,-1.252167463E0,9.624691010E0
2.799913804E0,1.338358760E0,-1.240196466E0,9.655815125E0
2.801927654E0,1.374271750E0,-1.201889277E0,9.715670586E0
2.803912581E0,1.431732655E0,-1.151610970E0,9.765948296E0
2.805925508E0,1.462857246E0,-1.125274777E0,9.780313492E0
2.807908974E0,1.505952835E0,-1.098938584E0,9.797073364E0
2.809923670E0,1.537077546E0,-1.077390790E0,9.773131371E0
2.811907136E0,1.553836942E0,-1.058237195E0,9.744400978E0
2.813920986E0,1.568202138E0,-1.010353088E0,9.715670586E0
2.815935758E0,1.577778935E0,-9.935936928E-1,9.674968719E0
2.817919070E0,1.594538331E0,-9.792284966E-1,9.660603523E0
2.819933228E0,1.608903527E0,-9.576807022E-1,9.636661530E0
2.821916693E0,1.608903527E0,-9.600749016E-1,9.619902611E0
2.823931697E0,1.584961534E0,-9.481038451E-1,9.572018623E0
2.825915163E0,1.584961534E0,-9.385270476E-1,9.519346237E0
2.827928320E0,1.570596337E0,-9.433154464E-1,9.490615845E0
2.829912940E0,1.563413739E0,-9.552865028E-1,9.433155060E0
2.831926558E0,1.551442742E0,-9.840168953E-1,9.418789864E0
2.833910255E0,1.541865945E0,-1.003170490E0,9.414001465E0
2.835925566E0,1.525106430E0,-1.060631394E0,9.387664795E0
2.837908416E0,1.529894829E0,-1.122880578E0,9.366117477E0
2.839923113E0,1.532289028E0,-1.156399369E0,9.351752281E0
2.841906501E0,1.544260144E0,-1.252167463E0,9.334992409E0
2.843920044E0,1.568202138E0,-1.347935557E0,9.318233490E0
2.845933663E0,1.582567334E0,-1.395819545E0,9.299078941E0
2.847918205E0,1.606509328E0,-1.486799240E0,9.284713745E0
2.849932670E0,1.618480325E0,-1.601720929E0,9.289502144E0
2.851915213E0,1.640028119E0,-1.659181833E0,9.301473618E0
2.853929909E0,1.704671621E0,-1.802833915E0,9.325415611E0
2.855914836E0,1.742978811E0,-1.862688899E0,9.344569206E0
2.857928686E0,1.790862918E0,-1.982398987E0,9.370905876E0
2.859911536E0,1.833958507E0,-2.109291792E0,9.404424667E0
2.861924771E0,1.869871497E0,-2.157175779E0,9.425971985E0
2.863910005E0,1.922544003E0,-2.252943754E0,9.449913979E0
2.865922932E0,1.951274395E0,-2.358288765E0,9.483432770E0
2.867907167E0,1.963245392E0,-2.408566952E0,9.500192642E0
2.869921017E0,2.001552582E0,-2.489969730E0,9.516951561E0
2.871935790E0,2.061407566E0,-2.571372509E0,9.540893555E0
2.873918640E0,2.080561161E0,-2.592920542E0,9.545681953E0
2.875934337E0,2.109291792E0,-2.609679937E0,9.543288231E0
2.877917110E0,2.138022184E0,-2.628833532E0,9.519346237E0
2.879930882E0,2.130839586E0,-2.628833532E0,9.500192642E0
2.881914963E0,2.138022184E0,-2.621650934E0,9.466673851E0
2.883928736E0,2.142810583E0,-2.583343744E0,9.452308655E0
2.885912125E0,2.154781580E0,-2.564189911E0,9.433155060E0
2.887926052E0,2.159569979E0,-2.549824715E0,9.404424667E0
2.889910671E0,2.157175779E0,-2.518700123E0,9.397241592E0
2.891924214E0,2.154781580E0,-2.451662540E0,9.414001465E0
2.893907295E0,2.142810583E0,-2.387019157E0,9.423578262E0
2.895923606E0,2.126051188E0,-2.358288765E0,9.440337181E0
2.897905994E0,2.116474390E0,-2.298433542E0,9.425971985E0
2.899920229E0,2.114080191E0,-2.243366957E0,9.421183586E0
2.901933694E0,2.102109194E0,-2.224213362E0,9.397241592E0
2.903918391E0,2.094926596E0,-2.229001760E0,9.375694275E0
2.905932472E0,2.109291792E0,-2.226607561E0,9.356540680E0
2.907915860E0,2.116474390E0,-2.219424963E0,9.342175484E0
2.909930326E0,2.121262789E0,-2.231395960E0,9.327810287E0
2.911913483E0,2.154781580E0,-2.272097349E0,9.313444138E0
2.913927564E0,2.176329374E0,-2.284068346E0,9.306262016E0
2.915912491E0,2.217030764E0,-2.367865562E0,9.334992409E0
2.917924879E0,2.226607561E0,-2.401384354E0,9.349357605E0
2.919909729E0,2.291250944E0,-2.487575531E0,9.370905876E0
2.921924195E0,2.384624958E0,-2.590526342E0,9.404424667E0
2.923906968E0,2.420537949E0,-2.645592928E0,9.411606789E0
2.925921126E0,2.501940727E0,-2.765302896E0,9.370905876E0
2.927935668E0,2.595314741E0,-2.908955097E0,9.356540680E0
2.929918441E0,2.638410330E0,-2.985569477E0,9.361329079E0
2.931933445E0,2.741360903E0,-3.143586874E0,9.366117477E0
2.933916603E0,2.825158119E0,-3.292027235E0,9.370905876E0
2.935932222E0,2.873042107E0,-3.371036053E0,9.382876396E0
2.937914380E0,2.978386879E0,-3.526659012E0,9.392453194E0
2.939927999E0,3.057395458E0,-3.643975019E0,9.382876396E0
2.941912003E0,3.100491285E0,-3.696647406E0,9.370905876E0
2.943927391E0,3.167528868E0,-3.806780815E0,9.358934402E0
2.945910780E0,3.208230257E0,-3.881000996E0,9.356540680E0
2.947924245E0,3.272873640E0,-3.900154591E0,9.356540680E0
2.949908634E0,3.339911461E0,-3.914519787E0,9.354146004E0
2.951921253E0,3.385401249E0,-3.943250179E0,9.342175484E0
2.953936872E0,3.462015629E0,-3.952826977E0,9.332598686E0
2.955920646E0,3.512293816E0,-3.919308186E0,9.323021889E0
2.957934496E0,3.541024208E0,-3.916913986E0,9.311050415E0
2.959917884E0,3.579331636E0,-3.852270603E0,9.284713745E0
2.961933195E0,3.615244627E0,-3.768473387E0,9.270348549E0
2.963915122E0,3.634398222E0,-3.725377798E0,9.265560150E0
2.965929588E0,3.677493811E0,-3.634398222E0,9.272743225E0
2.967914130E0,3.711012602E0,-3.531447411E0,9.260771751E0
2.969928057E0,3.713406801E0,-3.478775024E0,9.239224434E0
2.971910831E0,3.737348795E0,-3.361459255E0,9.208099365E0
2.973925219E0,3.756502390E0,-3.239354849E0,9.160215378E0
2.975909838E0,3.761290789E0,-3.201047659E0,9.119514465E0
2.977923072E0,3.785232782E0,-3.126827478E0,9.026140213E0
2.979906538E0,3.790021181E0,-3.057395458E0,8.987833023E0
2.981920311E0,3.799597979E0,-3.031059265E0,8.880094528E0
2.983934854E0,3.794809580E0,-3.007117271E0,8.803479195E0
2.985919396E0,3.790021181E0,-3.007117271E0,8.777143478E0
2.987932092E0,3.780444384E0,-3.035847664E0,8.734047890E0
2.989916635E0,3.763684988E0,-3.098097086E0,8.690952301E0
2.991930253E0,3.754108191E0,-3.119644880E0,8.657433510E0
2.993915103E0,3.711012602E0,-3.217807055E0,8.602366447E0
2.995929338E0,3.677493811E0,-3.323152065E0,8.552088737E0
2.997912650E0,3.663128614E0,-3.375824451E0,8.520963669E0
2.999926577E0,3.643975019E0,-3.514688015E0,8.475474358E0
3.001911196E0,3.620033026E0,-3.629609823E0,8.456320763E0
3.003924354E0,3.610456228E0,-3.699041605E0,8.439560890E0
3.005907743E0,3.596091032E0,-3.811569214E0,8.422801971E0
3.007922207E0,3.593696833E0,-3.948038578E0,8.425195694E0
3.009905904E0,3.608062029E0,-4.010287762E0,8.434772491E0
3.011920138E0,3.605667830E0,-4.098873138E0,8.451532364E0
3.013933912E0,3.612850428E0,-4.230554581E0,8.480262756E0
3.015917916E0,3.636792421E0,-4.307168961E0,8.497021675E0
3.017931535E0,3.670311213E0,-4.429273129E0,8.556877136E0
3.019915154E0,3.701435804E0,-4.489128113E0,8.588001251E0
3.021929620E0,3.763684988E0,-4.642356873E0,8.635885239E0
3.023912700E0,3.813963413E0,-4.786009312E0,8.688557625E0
3.025927473E0,3.854664803E0,-4.848258495E0,8.712499619E0
3.027910862E0,3.928884983E0,-4.944026470E0,8.748413086E0
3.029925327E0,4.010287762E0,-5.032611847E0,8.779537201E0
3.031908408E0,4.048594952E0,-5.068524837E0,8.791508675E0
3.033922643E0,4.127603531E0,-5.106832027E0,8.772355080E0
3.035907801E0,4.225766182E0,-5.135562420E0,8.755595207E0
3.037920420E0,4.266467571E0,-5.125985622E0,8.743624687E0
3.039935577E0,4.338293552E0,-5.102043629E0,8.707711220E0
3.041919581E0,4.412513733E0,-5.049371243E0,8.667010307E0
3.043932739E0,4.453215122E0,-5.008669853E0,8.640673637E0
3.045915820E0,4.520252705E0,-4.922478676E0,8.592789650E0
3.047930285E0,4.565742493E0,-4.860229492E0,8.578424454E0
3.049913751E0,4.647145271E0,-4.829104900E0,8.523358345E0
3.051927909E0,4.716577530E0,-4.752490520E0,8.461109161E0
3.053912528E0,4.740519524E0,-4.716577530E0,8.434772491E0
3.055926300E0,4.783615112E0,-4.635174274E0,8.377311707E0
3.057909997E0,4.819528103E0,-4.589684486E0,8.310274124E0
3.059924155E0,4.831499100E0,-4.572925091E0,8.286332130E0
3.061907005E0,4.857835293E0,-4.515464306E0,8.209717751E0
3.063922009E0,4.874594688E0,-4.467580318E0,8.111555099E0
3.065905705E0,4.872200489E0,-4.448426723E0,8.056488991E0
3.067918401E0,4.845864296E0,-4.429273129E0,7.960720539E0
3.069934098E0,4.829104900E0,-4.424484730E0,7.848193169E0
3.071917716E0,4.819528103E0,-4.419696331E0,7.807491779E0
3.073931336E0,4.788403511E0,-4.410119534E0,7.728483200E0
3.075916493E0,4.747702122E0,-4.393360138E0,7.630321026E0
3.077928805E0,4.709394932E0,-4.381389141E0,7.584830761E0
3.079912809E0,4.656722069E0,-4.378994942E0,7.505822182E0
3.081927044E0,4.625597477E0,-4.383783340E0,7.474697590E0
3.083911048E0,4.551377296E0,-4.376600742E0,7.412448406E0
3.085925206E0,4.491522312E0,-4.371812344E0,7.350199223E0
3.087908516E0,4.453215122E0,-4.378994942E0,7.328651428E0
3.089922136E0,4.371812344E0,-4.398148537E0,7.304709435E0
3.091906678E0,4.309563160E0,-4.441244125E0,7.302315235E0
3.093920836E0,4.271255970E0,-4.458003521E0,7.309497833E0
3.095935379E0,4.197035789E0,-4.532223701E0,7.331045628E0
3.097918690E0,4.120420933E0,-4.637568474E0,7.362170219E0
3.099932848E0,4.084507942E0,-4.697423935E0,7.381323814E0
3.101915698E0,4.022258759E0,-4.850652695E0,7.400477409E0
3.103930471E0,3.981557369E0,-5.006275654E0,7.419631004E0
3.105914475E0,3.962403774E0,-5.085284233E0,7.431602001E0
3.107928017E0,3.948038578E0,-5.262455463E0,7.448361397E0
3.109912636E0,3.938461781E0,-5.379771233E0,7.469909191E0
3.111925794E0,3.945644379E0,-5.453991413E0,7.479485989E0
3.113909875E0,3.955221176E0,-5.547365189E0,7.501033783E0
3.115924648E0,3.955221176E0,-5.583278179E0,7.505822182E0
3.117908037E0,4.003105164E0,-5.652710438E0,7.503427982E0
3.119922117E0,4.039018154E0,-5.688623428E0,7.493851185E0
3.121906198E0,4.065354347E0,-5.693411827E0,7.489062786E0
3.123919433E0,4.151545525E0,-5.695806026E0,7.472303391E0
3.125933206E0,4.232948780E0,-5.683835030E0,7.457938194E0
3.127917210E0,4.273650169E0,-5.671864033E0,7.460332394E0
3.129931368E0,4.390965939E0,-5.664681435E0,7.455543995E0
3.131915449E0,4.510675907E0,-5.633556366E0,7.426813602E0
3.133928914E0,4.568136692E0,-5.619191170E0,7.405265808E0
3.135914763E0,4.675876141E0,-5.607220173E0,7.371747017E0
3.137926844E0,4.776432514E0,-5.583278179E0,7.319074631E0
3.139910771E0,4.829104900E0,-5.573701382E0,7.283161640E0
3.141924391E0,4.896142483E0,-5.561730385E0,7.201758862E0
3.143909318E0,4.932055473E0,-5.528211594E0,7.146692276E0
3.145923399E0,4.994304657E0,-5.506663799E0,7.041347027E0
3.147906249E0,5.058948040E0,-5.461174011E0,6.952761650E0
3.149920330E0,5.087678432E0,-5.442020416E0,6.928819656E0
3.151934256E0,5.137956619E0,-5.382165432E0,6.892906666E0
3.153917875E0,5.173870087E0,-5.339069843E0,6.837840080E0
3.155932956E0,5.188235283E0,-5.310339451E0,6.813898087E0
3.157915806E0,5.221754074E0,-5.250484467E0,6.763619900E0
3.159930272E0,5.248090267E0,-5.188235283E0,6.703764915E0
3.161914276E0,5.274426460E0,-5.154716492E0,6.691793919E0
3.163928665E0,5.319916248E0,-5.106832027E0,6.682217121E0
3.165911746E0,5.370194435E0,-5.046977043E0,6.663063526E0
3.167926287E0,5.391742229E0,-5.025429249E0,6.655880928E0
3.169909599E0,5.413290024E0,-5.013458252E0,6.641515732E0
3.171923833E0,5.456385612E0,-4.979939461E0,6.651092529E0
3.173906837E0,5.473145008E0,-4.979939461E0,6.663063526E0
3.175921688E0,5.516240597E0,-5.018246651E0,6.667851925E0
3.177936076E0,5.528211594E0,-5.061342239E0,6.665457726E0
3.179919234E0,5.554547787E0,-5.080495834E0,6.655880928E0
3.181933315E0,5.583278179E0,-5.183446884E0,6.651092529E0
3.183917626E0,5.595249176E0,-5.238513470E0,6.667851925E0
3.185931245E0,5.600037575E0,-5.365406036E0,6.720524311E0
3.187914941E0,5.602431774E0,-5.468356609E0,6.744466305E0
3.189929022E0,5.612008572E0,-5.523423195E0,6.746860504E0
3.191913026E0,5.597643375E0,-5.621585369E0,6.777985096E0
3.193927261E0,5.588066578E0,-5.726930618E0,6.818686485E0
3.195911573E0,5.592854977E0,-5.772420406E0,6.856993675E0
3.197925423E0,5.609614372E0,-5.846640587E0,6.919242859E0
3.199908503E0,5.578489780E0,-5.913678169E0,6.976703644E0
3.201922968E0,5.566518784E0,-5.932831764E0,6.998251438E0
3.203906357E0,5.549759388E0,-5.951985359E0,7.034164429E0
3.205920515E0,5.513846397E0,-5.956773758E0,7.077260017E0
3.207934365E0,5.504269600E0,-5.956773758E0,7.113173485E0
3.209918292E0,5.473145008E0,-5.978321552E0,7.175422668E0
3.211932758E0,5.453991413E0,-5.995080948E0,7.199364662E0
3.213916146E0,5.434837818E0,-6.038176537E0,7.230489254E0
3.215931611E0,5.422866821E0,-6.057330132E0,7.242460251E0
3.217913692E0,5.413290024E0,-6.076483727E0,7.249642849E0
3.219927850E0,5.406107426E0,-6.143521786E0,7.244854450E0
3.221912161E0,5.389348030E0,-6.172252178E0,7.223306656E0
3.223926012E0,5.389348030E0,-6.203376770E0,7.204153061E0
3.225910016E0,5.382165432E0,-6.268020153E0,7.180211067E0
3.227922712E0,5.374982834E0,-6.318298340E0,7.149086475E0
3.229907331E0,5.377377033E0,-6.337451935E0,7.132327080E0
3.231921411E0,5.355829239E0,-6.385335922E0,7.086836815E0
3.233936800E0,5.286397457E0,-6.418854713E0,7.058106422E0
3.235920496E0,5.262455463E0,-6.430825710E0,7.053318024E0
3.237934039E0,5.231330872E0,-6.452373505E0,7.029376030E0
3.239916196E0,5.236119270E0,-6.449979305E0,6.974309444E0
3.241931277E0,5.202600479E0,-6.435614109E0,6.926425457E0
3.243914743E0,5.176264286E0,-6.416460514E0,6.813898087E0
3.245928901E0,5.173870087E0,-6.406883717E0,6.758831501E0
3.247911981E0,5.176264286E0,-6.387730122E0,6.670246124E0
3.249926677E0,5.178658485E0,-6.375759125E0,6.591237068E0
3.251910450E0,5.183446884E0,-6.378153324E0,6.564900875E0
3.253924608E0,5.202600479E0,-6.378153324E0,6.502651691E0
3.255908920E0,5.224148273E0,-6.370970726E0,6.445190907E0
3.257921770E0,5.233725071E0,-6.373364925E0,6.404489517E0
3.259936620E0,5.288791656E0,-6.373364925E0,6.320692539E0
3.261919701E0,5.341464043E0,-6.416460514E0,6.258443356E0
3.263933781E0,5.355829239E0,-6.435614109E0,6.220136166E0
3.265918477E0,5.406107426E0,-6.476315498E0,6.157886982E0
3.267932020E0,5.458779812E0,-6.540958881E0,6.121973515E0
3.269916254E0,5.482721806E0,-6.569689274E0,6.114790916E0
3.271929566E0,5.535394192E0,-6.641515732E0,6.110002518E0
3.273913878E0,5.568912983E0,-6.725312710E0,6.114790916E0
3.275928959E0,5.635950565E0,-6.766014099E0,6.114790916E0
3.277912270E0,5.705382824E0,-6.852205276E0,6.133944988E0
3.279925504E0,5.736507416E0,-6.888118267E0,6.150704384E0
3.281908893E0,5.813121796E0,-6.940790653E0,6.203376770E0
3.283923358E0,5.889736176E0,-6.967126846E0,6.263231754E0
3.285907132E0,5.935225964E0,-6.976703644E0,6.299144745E0
3.287921290E0,6.030993938E0,-6.962338448E0,6.373364925E0
3.289935370E0,6.117185116E0,-6.979097843E0,6.430825710E0
3.291918144E0,6.160281181E0,-6.983886242E0,6.447585106E0
3.293933532E0,6.258443356E0,-6.971915245E0,6.464344501E0
3.295917612E0,6.339846134E0,-6.957550049E0,6.469132900E0
3.297931385E0,6.380547523E0,-6.940790653E0,6.478709698E0
3.299915082E0,6.483498096E0,-6.933608055E0,6.485892296E0
3.301928317E0,6.576871872E0,-6.940790653E0,6.473921299E0
3.303912705E0,6.600813866E0,-6.940790653E0,6.459556103E0
3.305927786E0,6.655880928E0,-6.969521046E0,6.406883717E0
3.307909867E0,6.672640324E0,-6.986280441E0,6.387730122E0
3.309924409E0,6.698976517E0,-7.005434036E0,6.327875137E0
3.311907720E0,6.698976517E0,-7.029376030E0,6.232107162E0
3.313922570E0,6.687005520E0,-7.048529625E0,6.193799973E0
3.315906882E0,6.653486729E0,-7.082048416E0,6.112396717E0
3.317920732E0,6.598419666E0,-7.105990410E0,6.035782337E0
3.319934582E0,6.576871872E0,-7.113173485E0,5.987898350E0
3.321919202E0,6.521805286E0,-7.132327080E0,5.899312973E0
3.323932129E0,6.459556103E0,-7.141903877E0,5.825092793E0
3.325915517E0,6.423643112E0,-7.149086475E0,5.789179802E0
3.327929290E0,6.366182327E0,-7.146692276E0,5.693411827E0
3.329913063E0,6.301538944E0,-7.137115479E0,5.614402771E0
3.331928144E0,6.265625954E0,-7.122750282E0,5.585672379E0
3.333910609E0,6.205770969E0,-7.094019413E0,5.516240597E0
3.335926536E0,6.148310184E0,-7.058106422E0,5.449203014E0
3.337910002E0,6.126761913E0,-7.036558628E0,5.406107426E0
3.339923775E0,6.066906929E0,-7.000645638E0,5.319916248E0
3.341906856E0,6.047753334E0,-6.988674641E0,5.291185856E0
3.343921090E0,6.021417141E0,-6.976703644E0,5.255272865E0
3.345935248E0,5.999869347E0,-6.967126846E0,5.202600479E0
3.347919252E0,5.999869347E0,-6.976703644E0,5.164293289E0
3.349933948E0,5.985504150E0,-7.024587631E0,5.114014626E0
3.351917337E0,5.978321552E0,-7.096413612E0,5.080495834E0
3.353930572E0,5.980715752E0,-7.132327080E0,5.066130638E0
3.355915268E0,5.954379559E0,-7.220912457E0,5.051765442E0
3.357929118E0,5.968744755E0,-7.331045628E0,5.039794445E0
3.359912506E0,5.978321552E0,-7.383718014E0,5.015852451E0
3.361928202E0,5.971138954E0,-7.479485989E0,4.987122059E0
3.363910052E0,5.978321552E0,-7.606379032E0,4.975151062E0
3.365924133E0,5.975927353E0,-7.659051418E0,4.987122059E0
3.367908137E0,5.990292549E0,-7.757213593E0,5.013458252E0
3.369921987E0,6.004657745E0,-7.824251175E0,5.042188644E0
3.371935914E0,6.011840343E0,-7.852981567E0,5.051765442E0
3.373919534E0,6.052541733E0,-7.910442352E0,5.068524837E0
3.375934614E0,6.078877926E0,-7.931990147E0,5.063736439E0
3.377917694E0,6.148310184E0,-7.958326340E0,5.061342239E0
3.379932160E0,6.212953568E0,-7.977479935E0,5.068524837E0
3.381914703E0,6.248866558E0,-7.989450932E0,5.061342239E0
3.383930399E0,6.327875137E0,-8.018181801E0,5.051765442E0
3.385914403E0,6.418854713E0,-8.058882713E0,5.046977043E0
3.387926945E0,6.471527100E0,-8.075642586E0,5.049371243E0
3.389910642E0,6.552929878E0,-8.097189903E0,5.078101635E0
3.391925491E0,6.622362137E0,-8.128314972E0,5.097255230E0
3.393909495E0,6.672640324E0,-8.140285492E0,5.094861031E0
3.395924191E0,6.727706909E0,-8.202534676E0,5.066130638E0
3.397907272E0,6.758831501E0,-8.236053467E0,5.030217648E0
3.399921122E0,6.768408298E0,-8.250418663E0,5.006275654E0
3.401936203E0,6.804321289E0,-8.293514252E0,4.977545261E0
3.403918130E0,6.799532890E0,-8.307879448E0,4.963180065E0
3.405933134E0,6.756437302E0,-8.310274124E0,4.958391666E0
3.407916829E0,6.720524311E0,-8.343792915E0,4.948814869E0
3.409931064E0,6.696582317E0,-8.348581314E0,4.934449673E0
3.411914991E0,6.619967937E0,-8.343792915E0,4.927267075E0
3.413928611E0,6.533776283E0,-8.331821442E0,4.886565685E0
3.415913153E0,6.502651691E0,-8.329427719E0,4.872200489E0
3.417926696E0,6.428431511E0,-8.315062523E0,4.853046894E0
3.419910469E0,6.358999729E0,-8.300697327E0,4.860229492E0
3.421923396E0,6.320692539E0,-8.283937454E0,4.857835293E0
3.423907399E0,6.263231754E0,-8.248024940E0,4.829104900E0
3.425921480E0,6.200982571E0,-8.216899872E0,4.790797710E0
3.427935945E0,6.162675381E0,-8.197746277E0,4.769249916E0
3.429919642E0,6.081272125E0,-8.147468567E0,4.716577530E0
3.431933569E0,6.026205540E0,-8.116343498E0,4.661510944E0
3.433917573E0,5.990292549E0,-8.106766701E0,4.642356873E0
3.435932654E0,5.930437565E0,-8.068459511E0,4.582501888E0
3.437915042E0,5.896918774E0,-8.022970200E0,4.546588898E0
3.439928968E0,5.820304394E0,-8.008605003E0,4.491522312E0
3.441914126E0,5.765237808E0,-7.996633530E0,4.436455727E0
3.443927669E0,5.736507416E0,-7.991845131E0,4.405331135E0
3.445911673E0,5.681440830E0,-7.963114738E0,4.352658749E0
3.447924985E0,5.631162167E0,-7.951143742E0,4.323928356E0
3.449909296E0,5.604825974E0,-7.955932140E0,4.311957359E0
3.451923146E0,5.559336185E0,-7.977479935E0,4.266467571E0
3.453906843E0,5.509057999E0,-7.970297337E0,4.199429989E0
3.455921538E0,5.494692802E0,-7.987056732E0,4.168305397E0
3.457934850E0,5.434837818E0,-8.008605003E0,4.108449936E0
3.459918238E0,5.389348030E0,-8.003816605E0,4.079719543E0
3.461932627E0,5.343858242E0,-8.022970200E0,4.079719543E0
3.463917631E0,5.255272865E0,-8.058882713E0,4.065354347E0
3.465931096E0,5.202600479E0,-8.094796181E0,4.055777550E0
3.467913870E0,5.185841084E0,-8.113949776E0,4.060565948E0
3.469928335E0,5.149928093E0,-8.154650688E0,4.070142746E0
3.471912031E0,5.140350819E0,-8.173804283E0,4.067748547E0
3.473926496E0,5.152322292E0,-8.226476669E0,4.053383350E0
3.475910808E0,5.173870087E0,-8.286332130E0,4.027047157E0
3.477923504E0,5.207388878E0,-8.319850922E0,4.017470360E0
3.479907816E0,5.276820660E0,-8.374917984E0,4.019864559E0
3.481922589E0,5.355829239E0,-8.410830498E0,4.000710964E0
3.483905593E0,5.415684223E0,-8.420407295E0,4.000710964E0
3.485920059E0,5.530605793E0,-8.439560890E0,3.998316765E0
3.487933600E0,5.657498837E0,-8.468291283E0,4.015076160E0
3.489917604E0,5.717353821E0,-8.470685959E0,4.012681961E0
3.491931762E0,5.844246387E0,-8.480262756E0,3.995922565E0
3.493915458E0,5.949591160E0,-8.482656479E0,3.962403774E0
3.495929924E0,5.980715752E0,-8.489839554E0,3.938461781E0
3.497913312E0,6.076483727E0,-8.485051155E0,3.878606796E0
3.499927163E0,6.174646378E0,-8.501810074E0,3.847482204E0
3.501911167E0,6.229712963E0,-8.501810074E0,3.823540211E0
3.503925093E0,6.287173748E0,-8.494627953E0,3.761290789E0
3.505908481E0,6.313509941E0,-8.497021675E0,3.722983599E0
3.507923178E0,6.361393929E0,-8.501810074E0,3.663128614E0
3.509906566E0,6.378153324E0,-8.489839554E0,3.617638826E0
3.511920186E0,6.382941723E0,-8.501810074E0,3.588908434E0
3.513934882E0,6.390124321E0,-8.506598473E0,3.545812607E0
3.515919578E0,6.416460514E0,-8.525752068E0,3.495534420E0
3.517932736E0,6.426037312E0,-8.530540466E0,3.469198227E0
3.519916816E0,6.435614109E0,-8.523358345E0,3.406949043E0
3.521931205E0,6.447585106E0,-8.530540466E0,3.301604033E0
3.523913747E0,6.449979305E0,-8.532935143E0,3.256114244E0
3.525928136E0,6.440402508E0,-8.513781548E0,3.191470861E0
3.527911524E0,6.442796707E0,-8.544905663E0,3.122039080E0
3.529926067E0,6.445190907E0,-8.547300339E0,3.083731890E0
3.531909378E0,6.423643112E0,-8.530540466E0,3.038241863E0
3.533923921E0,6.418854713E0,-8.540117264E0,2.971204281E0
3.535908539E0,6.428431511E0,-8.540117264E0,2.932897091E0
3.537922082E0,6.414066315E0,-8.554482460E0,2.870647907E0
3.539936240E0,6.402095318E0,-8.554482460E0,2.834734917E0
3.541919244E0,6.368576527E0,-8.561665535E0,2.779668093E0
3.543934632E0,6.315904140E0,-8.568847656E0,2.753331900E0
3.545918021E0,6.284779549E0,-8.585607529E0,2.738966703E0
3.547931256E0,6.198588371E0,-8.614337921E0,2.755726099E0
3.549916183E0,6.081272125E0,-8.659827232E0,2.782062292E0
3.551929493E0,6.028599739E0,-8.688557625E0,2.796427488E0
3.553912574E0,5.932831764E0,-8.746018410E0,2.825158119E0
3.555927886E0,5.820304394E0,-8.827422142E0,2.865859509E0
3.557910736E0,5.765237808E0,-8.875306129E0,2.875436306E0
3.559924894E0,5.657498837E0,-8.966285706E0,2.877830505E0
3.561909513E0,5.566518784E0,-9.059659004E0,2.896984100E0
3.563922671E0,5.525817394E0,-9.095572472E0,2.913743496E0
3.565906674E0,5.451597214E0,-9.148244858E0,2.944868088E0
3.567920294E0,5.415684223E0,-9.196128845E0,2.997540474E0
3.569935067E0,5.363011837E0,-9.205705643E0,3.033453465E0
3.571918148E0,5.319916248E0,-9.198522568E0,3.093308687E0
3.573933152E0,5.303156853E0,-9.200917244E0,3.112462282E0
3.575917156E0,5.293580055E0,-9.203310966E0,3.155557871E0
3.577930083E0,5.281609058E0,-9.153033257E0,3.196259260E0
3.579914164E0,5.284003258E0,-9.133879662E0,3.224989653E0
3.581927399E0,5.281609058E0,-9.097966194E0,3.265691042E0
3.583911709E0,5.293580055E0,-9.064447403E0,3.303998232E0
3.585926175E0,5.305551052E0,-9.050082207E0,3.325546265E0
3.587910179E0,5.315127850E0,-9.042900085E0,3.339911461E0
3.589923952E0,5.339069843E0,-9.021351814E0,3.361459255E0
3.591907648E0,5.341464043E0,-9.033323288E0,3.380612850E0
3.593921576E0,5.363011837E0,-9.057265282E0,3.399766445E0
3.595936349E0,5.360617638E0,-9.059659004E0,3.380612850E0
3.597919968E0,5.370194435E0,-9.059659004E0,3.383007050E0
3.599933894E0,5.386953831E0,-9.050082207E0,3.383007050E0
3.601917283E0,5.384559631E0,-9.052476883E0,3.380612850E0
3.603931441E0,5.406107426E0,-9.062053680E0,3.380612850E0
3.605915137E0,5.403713226E0,-9.071630478E0,3.366247654E0
3.607928987E0,5.396530628E0,-9.071630478E0,3.363853455E0
3.609912299E0,5.379771233E0,-9.064447403E0,3.368641853E0
3.611926764E0,5.384559631E0,-9.062053680E0,3.363853455E0
3.613911153E0,5.391742229E0,-9.050082207E0,3.371036053E0
3.615925848E0,5.363011837E0,-9.035717010E0,3.378218651E0
3.617908699E0,5.353435040E0,-9.030928612E0,3.380612850E0
3.619922549E0,5.341464043E0,-9.028534889E0,3.383007050E0
3.621936322E0,5.329493046E0,-9.014169693E0,3.392583847E0
3.623921326E0,5.331887245E0,-8.995016098E0,3.394978046E0
3.625935099E0,5.331887245E0,-8.997409821E0,3.406949043E0
3.627918180E0,5.322310448E0,-8.966285706E0,3.411737442E0
3.629932953E0,5.315127850E0,-8.949525833E0,3.397372246E0
3.631916341E0,5.298368454E0,-8.932766914E0,3.380612850E0
3.633929576E0,5.267243862E0,-8.892065048E0,3.361459255E0
3.635914580E0,5.262455463E0,-8.870517731E0,3.351882458E0
3.637928045E0,5.193023682E0,-8.846575737E0,3.332728863E0
3.639912049E0,5.128379822E0,-8.786720276E0,3.296815634E0
3.641927438E0,5.104437828E0,-8.765172005E0,3.280056238E0
3.643909903E0,5.030217648E0,-8.741230011E0,3.272873640E0
3.645923446E0,4.946420670E0,-8.693346024E0,3.253720045E0
3.647907449E0,4.912901878E0,-8.667010307E0,3.236960649E0
3.649921684E0,4.829104900E0,-8.599972725E0,3.215412855E0
3.651935765E0,4.723760128E0,-8.549694061E0,3.196259260E0
3.653918922E0,4.680664539E0,-8.530540466E0,3.201047659E0
3.655933696E0,4.596867085E0,-8.499416351E0,3.193865061E0
3.657917315E0,4.525041103E0,-8.475474358E0,3.196259260E0
3.659931165E0,4.481945515E0,-8.470685959E0,3.198653460E0
3.661914015E0,4.395754337E0,-8.465897560E0,3.217807055E0
3.663930018E0,4.335899353E0,-8.485051155E0,3.229778051E0
3.665912484E0,4.309563160E0,-8.487444878E0,3.236960649E0
3.667926334E0,4.271255970E0,-8.504204750E0,3.265691042E0
3.669910569E0,4.261679173E0,-8.535328865E0,3.272873640E0
3.671924496E0,4.237737179E0,-8.595184326E0,3.294421434E0
3.673907808E0,4.254496574E0,-8.635885239E0,3.306392431E0
3.675924196E0,4.273650169E0,-8.659827232E0,3.318363667E0
3.677905661E0,4.292803764E0,-8.707711220E0,3.313575268E0
3.679920203E0,4.340687752E0,-8.719682693E0,3.327940464E0
3.681934977E0,4.371812344E0,-8.722076416E0,3.315969467E0
3.683918057E0,4.424484730E0,-8.748413086E0,3.308786631E0
3.685932523E0,4.503493309E0,-8.777143478E0,3.337517262E0
3.687916527E0,4.534617901E0,-8.789113998E0,3.335123062E0
3.689929993E0,4.606443882E0,-8.798690796E0,3.332728863E0
3.691913150E0,4.707000732E0,-8.832210541E0,3.344699860E0
3.693928231E0,4.745307922E0,-8.841787338E0,3.342305660E0
3.695911619E0,4.809951305E0,-8.863334656E0,3.342305660E0
3.697926008E0,4.893748283E0,-8.899248123E0,3.344699860E0
3.699909473E0,4.924872875E0,-8.913613319E0,3.335123062E0
3.701922939E0,5.006275654E0,-8.944737434E0,3.313575268E0
3.703938097E0,5.051765442E0,-8.951920509E0,3.294421434E0
3.705921793E0,5.104437828E0,-8.983044624E0,3.265691042E0
3.707934335E0,5.164293289E0,-8.983044624E0,3.227383852E0
3.709919339E0,5.185841084E0,-8.980650902E0,3.201047659E0
3.711933112E0,5.219359875E0,-8.973467827E0,3.148375273E0
3.713917731E0,5.221754074E0,-8.961497307E0,3.093308687E0
3.715931350E0,5.219359875E0,-8.951920509E0,3.069366693E0
3.717915354E0,5.216965675E0,-8.930372238E0,3.038241863E0
3.719929204E0,5.209783077E0,-8.923190117E0,3.009511471E0
3.721913747E0,5.195417881E0,-8.908824921E0,2.995146275E0
3.723926443E0,5.195417881E0,-8.889671326E0,2.964021683E0
3.725910140E0,5.188235283E0,-8.875306129E0,2.920926094E0
3.727924912E0,5.159504890E0,-8.863334656E0,2.904166698E0
3.729908300E0,5.125985622E0,-8.875306129E0,2.868253708E0
3.731922689E0,5.123591423E0,-8.858546257E0,2.834734917E0
3.733936001E0,5.111620426E0,-8.846575737E0,2.820369720E0
3.735921236E0,5.082890034E0,-8.827422142E0,2.782062292E0
3.737934086E0,5.068524837E0,-8.844181061E0,2.765302896E0
3.739917859E0,5.042188644E0,-8.839392662E0,2.743755102E0
3.741932324E0,5.008669853E0,-8.844181061E0,2.729389906E0
3.743915943E0,4.999093056E0,-8.846575737E0,2.731784105E0
3.745929793E0,4.996698856E0,-8.858546257E0,2.734178305E0
3.747913797E0,4.984727859E0,-8.877699852E0,2.755726099E0
3.749927416E0,4.979939461E0,-8.887276649E0,2.753331900E0
3.751911420E0,4.972756863E0,-8.901641846E0,2.738966703E0
3.753926424E0,4.941632271E0,-8.906430244E0,2.736572504E0
3.755910121E0,4.932055473E0,-8.913613319E0,2.748543501E0
3.757923663E0,4.912901878E0,-8.939949036E0,2.762908697E0
3.759906512E0,4.917690277E0,-8.951920509E0,2.815581083E0
3.761922132E0,4.908113480E0,-8.971074104E0,2.853888512E0
3.763935136E0,4.896142483E0,-9.011775017E0,2.930502892E0
3.765919678E0,4.891354084E0,-9.028534889E0,2.961627483E0
3.767932990E0,4.869806290E0,-9.052476883E0,3.021482468E0
3.769915994E0,4.857835293E0,-9.095572472E0,3.088520288E0
3.771931383E0,4.855441093E0,-9.102754593E0,3.122039080E0
3.773914771E0,4.855441093E0,-9.124302864E0,3.205836058E0
3.775929005E0,4.853046894E0,-9.133879662E0,3.284844637E0
3.777913009E0,4.862623692E0,-9.143456459E0,3.327940464E0
3.779926474E0,4.855441093E0,-9.145850182E0,3.404554844E0
3.781909863E0,4.865017891E0,-9.131484985E0,3.483563423E0
3.783924406E0,4.872200489E0,-9.131484985E0,3.521870613E0
3.785908333E0,4.860229492E0,-9.131484985E0,3.588908434E0
3.787921337E0,4.850652695E0,-9.105149269E0,3.677493811E0
3.789936110E0,4.845864296E0,-9.105149269E0,3.727771997E0
3.791920113E0,4.857835293E0,-9.078812599E0,3.837905407E0
3.793934578E0,4.862623692E0,-9.050082207E0,3.938461781E0
3.795918813E0,4.869806290E0,-9.030928612E0,3.974374771E0
3.797932048E0,4.881777287E0,-9.016563416E0,4.029441357E0
3.799916129E0,4.881777287E0,-9.006986618E0,4.048594952E0
3.801929979E0,4.908113480E0,-8.971074104E0,4.084507942E0
3.803913368E0,4.946420670E0,-8.963891029E0,4.149151325E0
3.805927833E0,4.977545261E0,-8.961497307E0,4.189853191E0
3.807910836E0,5.044582844E0,-8.947132111E0,4.228160381E0
3.809925609E0,5.111620426E0,-8.937555313E0,4.206612587E0
3.811909690E0,5.152322292E0,-8.930372238E0,4.180276394E0
3.813922925E0,5.245696068E0,-8.925583839E0,4.129997730E0
3.815938314E0,5.348646641E0,-8.923190117E0,4.086902142E0
3.817920702E0,5.396530628E0,-8.913613319E0,4.053383350E0
3.819934937E0,5.494692802E0,-8.901641846E0,3.995922565E0
3.821918249E0,5.564124584E0,-8.872911453E0,3.943250179E0
3.823933098E0,5.607220173E0,-8.858546257E0,3.907337189E0
3.825916794E0,5.662287235E0,-8.827422142E0,3.806780815E0
3.827930644E0,5.731719017E0,-8.813055992E0,3.718195200E0
3.829914956E0,5.755661011E0,-8.798690796E0,3.665522814E0
3.831928422E0,5.781997204E0,-8.789113998E0,3.543418407E0
3.833911580E0,5.815515995E0,-8.779537201E0,3.483563423E0
3.835927276E0,5.868188381E0,-8.726864815E0,3.361459255E0
3.837910665E0,5.872976780E0,-8.693346024E0,3.284844637E0
3.839924744E0,5.870582581E0,-8.681375504E0,3.265691042E0
3.841908518E0,5.872976780E0,-8.657433510E0,3.256114244E0
3.843922599E0,5.856217384E0,-8.638279915E0,3.253720045E0
3.845935910E0,5.841852188E0,-8.623914719E0,3.263296843E0
3.847920222E0,5.805939198E0,-8.590395927E0,3.306392431E0
3.849933995E0,5.762843609E0,-8.592789650E0,3.392583847E0
3.851917461E0,5.734113216E0,-8.585607529E0,3.452438831E0
3.853931234E0,5.681440830E0,-8.571242332E0,3.564966440E0
3.855915929E0,5.607220173E0,-8.588001251E0,3.651157618E0
3.857929703E0,5.571307182E0,-8.576030731E0,3.679888010E0
3.859913091E0,5.475539207E0,-8.561665535E0,3.737348795E0
3.861927018E0,5.437232018E0,-8.561665535E0,3.778050184E0
3.863911638E0,5.363011837E0,-8.568847656E0,3.821146011E0
3.865925411E0,5.293580055E0,-8.564059258E0,3.892971992E0
3.867908569E0,5.252878666E0,-8.561665535E0,3.931279182E0
3.869923573E0,5.197812080E0,-8.571242332E0,4.012681961E0
3.871906730E0,5.171475887E0,-8.590395927E0,4.129997730E0
3.873920811E0,5.159504890E0,-8.597578049E0,4.201824188E0
3.875936507E0,5.135562420E0,-8.599972725E0,4.331110954E0
3.877918972E0,5.099649429E0,-8.635885239E0,4.455609322E0
3.879932899E0,5.087678432E0,-8.640673637E0,4.525041103E0
3.881916903E0,5.063736439E0,-8.657433510E0,4.671087742E0
3.883930369E0,5.082890034E0,-8.650250435E0,4.817133904E0
3.885914065E0,5.087678432E0,-8.647856712E0,4.898536682E0
3.887928838E0,5.090072632E0,-8.647856712E0,5.054159641E0
3.889911995E0,5.087678432E0,-8.676587105E0,5.190629482E0
3.891925846E0,5.090072632E0,-8.693346024E0,5.260061264E0
3.893909773E0,5.075707436E0,-8.700529099E0,5.389348030E0
3.895924931E0,5.066130638E0,-8.726864815E0,5.501875401E0
3.897908011E0,5.046977043E0,-8.734047890E0,5.554547787E0
3.899922092E0,5.011064053E0,-8.765172005E0,5.686229229E0
3.901935635E0,4.999093056E0,-8.789113998E0,5.755661011E0
3.903919638E0,4.979939461E0,-8.822632790E0,5.913678169E0
3.905933873E0,4.977545261E0,-8.865729332E0,6.074089527E0
3.907917492E0,4.989516258E0,-8.892065048E0,6.162675381E0
3.909931650E0,5.011064053E0,-8.935160637E0,6.337451935E0
3.911915654E0,5.035006046E0,-9.011775017E0,6.483498096E0
3.913928966E0,5.054159641E0,-9.035717010E0,6.555324078E0
3.915913816E0,5.109226227E0,-9.078812599E0,6.706159115E0
3.917927435E0,5.161899090E0,-9.153033257E0,6.837840080E0
3.919910746E0,5.188235283E0,-9.200917244E0,6.897695065E0
3.921926519E0,5.243301868E0,-9.272743225E0,7.015010834E0
3.923908908E0,5.346252441E0,-9.330204010E0,7.129932880E0
3.925923450E0,5.394136429E0,-9.358934402E0,7.180211067E0
3.927906531E0,5.497087002E0,-9.402029991E0,7.261613846E0
3.929920689E0,5.547365189E0,-9.416395187E0,7.309497833E0
3.931935078E0,5.631162167E0,-9.411606789E0,7.393294811E0
3.933919158E0,5.705382824E0,-9.409213066E0,7.467514992E0
3.935933931E0,5.734113216E0,-9.411606789E0,7.508216381E0
3.937915781E0,5.801150799E0,-9.409213066E0,7.582436562E0
3.939929862E0,5.865794182E0,-9.404424667E0,7.656657219E0
3.941913558E0,5.896918774E0,-9.397241592E0,7.690176010E0
3.943928947E0,5.942408562E0,-9.397241592E0,7.757213593E0
3.945912720E0,5.966350555E0,-9.390059471E0,7.836222172E0
3.947925570E0,5.975927353E0,-9.385271072E0,7.864952564E0
3.949910189E0,5.987898350E0,-9.385271072E0,7.924807549E0
3.951923500E0,5.997475147E0,-9.414001465E0,7.967903137E0
3.953908966E0,5.997475147E0,-9.421183586E0,7.996633530E0
3.955922816E0,5.968744755E0,-9.435548782E0,8.032546997E0
3.957936128E0,5.942408562E0,-9.483432770E0,8.058882713E0
3.959919209E0,5.928043365E0,-9.519346237E0,8.068459511E0
3.961934597E0,5.901707172E0,-9.595960617E0,8.099584579E0
3.963917678E0,5.899312973E0,-9.619902611E0,8.106766701E0
3.965931759E0,5.870582581E0,-9.672574997E0,8.145073891E0
3.967915531E0,5.851428986E0,-9.763554573E0,8.169015884E0
3.969929381E0,5.841852188E0,-9.806650162E0,8.178592682E0
3.971913308E0,5.834669590E0,-9.868899345E0,8.207323074E0
3.973926236E0,5.815515995E0,-9.909601212E0,8.209717751E0
3.975911855E0,5.815515995E0,-9.928754807E0,8.202534676E0
3.977924782E0,5.793968201E0,-9.962273598E0,8.212111473E0
3.979909017E0,5.770026207E0,-9.991003990E0,8.233659744E0
3.981922252E0,5.774814606E0,-1.001494598E1,8.233659744E0
3.983936793E0,5.777208805E0,-1.003888798E1,8.240841866E0
3.985920797E0,5.786785603E0,-1.003888798E1,8.255207062E0
3.987934263E0,5.791574001E0,-1.005325317E1,8.250418663E0
3.989919190E0,5.832275391E0,-1.008677197E1,8.224082947E0
3.991932501E0,5.856217384E0,-1.010831928E1,8.176198959E0
3.993916198E0,5.877765179E0,-1.013465595E1,8.149862289E0
3.995931279E0,5.913678169E0,-1.017296314E1,8.094796181E0
3.997914590E0,5.920860767E0,-1.017775154E1,8.070854187E0
3.999927901E0,5.947196960E0,-1.020887566E1,8.013393402E0
4.001912136E0,5.961562157E0,-1.025197124E1,7.924807549E0
4.003926371E0,5.978321552E0,-1.026394272E1,7.876923561E0
4.005909990E0,5.992686749E0,-1.030943298E1,7.757213593E0
4.007923532E0,6.016628742E0,-1.035013390E1,7.663839817E0
4.009907613E0,6.026205540E0,-1.036449909E1,7.601590633E0
4.011921463E0,6.042964935E0,-1.037407589E1,7.491456985E0
4.013935929E0,6.066906929E0,-1.040041256E1,7.390900612E0
4.015919855E0,6.088454723E0,-1.040998936E1,7.345410824E0
4.017934013E0,6.133944988E0,-1.043153667E1,7.249642849E0
4.019917171E0,6.172252178E0,-1.043632507E1,7.139509678E0
4.021930944E0,6.179434776E0,-1.043871975E1,7.094019413E0
4.023916179E0,6.229712963E0,-1.044590187E1,7.010222435E0
4.025929491E0,6.284779549E0,-1.046745014E1,6.926425457E0
4.027912879E0,6.301538944E0,-1.045787334E1,6.883329868E0
4.029927037E0,6.344634533E0,-1.050096893E1,6.804321289E0
4.031910655E0,6.354211330E0,-1.052730465E1,6.754043102E0
4.033924582E0,6.373364925E0,-1.056561184E1,6.667851925E0
4.035909433E0,6.411672115E0,-1.059673691E1,6.555324078E0
4.037922360E0,6.423643112E0,-1.061110210E1,6.478709698E0
4.039936825E0,6.449979305E0,-1.063504410E1,6.349422932E0
4.041921214E0,6.471527100E0,-1.065180302E1,6.232107162E0
4.043935295E0,6.488286495E0,-1.066377449E1,6.186617374E0
4.045918683E0,6.502651691E0,-1.066616821E1,6.102819920E0
4.047932533E0,6.502651691E0,-1.065419769E1,6.016628742E0
4.049915998E0,6.509834290E0,-1.064222622E1,5.971138954E0
4.051930079E0,6.507440090E0,-1.063264942E1,5.877765179E0
4.053914083E0,6.502651691E0,-1.061110210E1,5.779603004E0
4.055929472E0,6.478709698E0,-1.059913063E1,5.731719017E0
4.057911706E0,6.478709698E0,-1.057279491E1,5.621585369E0
4.059925480E0,6.488286495E0,-1.055842972E1,5.573701382E0
4.061909175E0,6.481103897E0,-1.055364132E1,5.509057999E0
4.063923102E0,6.457161903E0,-1.052491093E1,5.451597214E0
4.065938106E0,6.449979305E0,-1.051293945E1,5.425261021E0
4.067922110E0,6.440402508E0,-1.050096893E1,5.379771233E0
4.069935114E0,6.433219910E0,-1.050575733E1,5.348646641E0
4.071919733E0,6.423643112E0,-1.050815105E1,5.324704647E0
4.073933507E0,6.402095318E0,-1.050815105E1,5.269638062E0
4.075917895E0,6.380547523E0,-1.051772785E1,5.197812080E0
4.077931361E0,6.366182327E0,-1.052491093E1,5.159504890E0
4.079914825E0,6.337451935E0,-1.053448772E1,5.094861031E0
4.081929599E0,6.320692539E0,-1.052491093E1,5.056553841E0
4.083912295E0,6.311115742E0,-1.052730465E1,5.037400246E0
4.085927376E0,6.284779549E0,-1.052491093E1,4.979939461E0
4.087910457E0,6.272808552E0,-1.053209305E1,4.912901878E0
4.089924922E0,6.256049156E0,-1.052730465E1,4.874594688E0
4.091908003E0,6.229712963E0,-1.051772785E1,4.795586109E0
4.093922238E0,6.210559368E0,-1.048181534E1,4.759673119E0
4.095937856E0,6.186617374E0,-1.044829655E1,4.675876141E0
4.097920322E0,6.162675381E0,-1.042674828E1,4.611232281E0
4.099934557E0,6.136339188E0,-1.040759468E1,4.589684486E0
4.101917868E0,6.136339188E0,-1.036449909E1,4.556165695E0
4.103932719E0,6.114790916E0,-1.031661510E1,4.517858505E0
4.105916107E0,6.112396717E0,-1.029027843E1,4.496310711E0
4.107929573E0,6.119579315E0,-1.026154804E1,4.443638325E0
4.109913346E0,6.124367714E0,-1.022563553E1,4.424484730E0
4.111928118E0,6.117185116E0,-1.020169353E1,4.405331135E0
4.113911430E0,6.138733387E0,-1.016338634E1,4.350264549E0
4.115926895E0,6.191405773E0,-1.012507915E1,4.335899353E0
4.117909592E0,6.227318764E0,-1.009874249E1,4.319139957E0
4.119923134E0,6.265625954E0,-1.003888798E1,4.304774761E0
4.121938523E0,6.284779549E0,-9.967061996E0,4.266467571E0
4.123921604E0,6.296750546E0,-9.940725327E0,4.254496574E0
4.125936069E0,6.311115742E0,-9.904812813E0,4.240131378E0
4.127919226E0,6.313509941E0,-9.878476143E0,4.230554581E0
4.129933384E0,6.308721542E0,-9.837775230E0,4.228160381E0
4.131917311E0,6.282385349E0,-9.792284966E0,4.213795185E0
4.133931161E0,6.265625954E0,-9.770736694E0,4.197035789E0
4.135915550E0,6.212953568E0,-9.742006302E0,4.187458992E0
4.137928708E0,6.179434776E0,-9.703699112E0,4.197035789E0
4.139912404E0,6.162675381E0,-9.684545517E0,4.201824188E0
4.141925947E0,6.110002518E0,-9.658209801E0,4.220977783E0
4.143909411E0,6.071695328E0,-9.631873131E0,4.228160381E0
4.145924800E0,6.047753334E0,-9.619902611E0,4.228160381E0
4.147908188E0,5.999869347E0,-9.579200745E0,4.230554581E0
4.149922346E0,5.940014362E0,-9.555258751E0,4.259284973E0
4.151936735E0,5.923254967E0,-9.540893555E0,4.261679173E0
4.153919277E0,5.892130375E0,-9.524134636E0,4.273650169E0
4.155935820E0,5.841852188E0,-9.509769440E0,4.268861771E0
4.157918670E0,5.825092793E0,-9.478644371E0,4.266467571E0
4.159932750E0,5.781997204E0,-9.452308655E0,4.273650169E0
4.161917138E0,5.753266811E0,-9.433155060E0,4.278438568E0
4.163929989E0,5.688623428E0,-9.385271072E0,4.280832767E0
4.165913454E0,5.647922039E0,-9.342175484E0,4.288015366E0
4.167927535E0,5.626373768E0,-9.334992409E0,4.295197964E0
4.169911308E0,5.564124584E0,-9.289502144E0,4.295197964E0
4.171925082E0,5.530605793E0,-9.220070839E0,4.297592163E0
4.173909700E0,5.511452198E0,-9.174580574E0,4.299986362E0
4.175924550E0,5.463568211E0,-9.119514465E0,4.311957359E0
4.177906939E0,5.430049419E0,-9.054870605E0,4.316745758E0
4.179921173E0,5.418078423E0,-9.011775017E0,4.314351559E0
