"Time (s)","Linear Acceleration x (m/s^2)","Linear Acceleration y (m/s^2)","Linear Acceleration z (m/s^2)"
1.591278800E-2,-4.212808609E-2,1.391229630E-1,-7.578897476E-2
2.390849600E-2,4.960560799E-2,1.408796310E-1,3.863048553E-2
3.190389600E-2,1.687502861E-2,8.733654022E-2,6.686019897E-2
3.992906600E-2,3.186249733E-2,4.657268524E-2,1.067247391E-1
4.792454200E-2,8.813905716E-2,2.000427246E-2,1.361169815E-1
5.592048100E-2,2.210736275E-2,6.700611115E-2,8.059310913E-2
6.391618900E-2,-7.642984390E-3,9.515762329E-2,6.005239487E-2
7.191166600E-2,-5.797147751E-3,1.060352325E-1,-1.399374008E-2
7.990698900E-2,1.609373093E-2,1.043272018E-1,-5.874490738E-2
8.790239000E-2,7.054281235E-2,1.535291672E-1,-1.323866844E-1
9.593017400E-2,5.955696106E-2,1.384754181E-1,-1.611580849E-1
1.039251900E-1,2.532911301E-2,1.565790176E-1,-1.563444138E-1
1.119203590E-1,-1.296687126E-2,1.751403809E-1,-1.636195183E-1
1.199153750E-1,-8.814597130E-2,1.937980652E-1,-1.458430290E-1
1.279120050E-1,-1.655225754E-1,1.754179001E-1,-8.218717575E-2
1.359074060E-1,-1.930932999E-1,1.777181625E-1,-5.837965012E-2
1.439031900E-1,-2.299158573E-1,1.410522461E-1,-4.269552231E-2
1.519284370E-1,-2.242436409E-1,1.251316071E-1,-1.836299896E-2
1.599240670E-1,-1.907143593E-1,1.077642441E-1,-4.253864288E-3
1.679201600E-1,-1.418271065E-1,1.113739014E-1,-6.113576889E-2
1.759164060E-1,-8.344626427E-2,9.158420563E-2,-4.796648026E-2
1.839118830E-1,-2.700901031E-2,1.051788330E-1,-8.759546280E-2
1.919066680E-1,9.832143784E-3,9.719276428E-2,-9.813356400E-2
1.999029910E-1,1.940488815E-2,8.261394501E-2,-9.990406036E-2
2.079285450E-1,7.388591766E-2,6.995201111E-3,-1.376953125E-1
2.159254840E-1,9.022951126E-2,-2.317428589E-4,-2.162814140E-1
2.239198840E-1,1.041314602E-1,-8.231163025E-3,-2.810807228E-1
2.319153610E-1,1.193349361E-1,-4.319763184E-2,-2.960758209E-1
2.399119150E-1,1.538226604E-1,1.377391815E-2,-2.897210121E-1
2.479070850E-1,1.139712334E-1,7.464694977E-2,-2.583074570E-1
2.559034070E-1,2.656745911E-2,1.399030685E-1,-2.476401329E-1
2.639291930E-1,-1.888298988E-2,1.708955765E-1,-1.889829636E-1
2.719239770E-1,-3.066897392E-2,1.903572083E-1,-1.209802628E-1
2.799199930E-1,-4.340672493E-2,2.223768234E-1,-7.145261765E-2
2.879153920E-1,-4.416465759E-2,2.287130356E-1,-7.813453674E-2
2.959121010E-1,-4.803252220E-2,1.915941238E-1,-8.433198929E-2
3.039068850E-1,-3.824949265E-3,1.495609283E-1,-7.842397690E-2
3.119032090E-1,2.723455429E-2,1.106061935E-1,-4.808712006E-2
3.199290700E-1,-7.549047470E-3,5.681705475E-2,-9.438800812E-2
3.279243940E-1,-8.851122856E-2,2.175617218E-2,-1.552977562E-1
3.359204860E-1,-1.528029442E-1,1.983928680E-2,-1.951894760E-1
3.439164250E-1,-2.384986877E-1,-3.748130798E-2,-2.596273422E-1
3.519109010E-1,-3.475027084E-1,-3.730106354E-2,-2.332720757E-1
3.599066100E-1,-4.124851227E-1,-5.614948273E-2,-2.478170395E-1
3.679020090E-1,-4.403040409E-1,-8.648490906E-2,-3.147306442E-1
3.759284870E-1,-3.631541729E-1,-1.804847717E-1,-3.496875763E-1
3.839239630E-1,-2.172844410E-1,-2.185544968E-1,-3.431115150E-1
3.919193640E-1,-8.475875854E-2,-2.058286667E-1,-3.383700848E-1
3.999153020E-1,3.121376038E-3,-1.953153610E-1,-3.240373135E-1
4.079103950E-1,-3.301143646E-3,-1.941776276E-1,-2.741408348E-1
4.159070250E-1,-1.522731781E-2,-2.503137589E-1,-2.558889389E-1
4.239028110E-1,2.373385429E-2,-3.067550659E-1,-1.259651184E-1
4.319285950E-1,1.021702290E-1,-4.094581604E-1,-1.331644058E-1
4.399239950E-1,2.311372757E-2,-5.028972626E-1,-2.306182384E-1
4.479194720E-1,-2.337574959E-2,-6.077346802E-1,-3.092856407E-1
4.559160270E-1,8.968806267E-2,-7.137775421E-1,-4.229116440E-1
4.639095800E-1,1.774444580E-1,-7.993221283E-1,-4.606044292E-1
4.719059040E-1,2.066409588E-1,-9.150619507E-1,-4.425046444E-1
4.799023030E-1,1.969735622E-1,-9.725017548E-1,-4.792258739E-1
4.879275500E-1,2.039322853E-1,-9.480705261E-1,-4.999756813E-1
4.959247190E-1,1.914131641E-1,-8.065252304E-1,-4.821739197E-1
5.039189660E-1,1.799888611E-1,-6.702280045E-1,-4.448821545E-1
5.119149810E-1,7.081651688E-2,-5.440273285E-1,-4.811177254E-1
5.199103810E-1,-8.590316772E-2,-4.061479568E-1,-5.256192684E-1
5.279048580E-1,-1.628601551E-1,-2.683525085E-1,-5.302553177E-1
5.359027200E-1,-2.742450237E-1,-1.207494736E-1,-6.144354343E-1
5.439267350E-1,-3.711588383E-1,2.748203278E-2,-6.342010498E-1
5.519227510E-1,-4.925258160E-1,1.838426590E-1,-6.522803307E-1
5.599193050E-1,-5.841598511E-1,3.055553436E-1,-6.689560413E-1
5.679144750E-1,-7.158207893E-1,4.141902924E-1,-7.097539902E-1
5.759107970E-1,-8.278824091E-1,4.335651398E-1,-6.896691322E-1
5.839067360E-1,-9.206306934E-1,4.239273071E-1,-6.649520397E-1
5.919015210E-1,-1.054265857E0,4.238424301E-1,-6.345994473E-1
5.999277670E-1,-1.148021102E0,3.929100037E-1,-5.995991230E-1
6.079231670E-1,-1.184822798E0,3.193321228E-1,-5.213017464E-1
6.159191830E-1,-1.063983321E0,1.816205978E-1,-3.803586960E-1
6.239145060E-1,-8.385430574E-1,6.312370300E-2,-2.829487324E-1
6.319105220E-1,-3.817255497E-1,-7.022285461E-2,-3.526096344E-1
6.399056910E-1,4.148864746E-2,-1.662216187E-1,-6.108276844E-1
6.479010140E-1,4.430928230E-1,-2.322320938E-1,-7.277367115E-1
6.559281060E-1,7.395918369E-1,-2.134618759E-1,-7.691533566E-1
6.639245070E-1,8.667271137E-1,-1.329135895E-1,-7.642693520E-1
6.719185990E-1,8.856377602E-1,6.068229675E-3,-7.409322262E-1
6.799143840E-1,7.005131245E-1,1.136875153E-1,-6.977553368E-1
6.879100910E-1,4.874842167E-1,1.499757767E-1,-6.768670082E-1
6.959066460E-1,3.222644329E-1,1.511888504E-1,-6.236932278E-1
7.039313530E-1,1.740975380E-1,1.677703857E-1,-5.405480862E-1
7.119272920E-1,1.003160477E-1,2.282686234E-1,-4.040727615E-1
7.199233840E-1,1.104686260E-1,2.244215012E-1,-2.829382420E-1
7.279187850E-1,1.731424332E-1,2.681884766E-1,-1.905620098E-1
7.359153380E-1,2.742242813E-1,2.897348404E-1,-1.115965843E-1
7.439104310E-1,4.042503834E-1,2.906713486E-1,-1.253678799E-1
7.519052930E-1,5.378341675E-1,2.751674652E-1,-1.368045807E-1
7.599013090E-1,6.324265003E-1,2.646980286E-1,-1.756184101E-1
7.679274770E-1,7.071709633E-1,2.478427887E-1,-1.898868084E-1
7.759238010E-1,6.990923882E-1,2.251405716E-1,-2.394288778E-1
7.839185850E-1,6.195216179E-1,2.474126816E-1,-2.381495237E-1
7.919139860E-1,5.964963436E-1,2.623958588E-1,-2.242208719E-1
7.999090010E-1,5.936384201E-1,2.292098999E-1,-1.668161154E-1
8.079056320E-1,7.025971413E-1,1.445875168E-1,3.776824474E-2
8.159019550E-1,8.492283821E-1,1.398305893E-1,-1.667523384E-1
8.239275100E-1,9.610214233E-1,2.099685669E-1,-1.697019339E-1
8.319232170E-1,1.076371431E0,2.088432312E-1,-1.608335972E-1
8.399183100E-1,1.195496082E0,2.346754074E-1,-1.592932940E-1
8.479137860E-1,1.217839479E0,2.499341965E-1,-1.363631487E-1
8.559106490E-1,1.118093014E0,2.142372131E-1,-1.185001135E-1
8.639051250E-1,9.217052460E-1,1.856536865E-1,-8.852934837E-2
8.719313720E-1,6.867823601E-1,1.788511276E-1,-5.573415756E-2
8.799264640E-1,3.981266022E-1,1.515274048E-1,-4.050564766E-2
8.879230180E-1,1.881747246E-1,8.734321594E-2,-1.511573792E-3
8.959184180E-1,4.251742363E-2,5.829143524E-2,-2.624392509E-3
9.039144340E-1,-7.981467247E-2,3.814411163E-2,-3.333413601E-2
9.119098340E-1,-9.606266022E-2,4.558086395E-2,5.899059772E-2
9.199053110E-1,-2.726745605E-2,-2.907562256E-2,-2.351069450E-2
9.279317880E-1,2.058768272E-2,-4.948139191E-2,-5.042374134E-2
9.359271120E-1,1.309580803E-1,-8.605480194E-2,-1.031769514E-1
9.439222800E-1,1.947793961E-1,-1.224880219E-1,-1.696598530E-1
9.519179890E-1,2.144792080E-1,-1.396532059E-1,-2.283586264E-1
9.599133880E-1,2.595858574E-1,-1.854305267E-1,-2.673486471E-1
9.679099430E-1,2.848293781E-1,-2.599353790E-1,-2.875181437E-1
9.759059580E-1,3.615829945E-1,-2.749013901E-1,-3.256167173E-1
9.839318200E-1,4.288899899E-1,-2.882242203E-1,-3.698697090E-1
9.919275270E-1,4.650614262E-1,-2.617197037E-1,-3.775228262E-1
9.999223900E-1,5.130813122E-1,-2.505321503E-1,-4.277315140E-1
1.007918328E0,5.562844276E-1,-2.116880417E-1,-3.993091583E-1
1.015914651E0,5.728135109E-1,-1.524267197E-1,-4.498620629E-1
1.023908897E0,6.264593601E-1,-5.155658722E-2,-4.383750558E-1
1.031905144E0,6.396570206E-1,2.675151825E-2,-4.535995722E-1
1.039931313E0,5.918405056E-1,6.356525421E-2,-3.863192201E-1
1.047925790E0,5.540525913E-1,9.058952332E-3,-3.022013307E-1
1.055923113E0,5.242574215E-1,-1.695251465E-2,-2.136486769E-1
1.063918744E0,4.476561546E-1,-7.191276550E-2,-1.023807526E-1
1.071913836E0,3.704893589E-1,-9.562301636E-2,-4.478609562E-2
1.079909237E0,2.766051292E-1,-8.056640625E-2,-4.274785519E-2
1.087904944E0,1.897394657E-1,-6.492042542E-2,-6.611812115E-2
1.095931191E0,1.073510647E-1,-5.583858490E-2,-6.886017323E-2
1.103925668E0,4.900002480E-2,-1.081609726E-1,-6.970489025E-2
1.111922299E0,2.896595001E-2,-1.237735748E-1,-4.008698463E-2
1.119918622E0,4.442882538E-2,-1.244506836E-1,8.398294449E-2
1.127913330E0,7.559227943E-2,-1.177473068E-1,2.797772884E-1
1.135909730E0,7.363319397E-2,-1.090021133E-1,4.354588985E-1
1.143905669E0,4.256796837E-2,-1.105194092E-1,4.955139160E-1
1.151930376E0,-7.504415512E-2,-1.414089203E-1,5.129121542E-1
1.159926623E0,-1.851465702E-1,-1.055364609E-1,4.670370817E-1
1.167921715E0,-3.108403683E-1,-7.188510895E-2,4.068676233E-1
1.175918039E0,-3.914337158E-1,-2.810382843E-2,3.760275841E-1
1.183913515E0,-4.380779266E-1,-4.920005798E-3,3.249030113E-1
1.191908916E0,-4.456424713E-1,-4.522895813E-2,2.732832432E-1
1.199904315E0,-4.334752560E-1,-7.954216003E-2,2.031395435E-1
1.207930793E0,-3.575637341E-1,-1.083860397E-1,1.842833757E-1
1.215927731E0,-2.837173939E-1,-1.345930099E-1,1.976543665E-1
1.223922516E0,-1.824016571E-1,-1.874580383E-1,1.861217022E-1
1.231917224E0,-1.638100147E-1,-1.617364883E-1,1.992787123E-1
1.239913009E0,-1.462318897E-1,-1.052684784E-1,2.317131758E-1
1.247909255E0,-8.004927635E-2,-6.858348846E-2,2.211830616E-1
1.255905271E0,-3.012943268E-2,-1.348590851E-2,2.536052465E-1
1.263930824E0,-2.022671700E-2,2.884960175E-2,2.801631689E-1
1.271926225E0,2.143359184E-2,3.923130035E-2,3.055430651E-1
1.279921624E0,4.699254036E-2,3.199577332E-3,3.672306538E-1
1.287917641E0,6.344532967E-2,-2.901268005E-2,3.721809387E-1
1.295914348E0,4.902577400E-2,-5.042743683E-2,4.440085888E-1
1.303909672E0,-1.030073166E-1,-4.857826233E-2,3.849999905E-1
1.311904225E0,-3.133971691E-1,-9.426593781E-2,4.036070108E-1
1.319930395E0,-4.193325043E-1,-1.769466400E-1,3.972100019E-1
1.327926025E0,-3.343198299E-1,-1.747884750E-1,1.996510029E-1
1.335922964E0,-2.100687027E-1,-1.366024017E-1,1.662266254E-2
1.343917210E0,-1.743805408E-1,-1.155261993E-1,-6.654894352E-2
1.351913765E0,-2.635779381E-1,-1.087255478E-1,-9.293138981E-2
1.359908857E0,-3.480224609E-1,-1.751575470E-1,-1.259258986E-1
1.367904642E0,-3.998000622E-1,-1.922006607E-1,-1.470873356E-1
1.375931349E0,-3.763201237E-1,-1.576566696E-1,-1.755191088E-1
1.383925596E0,-3.088400364E-1,-1.418924332E-1,-1.678624153E-1
1.391921303E0,-2.798585892E-1,-1.237659454E-1,-1.359229088E-1
1.399917319E0,-3.551540375E-1,-1.338682175E-1,-1.153033972E-1
1.407912411E0,-4.233567715E-1,-1.502590179E-1,-2.994382381E-2
1.415909350E0,-4.155259132E-1,-1.827497482E-1,2.173364162E-2
1.423904058E0,-3.407585621E-1,-1.626558304E-1,5.881047249E-2
1.431929997E0,-3.008427620E-1,-1.884794235E-1,3.187572956E-2
1.439925935E0,-2.915325165E-1,-1.477975845E-1,-8.149385452E-3
1.447921951E0,-2.932188511E-1,-1.313476562E-1,-4.643666744E-2
1.455917966E0,-2.766802311E-1,-1.245498657E-1,-1.307020187E-1
1.463913367E0,-1.854088306E-1,-1.110010147E-1,-2.034662962E-1
1.471907920E0,-1.361722946E-1,-1.049146652E-1,-2.698935270E-1
1.479904167E0,-7.164382935E-2,-6.807041168E-2,-3.302267790E-1
1.487930643E0,-6.286382675E-2,-3.377056122E-2,-3.371013403E-1
1.495926736E0,-7.587170601E-2,-1.142787933E-2,-3.671370149E-1
1.503921521E0,-1.290154457E-1,2.319240570E-2,-3.773176074E-1
1.511917460E0,-1.649796963E-1,5.314350128E-2,-3.182809353E-1
1.519912629E0,-2.525749207E-1,6.908416748E-2,-2.977571487E-1
1.527908029E0,-3.288805485E-1,8.563995361E-2,-2.726134062E-1
1.535904890E0,-3.079400063E-1,7.161140442E-2,-2.594891787E-1
1.543929906E0,-2.367312908E-1,7.671260834E-2,-2.296680212E-1
1.551925921E0,-1.527595520E-1,9.788417816E-2,-1.956429482E-1
1.559921322E0,-1.330525875E-1,1.134634018E-1,-1.858276129E-1
1.567916952E0,-1.670701504E-1,1.262359619E-1,-1.928840876E-1
1.575912968E0,-1.040050983E-1,1.313962936E-1,-1.833161116E-1
1.583907445E0,-5.615878105E-2,1.362009048E-1,-2.098749876E-1
1.591903153E0,2.410674095E-2,1.190204620E-1,-2.413473129E-1
1.599929938E0,1.061105728E-2,1.184692383E-1,-2.822410464E-1
1.607925107E0,5.180644989E-2,1.201429367E-1,-2.802011371E-1
1.615921661E0,5.692768097E-2,1.073646545E-1,-2.926484942E-1
1.623917138E0,2.622103691E-2,1.137294769E-1,-2.742676139E-1
1.631912153E0,5.307674408E-3,1.129379272E-1,-2.897621393E-1
1.639907862E0,1.317954063E-2,1.409502029E-1,-3.407383561E-1
1.647903646E0,1.847028732E-3,1.307210922E-1,-3.239455223E-1
1.655930124E0,1.431202888E-2,1.206493378E-1,-3.868161440E-1
1.663926062E0,-9.194612503E-3,1.132593155E-1,-4.351572394E-1
1.671920539E0,-7.564663887E-2,1.636152267E-1,-4.049129486E-1
1.679916016E0,-1.772522926E-1,1.832284927E-1,-3.545691967E-1
1.687912263E0,-2.131392956E-1,1.434736252E-1,-3.536609411E-1
1.695908585E0,-1.409425735E-1,8.462524414E-2,-2.621790767E-1
1.703904063E0,-9.096264839E-2,8.508110046E-2,-1.586263776E-1
1.711929539E0,-1.516034603E-1,3.476524353E-2,-9.107255936E-2
1.719924709E0,-1.883203983E-1,-3.821372986E-3,-8.052551746E-2
1.727920340E0,-1.550714970E-1,-6.866359711E-2,-9.732705355E-2
1.735917663E0,-2.377653122E-2,-9.047031403E-2,-1.357387900E-1
1.743910909E0,1.942129135E-1,-9.872913361E-2,-1.126812100E-1
1.751907771E0,2.061409950E-1,-1.708602905E-2,-1.239104867E-1
1.759903248E0,3.952670097E-2,1.310081482E-1,-1.284077764E-1
1.767929341E0,-2.771599293E-1,3.247928619E-1,-3.067040443E-2
1.775925741E0,-4.499394894E-1,3.517837524E-1,4.003069401E-1
1.783921449E0,-4.342148304E-1,3.033504486E-1,5.809340477E-1
1.791916156E0,-2.080080509E-1,1.788177490E-1,1.229171157E0
1.799911326E0,1.130445004E-1,-2.957344055E-2,2.066904545E0
1.807907264E0,4.570012093E-1,-4.514398575E-1,3.152399063E0
1.815934434E0,5.056231022E-1,-9.629430771E-1,4.309180260E0
1.823929141E0,2.223877907E-1,-1.548665047E0,5.446412086E0
1.831924234E0,-3.697078228E-1,-2.045670509E0,6.521468639E0
1.839920249E0,-9.352962971E-1,-2.496451378E0,7.361235619E0
1.847916035E0,-1.527914286E0,-2.902873039E0,8.050104141E0
1.855912896E0,-1.977735639E0,-3.007639885E0,8.442221642E0
1.863907681E0,-2.276104689E0,-2.843511581E0,8.869895935E0
1.871903158E0,-2.245236158E0,-2.721668243E0,9.263396263E0
1.879928712E0,-1.742382288E0,-2.798448563E0,9.777275085E0
1.887924419E0,-1.032235622E0,-2.955477715E0,1.009244061E1
1.895921051E0,-6.358902454E-1,-3.079286575E0,1.016573811E1
1.903915450E0,-4.956147671E-1,-3.218443871E0,9.911859512E0
1.911911774E0,-5.103762150E-1,-3.246208191E0,9.437137604E0
1.919906635E0,-5.726349354E-1,-3.304549217E0,8.959296227E0
1.927903497E0,-5.548124313E-1,-3.464042664E0,8.280268669E0
1.935929743E0,-4.849665165E-1,-3.658247948E0,7.687492847E0
1.943925452E0,-2.993190289E-1,-3.916253090E0,7.017556190E0
1.951919928E0,-2.579212189E-3,-4.185707092E0,6.395490170E0
1.959916175E0,3.603751659E-1,-4.409633636E0,5.674782753E0
1.967910421E0,6.626651287E-1,-4.590556145E0,4.985992432E0
1.975907360E0,8.693089485E-1,-4.876831055E0,4.332298279E0
1.983932913E0,1.162615299E0,-5.127327919E0,3.805387497E0
1.991928852E0,1.484963655E0,-5.313285828E0,3.516780376E0
1.999924252E0,1.880470037E0,-5.598239899E0,3.162966728E0
2.007919730E0,2.127053738E0,-5.820508957E0,2.799125671E0
2.015916360E0,2.153809786E0,-5.914505959E0,2.295377254E0
2.023912068E0,2.034173012E0,-5.929781437E0,1.690501213E0
2.031907160E0,2.023173094E0,-5.887743473E0,1.073291779E0
2.039933253E0,2.268237352E0,-5.952274799E0,6.850566864E-1
2.047928730E0,2.635759115E0,-5.988764286E0,4.836320877E-1
2.055924130E0,3.096329689E0,-6.092901230E0,4.913749695E-1
2.063919145E0,3.406260729E0,-6.195477962E0,4.842038155E-1
2.071915546E0,3.613778830E0,-6.205907345E0,3.348278999E-1
2.079910869E0,3.715221882E0,-6.115530968E0,7.938337326E-2
2.087906654E0,3.942256451E0,-6.202402592E0,-2.842741013E-1
2.095933054E0,4.184530258E0,-6.313173771E0,-6.129498482E-1
2.103928839E0,4.144917965E0,-6.218074799E0,-8.952217102E-1
2.111924469E0,3.713068008E0,-5.873503685E0,-9.897723198E-1
2.119919254E0,3.331281424E0,-5.597189426E0,-1.255330086E0
2.127915577E0,3.269908428E0,-5.539786339E0,-1.472290516E0
2.135911593E0,3.229907513E0,-5.533529282E0,-1.650092602E0
2.143906685E0,3.150668621E0,-5.550013542E0,-1.614740372E0
2.151932624E0,3.070223808E0,-5.370728493E0,-1.272721291E0
2.159928255E0,3.357453108E0,-5.180003166E0,-9.604897499E-1
2.167923732E0,3.784117937E0,-5.249019623E0,-1.057462215E0
2.175921209E0,4.073555946E0,-5.364930153E0,-1.432500362E0
2.183916071E0,4.071668148E0,-5.248350143E0,-1.814263821E0
2.191910778E0,3.851874590E0,-4.896637440E0,-2.214596748E0
2.199907102E0,3.589663744E0,-4.590023994E0,-2.507486820E0
2.207932655E0,3.251095772E0,-4.253407478E0,-2.850257874E0
2.215929056E0,2.829780102E0,-3.985920191E0,-3.143634796E0
2.223924379E0,2.465763807E0,-3.894589901E0,-3.235584736E0
2.231919241E0,2.132186174E0,-3.821894646E0,-3.233385086E0
2.239915256E0,1.942181110E0,-3.878388166E0,-3.314049244E0
2.247910887E0,1.890547752E0,-3.925215244E0,-3.241974831E0
2.255906979E0,1.904556394E0,-4.003624439E0,-3.122857094E0
2.263933380E0,1.938822746E0,-4.020578384E0,-3.012696266E0
2.271928241E0,1.856144071E0,-3.771808147E0,-3.024348736E0
2.279924180E0,1.686321735E0,-3.486212254E0,-3.027828693E0
2.287919657E0,1.408778071E0,-3.163782120E0,-3.343507290E0
2.295915288E0,1.095950961E0,-3.022514582E0,-3.737508774E0
2.303909534E0,6.249544621E-1,-2.976802826E0,-4.271052837E0
2.311906088E0,1.967297792E-1,-2.974685431E0,-4.554630756E0
2.319931642E0,-5.921995640E-2,-2.882526398E0,-4.857584000E0
2.327928658E0,-2.083706260E-1,-2.590509415E0,-5.250943661E0
2.335924288E0,-1.679103374E-1,-2.339630365E0,-5.538787842E0
2.343919766E0,-3.121078014E-3,-2.037262440E0,-6.123895645E0
2.351914550E0,9.219926596E-2,-1.803188920E0,-6.920726776E0
2.359910489E0,1.106889248E-1,-1.576946378E0,-7.575937271E0
2.367905658E0,1.117521524E-1,-1.207287788E0,-8.303627014E0
2.375933597E0,1.266651750E-1,-8.999910355E-1,-8.807905197E0
2.383926920E0,1.591976583E-1,-6.593841314E-1,-9.465377808E0
2.391923782E0,2.085786164E-1,-5.293386579E-1,-9.975109100E0
2.399919489E0,1.759404838E-1,-3.928420544E-1,-1.046682358E1
2.407915275E0,2.611462474E-1,-1.983200312E-1,-1.095086288E1
2.415911290E0,5.178023577E-1,3.042936325E-2,-1.126555920E1
2.423906613E0,9.391186237E-1,4.613512754E-1,-1.137108326E1
2.431932782E0,1.066403866E0,8.375797272E-1,-1.133548832E1
2.439927875E0,9.604636431E-1,1.380789042E0,-1.107039547E1
2.447923044E0,5.878177285E-1,1.807350159E0,-1.068145752E1
2.455919291E0,3.155462444E-1,1.941993952E0,-1.016124821E1
2.463914998E0,1.750094295E-1,1.793234348E0,-9.547253609E0
2.471910168E0,1.124219894E-1,1.493709564E0,-8.939800262E0
2.479905260E0,-8.554953337E-2,1.231264710E0,-8.122863770E0
2.487931968E0,-3.865960240E-1,1.215968847E0,-7.395601273E0
2.495929214E0,-5.795863867E-1,1.388177395E0,-6.801257133E0
2.503923769E0,-8.375000358E-1,1.614612460E0,-6.273051262E0
2.511918553E0,-9.906457663E-1,1.722442269E0,-5.964685440E0
2.519914800E0,-1.096256256E0,1.624253392E0,-5.667838573E0
2.527910199E0,-1.069095373E0,1.379170179E0,-5.300944805E0
2.535906292E0,-9.175004363E-1,1.007658482E0,-4.827550888E0
2.543931769E0,-5.975567698E-1,7.265897989E-1,-4.280887604E0
2.551927554E0,-2.562625408E-1,6.307175159E-1,-3.933512211E0
2.559922338E0,5.113703012E-2,5.911388397E-1,-3.567311764E0
2.567918585E0,2.512683272E-1,5.631501675E-1,-3.337839603E0
2.575914600E0,3.681371510E-1,5.714225769E-1,-3.144309521E0
2.583910616E0,4.741983414E-1,4.910835028E-1,-2.936043739E0
2.591905093E0,4.900181592E-1,3.870481253E-1,-2.825407505E0
2.599932263E0,4.622848034E-1,2.905857563E-1,-2.783582211E0
2.607928201E0,4.062679410E-1,2.642880678E-1,-2.856036663E0
2.615923601E0,3.129300177E-1,3.163688183E-1,-2.887243271E0
2.623918386E0,1.578238010E-1,3.597600460E-1,-2.791188240E0
2.631914094E0,5.547106266E-2,3.749510050E-1,-2.620472908E0
2.639909570E0,3.622233868E-2,3.578747511E-1,-2.320072651E0
2.647905202E0,7.437497377E-2,3.247501254E-1,-2.076586246E0
2.655932063E0,1.801362783E-1,2.970845699E-1,-1.758256912E0
2.663927156E0,2.497527301E-1,2.677245736E-1,-1.556576729E0
2.671923479E0,2.723062336E-1,1.477298141E-1,-1.418776512E0
2.679918264E0,1.414995790E-1,-1.164788008E-2,-1.471570969E0
2.687914510E0,-5.491992831E-2,-1.156797111E-1,-1.602284431E0
2.695910833E0,-2.021567523E-1,-2.539563179E-1,-1.650385857E0
2.703906002E0,-3.113963306E-1,-2.630136013E-1,-1.548754692E0
2.711931480E0,-3.347826600E-1,-1.354822367E-1,-1.541486740E0
2.719926956E0,-3.246620893E-1,2.114515007E-2,-1.472844124E0
2.727923203E0,-2.916204929E-1,1.603040993E-1,-1.215884209E0
2.735918680E0,-1.744266152E-1,1.920509338E-1,-1.093779564E0
2.743914696E0,-2.758228779E-2,1.419298053E-1,-1.094646454E0
2.751909403E0,1.371585131E-1,1.932392269E-2,-1.125302315E0
2.759904573E0,2.520917058E-1,-1.111411154E-1,-1.147644997E0
2.767931050E0,2.765108347E-1,-3.090540767E-1,-1.070770264E0
2.775927604E0,1.982235909E-1,-5.497915745E-1,-8.707551956E-1
2.783923081E0,1.028035879E-1,-6.683239937E-1,-6.146097183E-1
2.791918712E0,6.262302399E-2,-6.645704508E-1,-2.686071396E-1
2.799913804E0,1.028795242E-1,-5.490729213E-1,-4.811859131E-2
2.807908974E0,2.069002390E-1,-3.096231818E-1,1.089448929E-1
2.815935758E0,2.157683372E-1,-1.084985137E-1,3.778457642E-3
2.823931697E0,1.602230072E-1,3.078144789E-2,-8.107948303E-2
2.831926558E0,6.483006477E-2,8.754336834E-2,-2.151155472E-1
2.839923113E0,-1.375186443E-2,7.821559906E-3,-2.620258331E-1
2.847918205E0,4.622936249E-3,-2.281634808E-1,-3.080015182E-1
2.855914836E0,9.007716179E-2,-5.084904432E-1,-2.264518738E-1
2.863910005E0,2.220685482E-1,-8.015767336E-1,-9.850597382E-2
2.871935790E0,3.142746687E-1,-1.019710422E0,1.669979095E-2
2.879930882E0,3.342286348E-1,-9.735366106E-1,2.689361572E-3
2.887926052E0,3.101636171E-1,-7.901844978E-1,-6.414127350E-2
2.895923606E0,2.208805084E-1,-4.959470034E-1,2.519607544E-3
2.903918391E0,1.311247349E-1,-2.666863203E-1,-2.979278564E-2
2.911913483E0,1.292831898E-1,-2.135808468E-1,-5.833530426E-2
2.919909729E0,1.999433041E-1,-3.355207443E-1,3.466033936E-2
2.927935668E0,4.307532310E-1,-6.625609398E-1,5.929470062E-2
2.935932222E0,6.261405945E-1,-1.026995182E0,1.293754578E-1
2.943927391E0,8.303160667E-1,-1.362931252E0,1.537494659E-1
2.951921253E0,9.549088478E-1,-1.400532484E0,1.880683899E-1
2.959917884E0,1.056221724E0,-1.211598158E0,1.835517883E-1
2.967914130E0,1.099806309E0,-7.948663235E-1,2.129478455E-1
2.975909838E0,1.068634033E0,-3.691723347E-1,1.250457764E-1
2.983934854E0,1.026220083E0,-8.102083206E-2,-1.376199722E-1
2.991930253E0,9.124791622E-1,-1.019828320E-1,-2.301568985E-1
2.999926577E0,7.304916382E-1,-4.061388969E-1,-3.573579788E-1
3.007922207E0,6.081857681E-1,-7.466003895E-1,-3.502197266E-1
3.015917916E0,5.766258240E-1,-1.010288239E0,-2.171249390E-1
3.023912700E0,6.751675606E-1,-1.393143654E0,3.946399689E-2
3.031908408E0,8.251821995E-1,-1.579857349E0,2.119283676E-1
3.039935577E0,1.026581764E0,-1.518666506E0,2.011041641E-1
3.047930285E0,1.166294336E0,-1.184540033E0,1.461381912E-1
3.055926300E0,1.300115347E0,-8.691666126E-1,1.951217651E-2
3.063922009E0,1.313071251E0,-6.128759384E-1,-1.725978851E-1
3.071917716E0,1.186814547E0,-4.770791531E-1,-4.040579796E-1
3.079912809E0,9.595205784E-1,-3.498859406E-1,-6.346549988E-1
3.087908516E0,6.955199242E-1,-2.647218704E-1,-7.412223816E-1
3.095935379E0,3.807239532E-1,-3.340311050E-1,-6.677875519E-1
3.103930471E0,1.065845490E-1,-7.232217789E-1,-5.056710243E-1
3.111925794E0,7.375717163E-3,-1.083954334E0,-3.667364120E-1
3.119922117E0,3.032970428E-2,-1.230611801E0,-2.667503357E-1
3.127917210E0,1.881928444E-1,-1.125524998E0,-2.084498405E-1
3.135914763E0,5.096850395E-1,-9.743332863E-1,-2.012052536E-1
3.143909318E0,6.816282272E-1,-8.113398552E-1,-3.269534111E-1
3.151934256E0,8.019456863E-1,-5.836396217E-1,-4.789013863E-1
3.159930272E0,8.287982941E-1,-3.093171120E-1,-5.651011467E-1
3.167926287E0,8.945598602E-1,-6.636190414E-2,-5.102477074E-1
3.175921688E0,9.455399513E-1,1.838922501E-2,-3.969473839E-1
3.183917626E0,9.540176392E-1,-1.271114349E-1,-2.965521812E-1
3.191913026E0,8.902983665E-1,-4.365816116E-1,-8.692884445E-2
3.199908503E0,8.110523224E-1,-6.544723511E-1,2.104139328E-1
3.207934365E0,6.826210022E-1,-6.238784790E-1,4.436669350E-1
3.215931611E0,5.524220467E-1,-6.520509720E-1,6.673464775E-1
3.223926012E0,4.744892120E-1,-7.265353203E-1,7.219643593E-1
3.231921411E0,3.989605904E-1,-8.375110626E-1,6.976680756E-1
3.239916196E0,2.383079529E-1,-8.316473961E-1,6.793427467E-1
3.247911981E0,1.384253502E-1,-7.003421783E-1,4.699077606E-1
3.255908920E0,1.468167305E-1,-6.152439117E-1,3.408722878E-1
3.263933781E0,2.388048172E-1,-6.119203568E-1,2.142190933E-1
3.271929566E0,3.782949448E-1,-7.490673065E-1,2.062945366E-1
3.279925504E0,5.390748978E-1,-9.246377945E-1,3.546729088E-1
3.287921290E0,7.941079140E-1,-9.248690605E-1,6.905498505E-1
3.295917612E0,1.066178322E0,-8.430910110E-1,9.038648605E-1
3.303912705E0,1.295343399E0,-7.490191460E-1,1.011221409E0
3.311907720E0,1.366643429E0,-7.619614601E-1,8.976783752E-1
3.319934582E0,1.221915722E0,-7.722744942E-1,7.641210556E-1
3.327929290E0,9.921755791E-1,-7.343025208E-1,5.775837898E-1
3.335926536E0,7.584996223E-1,-5.757317543E-1,4.392971992E-1
3.343921090E0,6.180191040E-1,-4.252038002E-1,3.510360718E-1
3.351917337E0,5.622692108E-1,-4.761314392E-1,2.837634087E-1
3.359912506E0,5.496511459E-1,-6.953330040E-1,3.291215897E-1
3.367908137E0,5.491480827E-1,-1.000718594E0,4.402642250E-1
3.375934614E0,6.270203590E-1,-1.106749535E0,6.068625450E-1
3.383930399E0,8.689093590E-1,-1.123858452E0,7.114429474E-1
3.391925491E0,1.161402225E0,-1.165101051E0,8.709144592E-1
3.399921122E0,1.310416222E0,-1.219420910E0,8.897490501E-1
3.407916829E0,1.269604683E0,-1.246456623E0,9.381179810E-1
3.415913153E0,1.062205791E0,-1.167786121E0,9.628753662E-1
3.423907399E0,8.364386559E-1,-1.023752213E0,1.017256975E0
3.431933569E0,6.152710915E-1,-8.313651085E-1,9.438149929E-1
3.439928968E0,4.259686470E-1,-6.652703285E-1,8.656470776E-1
3.447924985E0,2.526597977E-1,-5.521230698E-1,7.888760567E-1
3.455921538E0,1.297698021E-1,-5.349884033E-1,7.252445221E-1
3.463917631E0,-9.862613678E-2,-5.553760529E-1,7.181844711E-1
3.471912031E0,-2.042942047E-1,-6.195521355E-1,8.214542866E-1
3.479907816E0,-5.850315094E-2,-7.697186470E-1,8.789005280E-1
3.487933600E0,3.324995041E-1,-8.117804527E-1,9.831435680E-1
3.495929924E0,6.669640541E-1,-7.825498581E-1,1.017478943E0
3.503925093E0,9.855237007E-1,-7.378659248E-1,9.513928890E-1
3.511920186E0,1.094328403E0,-6.975283623E-1,8.881378174E-1
3.519916816E0,1.161924362E0,-6.731534004E-1,8.121750355E-1
3.527911524E0,1.186766624E0,-6.506147385E-1,6.270961761E-1
3.535908539E0,1.193047523E0,-6.033177376E-1,5.311563015E-1
3.543934632E0,1.103286266E0,-5.912628174E-1,4.387824535E-1
3.551929493E0,8.398351669E-1,-6.722183228E-1,5.636239052E-1
3.559924894E0,4.930214882E-1,-9.130392075E-1,7.228829861E-1
3.567920294E0,2.752456665E-1,-1.107668877E0,9.183330536E-1
3.575917156E0,1.759433746E-1,-1.081320763E0,1.152194500E0
3.583911709E0,1.960272789E-1,-9.113445282E-1,1.377277851E0
3.591907648E0,2.602581978E-1,-8.519592285E-1,1.532083392E0
3.599933894E0,3.182630539E-1,-8.435277939E-1,1.613476872E0
3.607928987E0,3.371229172E-1,-8.428039551E-1,1.672940373E0
3.615925848E0,3.109130859E-1,-7.870616913E-1,1.763785005E0
3.623921326E0,2.863516808E-1,-7.284469604E-1,1.853292227E0
3.631916341E0,2.592620850E-1,-6.501054764E-1,1.905722618E0
3.639912049E0,9.528875351E-2,-4.897527695E-1,1.883057594E0
3.647907449E0,-1.146831512E-1,-3.574247360E-1,1.878801823E0
3.655933696E0,-4.254913330E-1,-1.783761978E-1,1.887490749E0
3.663930018E0,-6.798257828E-1,-1.542778015E-1,1.960466504E0
3.671924496E0,-7.685976028E-1,-2.550439835E-1,2.049806118E0
3.679920203E0,-6.534552574E-1,-3.696374893E-1,2.100883007E0
3.687916527E0,-4.455232620E-1,-4.285888672E-1,2.122604847E0
3.695911619E0,-1.560859680E-1,-4.922389984E-1,2.144968033E0
3.703938097E0,9.813070297E-2,-5.708866119E-1,2.115355492E0
3.711933112E0,2.753825188E-1,-5.838212967E-1,1.990226388E0
3.719929204E0,2.727193832E-1,-5.267810822E-1,1.871049285E0
3.727924912E0,2.275815010E-1,-4.619092941E-1,1.780515671E0
3.735921236E0,1.554102898E-1,-4.223022461E-1,1.666588187E0
3.743915943E0,7.626342773E-2,-4.385919571E-1,1.617345214E0
3.751911420E0,5.495548248E-2,-4.912433624E-1,1.620569348E0
3.759906512E0,5.126476288E-3,-5.394315720E-1,1.689903021E0
3.767932990E0,-3.752374649E-2,-6.379318237E-1,1.888379216E0
3.775929005E0,-4.936933517E-2,-7.170867920E-1,2.147156239E0
3.783924406E0,-2.581596375E-2,-7.122411728E-1,2.383390427E0
3.791920113E0,-3.633069992E-2,-6.568670273E-1,2.702847958E0
3.799916129E0,-9.378433228E-3,-5.822467804E-1,2.921314240E0
3.807910836E0,1.550712585E-1,-5.199060440E-1,3.112396240E0
3.815938314E0,4.589743614E-1,-4.947948456E-1,2.980703354E0
3.823933098E0,7.148737907E-1,-4.308500290E-1,2.807663441E0
3.831928422E0,8.850712776E-1,-3.638229370E-1,2.445707321E0
3.839924744E0,9.687047005E-1,-2.595367432E-1,2.163586617E0
3.847920222E0,9.002385139E-1,-1.723365784E-1,2.192480087E0
3.855915929E0,7.005481720E-1,-1.732645035E-1,2.516614676E0
3.863911638E0,4.588980675E-1,-1.566781998E-1,2.656907558E0
3.871906730E0,2.729945183E-1,-1.801033020E-1,2.929055452E0
3.879932899E0,1.970105171E-1,-2.319765091E-1,3.281822205E0
3.887928838E0,2.078242302E-1,-2.411069870E-1,3.765503883E0
3.895924931E0,1.917309761E-1,-3.229084015E-1,4.166152000E0
3.903919638E0,1.125392914E-1,-4.224910736E-1,4.529326916E0
3.911915654E0,1.741404533E-1,-6.164550781E-1,5.047887325E0
3.919910746E0,3.340368271E-1,-8.116044998E-1,5.405527592E0
3.927906531E0,6.500453949E-1,-1.020156860E0,5.705726624E0
3.935933931E0,8.948984146E-1,-1.038991928E0,5.879811287E0
3.943928947E0,1.112111092E0,-1.035968781E0,6.046143532E0
3.951923500E0,1.177796841E0,-1.066413879E0,6.162668705E0
3.959919209E0,1.120985508E0,-1.188175201E0,6.156864166E0
3.967915531E0,1.058922291E0,-1.451498985E0,6.141208649E0
3.975911855E0,1.039137840E0,-1.639006615E0,6.049238205E0
3.983936793E0,1.017948151E0,-1.774802208E0,5.955074310E0
3.991932501E0,1.114615440E0,-1.873542786E0,5.752140045E0
3.999927901E0,1.223396778E0,-2.007329941E0,5.446146011E0
4.007923532E0,1.310737133E0,-2.185995102E0,4.948728561E0
4.015919855E0,1.401053429E0,-2.287685394E0,4.477164268E0
4.023916179E0,1.561789513E0,-2.369467735E0,3.984979630E0
4.031910655E0,1.707363129E0,-2.501073837E0,3.567068338E0
4.039936825E0,1.826479435E0,-2.663130283E0,2.996480227E0
4.047932533E0,1.905707359E0,-2.740750313E0,2.493015051E0
4.055929472E0,1.911596298E0,-2.748495102E0,2.033154249E0
4.063923102E0,1.922882557E0,-2.741330147E0,1.575185299E0
4.071919733E0,1.924335003E0,-2.796214104E0,1.268516541E0
4.079914825E0,1.873900890E0,-2.898422718E0,8.595776558E-1
4.087910457E0,1.845761299E0,-2.976465225E0,4.988174438E-1
4.095937856E0,1.796976566E0,-2.977342606E0,8.389472961E-2
4.103932719E0,1.764251709E0,-2.933739185E0,-2.504053116E-1
4.111928118E0,1.808946133E0,-2.909440517E0,-5.375943184E-1
4.119923134E0,2.003740788E0,-2.839349270E0,-8.112168312E-1
4.127919226E0,2.101968765E0,-2.774037838E0,-1.057194233E0
4.135915550E0,2.055103302E0,-2.734444618E0,-1.269349098E0
4.143909411E0,1.970574379E0,-2.723104477E0,-1.395016193E0
4.151936735E0,1.880723000E0,-2.732763767E0,-1.524312496E0
4.159932750E0,1.798015118E0,-2.746994972E0,-1.670847416E0
4.167927535E0,1.699016809E0,-2.734790802E0,-1.802638531E0
4.175924550E0,1.589864492E0,-2.626833916E0,-1.933834553E0
4.183919643E0,1.546724558E0,-2.445111275E0,-2.048175335E0
4.191914350E0,1.593614340E0,-2.286535263E0,-2.156733990E0
4.199910443E0,1.682035923E0,-2.153700352E0,-2.114989758E0
4.207935997E0,1.803977013E0,-2.147117138E0,-2.158577442E0
4.215932628E0,1.918038368E0,-2.189901352E0,-2.091927052E0
4.223927951E0,1.900678396E0,-2.126412868E0,-2.049617767E0
4.231923352E0,1.771738052E0,-2.028187275E0,-1.988637924E0
4.239919751E0,1.665589571E0,-1.890359402E0,-1.940162659E0
4.247914459E0,1.563753605E0,-1.901262283E0,-1.890785217E0
4.255910859E0,1.440502405E0,-1.920503139E0,-1.888300419E0
4.263937337E0,1.264806271E0,-1.926635742E0,-1.965396404E0
4.271931506E0,1.068197012E0,-1.900217533E0,-1.965591431E0
4.279927445E0,9.203414917E-1,-1.846607685E0,-1.950789452E0
4.287922921E0,8.652226925E-1,-1.766571045E0,-1.904860973E0
4.295920168E0,8.715879917E-1,-1.712032795E0,-1.854885578E0
4.303913414E0,9.122581482E-1,-1.657084942E0,-1.819321156E0
4.311909968E0,9.879989624E-1,-1.602442265E0,-1.715613842E0
4.319936445E0,1.056481600E0,-1.486639023E0,-1.456193924E0
4.327932153E0,1.158460379E0,-1.317915440E0,-1.262051105E0
4.335927937E0,1.131049633E0,-1.105239391E0,-1.171204567E0
4.343923261E0,9.772865772E-1,-9.089837074E-1,-1.039283752E0
4.351918738E0,7.668082714E-1,-6.695213318E-1,-9.011492729E-1
4.359914754E0,6.344344616E-1,-5.123939514E-1,-7.803406715E-1
4.367909769E0,5.386755466E-1,-3.670272827E-1,-6.892061234E-1
4.375936862E0,3.405826092E-1,-2.539649010E-1,-6.331715584E-1
4.383931107E0,1.917786598E-1,-2.132315636E-1,-5.609726906E-1
4.391927431E0,-1.579403877E-2,-1.595849991E-1,-4.514770508E-1
4.399923369E0,-1.369078159E-1,-1.163816452E-1,-3.710193634E-1
4.407917847E0,-2.293241024E-1,-2.967357635E-2,-2.050657272E-1
4.415914785E0,-2.532384396E-1,9.290504456E-2,7.055950165E-2
4.423910262E0,-2.289192677E-1,1.365799904E-1,1.836442947E-1
4.431936047E0,-1.728856564E-1,1.095581055E-1,1.812772751E-1
4.439932063E0,-1.961908340E-1,1.598076820E-1,6.613445282E-2
4.447927770E0,-3.501639366E-1,2.302813530E-1,-9.248447418E-2
4.455924401E0,-4.731779099E-1,3.517658710E-1,-2.686777115E-1
4.463918032E0,-5.451219082E-1,5.143747330E-1,-3.382129669E-1
4.471913740E0,-5.115211010E-1,5.718193054E-1,-3.019676208E-1
4.479909371E0,-4.733471870E-1,5.701463223E-1,-2.359495163E-1
4.487936540E0,-4.484841824E-1,5.604152679E-1,-1.583862305E-1
4.495932786E0,-4.599034786E-1,5.215370655E-1,-1.354990005E-1
4.503927033E0,-5.057902336E-1,5.046329498E-1,1.769733429E-2
4.511922740E0,-5.384042263E-1,5.924906731E-1,1.572294235E-1
4.519918679E0,-4.746091366E-1,6.229846478E-1,2.429542542E-1
4.527914079E0,-4.063360691E-1,7.212820053E-1,1.716241837E-1
4.535910172E0,-3.445692062E-1,7.835907936E-1,-7.805252075E-2
4.543936572E0,-3.360867500E-1,8.637547493E-1,-3.670387268E-1
4.559926833E0,-3.867020607E-1,9.797602892E-1,-7.674503326E-1
4.567922542E0,-3.662133217E-1,1.017328739E0,-7.912721634E-1
4.575918480E0,-3.826997280E-1,1.000544906E0,-7.669754028E-1
4.583913957E0,-3.576388359E-1,1.003446102E0,-7.542781830E-1
4.591909357E0,-3.862998486E-1,9.874478579E-1,-6.904106140E-1
4.599935527E0,-5.163896084E-1,9.500257969E-1,-7.495241165E-1
4.607931234E0,-6.640473604E-1,9.461762905E-1,-9.429731369E-1
4.615927558E0,-7.742056847E-1,1.004749298E0,-1.150420189E0
4.623922265E0,-9.101029634E-1,1.054284096E0,-1.338098049E0
4.631918358E0,-1.020191550E0,1.081849098E0,-1.426541805E0
4.639913450E0,-1.086645246E0,1.120589018E0,-1.516809940E0
4.647908851E0,-1.080398560E0,1.115903854E0,-1.498898983E0
4.655935635E0,-1.009936213E0,1.118030787E0,-1.557566643E0
4.663930959E0,-9.367758036E-1,1.124538302E0,-1.681134701E0
4.671926743E0,-8.696618080E-1,1.144808650E0,-1.781338215E0
4.679922144E0,-7.918479443E-1,1.140586972E0,-1.925285816E0
4.687917236E0,-7.134758234E-1,1.092443109E0,-2.067456245E0
4.695913559E0,-6.339343786E-1,1.096918702E0,-2.251082897E0
4.703909190E0,-5.556230545E-1,1.087462425E0,-2.215803623E0
4.711935667E0,-4.753601551E-1,1.109701872E0,-2.139598846E0
4.719931375E0,-3.745073080E-1,1.139388561E0,-1.991856098E0
4.727926775E0,-3.256219625E-1,1.152110815E0,-1.880737305E0
4.735923175E0,-3.815016747E-1,1.146672130E0,-1.856525421E0
4.743917960E0,-5.132378340E-1,1.096878767E0,-1.930629253E0
4.751913591E0,-8.057546616E-1,1.026401162E0,-2.107056618E0
4.759909607E0,-1.140179157E0,1.100873470E0,-2.334853172E0
4.767934929E0,-1.472625732E0,1.210811734E0,-2.623324871E0
4.775931484E0,-1.793739438E0,1.481505394E0,-2.934210300E0
4.783926653E0,-1.985614777E0,1.676782370E0,-3.262948990E0
4.791922284E0,-2.183046103E0,1.880521894E0,-3.586029530E0
4.799917991E0,-2.314527035E0,2.089924097E0,-3.942258358E0
4.807912854E0,-2.422373772E0,2.291746378E0,-4.109665394E0
4.815909792E0,-2.541590691E0,2.526468277E0,-4.342243671E0
4.823935038E0,-2.748852253E0,2.651217937E0,-4.601723194E0
4.831930361E0,-3.015375137E0,2.788425684E0,-4.875782013E0
4.839925839E0,-3.327669621E0,2.855160236E0,-5.111314774E0
4.847922084E0,-3.516275406E0,2.870124340E0,-5.336687565E0
4.855918408E0,-3.573072910E0,2.818822384E0,-5.525118351E0
4.863913269E0,-3.524615288E0,2.840348959E0,-5.518383980E0
4.871908670E0,-3.390181780E0,2.960429430E0,-5.541624069E0
4.879935070E0,-3.246205807E0,3.112403631E0,-5.539895058E0
4.887930470E0,-3.124317169E0,3.196861744E0,-5.455967903E0
4.895927101E0,-3.123713017E0,3.156796932E0,-5.476778030E0
4.903921963E0,-3.198928833E0,3.040035248E0,-5.487668991E0
4.911917978E0,-3.290709019E0,2.826323032E0,-5.450467110E0
4.919913302E0,-3.336845875E0,2.620678186E0,-5.283685684E0
4.927939163E0,-3.271742821E0,2.426841497E0,-5.078016281E0
4.935936102E0,-3.060399055E0,2.213959932E0,-4.718022823E0
4.943930655E0,-2.833803654E0,2.007923841E0,-4.231765747E0
4.951925133E0,-2.555214405E0,1.769376040E0,-3.709839344E0
4.959922071E0,-2.319793463E0,1.634753227E0,-3.290634155E0
4.967918010E0,-2.003056526E0,1.572088361E0,-2.923935890E0
4.975913717E0,-1.746143460E0,1.538742065E0,-2.660121441E0
4.983939272E0,-1.472162127E0,1.486835599E0,-2.279482365E0
4.991934364E0,-1.199695945E0,1.389773369E0,-1.959960461E0
4.999929457E0,-9.567039609E-1,1.325651169E0,-1.752850056E0
5.007925856E0,-7.000283003E-1,1.188792467E0,-1.567752838E0
5.015921872E0,-5.571306944E-1,1.084646463E0,-1.368774414E0
5.023916964E0,-6.152691841E-1,9.614187479E-1,-1.110412598E0
5.031911980E0,-7.877814770E-1,8.115928173E-1,-7.995843887E-1
5.039938765E0,-8.911551237E-1,7.426388860E-1,-5.075311661E-1
5.047934781E0,-8.806104660E-1,7.565681934E-1,-2.264776230E-1
5.055931411E0,-8.558852673E-1,8.749784231E-1,3.913593292E-2
5.063926581E0,-8.390876055E-1,9.494102597E-1,1.936836243E-1
5.071921365E0,-8.209520578E-1,9.703676701E-1,2.229146957E-1
5.079916766E0,-8.606742620E-1,9.543689489E-1,1.889362335E-1
5.087913012E0,-8.521051407E-1,9.262994528E-1,1.443805695E-1
5.095939566E0,-9.319651127E-1,9.414917231E-1,1.569547653E-1
5.103934889E0,-9.539675713E-1,1.072459698E0,3.181276321E-1
5.111930059E0,-8.968243599E-1,1.201615334E0,4.455127716E-1
5.119925766E0,-8.123100996E-1,1.288704753E0,5.248775482E-1
5.127920551E0,-7.074155807E-1,1.206046104E0,6.119289398E-1
5.135918335E0,-6.132816076E-1,1.104309440E0,6.094093323E-1
5.143912275E0,-5.235536098E-1,9.448368549E-1,5.451755524E-1
5.151938751E0,-4.617364407E-1,7.815209627E-1,4.370679855E-1
5.159933536E0,-4.850041866E-1,6.554915905E-1,2.720613480E-1
5.167929782E0,-4.928798676E-1,6.262198687E-1,3.535585403E-1
5.175926106E0,-5.391377211E-1,6.646066904E-1,3.890762329E-1
5.183921813E0,-4.800009727E-1,7.698394060E-1,4.095888138E-1
5.191916368E0,-4.109673500E-1,8.543220758E-1,4.962329865E-1
5.199912690E0,-3.244092464E-1,8.562260866E-1,4.914188385E-1
5.207938476E0,-2.533879280E-1,7.559983730E-1,4.380445480E-1
5.215935183E0,-1.951384544E-1,6.179749966E-1,2.832937241E-1
5.223929584E0,-2.013247013E-1,4.869842529E-1,1.393480301E-1
5.231925060E0,-2.263638973E-1,3.794283867E-1,6.839466095E-2
5.239920999E0,-2.186248302E-1,2.186754942E-1,-2.025604248E-2
5.247916783E0,-1.832756996E-1,4.113137722E-2,-1.387405396E-2
5.255912800E0,-1.403157711E-1,-1.186608076E-1,8.557701111E-2
5.263939199E0,-8.760190010E-2,-1.991401911E-1,1.991224289E-1
5.271933446E0,1.295089722E-2,-1.582897902E-1,2.142162323E-1
5.279929692E0,1.025238037E-1,-5.512380600E-2,2.213954926E-1
5.287925708E0,1.804220676E-1,3.967523575E-2,2.248468399E-1
5.295921184E0,2.098755836E-1,3.969645500E-2,6.133747101E-2
5.303916277E0,1.779174805E-1,-3.873229027E-2,-1.570529938E-1
5.311911677E0,6.552505493E-2,-1.444214582E-1,-4.182262421E-1
5.319938154E0,-5.334019661E-2,-2.512985468E-1,-6.846313477E-1
5.327933246E0,-1.308255196E-1,-3.555936813E-1,-9.096708298E-1
5.335929570E0,-1.961288452E-1,-4.773101807E-1,-1.068020821E0
5.343925585E0,-1.847052574E-1,-5.714808702E-1,-1.047415733E0
5.351920986E0,-1.173546314E-1,-5.685172081E-1,-8.698310852E-1
5.359916078E0,9.200334549E-2,-3.389286995E-1,-5.961132050E-1
5.367912632E0,3.501799107E-1,-8.507299423E-2,-3.565444946E-1
5.375938493E0,7.095088959E-1,7.860422134E-2,-1.282958984E-1
5.383934586E0,9.390618801E-1,6.565642357E-2,2.998924255E-2
5.391928986E0,9.828228951E-1,-1.167950630E-1,-3.713512421E-2
5.399925079E0,8.346760273E-1,-3.571588993E-1,-2.333536148E-1
5.407920709E0,5.255784988E-1,-4.846446514E-1,-4.365301132E-1
5.415917341E0,2.034356594E-1,-6.415390968E-1,-5.057201385E-1
5.423912202E0,-5.917310715E-2,-6.870670319E-1,-5.122604370E-1
5.431937679E0,-1.963331699E-1,-6.918995380E-1,-5.963859558E-1
5.439933464E0,-2.631552219E-1,-6.040458679E-1,-6.255989075E-1
5.447928787E0,-2.336630821E-1,-4.373300076E-1,-7.455120087E-1
5.455925495E0,-1.966235638E-1,-2.704308033E-1,-6.996235847E-1
5.463920818E0,-7.333755493E-2,-1.326291561E-1,-6.362791061E-1
5.471915603E0,1.560373306E-1,-1.307759285E-1,-5.346288681E-1
5.479911696E0,3.399267197E-1,-2.269923687E-1,-2.398481369E-1
5.487937480E0,4.230604172E-1,-4.011993408E-1,-7.057189941E-5
5.495934111E0,4.784438610E-1,-5.366373062E-1,1.958312988E-1
5.503929819E0,4.102506638E-1,-5.951457024E-1,2.327709198E-1
5.511924296E0,2.594830990E-1,-5.761232376E-1,1.753787994E-1
5.519920080E0,7.645988464E-2,-4.980289936E-1,5.256557465E-2
5.527916327E0,-1.647315025E-1,-3.449971676E-1,-2.177734375E-1
5.535913265E0,-3.359091282E-1,-2.043826580E-1,-4.550695419E-1
5.543937589E0,-4.326636791E-1,-1.267929077E-1,-7.264280319E-1
5.551933912E0,-4.591529369E-1,-1.695849895E-1,-9.170970917E-1
5.559929389E0,-4.069149494E-1,-2.825131416E-1,-7.665476799E-1
5.567924404E0,-2.143597603E-1,-4.069147110E-1,-4.772067070E-1
5.575920497E0,3.748989105E-2,-4.201388359E-1,-2.033700943E-1
5.583915897E0,3.594503403E-1,-4.352097511E-1,3.723144531E-3
5.591911221E0,5.962705612E-1,-5.198059082E-1,1.112160683E-1
5.599937466E0,6.647348404E-1,-6.730198860E-1,5.595779419E-2
5.607932252E0,6.024527550E-1,-8.316559792E-1,-2.074527740E-1
5.615929113E0,4.539818764E-1,-8.411798477E-1,-4.193120003E-1
5.623924898E0,2.447381020E-1,-8.240575790E-1,-6.547636986E-1
5.631919605E0,8.325862885E-2,-8.182382584E-1,-7.894310951E-1
5.639916006E0,4.293680191E-2,-8.241553307E-1,-8.986673355E-1
5.647911329E0,1.458158493E-1,-7.093715668E-1,-8.816480637E-1
5.655938114E0,2.573208809E-1,-6.279816628E-1,-7.194647789E-1
5.663932667E0,4.296569824E-1,-6.401305199E-1,-5.748000145E-1
5.671928607E0,5.716872215E-1,-6.145739555E-1,-4.813666344E-1
5.679924083E0,6.283631325E-1,-6.375756264E-1,-4.128770828E-1
5.687920022E0,6.648821831E-1,-6.786861420E-1,-2.265939713E-1
5.695916345E0,6.764259338E-1,-7.757482529E-1,-1.448159218E-1
5.703942207E0,7.252006531E-1,-9.334678650E-1,-1.219687462E-1
5.711937684E0,7.346076965E-1,-1.008512497E0,-1.056852341E-1
5.719933084E0,6.949830055E-1,-1.018025398E0,-7.234907150E-2
5.727928099E0,6.231679916E-1,-1.021974564E0,-1.107759476E-1
5.735924423E0,4.882178307E-1,-9.671154022E-1,-1.751284599E-1
5.743918976E0,4.028363228E-1,-9.450149536E-1,-2.709641457E-1
5.751915300E0,3.571443558E-1,-9.096841812E-1,-2.491817474E-1
5.759910700E0,4.057664871E-1,-8.967900276E-1,-1.115922928E-1
5.767936793E0,5.151185989E-1,-8.990736008E-1,1.503992081E-2
5.775933808E0,6.802363396E-1,-8.928837776E-1,1.257605553E-1
5.783928516E0,8.560652733E-1,-9.863891602E-1,2.987012863E-1
5.791924300E0,9.421043396E-1,-1.102925777E0,3.877530098E-1
5.799919932E0,9.243340492E-1,-1.223557472E0,5.502815247E-1
5.807915639E0,8.265066147E-1,-1.235851765E0,6.569342613E-1
5.815942424E0,7.702755928E-1,-1.178659439E0,6.618084908E-1
5.823937209E0,7.193326950E-1,-1.114080906E0,7.089700699E-1
5.831932378E0,6.495194435E-1,-1.080377579E0,7.315254211E-1
5.839928317E0,5.466136932E-1,-9.672503471E-1,7.126827240E-1
5.847924333E0,4.013414383E-1,-8.388514519E-1,6.455540657E-1
5.855920424E0,2.978825569E-1,-7.117800713E-1,5.969390869E-1
5.863914825E0,2.909102440E-1,-6.333785057E-1,4.865884781E-1
5.871910917E0,3.101162910E-1,-6.299047470E-1,3.395099640E-1
5.879937010E0,3.671975136E-1,-7.565460205E-1,2.707953453E-1
5.887932410E0,4.118313789E-1,-8.935308456E-1,3.118114471E-1
5.895928195E0,5.167260170E-1,-9.664111137E-1,3.231739998E-1
5.903923287E0,6.661362648E-1,-9.798917770E-1,2.919535637E-1
5.911918380E0,7.862396240E-1,-9.900507927E-1,3.235735893E-1
5.919914318E0,8.192644119E-1,-9.564881325E-1,2.979421616E-1
5.927940795E0,7.502813339E-1,-8.362674713E-1,3.086121082E-1
5.935937734E0,6.176595688E-1,-6.961431503E-1,2.433216572E-1
5.943932903E0,5.526266098E-1,-6.055135727E-1,2.102916241E-1
5.951927918E0,4.995799065E-1,-5.740108490E-1,1.884341240E-1
5.959923088E0,3.841004372E-1,-5.158147812E-1,1.363818645E-1
5.967918719E0,1.967444420E-1,-4.483685493E-1,7.855606079E-2
5.975915965E0,3.836727142E-2,-4.307575226E-1,3.033494949E-2
5.983940057E0,4.067373276E-2,-4.979743958E-1,8.461380005E-2
5.991936304E0,8.380556107E-2,-6.326441765E-1,1.951777935E-1
5.999932704E0,1.764669418E-1,-5.861935616E-1,3.408522606E-1
6.007927489E0,3.487925529E-1,-4.574823380E-1,5.765764713E-1
6.015924043E0,5.450506210E-1,-3.357686996E-1,6.622872353E-1
6.023919443E0,6.650762558E-1,-3.029785156E-1,6.269931793E-1
6.031913997E0,7.363057137E-1,-2.941236496E-1,5.749049187E-1
6.039941090E0,7.719368935E-1,-2.921419144E-1,5.666534901E-1
6.047936797E0,7.657589912E-1,-2.295064926E-1,6.302559376E-1
6.055932428E0,7.465224266E-1,-1.301698685E-1,7.651760578E-1
6.063926982E0,6.941370964E-1,-6.388187408E-2,8.688058853E-1
6.071923229E0,6.195697784E-1,1.923179626E-2,9.988467693E-1
6.079919321E0,5.909891129E-1,5.385398865E-2,1.121706247E0
6.087914721E0,5.526056290E-1,9.011554718E-2,1.211681128E0
6.095941736E0,4.590506554E-1,4.925918579E-2,1.309820175E0
6.103936291E0,3.786239624E-1,-1.105890274E-1,1.386429310E0
6.111932536E0,3.532781601E-1,-3.472089767E-1,1.460947514E0
6.119927629E0,3.335766792E-1,-5.303411484E-1,1.559062481E0
6.127922106E0,3.748517036E-1,-6.903953552E-1,1.620790243E0
6.135919353E0,4.289817810E-1,-8.417863846E-1,1.668361664E0
6.143914137E0,4.428448677E-1,-8.890933990E-1,1.687564373E0
6.151940691E0,4.805073738E-1,-8.551101685E-1,1.734911323E0
6.159936322E0,4.796400070E-1,-8.175745010E-1,1.743655801E0
6.167931799E0,5.000190735E-1,-8.029184341E-1,1.742018580E0
6.175928430E0,5.056037903E-1,-7.395038605E-1,1.777071595E0
6.183923138E0,4.989056587E-1,-7.445249557E-1,1.791195989E0
6.191918307E0,4.558825493E-1,-6.960449219E-1,1.750018835E0
6.199914246E0,3.312039375E-1,-7.014503479E-1,1.788494945E0
6.207940184E0,2.088885307E-1,-7.941074371E-1,1.714861155E0
6.215936200E0,3.158283234E-2,-8.948078156E-1,1.692348599E0
6.223931215E0,-1.575417519E-1,-9.624967575E-1,1.648139596E0
6.231927231E0,-3.058500290E-1,-9.801759720E-1,1.583498001E0
6.239923554E0,-4.035816193E-1,-9.379644394E-1,1.518556237E0
6.247918724E0,-4.319047928E-1,-8.767070770E-1,1.463194489E0
6.255914739E0,-4.244513512E-1,-8.155851364E-1,1.410450220E0
6.263940601E0,-4.339313507E-1,-7.211952209E-1,1.311954141E0
6.271936001E0,-3.975529671E-1,-6.240100861E-1,1.258887768E0
6.279931324E0,-3.455786705E-1,-5.237016678E-1,1.158663750E0
6.287926801E0,-3.016424179E-1,-4.894590378E-1,1.143086910E0
6.295924279E0,-2.587509155E-1,-5.283250809E-1,1.117865920E0
6.303918140E0,-2.529768944E-1,-5.685071945E-1,1.105093002E0
6.311913848E0,-2.652840614E-1,-5.215139389E-1,1.107291341E0
6.319940709E0,-3.531398773E-1,-4.496469498E-1,1.174776316E0
6.327936110E0,-3.711190224E-1,-4.154243469E-1,1.210519195E0
6.335932356E0,-4.584794044E-1,-4.333076477E-1,1.179816484E0
6.343927141E0,-5.626683235E-1,-4.650421143E-1,1.272312522E0
6.351922002E0,-5.999779701E-1,-4.868478775E-1,1.327406049E0
6.359917710E0,-5.901679993E-1,-6.018104553E-1,1.490325093E0
6.367914033E0,-5.795793533E-1,-7.575330734E-1,1.652324796E0
6.375941434E0,-6.095271111E-1,-8.322763443E-1,1.885379553E0
6.383936141E0,-6.113963127E-1,-9.148912430E-1,2.142645121E0
6.391931234E0,-5.173201561E-1,-9.770708084E-1,2.617845535E0
6.399926711E0,-4.274930954E-1,-9.953727722E-1,3.225196362E0
6.407922650E0,-4.403066635E-1,-9.194068909E-1,3.836014509E0
6.415918972E0,-4.620041847E-1,-7.968473434E-1,4.445068836E0
6.423914142E0,-5.019412041E-1,-5.797090530E-1,4.700729370E0
6.431940311E0,-3.399791718E-1,-2.844047546E-1,4.844542503E0
6.439935712E0,-1.931428909E-2,-6.391525269E-3,5.084213734E0
6.447931111E0,3.004193306E-1,1.512336731E-2,5.641674995E0
6.455927974E0,8.357000351E-1,-2.299814224E-1,6.558517456E0
6.463922758E0,1.340982437E0,-6.064338684E-1,7.328468323E0
6.471917928E0,1.799420834E0,-1.050669670E0,8.064191818E0
6.479914173E0,2.076904774E0,-1.384378433E0,8.306088448E0
6.487939497E0,2.151482582E0,-1.639074326E0,8.304976463E0
6.495936358E0,1.848312378E0,-1.915316582E0,7.838211536E0
6.503931528E0,1.496343136E0,-2.064092636E0,7.262375832E0
6.511926928E0,1.103577137E0,-2.250066757E0,6.672928810E0
6.519922328E0,9.590010643E-1,-2.465856552E0,6.223797798E0
6.527918036E0,1.039080620E0,-2.853394508E0,5.768596649E0
6.535914052E0,1.273611069E0,-3.335183144E0,5.325244904E0
6.543940451E0,1.741086483E0,-3.780539513E0,4.940919399E0
6.551935237E0,2.618984222E0,-4.274181843E0,4.496500015E0
6.559930944E0,3.419127941E0,-4.698147297E0,3.983800411E0
6.567926345E0,3.953318119E0,-5.010564804E0,3.388049126E0
6.575922667E0,4.174151897E0,-5.184895992E0,2.796384335E0
6.583917530E0,4.248739719E0,-5.306840420E0,2.171021461E0
6.591912852E0,4.036213398E0,-5.359120369E0,1.449607849E0
6.599939330E0,3.610108376E0,-5.237918377E0,8.274760246E-1
6.607934729E0,3.014100075E0,-5.104439259E0,1.377763748E-1
6.615931745E0,2.613851309E0,-5.096087456E0,-2.738170624E-1
6.623925914E0,2.261638641E0,-5.121876240E0,-5.421586037E-1
6.631922161E0,2.050812244E0,-5.132802486E0,-7.311120033E-1
6.639918253E0,2.012357473E0,-5.078751564E0,-8.537893295E-1
6.647943808E0,2.054458380E0,-4.894632816E0,-1.079509258E0
6.655940361E0,2.153541565E0,-4.824062347E0,-1.190411568E0
6.663934608E0,2.325724363E0,-4.663948536E0,-1.458837032E0
6.671930931E0,2.476667404E0,-4.493483067E0,-1.617760181E0
6.679926023E0,2.466379166E0,-4.377573967E0,-1.878811359E0
6.687921346E0,2.342627525E0,-4.263565063E0,-2.020447254E0
6.689935812E0,2.348495483E0,-4.382167339E0,-2.166394711E0
6.691919200E0,2.283852100E0,-4.279217243E0,-2.142452717E0
6.693933974E0,2.233573914E0,-4.164294720E0,-2.104145527E0
6.695918285E0,2.209631920E0,-4.114017010E0,-2.082597733E0
6.703943608E0,2.096204758E0,-3.869029045E0,-2.062779427E0
6.711939547E0,2.006493330E0,-3.712155342E0,-2.041425228E0
6.719934947E0,1.936881065E0,-3.623756886E0,-1.919495106E0
6.727930732E0,1.862812996E0,-3.756849289E0,-1.802033901E0
6.735926362E0,1.835312128E0,-3.959187984E0,-1.780041218E0
6.743921840E0,1.760727167E0,-4.064753532E0,-1.775421143E0
6.751917855E0,1.622216702E0,-4.101027012E0,-1.838333607E0
6.759913486E0,1.437725782E0,-4.125541687E0,-1.942219734E0
6.767938809E0,1.412005663E0,-4.162128925E0,-2.062852383E0
6.775935671E0,1.514594555E0,-4.102370262E0,-2.200375557E0
6.783929840E0,1.580622911E0,-3.878936291E0,-2.228961945E0
6.791925856E0,1.676017523E0,-3.779244184E0,-2.186004639E0
6.799921333E0,1.782066584E0,-3.780090570E0,-2.203578472E0
6.807916964E0,1.855246305E0,-3.860185862E0,-2.167596817E0
6.815913671E0,1.769419193E0,-3.885011673E0,-2.047041893E0
6.823939534E0,1.638098478E0,-3.835253477E0,-1.973861217E0
6.831934856E0,1.474114180E0,-3.816250801E0,-1.935570240E0
6.839929411E0,1.262676477E0,-3.701215506E0,-1.895423412E0
6.847925657E0,1.106979370E0,-3.612802267E0,-2.080420971E0
6.855922057E0,9.423623085E-1,-3.436744928E0,-2.302299976E0
6.863915611E0,8.826043606E-1,-3.223031521E0,-2.362477779E0
6.871943550E0,8.755238056E-1,-3.092183113E0,-2.366133213E0
6.879939334E0,1.001230001E0,-3.006545782E0,-2.352413177E0
6.887934350E0,1.177415133E0,-2.915662766E0,-2.209371090E0
6.895930980E0,1.301452637E0,-2.752656937E0,-2.116074562E0
6.903926073E0,1.365810156E0,-2.574416161E0,-2.094056606E0
6.911921550E0,1.339653492E0,-2.428320408E0,-2.038434982E0
6.919916643E0,1.112516403E0,-2.162096024E0,-2.158869743E0
6.927912658E0,8.182697296E-1,-1.965816617E0,-2.276532650E0
6.935939059E0,4.138143063E-1,-1.814789772E0,-2.331757545E0
6.943934150E0,2.168259621E-1,-1.759400964E0,-2.342472076E0
6.951929320E0,1.307318211E-1,-1.644363761E0,-2.277573586E0
6.959925643E0,2.430174351E-1,-1.610548258E0,-2.145471096E0
6.967921274E0,4.254345894E-1,-1.718239903E0,-1.967454433E0
6.975918213E0,7.345092297E-1,-1.864014149E0,-1.820299625E0
6.983943152E0,9.634335041E-1,-1.996276498E0,-1.792585373E0
6.991938244E0,1.109562159E0,-2.101515770E0,-1.779568195E0
6.999934337E0,1.217799187E0,-2.144070864E0,-1.973193645E0
7.007930044E0,1.313346624E0,-2.187796116E0,-2.208497524E0
7.015926291E0,1.290037632E0,-2.132181644E0,-2.615087032E0
7.023921152E0,1.215145826E0,-2.008331299E0,-2.891931057E0
7.031916245E0,1.044975996E0,-1.834401846E0,-3.357962608E0
7.039943567E0,8.084251881E-1,-1.725786805E0,-3.649549961E0
7.047937737E0,5.863661766E-1,-1.754505634E0,-3.881658077E0
7.055935368E0,8.203552961E-1,-2.148518324E0,-3.975107670E0
7.063929845E0,1.088931203E0,-2.492954969E0,-3.919252872E0
7.071925245E0,1.234706163E0,-2.519367218E0,-4.246963978E0
7.079920646E0,1.034255147E0,-2.270239592E0,-4.398357391E0
7.087916353E0,7.571182251E-1,-1.804360986E0,-4.697738171E0
7.095943369E0,9.486019611E-1,-1.155307770E0,-5.135078907E0
7.103937922E0,1.570376515E0,-6.638461351E-1,-5.767928123E0
7.111933861E0,2.055750370E0,-3.596735001E-2,-6.874297619E0
7.119929569E0,1.764531374E0,7.260532379E-1,-8.164958000E0
7.127924969E0,5.511829853E-1,1.910279512E0,-9.332752228E0
7.135921908E0,-8.106364608E-1,2.702323675E0,-9.966739655E0
7.143917077E0,-2.259864807E0,3.031003714E0,-1.043760967E1
7.151942554E0,-3.238528728E0,2.878481388E0,-1.076204681E1
7.159938339E0,-3.658822536E0,2.692908287E0,-1.095160770E1
7.167933662E0,-3.810977221E0,2.400426388E0,-1.097811699E1
7.175929755E0,-3.821180344E0,2.196347475E0,-1.092923164E1
7.183925693E0,-3.816155195E0,2.071936369E0,-1.087451363E1
7.191920247E0,-3.504647732E0,1.971099854E0,-1.083356190E1
7.199916570E0,-3.009926796E0,1.787624836E0,-1.070642185E1
7.207942048E0,-2.315674067E0,1.445305347E0,-1.048597145E1
7.215939063E0,-1.845407963E0,9.910144806E-1,-1.013383579E1
7.223933540E0,-1.578241348E0,4.655842781E-1,-9.606473923E0
7.231929478E0,-1.537426233E0,1.019450426E-1,-9.047063828E0
7.239924264E0,-1.567562580E0,-7.159590721E-3,-8.582189560E0
7.247920586E0,-1.540304899E0,-7.535290718E-2,-7.890621185E0
7.255916602E0,-1.432700157E0,-1.835050583E-1,-7.197054386E0
7.263942156E0,-1.211592197E0,-3.648338318E-1,-6.321484566E0
7.271937941E0,-9.383617640E-1,-4.875490665E-1,-5.646425724E0
7.279933571E0,-5.812190771E-1,-4.168685675E-1,-4.960807800E0
7.287929049E0,-3.026963472E-1,-7.949757576E-2,-4.384304523E0
7.295926218E0,-2.174935341E-1,1.985696554E-1,-3.962896347E0
7.303921003E0,-1.258817911E-1,2.138272524E-1,-3.460249901E0
7.311915787E0,2.495241165E-2,7.013416290E-2,-3.152485371E0
7.319942265E0,1.395803690E-1,-2.669667006E-1,-2.814994335E0
7.327937126E0,7.554328442E-2,-6.019951105E-1,-2.584590435E0
7.335933681E0,-1.401122808E-1,-6.811266541E-1,-2.406123161E0
7.343929388E0,-2.962940931E-1,-5.493895411E-1,-2.018398762E0
7.351923942E0,-2.569316626E-1,-4.040856063E-1,-1.653167248E0
7.359920496E0,-4.766988754E-2,-4.405700862E-1,-1.142257690E0
7.367915358E0,2.100522518E-1,-6.684809327E-1,-6.646814346E-1
7.375942450E0,6.041500568E-1,-1.075472713E0,-2.176380157E-1
7.383937543E0,9.415297508E-1,-1.467881560E0,-1.501264572E-1
7.391933250E0,1.029062271E0,-1.689869404E0,-3.251867294E-1
7.399929189E0,9.229516983E-1,-1.804141045E0,-7.543859482E-1
7.407924589E0,7.313022614E-1,-1.700727701E0,-1.255680084E0
7.415921528E0,4.882371426E-1,-1.526245713E0,-1.686050415E0
7.423915697E0,4.821009636E-1,-1.399135590E0,-1.974352837E0
7.431942482E0,7.334926128E-1,-1.492272973E0,-1.958700657E0
7.439936959E0,1.138155699E0,-1.664576888E0,-1.470167160E0
7.447933052E0,1.483028412E0,-1.697833419E0,-1.149054527E0
7.455929374E0,1.826529026E0,-1.656695485E0,-9.329910278E-1
7.463924083E0,1.915638208E0,-1.597842574E0,-5.885877609E-1
7.471919482E0,1.730938196E0,-1.543251514E0,-5.685424805E-2
7.479915575E0,1.276689053E0,-1.530286312E0,1.402139664E-1
7.487941360E0,7.614998817E-1,-1.470609307E0,2.935886383E-2
7.495937991E0,3.493788242E-1,-1.264802217E0,-2.218799591E-1
7.503932852E0,2.182812691E-1,-9.082510471E-1,-2.772922516E-1
7.511928484E0,4.659395218E-1,-6.370248795E-1,-1.112298965E-1
7.519924268E0,8.782196045E-1,-7.495710850E-1,1.899719238E-2
7.527919361E0,1.217191696E0,-1.020683527E0,1.908454895E-1
7.535916222E0,1.466718674E0,-1.423384428E0,7.209949493E-1
7.543941546E0,1.660291672E0,-1.703029633E0,1.160704613E0
7.551937484E0,1.695869446E0,-1.921930313E0,1.615900993E0
7.559932884E0,1.505469322E0,-2.023762941E0,2.122488022E0
7.567928284E0,1.168387890E0,-2.013357639E0,2.134380341E0
7.575924992E0,7.480630875E-1,-1.644879103E0,1.708963394E0
7.583919469E0,5.060019493E-1,-1.223726034E0,1.233067036E0
7.591915716E0,4.395070076E-1,-1.030525446E0,7.556843758E-1
7.599941885E0,3.352003098E-1,-1.208078384E0,4.820637703E-1
7.607937054E0,1.370034218E-1,-1.565658569E0,3.711223602E-1
7.615933608E0,1.731014252E-1,-1.871700764E0,5.819664001E-1
7.623928393E0,6.077189445E-1,-2.024716377E0,8.777828217E-1
7.631923870E0,1.203299522E0,-2.231379509E0,1.226150036E0
7.639919193E0,1.459186554E0,-2.310811520E0,1.374187469E0
7.647914901E0,1.261778831E0,-2.194945812E0,1.398942947E0
7.655941378E0,7.082710266E-1,-1.979629993E0,1.276248932E0
7.663937086E0,2.577795982E-1,-1.699157715E0,1.108259201E0
7.671932794E0,3.240299225E-2,-1.495266438E0,8.654813766E-1
7.679928578E0,5.912923813E-2,-1.403992653E0,6.956081390E-1
7.687923594E0,2.397217751E-1,-1.354477882E0,7.086925507E-1
7.695919917E0,4.632663727E-1,-1.232471943E0,8.465018272E-1
7.703945779E0,8.637571335E-1,-1.121932507E0,1.085732937E0
7.711941179E0,1.202087402E0,-1.073689938E0,1.344375610E0
7.719936579E0,1.397696018E0,-1.076508522E0,1.372091293E0
7.727932056E0,1.557655334E0,-9.966363907E-1,1.226757050E0
7.735928687E0,1.621627808E0,-8.528876305E-1,1.318409920E0
7.743924318E0,1.519568920E0,-6.888065338E-1,1.390633106E0
7.751918180E0,1.315324306E0,-5.755538940E-1,1.547230244E0
7.767940980E0,1.262204647E0,-4.871912003E-1,1.798841953E0
7.775937072E0,9.619407654E-1,-5.322060585E-1,1.821711063E0
7.783932396E0,5.151972771E-1,-6.425204277E-1,1.758979797E0
7.791927795E0,1.842894554E-1,-8.142228127E-1,1.683199883E0
7.799923581E0,5.500698090E-2,-1.121430874E0,1.588094711E0
7.807919211E0,1.795382500E-1,-1.482456684E0,1.534887791E0
7.815946304E0,3.710327148E-1,-1.620356083E0,1.511157990E0
7.823940550E0,6.037650108E-1,-1.370975971E0,1.565351486E0
7.831936566E0,8.187146187E-1,-7.856655121E-1,1.735704899E0
7.839931658E0,1.019260406E0,-2.582750320E-1,1.884866714E0
7.847927982E0,1.026840210E0,-1.152038574E-1,1.861284256E0
7.855923381E0,9.071187973E-1,-1.459617615E-1,1.772562265E0
7.863919320E0,6.078805923E-1,-2.148036957E-1,1.612977505E0
7.871945181E0,3.425664902E-1,-2.725648880E-1,1.575299501E0
7.879940659E0,1.363673210E-1,-3.375368118E-1,1.564426899E0
7.887936982E0,5.947399139E-2,-5.937271118E-1,1.588380814E0
7.895932305E0,9.359073639E-2,-9.696636200E-1,1.737706184E0
7.903927782E0,1.332674026E-1,-1.273693562E0,1.797706842E0
7.911922875E0,2.128863335E-1,-1.276826859E0,1.865886688E0
7.919918582E0,3.981003761E-1,-1.060475826E0,1.830366611E0
7.927945060E0,4.807896614E-1,-7.112731934E-1,1.818915367E0
7.935941613E0,5.448141098E-1,-4.738402367E-1,1.741464138E0
7.943936475E0,5.109949112E-1,-4.682383537E-1,1.714233637E0
7.951931798E0,3.911719322E-1,-4.023022652E-1,1.775424480E0
7.959926891E0,2.953376770E-1,-3.043189049E-1,1.777657986E0
7.967922675E0,2.510743141E-1,-2.370433807E-1,1.718979120E0
7.975918999E0,1.878652573E-1,-2.794828415E-1,1.596562386E0
7.983945168E0,1.142625809E-1,-3.550605774E-1,1.517644644E0
7.991940261E0,4.216003418E-2,-4.610776901E-1,1.560005903E0
7.999936276E0,-6.084442139E-3,-6.879177094E-1,1.589859724E0
8.007931907E0,1.047749519E-1,-8.673744202E-1,1.690667629E0
8.015927615E0,2.826161385E-1,-8.815650940E-1,1.919230342E0
8.023923092E0,4.887909889E-1,-7.240896225E-1,2.151162624E0
8.031918492E0,7.083339691E-1,-5.464591980E-1,2.286706209E0
8.039944892E0,7.802720070E-1,-4.737653732E-1,2.269010067E0
8.047939754E0,7.451128960E-1,-4.056310654E-1,2.211758137E0
8.055936616E0,5.890226364E-1,-2.840375900E-1,2.170351505E0
8.063931400E0,3.843140602E-1,-1.013107300E-1,2.219350815E0
8.071926570E0,2.844891548E-1,2.337932587E-2,2.283814907E0
8.079922508E0,3.480243683E-1,-1.452255249E-1,2.512698412E0
8.087918832E0,4.676938057E-1,-5.169534683E-1,2.729779243E0
8.095945385E0,4.665694237E-1,-8.533992767E-1,2.916200161E0
8.103940478E0,3.838667870E-1,-9.445381165E-1,3.007182598E0
8.111936185E0,2.100143433E-1,-9.051256180E-1,3.031528950E0
8.119931817E0,1.033501625E-1,-8.067083359E-1,3.060857534E0
8.127926909E0,3.828859329E-2,-7.181940079E-1,3.037888288E0
8.135923540E0,1.925945282E-2,-7.019414902E-1,3.050971508E0
8.143917786E0,1.512193680E-2,-6.883640289E-1,3.026614666E0
8.151944571E0,2.638292313E-2,-6.914587021E-1,3.017880917E0
8.159939894E0,7.468128204E-2,-6.895847321E-1,2.998427391E0
8.167935987E0,1.604256630E-1,-6.393547058E-1,2.935234070E0
8.175931694E0,3.155407906E-1,-6.456804276E-1,2.881062269E0
8.183927018E0,4.118571281E-1,-6.696834564E-1,2.809577465E0
8.191922495E0,5.823197365E-1,-6.413421631E-1,2.830305815E0
8.199918511E0,7.632288933E-1,-5.219030380E-1,2.928335905E0
8.207944295E0,9.714326859E-1,-3.233213425E-1,2.846790075E0
8.215940926E0,1.098910809E0,-2.061672211E-1,2.788372993E0
8.223935710E0,1.178912640E0,-1.442232132E-1,2.678489685E0
8.231930188E0,1.199122429E0,-3.232288361E-2,2.588199854E0
8.239927203E0,1.238481998E0,1.534824371E-1,2.524700165E0
8.247922604E0,1.217514515E0,3.507652283E-1,2.497892380E0
8.255918542E0,1.183839321E0,5.283222198E-1,2.496344090E0
8.263944173E0,1.133540154E0,5.847759247E-1,2.460216999E0
8.271939573E0,1.095964432E0,6.373329163E-1,2.371684551E0
8.279935512E0,9.981365204E-1,6.782236099E-1,2.271722078E0
8.287931219E0,8.924708366E-1,7.263097763E-1,2.153182268E0
8.295928158E0,8.540406227E-1,6.980476379E-1,2.068269968E0
8.303922404E0,8.237242699E-1,6.318378448E-1,1.821797609E0
8.311918035E0,7.913794518E-1,5.572710037E-1,1.643192291E0
8.319944281E0,7.442212105E-1,5.636873245E-1,1.458794832E0
8.327939297E0,7.003021240E-1,5.297222137E-1,1.269322634E0
8.335935620E0,6.271414757E-1,4.679927826E-1,1.086441994E0
8.343931944E0,5.280475616E-1,4.174966812E-1,8.930810690E-1
8.351925882E0,3.799118996E-1,3.788661957E-1,7.742098570E-1
8.359922206E0,2.627902031E-1,2.860431671E-1,6.028999090E-1
8.367917221E0,1.509089470E-1,2.187891006E-1,4.552537203E-1
8.375944929E0,7.841300964E-2,9.649753571E-2,3.375602961E-1
8.383938790E0,3.860092163E-2,4.196739197E-2,1.935644150E-1
8.391934883E0,2.634191513E-2,9.737014771E-3,1.021441221E-1
8.399930590E0,-3.978729248E-3,9.338378906E-3,5.757200718E-2
8.407926299E0,4.944372177E-2,5.451869965E-2,-1.032328606E-2
8.415923237E0,8.484125137E-2,6.557273865E-2,-1.093821526E-1
8.423918330E0,1.261014938E-1,8.586311340E-2,-1.832435131E-1
8.431943806E0,1.492547989E-1,1.296548843E-1,-2.422223091E-1
8.439939899E0,1.249265671E-1,2.487173080E-1,-3.013427258E-1
8.447934991E0,2.458095551E-2,3.638982773E-1,-3.548433781E-1
8.455931238E0,-8.919191360E-2,4.224491119E-1,-3.443388939E-1
8.463926330E0,-1.993117332E-1,3.453731537E-1,-2.995054722E-1
8.471921500E0,-2.443079948E-1,2.758340836E-1,-3.403401375E-1
8.479917822E0,-3.757057190E-1,2.925100327E-1,-3.467845917E-1
8.487943069E0,-4.959220886E-1,3.329153061E-1,-3.326776028E-1
8.495940238E0,-5.995960236E-1,4.118328094E-1,-3.596984148E-1
8.503935331E0,-6.457390785E-1,4.408988953E-1,-3.772107363E-1
8.511930808E0,-7.127962112E-1,4.515070915E-1,-3.710567951E-1
8.519926208E0,-6.979069710E-1,4.938111305E-1,-3.823170662E-1
8.527921531E0,-6.587972641E-1,4.814739227E-1,-3.989443779E-1
8.535918162E0,-6.074771881E-1,4.503426552E-1,-3.851935863E-1
8.551938809E0,-6.074070930E-1,3.180589676E-1,-2.763385773E-1
8.559934285E0,-5.404424667E-1,2.149124146E-1,-2.704559565E-1
8.567930609E0,-5.094375610E-1,7.236671448E-2,-2.500823736E-1
8.575926855E0,-5.139060020E-1,-4.937171936E-2,-2.243272066E-1
8.583921948E0,-5.411486626E-1,-1.666660309E-1,-1.812205315E-1
8.591917347E0,-4.297719002E-1,-3.364953995E-1,-9.248721600E-2
8.599943286E0,-2.922873497E-1,-3.891468048E-1,9.997260571E-2
8.607938378E0,-1.994519234E-1,-3.570146561E-1,4.260925055E-1
8.615934702E0,-1.652102470E-1,-2.106523514E-1,7.716379166E-1
8.623930948E0,-1.607060432E-1,-3.308582306E-2,1.011776447E0
8.631925425E0,-2.305068970E-1,1.052560806E-1,1.243439436E0
8.639920825E0,-3.900523186E-1,2.996997833E-1,1.362731695E0
8.647917764E0,-6.473164558E-1,4.316444397E-1,1.498692393E0
8.655943702E0,-7.566680908E-1,5.185260773E-1,1.713691831E0
8.663939334E0,-6.645159721E-1,4.862489700E-1,1.960912108E0
8.671934195E0,-4.748950005E-1,3.726940155E-1,2.359515667E0
8.679929826E0,-2.951526642E-1,2.868804932E-1,2.670061111E0
8.687925303E0,-1.583690643E-1,2.223196030E-1,3.097170115E0
8.695921550E0,-1.313495636E-2,5.921173096E-2,3.494955301E0
8.703948026E0,3.984594345E-2,-2.073373795E-1,3.853241444E0
8.711943196E0,1.436567307E-2,-5.865297318E-1,4.166695595E0
8.719938211E0,-3.030633926E-2,-8.393630981E-1,4.285872459E0
8.727933996E0,4.818201065E-2,-1.167064667E0,4.429860115E0
8.735930550E0,1.814117432E-1,-1.451581955E0,4.523652554E0
8.743925643E0,3.576664925E-1,-1.702510834E0,4.698617935E0
8.751920735E0,5.447077751E-1,-2.032276154E0,4.883870125E0
8.759917058E0,7.339396477E-1,-2.383584023E0,5.037240028E0
8.767942381E0,1.003584385E0,-2.776239395E0,5.278892040E0
8.775938936E0,1.261242867E0,-3.107893944E0,5.368767738E0
8.783934412E0,1.529063225E0,-3.420047760E0,5.406609535E0
8.791930120E0,1.741284847E0,-3.608378410E0,5.327480316E0
8.799925443E0,2.038060188E0,-3.728601456E0,5.187219620E0
8.807920613E0,2.500262737E0,-3.929873466E0,4.987935066E0
8.815917474E0,2.786916256E0,-4.117776871E0,4.833843231E0
8.823942721E0,3.032108784E0,-4.333661079E0,4.688558578E0
8.831938505E0,3.358520508E0,-4.628648758E0,4.390278339E0
8.839934137E0,3.522583961E0,-4.772976398E0,4.236431122E0
8.847930152E0,3.582900047E0,-4.771925449E0,4.001173019E0
8.855925937E0,3.566269398E0,-4.728411198E0,3.680937767E0
8.863920721E0,3.450936794E0,-4.649627209E0,3.370782852E0
8.871916660E0,3.293771267E0,-4.571427345E0,3.180390358E0
8.879942598E0,3.175574303E0,-4.577409744E0,2.989552498E0
8.887938537E0,3.212864876E0,-4.655921936E0,2.815999031E0
8.895933629E0,3.342186928E0,-4.744779110E0,2.582273960E0
8.903929338E0,3.520792961E0,-4.815670967E0,2.232989788E0
8.911924737E0,3.729903460E0,-4.843872547E0,1.977789402E0
8.919920830E0,4.062304497E0,-5.013764858E0,1.636274338E0
8.927947230E0,4.378254890E0,-5.321240902E0,1.104276180E0
8.935943323E0,4.569399357E0,-5.505005836E0,6.547656059E-1
8.943938646E0,4.668948650E0,-5.542865276E0,3.885307312E-1
8.951933431E0,4.841158867E0,-5.739199162E0,5.862951279E-2
8.959929215E0,4.909461975E0,-5.936291218E0,-4.123373032E-1
8.967925231E0,4.841995716E0,-6.158814907E0,-8.553557396E-1
8.975921477E0,4.658025742E0,-6.318356991E0,-1.388922215E0
8.983947108E0,4.460367680E0,-6.457095623E0,-1.690218925E0
8.991942431E0,4.477073669E0,-6.477955818E0,-1.987493992E0
8.999938755E0,4.746319771E0,-6.528922558E0,-2.165833950E0
9.007933231E0,5.082149506E0,-6.648368835E0,-2.345683098E0
9.015929555E0,5.389206886E0,-6.786114693E0,-2.559598446E0
9.023925570E0,5.486931801E0,-6.880356789E0,-2.628442764E0
9.031920355E0,5.445179939E0,-6.730634212E0,-2.803578854E0
9.039946216E0,5.386324406E0,-6.509011269E0,-2.877259731E0
9.047942232E0,5.341760159E0,-6.517053604E0,-2.954521179E0
9.055938632E0,5.114419937E0,-6.581923485E0,-3.191802025E0
9.063933340E0,4.739060402E0,-6.429972649E0,-3.242776394E0
9.071929663E0,4.267734528E0,-6.282763481E0,-3.202844620E0
9.079925064E0,4.071086884E0,-6.146254063E0,-3.415615082E0
9.087920771E0,4.102879047E0,-6.150980949E0,-3.730685711E0
9.095947326E0,4.163963318E0,-6.191629410E0,-3.891919613E0
9.103941418E0,4.271597385E0,-6.227499008E0,-3.894762039E0
9.111938126E0,4.311932564E0,-6.062170982E0,-4.031589508E0
9.119933525E0,4.208398819E0,-5.783284664E0,-4.117888451E0
9.127929234E0,4.040997505E0,-5.643938065E0,-4.093496799E0
9.135925172E0,3.847614288E0,-5.479011536E0,-3.960124016E0
9.143920342E0,3.775521517E0,-5.294429302E0,-3.839823246E0
9.151946126E0,3.828761816E0,-5.007416248E0,-3.639213085E0
9.159941834E0,3.991654873E0,-4.827530384E0,-3.748779297E0
9.167937542E0,4.004034042E0,-4.776264191E0,-3.889068127E0
9.175934173E0,3.862026691E0,-4.584511757E0,-4.187831879E0
9.183928034E0,3.680217266E0,-4.360905647E0,-4.487506866E0
9.191924435E0,3.459113598E0,-4.080879211E0,-4.663996220E0
9.199919527E0,3.208961725E0,-3.839701414E0,-4.844660282E0
9.207946620E0,2.900537968E0,-3.673352003E0,-4.975490093E0
9.215942635E0,2.512224197E0,-3.606355667E0,-4.982204437E0
9.223937343E0,2.271152258E0,-3.697407722E0,-4.920622349E0
9.231932820E0,2.167686939E0,-3.806466341E0,-4.863578796E0
9.239928528E0,2.203602552E0,-3.846950769E0,-5.035920143E0
9.247924466E0,2.154475927E0,-3.853748322E0,-5.303838253E0
9.255920867E0,2.188310623E0,-4.050629139E0,-5.624481678E0
9.263945189E0,2.366987228E0,-4.268555641E0,-6.055583000E0
9.271941513E0,2.315902710E0,-4.275535107E0,-6.741164684E0
9.279937220E0,1.997070432E0,-4.093923569E0,-7.238986015E0
9.287933467E0,1.509865642E0,-3.699081421E0,-7.839059830E0
9.295929790E0,9.428440332E-1,-3.200187683E0,-8.563042641E0
9.303924960E0,9.862273932E-3,-2.299747229E0,-9.971822739E0
9.311920052E0,-1.286711454E0,-1.011523843E0,-1.173363686E1
9.319946145E0,-2.737411261E0,4.432713985E-1,-1.375655746E1
9.327941929E0,-4.526112556E0,2.277752638E0,-1.577664757E1
9.335937637E0,-5.798305511E0,3.497639656E0,-1.696955109E1
9.343932960E0,-7.037116051E0,4.035702705E0,-1.773170090E1
9.351928438E0,-7.588860989E0,3.664207935E0,-1.761989212E1
9.359924376E0,-7.349897385E0,2.973737717E0,-1.700711060E1
9.367919546E0,-6.517943859E0,2.240611553E0,-1.626012802E1
9.375946868E0,-5.482580185E0,1.685162544E0,-1.557251167E1
9.383942038E0,-4.337122440E0,1.136488676E0,-1.497545052E1
9.391937669E0,-3.762062073E0,5.786862373E-1,-1.457448196E1
9.399933761E0,-3.385420084E0,-6.318807602E-2,-1.415682602E1
9.407928469E0,-3.069544792E0,-9.762513638E-1,-1.324059677E1
9.415925100E0,-2.681805849E0,-1.834085226E0,-1.226984501E1
9.423919269E0,-2.156136513E0,-2.838695049E0,-1.097596931E1
9.431946054E0,-1.633578420E0,-3.511087418E0,-9.768987656E0
9.439941531E0,-8.983447552E-1,-4.047287941E0,-7.961119175E0
9.447936855E0,-2.099584341E-1,-4.320416451E0,-5.970797539E0
9.455933485E0,2.764641047E-1,-4.367668629E0,-4.455651283E0
9.463928039E0,7.411398292E-1,-4.258763313E0,-2.936512947E0
9.471924285E0,9.922577739E-1,-4.009710312E0,-2.116920948E0
9.479919686E0,1.181549668E0,-3.787909985E0,-1.276451111E0
9.487945316E0,1.280234098E0,-3.593351841E0,-6.235904694E-1
9.495941948E0,1.267340899E0,-3.439700603E0,-2.255496979E-1
9.503936963E0,1.223368049E0,-3.316856146E0,-2.731990814E-2
9.511932133E0,1.169584870E0,-3.291020632E0,2.128620148E-1
9.519928148E0,1.246520281E0,-3.421823263E0,2.772417068E-1
9.527923779E0,1.338844538E0,-3.570294380E0,1.346483231E-1
9.535919563E0,1.451156855E0,-3.701480627E0,-5.688190460E-2
9.543945349E0,1.471746922E0,-3.648148537E0,4.275703430E-2
9.551941364E0,1.439572215E0,-3.377586603E0,3.762683868E-1
9.559936841E0,1.537201881E0,-2.905419350E0,8.454952240E-1
9.567932471E0,1.747637868E0,-2.526855469E0,1.167701721E0
9.575928180E0,2.102183819E0,-2.182472706E0,1.210968971E0
9.583923964E0,2.254179955E0,-1.914804697E0,8.972063065E-1
9.591918749E0,2.083009720E0,-1.744894266E0,4.399108887E-1
9.599945457E0,1.766330957E0,-1.775708914E0,1.024494171E-1
9.607941165E0,1.524348021E0,-1.873477101E0,2.320232391E-1
9.615936949E0,1.439047813E0,-2.116788387E0,3.056755066E-1
9.623932350E0,1.490437269E0,-2.257514477E0,4.493265152E-1
9.631927749E0,1.587779045E0,-2.127588987E0,7.184123993E-1
9.639923689E0,1.715614080E0,-1.587717295E0,7.204055786E-1
9.647919088E0,1.732500553E0,-9.535226822E-1,6.884708405E-1
9.655945873E0,1.637385845E0,-4.666752815E-1,7.169208527E-1
9.663941350E0,1.549484015E0,-3.392231464E-1,5.862321854E-1
9.671936366E0,1.531753540E0,-5.269346237E-1,3.785037994E-1
9.679931227E0,1.558564186E0,-8.213102818E-1,3.576345444E-1
9.687927474E0,1.702868700E0,-1.093595743E0,7.497186661E-1
9.695924489E0,1.895954609E0,-1.579644442E0,1.339421272E0
9.703918351E0,2.012145042E0,-1.957364082E0,1.631998062E0
9.711945674E0,2.172717571E0,-1.978703022E0,1.703162193E0
9.719940536E0,2.201986790E0,-1.512924194E0,1.550986290E0
9.727936243E0,2.143991709E0,-9.847676754E-1,1.147246361E0
9.735932490E0,1.992675066E0,-4.991819859E-1,7.379999161E-1
9.743927659E0,1.827893972E0,-2.603836060E-1,4.731302261E-1
9.751923060E0,1.606406450E0,-3.235764503E-1,1.164207458E-1
9.759918998E0,1.385860682E0,-4.578948021E-1,-2.135009766E-1
9.767945245E0,1.224657774E0,-6.142940521E-1,-5.477924347E-1
9.775941490E0,1.211835623E0,-1.005079746E0,-4.887304306E-1
9.783936583E0,1.342529058E0,-1.419806480E0,-4.442262650E-2
9.791931752E0,1.574773312E0,-1.639556885E0,4.514403343E-1
9.799926845E0,1.832201481E0,-1.447978973E0,6.697921753E-1
9.807923168E0,2.018890381E0,-1.047416687E0,3.787713051E-1
9.815919415E0,1.878468513E0,-6.966605186E-1,-5.690097809E-2
9.823945583E0,1.409355164E0,-5.309801102E-1,-3.776383400E-1
9.831939523E0,8.971481323E-1,-4.431324005E-1,-7.184290886E-1
9.839936691E0,5.574612617E-1,-4.005932808E-1,-8.776164055E-1
9.847931477E0,3.162059784E-1,-4.014368057E-1,-1.083918095E0
9.855928415E0,1.058554649E-1,-3.848705292E-1,-1.181580544E0
9.863923277E0,-6.155872345E-2,-3.344845772E-1,-1.217532158E0
9.871918292E0,8.924484253E-3,-4.507503510E-1,-1.017103195E0
9.879944770E0,3.391146660E-1,-6.555938721E-1,-7.477693558E-1
9.887940477E0,9.069271088E-1,-9.590682983E-1,-2.758183479E-1
9.895936570E0,1.414500713E0,-1.079784393E0,6.689500809E-2
9.903932200E0,1.822473526E0,-1.238229275E0,3.180441856E-1
9.911926678E0,1.903848171E0,-1.461232662E0,4.148182869E-1
9.919923000E0,1.701341629E0,-1.583726883E0,3.354463577E-1
9.927949247E0,1.269050121E0,-1.630011559E0,2.445683479E-1
9.935944878E0,8.652281761E-1,-1.580727100E0,2.331962585E-1
9.943940278E0,3.748168945E-1,-1.402131557E0,2.315478325E-1
9.951935447E0,5.806446075E-2,-1.184935093E0,2.592287064E-1
9.959931386E0,-1.952958107E-1,-1.076684475E0,3.076453209E-1
9.967927094E0,-1.862020493E-1,-9.744629860E-1,3.956475258E-1
9.975922802E0,4.157066345E-3,-8.649616241E-1,5.300588608E-1
9.983948355E0,4.498691559E-1,-7.865796089E-1,7.043962479E-1
9.991944371E0,1.007532120E0,-9.315924644E-1,8.579483032E-1
9.999940386E0,1.631114483E0,-1.269946575E0,9.681644440E-1
1.000793494E1,1.969589710E0,-1.522264957E0,9.967570305E-1
1.001593249E1,2.009877205E0,-1.623653889E0,1.078780651E0
1.002392720E1,2.030026436E0,-1.833283901E0,1.178763390E0
1.003192199E1,2.027722836E0,-1.993177414E0,1.377252102E0
1.003994877E1,1.797584534E0,-2.075535297E0,1.456116438E0
1.004794448E1,1.459229946E0,-1.980432987E0,1.567198515E0
1.005594050E1,1.014990807E0,-1.767700195E0,1.696148157E0
1.006393474E1,5.920948982E-1,-1.516305923E0,1.895406246E0
1.007193006E1,3.884181976E-1,-1.369129181E0,1.983054161E0
1.007992677E1,2.576451302E-1,-1.254324436E0,2.040728331E0
1.008792156E1,2.027463913E-1,-1.111762047E0,2.106454372E0
1.009594950E1,2.028112411E-1,-1.085025787E0,2.198505640E0
1.010394367E1,3.112158775E-1,-1.224285126E0,2.299151421E0
1.011194037E1,3.877000809E-1,-1.280180931E0,2.323762894E0
1.011993508E1,4.450211525E-1,-1.261737823E0,2.341742754E0
1.012793087E1,5.341954231E-1,-1.225883484E0,2.343562126E0
1.013592719E1,7.026634216E-1,-1.223271370E0,2.156163931E0
1.014392220E1,7.436261177E-1,-1.215946198E0,2.057331562E0
1.015194845E1,7.258939743E-1,-1.163581848E0,1.804751873E0
1.015994439E1,6.280150414E-1,-1.121212006E0,1.546304226E0
1.016793956E1,5.751833916E-1,-1.076227188E0,1.382957697E0
1.017593619E1,5.611901283E-1,-1.099706650E0,1.250485897E0
1.018393128E1,5.577774048E-1,-1.095291138E0,1.221681356E0
1.019192637E1,5.653085709E-1,-1.053296089E0,1.257662535E0
1.019992201E1,5.119328499E-1,-1.057494164E0,1.351107121E0
1.020794818E1,5.291180611E-1,-1.057690620E0,1.477904081E0
1.021594511E1,5.226588249E-1,-1.054147720E0,1.573900104E0
1.022393959E1,4.913482666E-1,-1.016251564E0,1.622619987E0
1.023193438E1,4.844870567E-1,-8.892908096E-1,1.614981890E0
1.023993047E1,4.511461258E-1,-7.500867844E-1,1.489148617E0
1.024792618E1,4.298772812E-1,-6.848030090E-1,1.526831269E0
1.025592250E1,3.660302162E-1,-6.142854691E-1,1.600422621E0
1.026394798E1,3.103590012E-1,-5.934371948E-1,1.649130821E0
1.027194345E1,1.626520157E-1,-5.740699768E-1,1.716354370E0
1.027993939E1,3.349733353E-2,-5.054836273E-1,1.771803260E0
1.028793518E1,-1.389679909E-1,-3.992652893E-1,1.794904232E0
1.029593173E1,-2.059783936E-1,-2.504167557E-1,1.998877287E0
1.030392659E1,-1.678428650E-1,-2.842731476E-1,2.368219614E0
1.031192161E1,1.049995422E-3,-3.455133438E-1,2.972599983E0
1.031994778E1,1.629452705E-1,-2.983655930E-1,3.552746773E0
1.032794318E1,1.497530937E-1,-1.742000580E-1,3.967069387E0
1.033593958E1,8.203935623E-2,-1.521053314E-1,4.363964558E0
1.034393467E1,2.621521950E-1,-1.910438538E-1,4.446014404E0
1.035193038E1,5.314640999E-1,-1.237125397E-1,4.277653694E0
1.035992601E1,7.025575638E-1,-4.146003723E-2,3.999473095E0
1.036792202E1,7.927241325E-1,1.038713455E-1,3.522496223E0
1.037594858E1,8.392596245E-1,1.429681778E-1,2.979889154E0
1.038394398E1,8.056802750E-1,1.367330551E-1,2.286188364E0
1.039193876E1,7.346124649E-1,1.678943634E-2,1.618623018E0
1.039993416E1,6.527409554E-1,-2.104568481E-2,1.086071014E0
1.040793072E1,5.875639915E-1,-9.439468384E-3,5.491759181E-1
1.041592681E1,5.335168839E-1,5.158042908E-2,1.914215684E-1
1.042392190E1,4.084472656E-1,1.523380280E-1,-8.215451241E-2
1.043194738E1,2.889981270E-1,1.879510880E-1,-2.270242572E-1
1.043994378E1,2.710871696E-1,1.638832092E-1,-2.465811372E-1
1.044793910E1,3.420476913E-1,6.121635437E-2,-3.275187016E-1
1.045593481E1,4.363727570E-1,6.755828857E-3,-3.839935064E-1
1.046392936E1,4.796814919E-1,-7.607173920E-2,-4.351519942E-1
1.047192476E1,4.435768127E-1,-5.311584473E-2,-5.351736546E-1
1.047992132E1,3.891601562E-1,-3.392028809E-2,-5.774164200E-1
1.048794756E1,3.608818054E-1,-9.930133820E-2,-5.632154346E-1
1.049594412E1,2.740926743E-1,-1.240959167E-1,-5.106196404E-1
1.050393890E1,1.057372093E-1,-1.727685928E-1,-3.164017797E-1
1.051193376E1,-4.510068893E-2,-2.045354843E-1,3.118491173E-2
1.051993001E1,-1.738805771E-1,-2.246818542E-1,5.084919930E-1
1.052792487E1,-1.711235046E-1,-2.589435577E-1,1.014250159E0
1.053592181E1,-1.293320656E-1,-3.170652390E-1,1.452291489E0
1.054394644E1,-6.563663483E-2,-2.829866409E-1,1.905431032E0
1.055194215E1,5.161666870E-2,-2.707901001E-1,2.344765663E0
1.055993847E1,2.536392212E-1,-4.215650558E-1,3.004269361E0
1.056793380E1,3.901066780E-1,-8.368425369E-1,3.677841187E0
1.057593050E1,5.681123734E-1,-1.251150131E0,4.226924896E0
1.058392560E1,7.217373848E-1,-1.520084381E0,4.882469654E0
1.059192130E1,7.934627533E-1,-1.550639153E0,5.408283234E0
1.059994747E1,9.697933197E-1,-1.666319847E0,5.904944420E0
1.060794280E1,1.180565357E0,-1.894101143E0,6.144687176E0
1.061593858E1,1.278495312E0,-2.184527397E0,6.369567871E0
1.062393391E1,1.099106312E0,-2.353692055E0,6.330815792E0
1.063192961E1,9.560070038E-1,-2.516101837E0,6.141760349E0
1.063992532E1,9.500789642E-1,-2.641555786E0,5.878548622E0
1.064792080E1,9.988059998E-1,-2.708466530E0,5.648254395E0
1.065594781E1,1.112152100E0,-2.750394821E0,5.492385864E0
1.066394298E1,1.101289272E0,-2.755496025E0,5.229633808E0
1.067193861E1,1.086035728E0,-2.776338577E0,5.077073574E0
1.067993409E1,1.037549019E0,-2.760456085E0,4.951757431E0
1.068792949E1,1.096702576E0,-2.827366829E0,4.812726021E0
1.069592643E1,1.302874088E0,-2.906190872E0,4.581249237E0
1.070392083E1,1.472700596E0,-3.012045383E0,4.198319435E0
1.071194700E1,1.564743519E0,-3.015903950E0,3.521328449E0
1.071994240E1,1.618106842E0,-2.977391243E0,2.969404459E0
1.072793872E1,1.708947182E0,-3.013120651E0,2.525583267E0
1.073593412E1,1.918707848E0,-3.175347805E0,2.152721882E0
1.074393052E1,2.191305637E0,-3.429867744E0,1.834537983E0
1.075192438E1,2.398246288E0,-3.755778790E0,1.502804756E0
1.075992040E1,2.403341293E0,-3.938135147E0,1.195559502E0
1.076794657E1,2.299544334E0,-4.020063877E0,9.307565689E-1
1.077594374E1,2.153659344E0,-4.053692818E0,5.544810295E-1
1.078393860E1,1.991478443E0,-4.098212242E0,2.457437515E-1
1.079193369E1,1.884399414E0,-4.055674553E0,-2.622079849E-2
1.079992909E1,1.845235825E0,-4.009315491E0,-2.186493874E-1
1.080792472E1,1.839173794E0,-4.017207623E0,-4.055423737E-1
1.081595182E1,1.853118420E0,-4.134659290E0,-5.672435760E-1
1.082394637E1,1.884432316E0,-4.282277584E0,-5.715594292E-1
1.083194231E1,1.950659513E0,-4.393018246E0,-7.446527481E-1
1.083993779E1,2.012189388E0,-4.507596970E0,-1.015347481E0
1.084793288E1,2.038923979E0,-4.568789482E0,-1.307726383E0
1.085592951E1,1.973338604E0,-4.521939754E0,-1.430769444E0
1.086392522E1,1.981082678E0,-4.568249702E0,-1.521307468E0
1.087191969E1,1.942193747E0,-4.732043743E0,-1.660903931E0
1.087994556E1,1.862858534E0,-4.924858093E0,-1.770128727E0
1.088794219E1,1.672101021E0,-4.974446297E0,-1.817251205E0
1.089593905E1,1.505098343E0,-4.988383293E0,-1.899823189E0
1.090393329E1,1.303881168E0,-5.041026592E0,-2.029816151E0
1.091192831E1,1.117757559E0,-4.991355896E0,-2.107529163E0
1.091992432E1,1.004428387E0,-4.882495403E0,-2.097495556E0
1.092795057E1,9.649069309E-1,-4.714467525E0,-2.002776623E0
1.093594782E1,9.755156040E-1,-4.583387852E0,-2.022575378E0
1.094394222E1,9.905176163E-1,-4.443631649E0,-2.056334972E0
1.095193731E1,9.951100349E-1,-4.350426674E0,-1.972454548E0
1.095993340E1,9.866831303E-1,-4.359834671E0,-1.857618809E0
1.096792934E1,9.905123711E-1,-4.303428650E0,-1.648979664E0
1.097592566E1,1.054393530E0,-4.208549976E0,-1.354211807E0
1.098395037E1,1.114404917E0,-4.051786900E0,-1.124604225E0
1.099194693E1,1.264464617E0,-3.903056622E0,-8.838396072E-1
1.099994264E1,1.383544922E0,-3.804978609E0,-8.594408035E-1
1.100793803E1,1.383290768E0,-3.620554209E0,-8.268117905E-1
1.101593374E1,1.341496468E0,-3.474447489E0,-6.814250946E-1
1.102392922E1,1.261918306E0,-3.268840313E0,-6.862459183E-1
1.103192485E1,1.221546173E0,-3.153762341E0,-6.423082352E-1
1.103995071E1,1.231982231E0,-3.063778877E0,-7.258949280E-1
1.104794650E1,1.334844112E0,-3.050923109E0,-8.887023926E-1
1.105594220E1,1.463895440E0,-3.011997223E0,-1.084966660E0
1.106393784E1,1.511894584E0,-2.959440947E0,-1.285586357E0
1.107193239E1,1.569222212E0,-2.941999435E0,-1.176772118E0
1.107992871E1,1.765338063E0,-2.808753014E0,-1.295240402E0
1.108792434E1,1.987601280E0,-2.692237377E0,-1.211668968E0
1.109595113E1,2.191798687E0,-2.670674801E0,-1.081166267E0
1.110394530E1,2.416742802E0,-2.618055344E0,-1.132282257E0
1.111194193E1,2.530805826E0,-2.540081501E0,-1.302897453E0
1.111993710E1,2.497090340E0,-2.443929672E0,-1.700032234E0
1.112793211E1,2.377124310E0,-2.416343212E0,-2.136452675E0
1.113592936E1,2.104059219E0,-2.294146776E0,-2.612068176E0
1.114392361E1,1.782584429E0,-2.178884983E0,-3.047668457E0
1.115195039E1,1.548161507E0,-2.073379993E0,-3.478271961E0
1.115994602E1,1.312782764E0,-2.012603760E0,-3.992239952E0
1.116794173E1,1.152272940E0,-1.950334668E0,-4.553219318E0
1.117593813E1,1.006206155E0,-1.828235269E0,-5.053466320E0
1.118393284E1,9.532067776E-1,-1.656316519E0,-6.003027916E0
1.119192793E1,1.027672529E0,-1.540898681E0,-6.995391846E0
1.119992394E1,1.126934886E0,-1.186930895E0,-8.515251160E0
1.120794958E1,1.199707747E0,-8.561615348E-1,-9.494025230E0
1.121594613E1,1.285949945E0,-4.544248581E-1,-1.013218784E1
1.122394161E1,1.447032452E0,-9.769642353E-2,-1.054616261E1
1.123193693E1,1.690396547E0,1.360784769E-1,-1.067216492E1
1.123993272E1,1.824307919E0,2.898674011E-1,-1.057758617E1
1.124792742E1,1.721959710E0,3.774712086E-1,-1.047291088E1
1.125592444E1,1.308046818E0,6.059486866E-1,-1.078348064E1
1.126394992E1,7.414474487E-1,9.756135941E-1,-1.116890717E1
1.127194508E1,3.004990518E-2,1.605584979E0,-1.154528332E1
1.127994110E1,-6.991540790E-1,2.335793495E0,-1.189380550E1
1.128793704E1,-1.226788640E0,2.887735367E0,-1.215508938E1
1.129593336E1,-1.697859168E0,3.237007380E0,-1.221923733E1
1.130392822E1,-1.968675017E0,3.401564360E0,-1.200058746E1
1.131192386E1,-2.210617065E0,3.481990337E0,-1.158030510E1
1.131994941E1,-2.347719669E0,3.471034527E0,-1.099400997E1
1.132794550E1,-2.423736095E0,3.408695698E0,-1.046393967E1
1.133594175E1,-2.407825470E0,3.281121254E0,-1.000195885E1
1.134393684E1,-2.304073572E0,3.171580315E0,-9.706442833E0
1.135193232E1,-2.213463068E0,3.020507336E0,-9.263989449E0
1.135992772E1,-2.147138596E0,2.856971025E0,-8.907016754E0
1.136792335E1,-2.098702192E0,2.582936287E0,-8.453361511E0
1.137595013E1,-2.012952328E0,2.156673908E0,-8.065710068E0
1.138394530E1,-1.921786189E0,1.708957911E0,-7.659604549E0
1.139194101E1,-1.706573129E0,1.121231318E0,-6.838835716E0
1.139993664E1,-1.405134916E0,6.427845359E-1,-5.963556767E0
1.140793212E1,-8.797883987E-1,1.323544383E-1,-4.793065071E0
1.141592806E1,-2.476668358E-1,-3.376167417E-1,-3.489085197E0
1.142392292E1,3.277909458E-1,-7.210528851E-1,-2.362286091E0
1.143194932E1,1.004330635E0,-1.166119099E0,-1.287982941E0
1.143994533E1,1.437160134E0,-1.463986158E0,-4.721403122E-1
1.144794020E1,1.726612806E0,-1.741385460E0,2.142276764E-1
1.145593775E1,1.770166278E0,-1.849927902E0,5.310497284E-1
1.146393246E1,1.635756850E0,-1.919751525E0,6.428842545E-1
1.147192786E1,1.390990615E0,-1.838522673E0,4.361047745E-1
1.147992295E1,1.088966489E0,-1.702924252E0,4.223775864E-1
1.148794920E1,7.344530821E-1,-1.549616456E0,3.354759216E-1
1.149594575E1,5.263526440E-1,-1.428377628E0,2.371921539E-1
1.150394084E1,2.627440691E-1,-1.396793842E0,2.014856339E-1
1.151193601E1,1.355643272E-1,-1.462343454E0,4.007530212E-1
1.151993164E1,1.259571314E-1,-1.593650937E0,7.114763260E-1
1.152792827E1,1.369721889E-1,-1.787912846E0,1.046577454E0
1.153592467E1,1.031477451E-1,-1.850678086E0,1.280188560E0
1.154394892E1,1.586508751E-2,-1.769653440E0,1.405403137E0
1.155194494E1,-6.634402275E-2,-1.446382523E0,1.559624672E0
1.155994103E1,-5.720257759E-2,-9.725971222E-1,1.716924667E0
1.156793612E1,1.047158241E-1,-3.724882603E-1,1.614409447E0
1.157593214E1,2.575926781E-1,-1.522264481E-1,1.434805870E0
1.158392746E1,4.592378139E-1,-4.711101055E-1,1.233104706E0
1.159192286E1,5.870230198E-1,-9.640355110E-1,1.145945549E0
1.159994880E1,7.985248566E-1,-1.412290335E0,1.230096817E0
1.160794443E1,1.047901630E0,-1.489885330E0,1.106420517E0
1.161594083E1,1.205572605E0,-1.327524185E0,1.044022560E0
1.162393592E1,1.220983982E0,-9.600710869E-1,8.465442657E-1
1.163193194E1,1.000442266E0,-5.430960655E-1,6.980733871E-1
1.163992734E1,6.835479736E-1,-7.544565201E-2,4.995393753E-1
1.164792304E1,4.990677834E-1,2.343726158E-1,3.788471222E-1
1.165594975E1,3.616163731E-1,3.301091194E-1,2.297716141E-1
1.166394431E1,2.758059502E-1,-8.347582817E-2,1.007223129E-1
1.167194025E1,2.025501728E-1,-7.388617992E-1,2.867155075E-1
1.167993534E1,1.745228767E-1,-1.444376707E0,5.787296295E-1
1.168793135E1,2.501752377E-1,-1.672095299E0,7.798595428E-1
1.169592798E1,5.348536968E-1,-1.561228752E0,8.377962112E-1
1.170392308E1,7.794852257E-1,-1.093451023E0,7.009038925E-1
1.171194871E1,8.006598949E-1,-5.557045937E-1,4.694290161E-1
1.171994442E1,6.633172035E-1,-1.083850861E-2,1.297178268E-1
1.172794035E1,4.730541706E-1,3.214187622E-1,-3.040094376E-1
1.173593606E1,3.053131104E-1,4.445505142E-1,-7.257890701E-1
1.174393154E1,2.218265533E-1,3.295106888E-1,-1.047462940E0
1.175192694E1,1.601982117E-1,2.544593811E-2,-1.127175331E0
1.175992288E1,1.194295883E-1,-5.538625717E-1,-8.909001350E-1
1.176794936E1,1.894726753E-1,-1.118989944E0,-4.869031906E-1
1.177594545E1,3.857660294E-1,-1.429749966E0,-3.937673569E-2
1.178394046E1,5.682344437E-1,-1.353531361E0,2.727346420E-1
1.179193586E1,8.371767998E-1,-9.602632523E-1,3.999729156E-1
1.179993042E1,1.058750153E0,-6.215295792E-1,3.641862869E-1
1.180792697E1,1.026687145E0,-4.279704094E-1,1.855230331E-1
1.181595376E1,7.085113525E-1,-3.392467499E-1,1.661300659E-3
1.182394792E1,3.499741554E-1,-2.510309219E-1,-2.259492874E-1
1.183194371E1,-3.116130829E-2,-2.361688614E-1,-5.953106880E-1
1.183993972E1,-2.929205894E-1,-4.350824356E-1,-8.966150284E-1
1.184793574E1,-3.643431664E-1,-8.031249046E-1,-9.705376625E-1
1.185593206E1,-3.550362587E-1,-1.298915386E0,-6.848630905E-1
1.186392685E1,-3.218512535E-1,-1.571002483E0,-2.668857574E-1
1.187192194E1,-1.843237877E-1,-1.667386532E0,2.782263756E-1
1.187994865E1,1.175017357E-1,-1.514649391E0,6.285047531E-1
1.188794413E1,4.218063354E-1,-1.340498447E0,8.583264351E-1
1.189594068E1,5.921769142E-1,-1.189195633E0,8.890914917E-1
1.190393577E1,5.543503761E-1,-1.114931583E0,8.749003410E-1
1.191193117E1,3.750405312E-1,-1.039081573E0,7.132029533E-1
1.191992688E1,2.629604340E-1,-9.414606094E-1,6.136131287E-1
1.192795244E1,2.371997833E-1,-8.484315872E-1,3.993988037E-1
1.193594906E1,2.146000862E-1,-9.485907555E-1,3.243212700E-1
1.194394424E1,1.914763451E-1,-1.098153114E0,3.176035881E-1
1.195193986E1,1.777310371E-1,-1.275238514E0,3.884525299E-1
1.195993527E1,8.301115036E-2,-1.291113377E0,6.191854477E-1
1.196793044E1,4.951906204E-2,-1.228561878E0,9.061055183E-1
1.197592730E1,1.305971146E-1,-1.051705837E0,1.137975216E0
1.198395254E1,2.942233086E-1,-7.873630524E-1,1.199859142E0
1.199194856E1,5.114154816E-1,-5.580663681E-1,1.182193756E0
1.199994396E1,7.056069374E-1,-4.051775932E-1,1.088506222E0
1.200793936E1,8.490185738E-1,-2.375216484E-1,8.725252151E-1
1.201593576E1,8.760042191E-1,-1.401824951E-1,7.118182182E-1
1.202393054E1,8.533096313E-1,-1.797876358E-1,5.857911110E-1
1.203192625E1,9.485802650E-1,-4.509534836E-1,6.998853683E-1
1.203995265E1,1.143996716E0,-9.101901054E-1,7.660255432E-1
1.204794782E1,1.319376469E0,-1.454562187E0,8.083834648E-1
1.205594476E1,1.344703197E0,-1.742136002E0,8.601174355E-1
1.206393885E1,1.305279016E0,-1.780665398E0,9.685444832E-1
1.207193518E1,1.266700506E0,-1.680881500E0,1.128751755E0
1.207993065E1,1.286620140E0,-1.654425621E0,1.046034575E0
1.208792636E1,1.142974377E0,-1.629379272E0,9.017467499E-1
1.210394762E1,7.112133503E-1,-1.381058693E0,6.565847397E-1
1.211194364E1,5.853648186E-1,-1.189795494E0,5.689415932E-1
1.211993842E1,5.250947475E-1,-1.002660751E0,4.222018719E-1
1.212793505E1,4.703667164E-1,-7.259607315E-1,3.420276642E-1
1.213593199E1,3.895065784E-1,-5.061082840E-1,3.688795567E-1
1.214392547E1,2.923035622E-1,-2.781486511E-1,4.460716248E-1
1.215195233E1,2.464418411E-1,-2.118263245E-1,5.329887867E-1
1.215994796E1,3.005628586E-1,-2.566432953E-1,6.510622501E-1
1.216794367E1,4.267315865E-1,-2.664489746E-1,8.140356541E-1
1.217593969E1,5.896651745E-1,-2.105350494E-1,8.949627876E-1
1.218393447E1,8.186144829E-1,-1.900444031E-1,1.000486374E0
1.219192995E1,9.998114109E-1,-1.830396652E-1,1.131836653E0
1.219992596E1,1.206174374E0,-2.196273804E-1,1.312270284E0
1.220795182E1,1.364032030E0,-3.588495255E-1,1.520146251E0
1.221594838E1,1.384505987E0,-4.995517731E-1,1.730387568E0
1.222394355E1,1.227930069E0,-7.092952728E-1,1.858625174E0
1.223193833E1,1.037222147E0,-8.372583389E-1,1.936630249E0
1.223993466E1,8.502144814E-1,-9.360046387E-1,2.046729088E0
1.224793029E1,7.665235996E-1,-1.017790794E0,2.121743917E0
1.225592699E1,7.110030651E-1,-1.049195290E0,2.270418644E0
1.226395193E1,5.865743160E-1,-1.059295654E0,2.462184429E0
1.227194733E1,3.759703636E-1,-1.036134720E0,2.590111732E0
1.227994366E1,1.139986515E-1,-1.043664932E0,2.640791893E0
1.228793936E1,5.144357681E-3,-1.014334679E0,2.713242054E0
1.229593569E1,2.855801582E-2,-1.005377769E0,2.756769419E0
1.230393039E1,1.715872288E-1,-1.055491447E0,2.786960602E0
1.231192587E1,2.377922535E-1,-1.061764717E0,2.853899956E0
1.231995135E1,2.129287720E-1,-1.062523842E0,2.882379055E0
1.232794767E1,1.489698887E-1,-1.021226883E0,2.888087034E0
1.233594315E1,1.243271828E-1,-9.634675980E-1,2.875269651E0
1.234393886E1,1.638982296E-1,-9.390993118E-1,2.850632668E0
1.235193456E1,1.675729752E-1,-8.832197189E-1,2.809377670E0
1.235993027E1,1.594991684E-1,-8.363914490E-1,2.847152233E0
1.236792567E1,1.800391674E-1,-7.866811752E-1,2.787237167E0
1.237595246E1,1.592330933E-1,-6.623668671E-1,2.836649656E0
1.238394786E1,1.738724709E-1,-5.758543015E-1,2.854321003E0
1.239194234E1,2.260084152E-1,-4.697809219E-1,2.807143211E0
1.239993866E1,3.035674095E-1,-4.279718399E-1,2.800318718E0
1.240793367E1,4.230024815E-1,-5.486965179E-1,2.848093510E0
1.241593069E1,5.983850956E-1,-7.387247086E-1,2.866004467E0
1.242392540E1,6.426386833E-1,-7.851114273E-1,2.848653316E0
1.243195226E1,6.752905846E-1,-7.501964569E-1,2.915114880E0
1.243994666E1,6.675808430E-1,-7.369832993E-1,2.961399078E0
1.244794275E1,5.881292820E-1,-7.742919922E-1,2.951808691E0
1.245593846E1,4.483444691E-1,-7.522258759E-1,2.989172459E0
1.246393409E1,3.435323238E-1,-6.996698380E-1,3.112669945E0
1.247192980E1,1.683199406E-1,-6.070394516E-1,3.411700726E0
1.247992489E1,1.404004097E-1,-5.965309143E-1,3.646798134E0
1.248795044E1,1.588053703E-1,-5.629615784E-1,3.811369896E0
1.249594777E1,2.543337345E-1,-6.214170456E-1,4.154225826E0
1.250394286E1,3.621020317E-1,-7.122039795E-1,4.459399223E0
1.251193857E1,4.562885761E-1,-7.610874176E-1,4.899729729E0
1.251993420E1,5.547873974E-1,-7.343168259E-1,5.298696518E0
1.252792906E1,7.132863998E-1,-7.419624329E-1,5.849568844E0
1.253592569E1,7.878899574E-1,-7.748088837E-1,6.273455143E0
1.254395155E1,7.085697651E-1,-7.471408844E-1,6.641956806E0
1.255194695E1,4.534130096E-1,-7.600317001E-1,7.032960415E0
1.255994258E1,2.430770397E-1,-7.991552353E-1,7.263311386E0
1.256793806E1,-1.483869553E-2,-7.971286774E-1,7.354326725E0
1.257593469E1,-1.800107956E-1,-7.845220566E-1,7.587890148E0
1.258392971E1,-3.961110115E-2,-8.851022720E-1,8.096336365E0
1.259192511E1,4.097623825E-1,-1.209247589E0,8.558652878E0
1.259995128E1,9.066979885E-1,-1.738901138E0,8.816113472E0
1.260794706E1,1.318164110E0,-2.441699982E0,9.157939911E0
1.261594277E1,1.403088093E0,-2.931462288E0,9.091414452E0
1.262393840E1,1.184203625E0,-3.345771790E0,8.901992798E0
1.263193380E1,8.891787529E-1,-3.697303772E0,8.355159760E0
1.263992928E1,7.911663055E-1,-4.011850357E0,7.606452942E0
1.264792522E1,8.170607090E-1,-4.335706711E0,6.850865841E0
1.265595169E1,7.575571537E-1,-4.448970795E0,6.210000515E0
1.266394648E1,7.907845974E-1,-4.535728455E0,5.716035843E0
1.267194249E1,9.750173092E-1,-4.674906731E0,5.376685143E0
1.267993759E1,1.482325315E0,-5.072545052E0,5.164234161E0
1.268793368E1,2.139142275E0,-5.674779892E0,4.848105431E0
1.269592931E1,2.642468929E0,-6.122535706E0,4.392064095E0
1.270392509E1,3.074247360E0,-6.439851761E0,3.968591690E0
1.271195034E1,3.404595852E0,-6.605123520E0,3.515331745E0
1.271994628E1,3.769895315E0,-6.809473038E0,3.221228123E0
1.272794168E1,4.043037891E0,-7.064908981E0,2.855651379E0
1.273593900E1,4.287687302E0,-7.259213448E0,2.513887405E0
1.274393379E1,4.301602364E0,-7.314416409E0,2.260324955E0
1.275192888E1,4.256273270E0,-7.374571800E0,2.015206814E0
1.275992459E1,4.278198242E0,-7.327298641E0,1.714776516E0
1.276795068E1,4.204545021E0,-7.077915668E0,1.347848892E0
1.277594762E1,3.906617165E0,-6.586655617E0,7.917723656E-1
1.278394186E1,3.454734087E0,-6.112477779E0,1.922392845E-1
1.279193788E1,3.050161123E0,-5.863922596E0,-3.131399155E-1
1.279993328E1,2.551361799E0,-5.562685013E0,-7.188777924E-1
1.280792868E1,2.260724545E0,-5.330422401E0,-9.556756020E-1
1.281592523E1,2.230760574E0,-5.070741653E0,-9.738354683E-1
1.282395117E1,2.467658997E0,-4.907666206E0,-1.096875668E0
1.283194627E1,2.623125315E0,-4.932270527E0,-1.232041836E0
1.283994197E1,2.707857847E0,-4.816533566E0,-1.358165741E0
1.284793706E1,2.618299723E0,-4.702726364E0,-1.529106617E0
1.285593393E1,2.402007580E0,-4.542621613E0,-1.935270786E0
1.286392756E1,2.223310232E0,-4.464037895E0,-2.454264641E0
1.287195457E1,2.041645288E0,-4.265922070E0,-2.934210777E0
1.287995028E1,1.912904024E0,-3.957698584E0,-3.211688995E0
1.288794630E1,1.899543047E0,-3.794843435E0,-3.339607716E0
1.289594231E1,1.937967300E0,-3.966939926E0,-3.241577625E0
1.290393771E1,2.026042461E0,-4.315825462E0,-3.234215260E0
1.291193257E1,2.054525614E0,-4.651762486E0,-3.148863316E0
1.291992882E1,2.103108168E0,-4.792151451E0,-3.129592896E0
1.292795530E1,2.191318512E0,-4.905314445E0,-3.313383579E0
1.293595101E1,2.294059992E0,-4.937757015E0,-3.592722416E0
1.294394525E1,2.293046474E0,-4.957371235E0,-3.714541912E0
1.295194150E1,2.173547745E0,-4.744927883E0,-3.797047615E0
1.295993721E1,2.129912853E0,-4.575507164E0,-3.779158592E0
1.296793353E1,2.132192612E0,-4.308956146E0,-3.840905190E0
1.297592893E1,2.042500019E0,-4.108534813E0,-4.023864269E0
1.298395425E1,1.797716022E0,-3.955963135E0,-4.297586441E0
1.299194988E1,1.294245839E0,-3.765557289E0,-4.562878609E0
1.299994598E1,8.233008385E-1,-3.687492132E0,-4.592386723E0
1.300794168E1,4.275664091E-1,-3.642695427E0,-4.638984203E0
1.301593762E1,3.829728365E-1,-3.561448336E0,-4.829089165E0
1.302393271E1,4.939292669E-1,-3.512505531E0,-5.097120285E0
1.303192781E1,6.135677099E-1,-3.395938158E0,-5.405472279E0
1.303995467E1,6.427195072E-1,-3.427060604E0,-5.666091919E0
1.304794976E1,5.055902004E-1,-3.440180063E0,-6.049654961E0
1.305594662E1,3.172498941E-1,-3.401304722E0,-6.520781517E0
1.306394141E1,-4.056358337E-2,-3.305155754E0,-6.821271420E0
1.307193658E1,-3.121248484E-1,-3.080732346E0,-7.049316406E0
1.307993282E1,-4.296629131E-1,-2.846173763E0,-7.408596992E0
1.308792792E1,-5.134264231E-1,-2.362276077E0,-8.538728714E0
1.309595378E1,-4.738147855E-1,-1.773314953E0,-9.581602097E0
1.310395010E1,-3.266797066E-1,-9.017359018E-1,-1.059666348E1
1.311194558E1,-1.409850419E-1,7.877993584E-2,-1.187292480E1
1.311994090E1,-1.188147664E-1,9.064686298E-1,-1.288272667E1
1.312793722E1,-6.644532681E-1,1.656391144E0,-1.387293625E1
1.313593301E1,-1.497609615E0,1.978143692E0,-1.445662498E1
1.314392772E1,-2.596707821E0,1.956411600E0,-1.472439003E1
1.315195396E1,-3.377638340E0,1.607713461E0,-1.459763718E1
1.315994998E1,-3.778040409E0,1.262462616E0,-1.435941601E1
1.316794499E1,-4.008533001E0,1.015029192E0,-1.402046394E1
1.317594109E1,-4.006123543E0,9.794871807E-1,-1.383326817E1
1.318393710E1,-3.898419380E0,1.061267614E0,-1.347007561E1
1.319193243E1,-3.781488180E0,1.168783903E0,-1.302427959E1
1.319992759E1,-3.688870192E0,1.232694149E0,-1.242308807E1
1.320795400E1,-3.616477013E0,1.241059542E0,-1.157522106E1
1.321595070E1,-3.523756504E0,1.193116188E0,-1.066414452E1
1.322394549E1,-3.252216101E0,9.030842781E-1,-9.633570671E0
1.323194150E1,-2.989404678E0,4.682903290E-1,-8.752960205E0
1.323993690E1,-2.656936407E0,-1.401653290E-1,-7.590399742E0
1.324793169E1,-2.370252132E0,-5.929785967E-1,-6.496679783E0
1.325592832E1,-2.195302248E0,-7.996629477E-1,-5.624190807E0
1.326395380E1,-1.870539546E0,-9.376070499E-1,-4.505439281E0
1.327194950E1,-1.484688282E0,-9.769126177E-1,-3.594624996E0
1.327994490E1,-9.200519323E-1,-9.571406841E-1,-2.754797935E0
1.328794007E1,-5.175007582E-1,-8.731384873E-1,-1.856794357E0
1.329593786E1,-1.183212399E-1,-8.343691230E-1,-9.651899338E-1
1.330393180E1,1.886771917E-1,-8.700319529E-1,-1.688070297E-1
1.331192750E1,3.237053156E-1,-9.293465614E-1,2.494878769E-1
1.331995398E1,3.996719122E-1,-1.124327421E0,5.311813354E-1
1.332794900E1,2.934581041E-1,-1.293717146E0,6.760511398E-1
1.333594570E1,1.148874760E-1,-1.471985102E0,8.038158417E-1
1.334394018E1,-1.347587109E-1,-1.512626767E0,9.385709763E-1
1.335193581E1,-3.605498075E-1,-1.358056784E0,9.847421646E-1
1.335993214E1,-5.227246284E-1,-1.041081786E0,9.687271118E-1
1.336792700E1,-5.354357958E-1,-7.634748816E-1,1.041369438E0
1.337595409E1,-4.067779779E-1,-5.972256660E-1,1.305360794E0
1.338395010E1,-2.113007307E-1,-5.186381340E-1,1.639696121E0
1.339194481E1,7.520771027E-2,-5.374161005E-1,1.748287201E0
1.339994052E1,2.710170746E-1,-5.843594074E-1,1.690543175E0
1.340793623E1,2.778027058E-1,-6.466919184E-1,1.501219749E0
1.341593294E1,2.124736309E-1,-7.986773849E-1,1.243286133E0
1.342392795E1,9.419345856E-2,-9.726387858E-1,1.088458061E0
1.343195381E1,9.035491943E-2,-1.002317667E0,9.881610870E-1
1.343994868E1,2.870011330E-1,-8.165471554E-1,9.725875854E-1
1.344794523E1,5.741901398E-1,-5.050014257E-1,1.023736954E0
1.345594040E1,9.344160557E-1,-1.572061777E-1,1.059636116E0
1.346393641E1,1.131840467E0,1.386675835E-1,1.113460541E0
1.347193181E1,1.230052948E0,3.815160990E-1,1.095971107E0
1.347992714E1,1.121217012E0,4.431477785E-1,8.775138855E-1
1.348795369E1,9.089176655E-1,3.939481974E-1,6.161499023E-1
1.349594963E1,6.192030907E-1,1.511591673E-1,5.377321243E-1
1.350394480E1,4.587676525E-1,-1.895161867E-1,5.784864426E-1
1.351194012E1,4.249951839E-1,-6.209812164E-1,6.240701675E-1
1.351993591E1,5.160615444E-1,-8.070940971E-1,5.956010818E-1
1.352793131E1,7.640070915E-1,-8.025021553E-1,3.559465408E-1
1.353592848E1,9.679408073E-1,-6.376678944E-1,-9.454154968E-2
1.354395311E1,1.007872820E0,-4.233744144E-1,-4.629421234E-1
1.355194912E1,8.808324337E-1,-1.289653778E-1,-8.160905838E-1
1.355994368E1,7.650854588E-1,1.066982746E-1,-8.597698212E-1
1.356793962E1,8.137016296E-1,2.217633724E-1,-7.334852219E-1
1.357593563E1,1.081358910E0,4.305982590E-2,-3.338212967E-1
1.358393103E1,1.470444202E0,-2.201478481E-1,4.227447510E-2
1.359192612E1,1.941425323E0,-5.544486046E-1,5.215196609E-1
1.359995291E1,2.266699791E0,-7.311184406E-1,8.932857513E-1
1.360794869E1,2.470728159E0,-8.839402199E-1,9.878349304E-1
1.361594471E1,2.407125235E0,-9.423294067E-1,9.211091995E-1
1.362394003E1,1.916057110E0,-9.916670322E-1,5.031528473E-1
1.363193489E1,1.214093685E0,-9.591941833E-1,-1.048946381E-1
1.363993183E1,6.724252701E-1,-7.905704975E-1,-6.426162720E-1
1.364792692E1,1.966023445E-1,-4.819636345E-1,-1.118460178E0
1.365595363E1,-4.242134094E-2,-1.644899845E-1,-1.186685085E0
1.366394880E1,1.702880859E-2,2.971100807E-2,-9.393506050E-1
1.367194382E1,4.802517891E-1,4.882597923E-2,-6.931357384E-1
1.367993991E1,1.033621311E0,-6.898832321E-2,-3.199949265E-1
1.368793531E1,1.543776035E0,-3.255407810E-1,1.211996078E-1
1.369593132E1,1.723522186E0,-5.324630737E-1,3.819522858E-1
1.370395773E1,1.770964146E0,-7.831025124E-1,4.194293022E-1
1.371195228E1,1.646103859E0,-9.422936440E-1,2.386531830E-1
1.371994830E1,1.416798115E0,-9.827575684E-1,2.884149551E-2
1.372794362E1,1.135878086E0,-9.395809174E-1,9.051942825E-2
1.373593994E1,9.158434868E-1,-7.934060097E-1,1.672220230E-2
1.374393534E1,6.709208488E-1,-6.911168098E-1,7.855510712E-2
1.375193082E1,4.236416817E-1,-7.654066086E-1,4.304885864E-2
1.375992645E1,1.125659943E-1,-9.111480713E-1,-2.206592560E-1
1.376795293E1,-1.662631035E-1,-8.975162506E-1,-3.889141083E-1
1.377594894E1,-3.083162308E-1,-7.349948883E-1,-4.066462517E-1
1.378394380E1,-2.772636414E-1,-5.483856201E-1,-3.772072792E-1
1.379194005E1,-1.926245689E-1,-5.315308571E-1,-2.766265869E-1
1.379993514E1,-4.761934280E-2,-5.660872459E-1,-2.635493279E-1
1.380793054E1,2.493190765E-2,-6.254858971E-1,-2.602314949E-1
1.381595764E1,6.520080566E-2,-7.170715332E-1,-2.231607437E-1
1.382395250E1,1.997871399E-1,-8.081302643E-1,1.179213524E-1
1.383194782E1,4.515461922E-1,-9.286270142E-1,4.253754616E-1
1.383994330E1,7.710328102E-1,-1.122942924E0,7.018370628E-1
1.384793931E1,9.301590919E-1,-1.228713036E0,8.421697617E-1
1.385593625E1,9.299421310E-1,-1.241530418E0,8.858814240E-1
1.386393011E1,7.531085014E-1,-1.213469028E0,7.935333252E-1
1.387195682E1,4.956011772E-1,-1.153831959E0,6.850433350E-1
1.387995261E1,2.044587135E-1,-1.083323002E0,4.710178375E-1
1.388794854E1,-7.557725906E-2,-9.793038368E-1,2.633318901E-1
1.389594456E1,-3.149228096E-1,-9.177913666E-1,1.477661133E-1
1.390393942E1,-4.615869522E-1,-8.614749908E-1,1.814832687E-1
1.391193505E1,-4.907898903E-1,-8.105282784E-1,2.389655113E-1
1.391993022E1,-4.143247604E-1,-5.977807045E-1,4.753098488E-1
1.392795639E1,-1.755056381E-1,-4.042167664E-1,8.874549866E-1
1.393595294E1,2.655034065E-1,-4.439821243E-1,1.116207600E0
1.394394835E1,5.604872704E-1,-5.807828903E-1,1.275336742E0
1.395194290E1,7.541060448E-1,-7.777800560E-1,1.462946892E0
1.395993884E1,9.320597649E-1,-8.857192993E-1,1.509458542E0
1.396793485E1,9.574313164E-1,-9.037637711E-1,1.412519455E0
1.397593095E1,8.568077087E-1,-9.340224266E-1,1.210910320E0
1.398395681E1,6.837444305E-1,-9.158053398E-1,1.095973969E0
1.399195221E1,4.215950966E-1,-8.841390610E-1,1.116522789E0
1.399994792E1,1.948409081E-1,-7.759370804E-1,1.369518757E0
1.400794332E1,1.109743118E-1,-5.641965866E-1,1.571440220E0
1.401593902E1,1.740388870E-1,-3.352961540E-1,1.761286736E0
1.402393527E1,3.371191025E-1,-1.841254234E-1,1.921465635E0
1.403193013E1,4.215288162E-1,-2.360548973E-1,2.011612892E0
1.403995653E1,4.361429214E-1,-3.549075127E-1,2.012847662E0
1.404795262E1,4.125380516E-1,-4.591326714E-1,1.888743877E0
1.405594764E1,4.804396629E-1,-4.981145859E-1,1.732569218E0
1.406394335E1,5.851192474E-1,-5.336041451E-1,1.630951643E0
1.407193844E1,7.717342377E-1,-6.063804626E-1,1.462032080E0
1.407993476E1,9.296727180E-1,-7.316493988E-1,1.396863937E0
1.408793024E1,1.003281593E0,-8.453826904E-1,1.482509375E0
1.409595641E1,9.088606834E-1,-8.905224800E-1,1.635993004E0
1.410395173E1,8.452944756E-1,-9.313449860E-1,1.704269886E0
1.411194744E1,7.309632301E-1,-9.121856689E-1,1.679328442E0
1.411994253E1,6.686520576E-1,-8.855023384E-1,1.616839647E0
1.412793886E1,5.984969139E-1,-8.700547218E-1,1.505767107E0
1.413593518E1,4.965291023E-1,-8.227567673E-1,1.422591209E0
1.414393027E1,3.439397812E-1,-7.860717773E-1,1.375647068E0
1.415195583E1,2.320551872E-1,-7.094554901E-1,1.331556082E0
1.415995184E1,2.014737129E-1,-6.264390945E-1,1.266554356E0
1.416794724E1,2.088632584E-1,-5.274848938E-1,1.075692654E0
1.417594395E1,2.277550697E-1,-4.460906982E-1,9.892458916E-1
1.418393897E1,3.325824738E-1,-4.012746811E-1,8.397526741E-1
1.419193467E1,4.657478333E-1,-4.412956238E-1,6.740863323E-1
1.419992953E1,5.605487823E-1,-5.732498169E-1,6.976888180E-1
1.420795563E1,6.889142990E-1,-8.332023621E-1,6.821850538E-1
1.421595234E1,7.094969749E-1,-1.015491486E0,6.768459082E-1
1.422394704E1,7.183909416E-1,-1.005174637E0,6.350971460E-1
1.423194283E1,7.083754539E-1,-8.430862427E-1,6.373441219E-1
1.423993877E1,6.504383087E-1,-6.657457352E-1,6.620539427E-1
1.424787331E1,5.942301750E-1,-5.548763275E-1,7.423211336E-1
1.425586970E1,4.667563438E-1,-4.655542374E-1,8.301380873E-1
1.426389525E1,2.652978897E-1,-3.808593750E-1,1.005777478E0
1.427189095E1,1.177654266E-1,-2.831726074E-1,1.168328404E0
1.427988657E1,-5.715799332E-2,-2.106399536E-1,1.307852626E0
1.428788266E1,-1.779417992E-1,-3.255023956E-1,1.457687616E0
1.429587859E1,-3.159265518E-1,-5.097389221E-1,1.560279012E0
1.430387375E1,-4.633188248E-1,-6.622714996E-1,1.659642339E0
1.431186946E1,-5.861525536E-1,-6.679983139E-1,1.709604383E0
1.431989593E1,-7.043251991E-1,-5.622196198E-1,1.815711975E0
1.432789124E1,-7.306652069E-1,-4.642553329E-1,1.868922949E0
1.433588756E1,-6.979851723E-1,-4.001073837E-1,1.895038724E0
1.434388203E1,-6.849470139E-1,-3.863410950E-1,1.982673645E0
1.435187804E1,-6.461691856E-1,-4.658231735E-1,2.141118526E0
1.435987312E1,-5.438013077E-1,-6.071662903E-1,2.280609369E0
1.436786882E1,-4.385027885E-1,-7.194566727E-1,2.415698528E0
1.437589591E1,-3.151426315E-1,-9.082231522E-1,2.625250816E0
1.438389100E1,-2.227506638E-1,-1.084979057E0,2.709066629E0
1.439188608E1,-2.524828911E-1,-1.180227280E0,2.754365206E0
1.439988186E1,-3.524799347E-1,-1.181518555E0,2.864913940E0
1.440787756E1,-4.063091278E-1,-1.129037857E0,2.914137602E0
1.441587411E1,-4.595603943E-1,-1.049065590E0,3.008087158E0
1.442386919E1,-4.475140572E-1,-9.151859283E-1,3.127943993E0
1.443189482E1,-3.662333488E-1,-8.212213516E-1,3.288292646E0
1.443989052E1,-1.494150162E-1,-7.412481308E-1,3.517901897E0
1.444788622E1,6.525421143E-2,-6.878995895E-1,3.831238508E0
1.445588315E1,3.389487267E-1,-6.426725388E-1,4.215938568E0
1.446387701E1,5.486130714E-1,-6.637458801E-1,4.656432152E0
1.447187332E1,8.185095787E-1,-7.441997528E-1,5.163974285E0
1.447986933E1,1.163119793E0,-7.932863235E-1,5.614869118E0
1.448789449E1,1.480043888E0,-7.606649399E-1,6.154172421E0
1.449589089E1,1.834475040E0,-5.815868378E-1,6.903491020E0
1.450388566E1,2.145363331E0,-5.149631500E-1,7.611609936E0
1.451188098E1,2.415558815E0,-4.991292953E-1,8.217803955E0
1.451987761E1,2.546897888E0,-6.424150467E-1,8.797413826E0
1.452787269E1,2.532351971E0,-9.383087158E-1,9.135921478E0
1.453586870E1,2.377459049E0,-1.406077385E0,9.355762482E0
1.454389456E1,2.207770348E0,-1.761048317E0,9.422921181E0
1.455189056E1,2.093298912E0,-2.043960571E0,9.365472794E0
1.455988565E1,2.016762257E0,-2.198101044E0,9.127218246E0
1.456788112E1,1.938429832E0,-2.291418076E0,8.710434914E0
1.457587867E1,1.727637768E0,-2.530067444E0,8.181261063E0
1.458387306E1,1.585306168E0,-2.773154259E0,7.681829453E0
1.459186845E1,1.665612698E0,-3.087252617E0,7.189519882E0
1.459989462E1,1.983312130E0,-3.379238129E0,6.711568832E0
1.460789063E1,2.421542645E0,-3.611063004E0,6.161791801E0
1.461588633E1,2.851305485E0,-3.802686214E0,5.639874458E0
1.462388180E1,3.244241238E0,-4.083980560E0,5.128851414E0
1.463187719E1,3.677199841E0,-4.564428329E0,4.772424698E0
1.463987289E1,4.109325886E0,-4.962805271E0,4.356437206E0
1.464786759E1,4.685948849E0,-5.366226196E0,3.747285366E0
1.465589529E1,4.970192432E0,-5.694367886E0,3.072527885E0
1.466389015E1,4.888652325E0,-5.870362282E0,2.342697620E0
1.467188585E1,4.477009296E0,-5.902699471E0,1.525140285E0
1.467988094E1,4.144033909E0,-5.885284424E0,8.684577942E-1
1.468787625E1,3.842700005E0,-5.886976719E0,-4.325532913E-2
1.469587288E1,3.564119816E0,-5.761673927E0,-8.624334335E-1
1.470386804E1,3.443244457E0,-5.424535751E0,-1.332336903E0
1.471189382E1,3.484171391E0,-5.162372112E0,-1.468807220E0
1.471988990E1,3.417025566E0,-5.154673100E0,-1.531801701E0
1.472788491E1,3.302711487E0,-5.202671051E0,-1.410579681E0
1.473588184E1,3.299636841E0,-5.238579750E0,-1.527023792E0
1.474387762E1,3.332239628E0,-5.295433521E0,-1.613090038E0
1.475187201E1,3.220866919E0,-5.364636421E0,-1.843359947E0
1.475986802E1,3.105350494E0,-5.395588875E0,-1.988598347E0
1.476789419E1,2.983258724E0,-5.237338066E0,-2.521800041E0
1.477588958E1,2.919843197E0,-5.080045700E0,-2.806801796E0
1.478388466E1,2.795644283E0,-4.898401737E0,-2.968634129E0
1.479188006E1,2.710882902E0,-4.737469196E0,-3.077517986E0
1.479987668E1,2.600754023E0,-4.511579990E0,-3.086985588E0
1.480787177E1,2.462590933E0,-4.275994301E0,-2.994811058E0
1.481589954E1,2.404989481E0,-4.301290989E0,-2.917854309E0
1.482389425E1,2.399891853E0,-4.264328957E0,-2.972974777E0
1.483188941E1,2.410056829E0,-4.301608086E0,-2.982734203E0
1.483988473E1,2.240994930E0,-4.266943932E0,-3.042891026E0
1.484788020E1,1.991143227E0,-4.230459213E0,-3.256959438E0
1.485587713E1,1.822421312E0,-4.225908279E0,-3.411084175E0
1.486387067E1,1.641647816E0,-4.167117596E0,-3.567919254E0
1.487189768E1,1.530241728E0,-4.079532623E0,-3.552776814E0
1.487989400E1,1.451185465E0,-3.950791359E0,-3.378272057E0
1.488788847E1,1.461022854E0,-3.790571451E0,-3.243806362E0
1.489588579E1,1.516952276E0,-3.742018700E0,-2.989016056E0
1.490388049E1,1.505138159E0,-3.668804169E0,-2.938073158E0
1.491187596E1,1.437745810E0,-3.526934624E0,-2.952888012E0
1.491987104E1,1.332055807E0,-3.191135883E0,-2.871145248E0
1.492789782E1,1.266267061E0,-2.846759796E0,-2.874584198E0
1.493589375E1,1.260124445E0,-2.592813969E0,-2.999970913E0
1.494388884E1,1.253199577E0,-2.501254082E0,-3.066949844E0
1.495188423E1,1.204085112E0,-2.571273327E0,-3.028096199E0
1.495987963E1,1.072888613E0,-2.703884840E0,-3.144869328E0
1.496787594E1,9.382300377E-1,-2.902325869E0,-3.375765324E0
1.497587172E1,7.385132313E-1,-3.006672382E0,-3.722225666E0
1.498389696E1,5.367357731E-1,-3.041757584E0,-4.197226524E0
1.499189320E1,4.163246155E-1,-3.000255823E0,-4.635733128E0
1.499988952E1,4.173184633E-1,-2.912871838E0,-5.052648544E0
1.500788429E1,5.257707834E-1,-2.885545492E0,-5.453398228E0
1.501588061E1,6.700626612E-1,-2.890501022E0,-5.989707947E0
1.502387600E1,7.729473114E-1,-2.938199520E0,-6.363040924E0
1.503187140E1,8.264722824E-1,-2.806476116E0,-7.012104034E0
1.503989725E1,6.278024912E-1,-2.413077354E0,-7.882567406E0
1.504789295E1,1.212401390E-1,-1.861538887E0,-8.611804962E0
1.505588935E1,-9.174234867E-1,-8.738857508E-1,-9.900038719E0
1.506388436E1,-1.957589388E0,3.032450676E-1,-1.127295399E1
1.507187921E1,-3.297468901E0,1.958930373E0,-1.236408234E1
1.507987576E1,-4.519664288E0,3.341902971E0,-1.294750214E1
1.508787115E1,-5.456325531E0,4.011384010E0,-1.321890259E1
1.509589831E1,-6.103654385E0,4.249301910E0,-1.340507507E1
1.510389209E1,-6.240735531E0,4.082019806E0,-1.329289055E1
1.511188810E1,-6.079038620E0,3.768078804E0,-1.309284401E1
1.511988419E1,-5.859128952E0,3.645162106E0,-1.286049938E1
1.512787981E1,-5.692819595E0,3.639507532E0,-1.248342133E1
1.513587674E1,-5.556040287E0,3.484591246E0,-1.193808365E1
1.514387090E1,-5.273706913E0,3.069951057E0,-1.134398174E1
1.515189684E1,-4.668747902E0,2.296822786E0,-1.064743710E1
1.515989277E1,-3.938809156E0,1.618806362E0,-1.005549812E1
1.516788855E1,-3.041090012E0,9.984228611E-1,-9.341894150E0
1.517588486E1,-2.200613499E0,5.883792639E-1,-8.438542366E0
1.518387995E1,-1.658600807E0,3.064972162E-1,-7.605327606E0
1.519187442E1,-1.148469210E0,-1.979327202E-2,-6.611243725E0
1.519987074E1,-8.631128073E-1,-3.298709989E-1,-5.833954811E0
1.520789628E1,-5.275990367E-1,-8.862380385E-1,-4.928223133E0
1.521589352E1,-2.629203200E-1,-1.592422247E0,-4.137727261E0
1.522388853E1,9.272789955E-2,-2.114039898E0,-3.194198608E0
1.523188339E1,4.188306332E-1,-2.488516569E0,-2.365719318E0
1.523987962E1,7.265975475E-1,-2.529548407E0,-1.865830421E0
1.524787471E1,1.023694754E0,-2.358326912E0,-1.369718552E0
1.525587141E1,1.226372600E0,-2.075444698E0,-1.071990013E0
1.526389604E1,1.348153234E0,-1.738510251E0,-7.529916763E-1
1.527189228E1,1.205055118E0,-1.538093328E0,-4.466896057E-1
1.527988805E1,9.651196003E-1,-1.413326383E0,-2.368268967E-1
1.528788345E1,7.456367016E-1,-1.291151047E0,-5.846786499E-2
1.529587946E1,6.445884705E-1,-1.165919304E0,7.209205627E-2
1.530387485E1,6.208245754E-1,-1.102142692E0,2.842397690E-1
1.531186993E1,6.591398716E-1,-1.026831865E0,4.417915344E-1
1.531989602E1,7.389330864E-1,-9.546709061E-1,6.235847473E-1
1.532789203E1,8.064196110E-1,-8.316406012E-1,7.693920135E-1
1.533588865E1,7.848126888E-1,-7.534357309E-1,8.007249832E-1
1.534388289E1,6.939845085E-1,-7.152228355E-1,7.890939713E-1
1.535187890E1,4.845149517E-1,-6.185866594E-1,7.361135483E-1
1.535987483E1,2.440230846E-1,-3.982553482E-1,4.470252991E-1
1.536786969E1,4.270315170E-2,-1.549410820E-2,1.827411652E-1
1.537589708E1,-4.165101051E-2,3.310523033E-1,2.189102173E-1
1.538389117E1,9.695672989E-2,4.518313408E-1,5.245399475E-1
1.539188718E1,4.257533550E-1,3.528687954E-1,8.888397217E-1
1.539988295E1,8.715226650E-1,1.345788240E-1,1.295907974E0
1.540787827E1,1.162568569E0,-9.571218491E-2,1.392336845E0
1.541587466E1,1.187227726E0,-2.554831505E-1,1.386052132E0
1.542386975E1,1.022452593E0,-4.366948605E-1,1.293625832E0
1.543189583E1,7.338180542E-1,-5.720074177E-1,1.095170021E0
1.543989100E1,3.702952862E-1,-7.372829914E-1,8.281698227E-1
1.544788701E1,1.439740658E-1,-7.905232906E-1,6.310720444E-1
1.545588332E1,1.734137535E-2,-7.260005474E-1,5.396547318E-1
1.546387933E1,-1.867628098E-2,-4.138934612E-1,6.854991913E-1
1.547187411E1,8.842396736E-2,-8.138561249E-2,7.663097382E-1
1.547986981E1,2.161302567E-1,1.295585632E-1,7.470359802E-1
1.548789651E1,2.252352238E-1,1.391055584E-1,6.859846115E-1
1.549589252E1,1.835439205E-1,1.102056503E-1,6.820507050E-1
1.550388738E1,1.771178246E-1,1.284091473E-1,6.297235489E-1
1.551188369E1,2.342908382E-1,-1.327943802E-2,6.876811981E-1
1.551987816E1,4.262547493E-1,-5.157051086E-1,8.079710007E-1
1.552787386E1,7.107677460E-1,-9.486331940E-1,9.887599945E-1
1.553586980E1,1.027903080E0,-1.194066763E0,1.025043488E0
1.554389596E1,1.173351288E0,-1.023781300E0,9.300308228E-1
1.555189174E1,1.081469536E0,-6.981244087E-1,6.709794998E-1
1.555988744E1,8.343687057E-1,-3.363168240E-1,2.594890594E-1
1.556788275E1,5.636796951E-1,-1.509132385E-1,-2.671289444E-2
1.557587915E1,3.541569710E-1,-9.248828888E-2,-2.392177582E-1
1.558387477E1,2.375640869E-1,-1.165747643E-1,-3.480086327E-1
1.559186955E1,1.463470459E-1,-1.379828453E-1,-3.126678467E-1
1.559989571E1,9.719657898E-2,-2.198824883E-1,-8.085489273E-2
1.560789141E1,1.550917625E-1,-4.174609184E-1,2.492938042E-1
1.561588719E1,3.158740997E-1,-7.123403549E-1,6.918268204E-1
1.562388258E1,4.674263000E-1,-8.901004791E-1,9.506807327E-1
1.563187821E1,6.288003922E-1,-9.275217056E-1,1.060237408E0
1.563987360E1,6.114487648E-1,-8.267865181E-1,9.758305550E-1
1.564786907E1,4.216842651E-1,-6.589031219E-1,6.141219139E-1
1.565589608E1,1.095905304E-1,-4.508404732E-1,1.000795364E-1
1.566389124E1,-1.782393456E-1,-2.301387787E-1,-2.779397964E-1
1.567188694E1,-3.584442139E-1,-1.436233521E-2,-5.898361206E-1
1.567988226E1,-3.382096291E-1,4.120731354E-2,-6.755409241E-1
1.568787742E1,-8.696174622E-2,-1.640686989E-1,-6.614298820E-1
1.569587405E1,3.524360657E-1,-4.675068855E-1,-2.615499496E-1
1.570386936E1,8.596329689E-1,-5.721640587E-1,1.306557655E-1
1.571189530E1,1.318720818E0,-5.793848038E-1,7.491698265E-1
1.571989007E1,1.547679424E0,-5.384416580E-1,1.052659988E0
1.572788639E1,1.579494953E0,-5.639243126E-1,1.145359039E0
1.573588148E1,1.430422783E0,-6.172366142E-1,1.021242619E0
1.574387718E1,1.188011169E0,-6.423125267E-1,8.072457314E-1
1.575187342E1,9.355125427E-1,-5.568771362E-1,5.405330658E-1
1.575986881E1,6.124582291E-1,-3.866033554E-1,4.565591812E-1
1.576789505E1,2.591757774E-1,-1.554665565E-1,3.587503433E-1
1.577589198E1,2.368831635E-2,3.038883209E-2,3.991837502E-1
1.578388637E1,-1.230320930E-1,9.637546539E-2,4.597444534E-1
1.579188238E1,-2.098360062E-1,5.745887756E-4,5.530838966E-1
1.579987778E1,-8.927392960E-2,-2.806911469E-1,7.904629707E-1
1.580787325E1,2.127633095E-1,-7.295641899E-1,8.952527046E-1
1.581586956E1,5.696287155E-1,-9.362235069E-1,9.112658501E-1
1.582389442E1,8.784933090E-1,-9.286060333E-1,7.895746231E-1
1.583189112E1,1.101217747E0,-8.469944000E-1,6.007938385E-1
1.583988613E1,1.177829266E0,-8.526954651E-1,4.208493233E-1
1.584788152E1,1.162689686E0,-9.219927788E-1,1.160593033E-1
1.585587761E1,1.074140072E0,-9.586782455E-1,-1.170635223E-3
1.586387269E1,9.363765717E-1,-8.325076103E-1,7.944154739E-2
1.587186839E1,8.423066139E-1,-6.415729523E-1,2.744779587E-1
1.587989479E1,8.135037422E-1,-5.496020317E-1,5.035796165E-1
1.588789026E1,8.160123825E-1,-5.814342499E-1,6.390428543E-1
1.589588588E1,7.893724442E-1,-6.757059097E-1,6.707348824E-1
1.590388135E1,6.818733215E-1,-7.315278053E-1,5.791206360E-1
1.591187705E1,6.160492897E-1,-7.724785805E-1,4.793200493E-1
1.591987298E1,6.487293243E-1,-8.259167671E-1,2.926421165E-1
1.592789892E1,7.629418373E-1,-8.598270416E-1,8.289384842E-2
1.593589516E1,8.717923164E-1,-8.689756393E-1,-4.912376404E-3
1.594389001E1,1.071954250E0,-9.301819801E-1,3.514766693E-2
1.595188594E1,1.177161217E0,-1.053914070E0,1.674737930E-1
1.595988111E1,1.194723129E0,-1.179142952E0,5.499954224E-1
1.596787681E1,1.162631512E0,-1.240718365E0,1.078706503E0
1.597587374E1,1.059695721E0,-1.246922016E0,1.540477753E0
1.598389828E1,8.352894783E-1,-1.177525043E0,1.636496544E0
1.599189399E1,4.654345512E-1,-9.510536194E-1,1.460611820E0
1.599988969E1,-5.532884598E-2,-7.075939178E-1,1.149871588E0
1.600788546E1,-4.533901215E-1,-5.365219116E-1,8.286726475E-1
1.601588140E1,-8.087468147E-1,-4.480462074E-1,5.251712799E-1
1.602387717E1,-9.618587494E-1,-4.770960808E-1,3.855500221E-1
1.603187218E1,-8.587040901E-1,-6.169848442E-1,3.815560341E-1
1.603989773E1,-5.643849373E-1,-8.238101006E-1,4.221837521E-1
1.604789374E1,-3.295216560E-1,-9.323182106E-1,4.383161068E-1
1.605589013E1,-1.023850441E-1,-9.310498238E-1,4.974277020E-1
1.606388483E1,4.724884033E-2,-9.020018578E-1,4.790401459E-1
1.607188154E1,1.197509766E-1,-8.453798294E-1,4.371225834E-1
1.607987631E1,1.161737442E-1,-7.302212715E-1,4.148042202E-1
1.608787201E1,3.074741364E-2,-5.060677528E-1,4.073257446E-1
1.609589972E1,-1.818799973E-2,-2.709741592E-1,4.676742554E-1
1.610389418E1,2.911520004E-2,-1.089873314E-1,5.253407955E-1
1.611189012E1,1.953482628E-1,-1.822042465E-2,5.112750530E-1
1.611988497E1,2.856669426E-1,7.524919510E-2,5.600147247E-1
1.612788090E1,3.045978546E-1,5.419445038E-2,7.509627342E-1
1.613587722E1,2.409205437E-1,-1.095604897E-1,1.031286478E0
1.614387238E1,1.532726288E-1,-3.166184425E-1,1.196326971E0
1.615189878E1,7.044601440E-2,-5.111021996E-1,1.334656239E0
1.615989394E1,2.509260178E-2,-6.018433571E-1,1.410438299E0
1.616788902E1,1.106739044E-2,-6.753292084E-1,1.370620728E0
1.617588596E1,-2.060747147E-2,-7.629947662E-1,1.317213774E0
1.618388073E1,-6.065034866E-2,-7.812509537E-1,1.269424200E0
1.619187551E1,-1.179413795E-1,-7.159051895E-1,1.210807323E0
1.619987144E1,-6.710481644E-2,-5.597209930E-1,1.216162682E0
