"Time (s)","Gyroscope x (rad/s)","Gyroscope y (rad/s)","Gyroscope z (rad/s)"
7.469339000E-3,-2.095267773E-1,-1.203404516E-1,1.142318025E-1
9.575568000E-3,-2.095267773E-1,-1.203404516E-1,1.142318025E-1
1.155825900E-2,-2.095267773E-1,-1.203404516E-1,1.142318025E-1
1.357148900E-2,-2.095267773E-1,-1.203404516E-1,1.142318025E-1
1.555494900E-2,-2.095267773E-1,-1.203404516E-1,1.142318025E-1
1.756971700E-2,-2.095267773E-1,-1.203404516E-1,1.142318025E-1
1.955310000E-2,-2.095267773E-1,-1.203404516E-1,1.142318025E-1
2.156779100E-2,-2.095267773E-1,-1.203404516E-1,1.142318025E-1
2.355179000E-2,-2.095267773E-1,-1.203404516E-1,1.142318025E-1
2.556602000E-2,-2.095267773E-1,-1.203404516E-1,1.142318025E-1
2.754932500E-2,-2.095267773E-1,-1.203404516E-1,1.142318025E-1
2.956409300E-2,-2.095267773E-1,-1.203404516E-1,1.142318025E-1
3.154747700E-2,-2.095267773E-1,-1.203404516E-1,1.142318025E-1
3.356232100E-2,-2.095267773E-1,-1.203404516E-1,1.142318025E-1
3.557578200E-2,-2.095267773E-1,-1.203404516E-1,1.142318025E-1
3.755862700E-2,-2.095267773E-1,-1.203404516E-1,1.142318025E-1
3.957339400E-2,-2.095267773E-1,-1.203404516E-1,1.142318025E-1
4.155700900E-2,-2.095267773E-1,-1.203404516E-1,1.142318025E-1
4.357093100E-2,-2.095267773E-1,-1.203404516E-1,1.142318025E-1
4.555431300E-2,-2.095267773E-1,-1.203404516E-1,1.142318025E-1
4.756838900E-2,-2.095267773E-1,-1.203404516E-1,1.142318025E-1
4.955338800E-2,-2.095267773E-1,-1.203404516E-1,1.142318025E-1
5.156631000E-2,-2.095267773E-1,-1.203404516E-1,1.142318025E-1
5.355023100E-2,-2.095267773E-1,-1.203404516E-1,1.142318025E-1
5.556469200E-2,-2.095267773E-1,-1.203404516E-1,1.142318025E-1
5.754846000E-2,-2.095267773E-1,-1.203404516E-1,1.142318025E-1
5.956168900E-2,-2.095267773E-1,-1.203404516E-1,1.142318025E-1
6.157645700E-2,-2.095267773E-1,-1.203404516E-1,1.142318025E-1
6.356099500E-2,-2.095267773E-1,-1.203404516E-1,1.142318025E-1
6.557399300E-2,-2.095267773E-1,-1.203404516E-1,1.142318025E-1
6.755799200E-2,-2.095267773E-1,-1.203404516E-1,1.142318025E-1
6.957306800E-2,-2.095267773E-1,-1.203404516E-1,1.142318025E-1
7.155514300E-2,-4.324925840E-1,-1.185078546E-1,8.307767659E-2
7.356991100E-2,-4.465425014E-1,-9.407325089E-2,8.674286306E-2
7.555275600E-2,-4.526511431E-1,-8.124507964E-2,8.735372871E-2
7.756775400E-2,-4.685336351E-1,-5.619960278E-2,8.918632567E-2
7.955144500E-2,-4.831944108E-1,-3.237585723E-2,9.162978828E-2
8.156498300E-2,-4.899139404E-1,-1.771509275E-2,9.224065393E-2
8.354936500E-2,-5.057964325E-1,3.665191587E-3,9.712757170E-2
8.556290300E-2,-5.161811113E-1,2.321287990E-2,9.834930301E-2
8.754690200E-2,-5.247332454E-1,3.237585723E-2,9.773843735E-2
8.956228500E-2,-5.369505286E-1,4.398229718E-2,9.773843735E-2
9.157543700E-2,-5.491678715E-1,5.619960278E-2,9.468411654E-2
9.355820500E-2,-5.558874011E-1,5.742133409E-2,9.468411654E-2
9.557212800E-2,-5.674937963E-1,6.597344577E-2,9.285151958E-2
9.755612600E-2,-5.748242140E-1,6.780604273E-2,9.346238524E-2
9.957050900E-2,-5.852088928E-1,6.963863969E-2,8.857546002E-2
1.015542770E-1,-5.992587805E-1,7.208210230E-2,8.674286306E-2
1.035689680E-1,-6.047565937E-1,7.208210230E-2,8.552113175E-2
1.055521210E-1,-6.139195561E-1,7.147123665E-2,8.491026610E-2
1.075661970E-1,-6.261368990E-1,6.597344577E-2,7.941248268E-2
1.095511180E-1,-6.316346526E-1,6.414084882E-2,7.941248268E-2
1.115641170E-1,-6.407976151E-1,5.436700583E-2,8.002334833E-2
1.135487310E-1,-6.542366743E-1,4.520402849E-2,7.819075137E-2
1.155616520E-1,-6.566801667E-1,3.726277873E-2,7.880161703E-2
1.175769590E-1,-6.664539576E-1,2.321287990E-2,8.124507964E-2
1.195598040E-1,-6.756169796E-1,3.054326167E-3,8.307767659E-2
1.215733400E-1,-6.823364496E-1,-3.054326167E-3,8.491026610E-2
1.235576470E-1,-6.914994717E-1,-2.382374369E-2,9.040805697E-2
1.255720310E-1,-7.037167549E-1,-4.337143153E-2,9.651670605E-2
1.275554130E-1,-7.067710757E-1,-5.314527452E-2,9.896016866E-2
1.295702580E-1,-7.214318514E-1,-7.269296050E-2,1.056796908E-1
1.315532570E-1,-7.257078886E-1,-8.185594529E-2,1.093448773E-1
1.335662570E-1,-7.385360599E-1,-9.834930301E-2,1.166752651E-1
1.355517160E-1,-7.483099103E-1,-1.160643995E-1,1.221730486E-1
1.375656380E-1,-7.568620443E-1,-1.221730486E-1,1.282816976E-1
1.395480220E-1,-7.666358948E-1,-1.374446750E-1,1.362229437E-1
1.415625580E-1,-7.770205736E-1,-1.539380401E-1,1.466076523E-1
1.435776340E-1,-7.837401032E-1,-1.588249654E-1,1.521054506E-1
1.455610180E-1,-7.947356701E-1,-1.734857261E-1,1.594358236E-1
1.475750930E-1,-8.057312369E-1,-1.881465018E-1,1.679879427E-1
1.495593990E-1,-8.093964458E-1,-1.930334121E-1,1.722639948E-1
1.515727060E-1,-8.228355050E-1,-2.052507252E-1,1.802052408E-1
1.535569350E-1,-8.326093554E-1,-2.168571651E-1,1.912008226E-1
1.555705490E-1,-8.374962807E-1,-2.229658216E-1,1.966986060E-1
1.575538560E-1,-8.472700715E-1,-2.339613885E-1,2.083050460E-1
1.595680850E-1,-8.503243923E-1,-2.425135076E-1,2.150245607E-1
1.615520070E-1,-8.607091308E-1,-2.510656118E-1,2.223549485E-1
1.635659290E-1,-8.680394888E-1,-2.608394623E-1,2.333505303E-1
1.655501580E-1,-8.717046976E-1,-2.620611787E-1,2.388483137E-1
1.675637720E-1,-8.778133392E-1,-2.687807083E-1,2.461786866E-1
1.695486940E-1,-8.827002645E-1,-2.785545588E-1,2.535090744E-1
1.715621550E-1,-8.851437569E-1,-2.791654170E-1,2.614503205E-1
1.735753830E-1,-8.912523985E-1,-2.877175212E-1,2.687807083E-1
1.755585360E-1,-8.967501521E-1,-2.926044464E-1,2.761110961E-1
1.775742280E-1,-8.936958313E-1,-2.962696552E-1,2.797762752E-1
1.795578410E-1,-8.936958313E-1,-2.950479090E-1,2.895501256E-1
1.815720710E-1,-8.961393237E-1,-2.950479090E-1,2.981022298E-1
1.835554540E-1,-8.967501521E-1,-2.932153046E-1,2.993239760E-1
1.855692990E-1,-9.010262489E-1,-2.828305960E-1,3.066543639E-1
1.875529130E-1,-9.004153609E-1,-2.761110961E-1,3.121521473E-1
1.895679890E-1,-9.046914577E-1,-2.693915665E-1,3.145956099E-1
1.915505250E-1,-9.083566070E-1,-2.590068579E-1,3.225368559E-1
1.935656010E-1,-9.120218158E-1,-2.486221492E-1,3.225368559E-1
1.955486770E-1,-9.144652486E-1,-2.333505303E-1,3.298672438E-1
1.975628290E-1,-9.156870246E-1,-2.101376504E-1,3.402519524E-1
1.995462130E-1,-9.181304574E-1,-1.960877478E-1,3.445279896E-1
2.015605960E-1,-9.224064946E-1,-1.692096740E-1,3.536909819E-1
2.035748250E-1,-9.254608750E-1,-1.411098689E-1,3.628539443E-1
2.055581320E-1,-9.242390990E-1,-1.301143020E-1,3.701843321E-1
2.075732080E-1,-9.260717034E-1,-1.056796908E-1,3.793473244E-1
2.095572060E-1,-9.327912331E-1,-8.063421398E-2,3.897320330E-1
2.115701280E-1,-9.340129495E-1,-7.086037099E-2,3.958406746E-1
2.135532040E-1,-9.376781583E-1,-4.948008433E-2,4.068362415E-1
2.155692800E-1,-9.413433671E-1,-2.748893574E-2,4.153883755E-1
2.175516620E-1,-9.443976879E-1,-1.588249579E-2,4.221078753E-1
2.195652000E-1,-9.462302923E-1,7.330383174E-3,4.318817258E-1
2.215491990E-1,-9.517280459E-1,3.054326214E-2,4.410447180E-1
2.235642740E-1,-9.541715384E-1,4.398229718E-2,4.440990388E-1
2.255477340E-1,-9.578366876E-1,6.902777404E-2,4.514294267E-1
2.275612720E-1,-9.596692920E-1,8.246681094E-2,4.569272101E-1
2.295765770E-1,-9.621127844E-1,1.075122803E-1,4.605923891E-1
2.315596530E-1,-9.633345008E-1,1.276708394E-1,4.660901725E-1
2.335735750E-1,-9.633345008E-1,1.368338168E-1,4.685336351E-1
2.355571890E-1,-9.676105380E-1,1.521054506E-1,4.709770977E-1
2.375708030E-1,-9.712757468E-1,1.612684280E-1,4.746423066E-1
2.395544940E-1,-9.718865752E-1,1.624901593E-1,4.770857692E-1
2.415683390E-1,-9.761626720E-1,1.588249654E-1,4.789183438E-1
2.435525680E-1,-9.786061049E-1,1.545489132E-1,4.819726646E-1
2.455667210E-1,-9.792169929E-1,1.453859210E-1,4.807509482E-1
2.475504880E-1,-9.816604257E-1,1.313360333E-1,4.844161272E-1
2.495658720E-1,-9.834930301E-1,1.154535338E-1,4.868595898E-1
2.515483330E-1,-9.828822017E-1,1.056796908E-1,4.862487316E-1
2.535614850E-1,-9.859365225E-1,8.918632567E-2,4.893030524E-1
2.555760220E-1,-9.865473509E-1,6.780604273E-2,4.905247986E-1
2.575600210E-1,-9.877691269E-1,5.986479297E-2,4.893030524E-1
2.595744810E-1,-9.871582389E-1,4.031710699E-2,4.899139404E-1
2.615577870E-1,-9.871582389E-1,2.993239649E-2,4.874704778E-1
2.635726320E-1,-9.865473509E-1,6.719517522E-3,4.880813360E-1
2.655556310E-1,-9.865473509E-1,-1.527163107E-2,4.844161272E-1
2.675695520E-1,-9.847147465E-1,-2.871066704E-2,4.795292318E-1
2.695540900E-1,-9.810495973E-1,-5.375614017E-2,4.734205604E-1
2.715680120E-1,-9.779952765E-1,-8.246681094E-2,4.703662395E-1
2.735520100E-1,-9.810495973E-1,-9.346238524E-2,4.697553813E-1
2.755658550E-1,-9.743300676E-1,-1.276708394E-1,4.660901725E-1
2.775495460E-1,-9.724974632E-1,-1.539380401E-1,4.624249935E-1
2.795630060E-1,-9.682214260E-1,-1.704314053E-1,4.612032473E-1
2.815470820E-1,-9.651671052E-1,-1.973094791E-1,4.587597847E-1
2.835620810E-1,-9.602801800E-1,-2.229658216E-1,4.587597847E-1
2.855747710E-1,-9.584475756E-1,-2.333505303E-1,4.569272101E-1
2.875586930E-1,-9.553932548E-1,-2.535090744E-1,4.569272101E-1
2.895746920E-1,-9.486737251E-1,-2.687807083E-1,4.538728893E-1
2.915559980E-1,-9.468411207E-1,-2.785545588E-1,4.550946057E-1
2.935701510E-1,-9.413433671E-1,-2.871066630E-1,4.538728893E-1
2.955549960E-1,-9.401215911E-1,-2.919935882E-1,4.514294267E-1
2.975691490E-1,-9.370672703E-1,-2.987131178E-1,4.526511431E-1
2.995513010E-1,-9.321803451E-1,-2.999348342E-1,4.483750761E-1
3.015664540E-1,-9.285151958E-1,-3.072652221E-1,4.471533597E-1
3.035503760E-1,-9.248499870E-1,-3.109304011E-1,4.440990388E-1
3.055639120E-1,-9.205739498E-1,-3.103195429E-1,4.428772926E-1
3.075473730E-1,-9.162978530E-1,-3.115412891E-1,4.410447180E-1
3.095629870E-1,-9.114109278E-1,-3.127630055E-1,4.392121136E-1
3.115458310E-1,-9.095783234E-1,-3.121521473E-1,4.367686510E-1
3.135605990E-1,-9.071348906E-1,-3.115412891E-1,4.379903674E-1
3.155738290E-1,-9.034696817E-1,-3.109304011E-1,4.355469346E-1
3.175578270E-1,-8.985827565E-1,-3.042109013E-1,4.355469346E-1
3.195719030E-1,-8.961393237E-1,-3.023782969E-1,4.343251884E-1
3.215552870E-1,-8.900306821E-1,-2.962696552E-1,4.349360466E-1
3.235697460E-1,-8.875871897E-1,-2.938261926E-1,4.349360466E-1
3.255537450E-1,-8.845328689E-1,-2.846632004E-1,4.355469346E-1
3.275676670E-1,-8.820894361E-1,-2.773328125E-1,4.361577928E-1
3.295522810E-1,-8.796459436E-1,-2.736676335E-1,4.361577928E-1
3.315657410E-1,-8.735373020E-1,-2.638937831E-1,4.361577928E-1
3.335479710E-1,-8.723155856E-1,-2.553416789E-1,4.373795092E-1
3.355618160E-1,-8.717046976E-1,-2.528982162E-1,4.398229718E-1
3.375768910E-1,-8.668177724E-1,-2.425135076E-1,4.410447180E-1
3.395605830E-1,-8.662069440E-1,-2.327396572E-1,4.428772926E-1
3.415747350E-1,-8.600982428E-1,-2.284636050E-1,4.434881806E-1
3.435589640E-1,-8.576548100E-1,-2.229658216E-1,4.453207552E-1
3.455731940E-1,-8.539896011E-1,-2.162462920E-1,4.483750761E-1
3.475561930E-1,-8.509352803E-1,-2.089159191E-1,4.465425014E-1
3.495713450E-1,-8.497135639E-1,-2.034181207E-1,4.483750761E-1
3.515541130E-1,-8.436049223E-1,-1.985312104E-1,4.520402849E-1
3.535694970E-1,-8.436049223E-1,-1.948660165E-1,4.526511431E-1
3.555528020E-1,-8.387179971E-1,-1.887573600E-1,4.514294267E-1
3.575660320E-1,-8.368853927E-1,-1.875356287E-1,4.550946057E-1
3.595494930E-1,-8.307767510E-1,-1.814269722E-1,4.550946057E-1
3.615639520E-1,-8.246681094E-1,-1.808161139E-1,4.544837475E-1
3.635479510E-1,-8.234463334E-1,-1.795943826E-1,4.538728893E-1
3.655617960E-1,-8.179485798E-1,-1.808161139E-1,4.538728893E-1
3.675758710E-1,-8.118399382E-1,-1.802052408E-1,4.550946057E-1
3.695611010E-1,-8.075638413E-1,-1.795943826E-1,4.563163519E-1
3.715737150E-1,-8.026769161E-1,-1.820378453E-1,4.569272101E-1
3.735561750E-1,-7.971791625E-1,-1.844813079E-1,4.575380683E-1
3.755721740E-1,-7.947356701E-1,-1.881465018E-1,4.557054639E-1
3.775558650E-1,-7.849618196E-1,-1.905899495E-1,4.575380683E-1
3.795687870E-1,-7.770205736E-1,-1.960877478E-1,4.569272101E-1
3.815530930E-1,-7.721336484E-1,-2.009746730E-1,4.557054639E-1
3.835679380E-1,-7.586946487E-1,-2.076941878E-1,4.575380683E-1
3.855506300E-1,-7.483099103E-1,-2.156354338E-1,4.526511431E-1
3.875644740E-1,-7.409795523E-1,-2.174680233E-1,4.508185387E-1
3.895490880E-1,-7.287622094E-1,-2.235766798E-1,4.465425014E-1
3.915635490E-1,-7.275404930E-1,-2.266310006E-1,4.459316432E-1
3.935469310E-1,-7.195992470E-1,-2.296853364E-1,4.410447180E-1
3.955605460E-1,-7.110471725E-1,-2.290744632E-1,4.367686510E-1
3.975743910E-1,-7.055493593E-1,-2.290744632E-1,4.373795092E-1
3.995577730E-1,-6.982190013E-1,-2.296853364E-1,4.318817258E-1
4.015730800E-1,-6.896668673E-1,-2.315179259E-1,4.300491214E-1
4.035567710E-1,-6.878342628E-1,-2.284636050E-1,4.276056588E-1
4.055703080E-1,-6.792821288E-1,-2.247984111E-1,4.269948006E-1
4.075543070E-1,-6.695083380E-1,-2.211332172E-1,4.251621962E-1
4.095693830E-1,-6.670648456E-1,-2.205223590E-1,4.251621962E-1
4.115515350E-1,-6.585127115E-1,-2.113593817E-1,4.251621962E-1
4.135633030E-1,-6.481280327E-1,-2.058615834E-1,4.269948006E-1
4.155491480E-1,-6.475171447E-1,-1.997529417E-1,4.257730842E-1
4.175636080E-1,-6.389650702E-1,-1.912008226E-1,4.257730842E-1
4.195469140E-1,-6.359107494E-1,-1.850921661E-1,4.233296216E-1
4.215613750E-1,-6.285803318E-1,-1.759291887E-1,4.269948006E-1
4.235764510E-1,-6.230825782E-1,-1.661553532E-1,4.282165468E-1
4.255592950E-1,-6.200281978E-1,-1.624901593E-1,4.269948006E-1
4.275733710E-1,-6.120869517E-1,-1.514945775E-1,4.306600094E-1
4.295579850E-1,-6.059783101E-1,-1.435533315E-1,4.312708676E-1
4.315712140E-1,-6.041457057E-1,-1.392772794E-1,4.324925840E-1
4.335558280E-1,-5.974262357E-1,-1.331686229E-1,4.318817258E-1
4.355690580E-1,-5.894849896E-1,-1.337794960E-1,4.337143302E-1
4.375527490E-1,-5.858197808E-1,-1.307251602E-1,4.343251884E-1
4.395665940E-1,-5.803219676E-1,-1.325577646E-1,4.349360466E-1
4.415509000E-1,-5.729916096E-1,-1.368338168E-1,4.355469346E-1
4.435645140E-1,-5.656611919E-1,-1.392772794E-1,4.361577928E-1
4.455478200E-1,-5.607742667E-1,-1.466076523E-1,4.367686510E-1
4.475625890E-1,-5.534439087E-1,-1.563815027E-1,4.331034720E-1
4.495468940E-1,-5.503895879E-1,-1.618792862E-1,4.337143302E-1
4.515601240E-1,-5.436700583E-1,-1.771509200E-1,4.306600094E-1
4.535737390E-1,-5.393940210E-1,-1.881465018E-1,4.294382632E-1
4.555588900E-1,-5.308418870E-1,-2.058615834E-1,4.312708676E-1
4.575725050E-1,-5.253441334E-1,-2.272418737E-1,4.269948006E-1
4.595546580E-1,-5.192354321E-1,-2.400700450E-1,4.239404798E-1
4.615702720E-1,-5.082398653E-1,-2.638937831E-1,4.196644127E-1
4.635533470E-1,-4.990769029E-1,-2.913827300E-1,4.147774875E-1
4.655675770E-1,-4.905247986E-1,-3.060434759E-1,4.141666293E-1
4.675514990E-1,-4.831944108E-1,-3.298672438E-1,4.098905921E-1
4.695665740E-1,-4.758640230E-1,-3.579670191E-1,4.043927789E-1
4.715496500E-1,-4.721988440E-1,-3.707951903E-1,4.025602043E-1
4.735638030E-1,-4.648684561E-1,-3.964515328E-1,3.988949955E-1
4.755466470E-1,-4.636467099E-1,-4.202753007E-1,3.982841372E-1
4.775614150E-1,-4.618141353E-1,-4.318817258E-1,3.988949955E-1
4.795758750E-1,-4.563163519E-1,-4.563163519E-1,3.970624208E-1
4.815592580E-1,-4.495968223E-1,-4.789183438E-1,3.995058835E-1
4.835737190E-1,-4.477642179E-1,-4.905247986E-1,4.007275999E-1
4.855564870E-1,-4.392121136E-1,-5.149593949E-1,4.037819207E-1
4.875711770E-1,-4.379903674E-1,-5.271766782E-1,4.037819207E-1
4.895549450E-1,-4.306600094E-1,-5.461135507E-1,4.080579877E-1
4.915684060E-1,-4.288274050E-1,-5.656611919E-1,4.068362415E-1
4.935515580E-1,-4.245513380E-1,-5.736024380E-1,4.098905921E-1
4.955660180E-1,-4.202753007E-1,-5.852088928E-1,4.105014503E-1
4.975505560E-1,-4.172209501E-1,-5.968153477E-1,4.117231667E-1
4.995640920E-1,-4.166100919E-1,-6.010913849E-1,4.105014503E-1
5.015477840E-1,-4.129449129E-1,-6.072000265E-1,4.123340547E-1
5.035629360E-1,-4.098905921E-1,-6.145304441E-1,4.105014503E-1
5.055457050E-1,-4.123340547E-1,-6.175847650E-1,4.086688459E-1
5.075597800E-1,-4.086688459E-1,-6.267477274E-1,4.105014503E-1
5.095746250E-1,-4.129449129E-1,-6.340781450E-1,4.086688459E-1
5.115583160E-1,-4.092797041E-1,-6.395758986E-1,4.098905921E-1
5.135717760E-1,-4.111123085E-1,-6.475171447E-1,4.117231667E-1
5.155560820E-1,-4.111123085E-1,-6.591235995E-1,4.098905921E-1
5.175700040E-1,-4.105014503E-1,-6.640105247E-1,4.105014503E-1
5.195530790E-1,-4.111123085E-1,-6.762278080E-1,4.105014503E-1
5.215674630E-1,-4.159992337E-1,-6.798930168E-1,4.129449129E-1
5.235517700E-1,-4.159992337E-1,-6.902777553E-1,4.129449129E-1
5.255653830E-1,-4.166100919E-1,-7.031059265E-1,4.135557711E-1
5.275490740E-1,-4.159992337E-1,-7.079927921E-1,4.129449129E-1
5.295641500E-1,-4.178318381E-1,-7.202101350E-1,4.153883755E-1
5.315472250E-1,-4.159992337E-1,-7.336491346E-1,4.147774875E-1
5.335603780E-1,-4.184426963E-1,-7.403686643E-1,4.135557711E-1
5.355758390E-1,-4.214970171E-1,-7.519751191E-1,4.123340547E-1
5.375589140E-1,-4.251621962E-1,-7.660250068E-1,4.135557711E-1
5.395720660E-1,-4.257730842E-1,-7.745771408E-1,4.117231667E-1
5.415567580E-1,-4.331034720E-1,-7.916813493E-1,4.135557711E-1
5.435705260E-1,-4.355469346E-1,-8.142833710E-1,4.129449129E-1
5.455539090E-1,-4.367686510E-1,-8.265006542E-1,4.129449129E-1
5.475681380E-1,-4.416555762E-1,-8.527678847E-1,4.178318381E-1
5.495529830E-1,-4.465425014E-1,-8.808676600E-1,4.184426963E-1
5.515659050E-1,-4.495968223E-1,-8.930850029E-1,4.196644127E-1
5.535508270E-1,-4.526511431E-1,-9.156870246E-1,4.245513380E-1
5.555640560E-1,-4.532620013E-1,-9.279043078E-1,4.282165468E-1
5.575475160E-1,-4.587597847E-1,-9.407324791E-1,4.306600094E-1
5.595622840E-1,-4.636467099E-1,-9.553932548E-1,4.367686510E-1
5.615758220E-1,-4.630358517E-1,-9.627236128E-1,4.392121136E-1
5.635604350E-1,-4.630358517E-1,-9.700540304E-1,4.447098970E-1
5.655738960E-1,-4.654793143E-1,-9.798278809E-1,4.465425014E-1
5.675582790E-1,-4.648684561E-1,-9.847147465E-1,4.502076805E-1
5.695726620E-1,-4.660901725E-1,-9.944885969E-1,4.508185387E-1
5.715557380E-1,-4.654793143E-1,-1.006705880E0,4.532620013E-1
5.735687370E-1,-4.654793143E-1,-1.015258074E0,4.569272101E-1
5.755523500E-1,-4.642575979E-1,-1.027475357E0,4.569272101E-1
5.775671180E-1,-4.575380683E-1,-1.045801282E0,4.624249935E-1
5.795508100E-1,-4.587597847E-1,-1.048855662E0,4.624249935E-1
5.815652690E-1,-4.557054639E-1,-1.062294602E0,4.691445231E-1
5.835487300E-1,-4.532620013E-1,-1.071457624E0,4.709770977E-1
5.855625750E-1,-4.477642179E-1,-1.081231475E0,4.758640230E-1
5.875461890E-1,-4.428772926E-1,-1.092837930E0,4.776966274E-1
5.895607260E-1,-4.386012554E-1,-1.094670534E0,4.795292318E-1
5.915745710E-1,-4.282165468E-1,-1.100779176E0,4.819726646E-1
5.935591850E-1,-4.184426963E-1,-1.111163855E0,4.801400900E-1
5.955729530E-1,-4.117231667E-1,-1.113607287E0,4.813618064E-1
5.975560290E-1,-4.031710625E-1,-1.120326877E0,4.795292318E-1
5.995702580E-1,-3.933972120E-1,-1.127657294E0,4.789183438E-1
6.015541790E-1,-3.897320330E-1,-1.128878951E0,4.764748812E-1
6.035687170E-1,-3.817907870E-1,-1.132544160E0,4.728097022E-1
6.055514080E-1,-3.726277947E-1,-1.138041973E0,4.703662395E-1
6.075664830E-1,-3.671300113E-1,-1.138041973E0,4.679227769E-1
6.095510970E-1,-3.585779071E-1,-1.141096234E0,4.667010605E-1
6.115637890E-1,-3.512475193E-1,-1.139263630E0,4.642575979E-1
6.135467870E-1,-3.451388776E-1,-1.139263630E0,4.648684561E-1
6.155625550E-1,-3.420845270E-1,-1.135598540E0,4.605923891E-1
6.175456310E-1,-3.402519524E-1,-1.134376764E0,4.624249935E-1
6.195593980E-1,-3.329215646E-1,-1.133765936E0,4.630358517E-1
6.215747820E-1,-3.292563558E-1,-1.130100727E0,4.618141353E-1
6.235570120E-1,-3.298672438E-1,-1.125824690E0,4.618141353E-1
6.255717030E-1,-3.237585723E-1,-1.122770309E0,4.618141353E-1
6.275545470E-1,-3.219259977E-1,-1.120937705E0,4.636467099E-1
6.295693150E-1,-3.225368559E-1,-1.120937705E0,4.654793143E-1
6.315533140E-1,-3.219259977E-1,-1.116050839E0,4.660901725E-1
6.335676970E-1,-3.249803185E-1,-1.108720422E0,4.679227769E-1
6.355502340E-1,-3.237585723E-1,-1.109942198E0,4.673119187E-1
6.375650030E-1,-3.280346394E-1,-1.100168347E0,4.703662395E-1
6.395490010E-1,-3.310889602E-1,-1.093448758E0,4.721988440E-1
6.415624610E-1,-3.310889602E-1,-1.094059706E0,4.746423066E-1
6.435465370E-1,-3.378084898E-1,-1.085507512E0,4.783074856E-1
6.455606120E-1,-3.426954150E-1,-1.080620646E0,4.801400900E-1
6.475742260E-1,-3.433062732E-1,-1.076955438E0,4.807509482E-1
6.495594560E-1,-3.500257730E-1,-1.074512005E0,4.825835526E-1
6.515723770E-1,-3.549126983E-1,-1.072068453E0,4.850270152E-1
6.535556840E-1,-3.591887653E-1,-1.069014192E0,4.905247986E-1
6.555695290E-1,-3.646865487E-1,-1.065348983E0,4.935791194E-1
6.575535270E-1,-3.683517575E-1,-1.065348983E0,4.941899776E-1
6.595676800E-1,-3.714060783E-1,-1.067792416E0,4.972442985E-1
6.615514480E-1,-3.732386529E-1,-1.069625020E0,5.009095073E-1
6.635659080E-1,-3.720169365E-1,-1.070235968E0,5.009095073E-1
6.655492910E-1,-3.646865487E-1,-1.076344609E0,5.027421117E-1
6.675636750E-1,-3.597996235E-1,-1.081231475E0,5.057964325E-1
6.695473660E-1,-3.585779071E-1,-1.083674908E0,5.039638281E-1
6.715612100E-1,-3.530801237E-1,-1.089783549E0,5.039638281E-1
6.735753630E-1,-3.481931984E-1,-1.094059706E0,5.015203953E-1
6.755593620E-1,-3.463605940E-1,-1.096503139E0,4.996877611E-1
6.775728990E-1,-3.414736688E-1,-1.099557400E0,4.960225821E-1
6.795565900E-1,-3.353650272E-1,-1.107498646E0,4.948008358E-1
6.815713580E-1,-3.335324228E-1,-1.109942198E0,4.923573732E-1
6.835550490E-1,-3.280346394E-1,-1.116661668E0,4.893030524E-1
6.855686630E-1,-3.231477141E-1,-1.119105101E0,4.899139404E-1
6.875529700E-1,-3.158173263E-1,-1.127657294E0,4.899139404E-1
6.895677370E-1,-3.048217595E-1,-1.134987593E0,4.874704778E-1
6.915507360E-1,-2.999348342E-1,-1.141707182E0,4.911356568E-1
6.935642730E-1,-2.907718420E-1,-1.151481032E0,4.929682612E-1
6.955477330E-1,-2.773328125E-1,-1.166141748E0,4.948008358E-1
6.975634240E-1,-2.718350291E-1,-1.169806957E0,4.941899776E-1
6.995455000E-1,-2.626720667E-1,-1.185689449E0,4.966334403E-1
7.015602670E-1,-2.541199327E-1,-1.194852471E0,4.990769029E-1
7.035741900E-1,-2.498438805E-1,-1.200350165E0,5.021312237E-1
7.055578040E-1,-2.419026345E-1,-1.209513187E0,5.002986193E-1
7.075710340E-1,-2.327396572E-1,-1.218065262E0,5.033529401E-1
7.095566470E-1,-2.296853364E-1,-1.222341299E0,5.033529401E-1
7.115701080E-1,-2.217440903E-1,-1.227839112E0,5.021312237E-1
7.135541070E-1,-2.174680233E-1,-1.231504321E0,5.027421117E-1
7.155676430E-1,-2.131919712E-1,-1.230893493E0,5.045747161E-1
7.175516420E-1,-2.083050460E-1,-1.233336926E0,5.039638281E-1
7.195654870E-1,-2.034181207E-1,-1.232726097E0,5.039638281E-1
7.215491780E-1,-1.973094791E-1,-1.231504321E0,5.039638281E-1
7.235636380E-1,-1.924225539E-1,-1.230282545E0,5.076290369E-1
7.255473290E-1,-1.899790913E-1,-1.228450060E0,5.057964325E-1
7.275611740E-1,-1.875356287E-1,-1.226006508E0,5.076290369E-1
7.295763260E-1,-1.826487035E-1,-1.226617455E0,5.088507533E-1
7.315590180E-1,-1.832595766E-1,-1.228450060E0,5.057964325E-1
7.335729390E-1,-1.820378453E-1,-1.231504321E0,5.070181489E-1
7.355560150E-1,-1.826487035E-1,-1.233947754E0,5.064072609E-1
7.375707060E-1,-1.826487035E-1,-1.235169530E0,5.045747161E-1
7.395543960E-1,-1.844813079E-1,-1.233336926E0,5.039638281E-1
7.415682420E-1,-1.857030392E-1,-1.237612963E0,5.015203953E-1
7.435525480E-1,-1.875356287E-1,-1.239445567E0,4.990769029E-1
7.455667770E-1,-1.918116808E-1,-1.241278172E0,5.002986193E-1
7.475497760E-1,-1.930334121E-1,-1.243110776E0,4.990769029E-1
7.495646210E-1,-1.997529417E-1,-1.251052022E0,4.966334403E-1
7.515476200E-1,-2.040289938E-1,-1.258382440E0,4.978551865E-1
7.535636180E-1,-2.058615834E-1,-1.260825872E0,4.972442985E-1
7.555457710E-1,-2.083050460E-1,-1.275486588E0,4.948008358E-1
7.575599240E-1,-2.076941878E-1,-1.285871387E0,4.966334403E-1
7.595746910E-1,-2.034181207E-1,-1.296256065E0,4.948008358E-1
7.615577670E-1,-1.997529417E-1,-1.307251573E0,4.935791194E-1
7.635723050E-1,-1.912008226E-1,-1.320079803E0,4.886921942E-1
7.655556100E-1,-1.863138974E-1,-1.325577617E0,4.886921942E-1
7.675698400E-1,-1.850921661E-1,-1.335962296E0,4.844161272E-1
7.695540700E-1,-1.802052408E-1,-1.342681766E0,4.776966274E-1
7.715682220E-1,-1.789835095E-1,-1.346346974E0,4.740314186E-1
7.735506820E-1,-1.759291887E-1,-1.352455616E0,4.703662395E-1
7.755655270E-1,-1.734857261E-1,-1.354899168E0,4.654793143E-1
7.775498330E-1,-1.673770845E-1,-1.357953429E0,4.624249935E-1
7.795617550E-1,-1.679879427E-1,-1.362229466E0,4.581489265E-1
7.815775230E-1,-1.643227488E-1,-1.362840414E0,4.557054639E-1
7.835605210E-1,-1.631010175E-1,-1.359786034E0,4.550946057E-1
7.855752900E-1,-1.612684280E-1,-1.358564258E0,4.538728893E-1
7.875581350E-1,-1.594358236E-1,-1.354288220E0,4.557054639E-1
7.895741330E-1,-1.569923609E-1,-1.346957922E0,4.563163519E-1
7.915562860E-1,-1.508837193E-1,-1.338405728E0,4.581489265E-1
7.935712850E-1,-1.484402567E-1,-1.334740520E0,4.587597847E-1
7.955535140E-1,-1.453859210E-1,-1.322523236E0,4.630358517E-1
7.975685890E-1,-1.417207420E-1,-1.310916781E0,4.691445231E-1
7.995515880E-1,-1.411098689E-1,-1.304808140E0,4.715879560E-1
8.015661260E-1,-1.398881376E-1,-1.295034289E0,4.783074856E-1
8.035501240E-1,-1.398881376E-1,-1.284038782E0,4.825835526E-1
8.055630460E-1,-1.380555481E-1,-1.280984402E0,4.856378734E-1
8.075478910E-1,-1.325577646E-1,-1.273043156E0,4.917465150E-1
8.095627350E-1,-1.288925707E-1,-1.272432327E0,4.948008358E-1
8.115461190E-1,-1.276708394E-1,-1.272432327E0,4.984660447E-1
8.135584260E-1,-1.227839142E-1,-1.274264932E0,5.009095073E-1
8.155731930E-1,-1.203404516E-1,-1.278540969E0,5.033529401E-1
8.175571150E-1,-1.172861308E-1,-1.288314819E0,5.064072609E-1
8.195710370E-1,-1.148426682E-1,-1.299921274E0,5.076290369E-1
8.215550350E-1,-1.093448773E-1,-1.307251573E0,5.057964325E-1
8.235694950E-1,-1.062905490E-1,-1.326188445E0,5.112941861E-1
8.255531100E-1,-1.050688252E-1,-1.345736146E0,5.106833577E-1
8.275670310E-1,-1.044579595E-1,-1.359175205E0,5.106833577E-1
8.295519530E-1,-1.014036313E-1,-1.387885809E0,5.057964325E-1
8.315654140E-1,-9.590584040E-2,-1.419039965E0,5.088507533E-1
8.335497970E-1,-9.529497474E-2,-1.437365890E0,5.076290369E-1
8.355624110E-1,-8.796459436E-2,-1.475850463E0,5.057964325E-1
8.375469480E-1,-7.513642311E-2,-1.514334917E0,5.002986193E-1
8.395601780E-1,-6.902777404E-2,-1.534493446E0,5.002986193E-1
8.415752530E-1,-5.436700583E-2,-1.576032281E0,4.972442985E-1
8.435583290E-1,-4.581489414E-2,-1.596190929E0,4.948008358E-1
8.455721740E-1,-3.115412779E-2,-1.637118816E0,4.868595898E-1
8.475561720E-1,-1.527163107E-2,-1.675603390E0,4.807509482E-1
8.495716320E-1,-1.099557430E-2,-1.694540143E0,4.770857692E-1
8.515540930E-1,-2.443460980E-3,-1.729359508E0,4.715879560E-1
8.535672450E-1,8.552113548E-3,-1.765400529E0,4.648684561E-1
8.555524750E-1,1.282817032E-2,-1.783115625E0,4.642575979E-1
8.575670120E-1,1.954768784E-2,-1.816102386E0,4.587597847E-1
8.595487790E-1,2.687807009E-2,-1.842980504E0,4.557054639E-1
8.615636240E-1,2.993239649E-2,-1.858252048E0,4.520402849E-1
8.635473160E-1,3.298672289E-2,-1.883908391E0,4.526511431E-1
8.655611600E-1,3.726277873E-2,-1.905288696E0,4.508185387E-1
8.675752360E-1,3.665191308E-2,-1.915062547E0,4.532620013E-1
8.695605420E-1,3.970624134E-2,-1.932777643E0,4.520402849E-1
8.715730790E-1,4.337143153E-2,-1.944994926E0,4.526511431E-1
8.735580010E-1,4.459316283E-2,-1.949881911E0,4.532620013E-1
8.755706920E-1,4.520402849E-2,-1.956601381E0,4.544837475E-1
8.775543840E-1,4.581489414E-2,-1.961488247E0,4.544837475E-1
8.795690740E-1,4.337143153E-2,-1.959655762E0,4.550946057E-1
8.815521500E-1,4.398229718E-2,-1.955990553E0,4.550946057E-1
8.835669950E-1,4.092797264E-2,-1.951714516E0,4.514294267E-1
8.855503780E-1,4.031710699E-2,-1.942551494E0,4.532620013E-1
8.875647610E-1,4.031710699E-2,-1.929112434E0,4.538728893E-1
8.895494530E-1,3.726277873E-2,-1.923003793E0,4.526511431E-1
8.915623740E-1,3.726277873E-2,-1.904066920E0,4.532620013E-1
8.935456800E-1,3.604105115E-2,-1.883297563E0,4.489859641E-1
8.955596020E-1,3.604105115E-2,-1.871080279E0,4.495968223E-1
8.975749080E-1,3.787364438E-2,-1.852143407E0,4.483750761E-1
8.995585990E-1,4.031710699E-2,-1.830763102E0,4.489859641E-1
9.015725220E-1,4.276056588E-2,-1.817934990E0,4.502076805E-1
9.035552890E-1,4.459316283E-2,-1.792278647E0,4.489859641E-1
9.055699800E-1,4.825835302E-2,-1.772120118E0,4.495968223E-1
9.075534410E-1,5.131268129E-2,-1.762957096E0,4.489859641E-1
9.095696690E-1,5.070181563E-2,-1.745242000E0,4.489859641E-1
9.115512070E-1,5.314527452E-2,-1.737300754E0,4.495968223E-1
9.135663600E-1,5.375614017E-2,-1.724472642E0,4.526511431E-1
9.155491280E-1,5.558873713E-2,-1.717142224E0,4.544837475E-1
9.175638180E-1,5.314527452E-2,-1.712866187E0,4.557054639E-1
9.195468940E-1,5.436700583E-2,-1.711644411E0,4.581489265E-1
9.215611240E-1,5.131268129E-2,-1.718363881E0,4.599815309E-1
9.235764300E-1,4.948008433E-2,-1.722640038E0,4.599815309E-1
9.255591980E-1,5.009094998E-2,-1.739133358E0,4.612032473E-1
9.275733510E-1,5.009094998E-2,-1.757459283E0,4.605923891E-1
9.295579640E-1,4.764748737E-2,-1.766011477E0,4.624249935E-1
9.315708860E-1,5.314527452E-2,-1.792278647E0,4.612032473E-1
9.335542700E-1,5.681046844E-2,-1.816713214E0,4.593706727E-1
9.355687290E-1,6.047565863E-2,-1.830763102E0,4.557054639E-1
9.375528050E-1,6.169738993E-2,-1.858862996E0,4.520402849E-1
9.395654200E-1,6.475171447E-2,-1.883908391E0,4.489859641E-1
9.415502640E-1,6.475171447E-2,-1.896736622E0,4.447098970E-1
9.435647240E-1,6.780604273E-2,-1.923614621E0,4.392121136E-1
9.455481850E-1,6.841690838E-2,-1.934610248E0,4.373795092E-1
9.475623370E-1,7.269296050E-2,-1.957823157E0,4.300491214E-1
9.495460280E-1,7.269296050E-2,-1.975538254E0,4.257730842E-1
9.515604120E-1,7.635815442E-2,-1.983479500E0,4.239404798E-1
9.535745640E-1,8.124507964E-2,-2.001805305E0,4.208861589E-1
9.555574090E-1,8.368854225E-2,-2.015244484E0,4.166100919E-1
9.575721000E-1,8.552113175E-2,-2.018298864E0,4.153883755E-1
9.595554840E-1,9.346238524E-2,-2.026850939E0,4.123340547E-1
9.615696360E-1,9.101892263E-2,-2.028072596E0,4.074471295E-1
9.635539420E-1,8.918632567E-2,-2.027461767E0,4.056145251E-1
9.655671720E-1,8.796459436E-2,-2.025018215E0,4.050036669E-1
9.675512470E-1,8.429940045E-2,-2.012190104E0,4.007275999E-1
9.695665540E-1,8.246681094E-2,-2.007303238E0,4.019493461E-1
9.715484760E-1,7.880161703E-2,-1.990809798E0,4.013384581E-1
9.735625510E-1,7.635815442E-2,-1.970651269E0,4.013384581E-1
9.755459340E-1,7.269296050E-2,-1.957212210E0,4.013384581E-1
9.775613180E-1,7.024950534E-2,-1.927890658E0,4.043927789E-1
9.795757770E-1,7.086037099E-2,-1.912008166E0,4.037819207E-1
9.815580070E-1,6.658431143E-2,-1.878410578E0,4.031710625E-1
9.835727750E-1,6.169738993E-2,-1.839926124E0,4.056145251E-1
9.855557730E-1,6.047565863E-2,-1.822211027E0,4.050036669E-1
9.875712340E-1,5.436700583E-2,-1.777006984E0,4.056145251E-1
9.895552330E-1,4.642575979E-2,-1.729359508E0,4.086688459E-1
9.915690000E-1,4.886921868E-2,-1.709200978E0,4.105014503E-1
9.935515380E-1,4.214970022E-2,-1.657888293E0,4.123340547E-1
9.955663060E-1,3.604105115E-2,-1.603521228E0,4.166100919E-1
9.975502280E-1,3.298672289E-2,-1.577254057E0,4.172209501E-1
9.995641490E-1,2.504547499E-2,-1.519221902E0,4.196644127E-1
1.001547456E0,1.710422710E-2,-1.464244008E0,4.214970171E-1
1.003561993E0,1.404990070E-2,-1.435533285E0,4.245513380E-1
1.005576376E0,4.886921961E-3,-1.377501130E0,4.269948006E-1
1.007559836E0,1.832595794E-3,-1.319468975E0,4.288274050E-1
1.009575451E0,-6.108652335E-3,-1.290147424E0,4.312708676E-1
1.011557987E0,-1.343903504E-2,-1.237612963E0,4.331034720E-1
1.013571832E0,-1.649336144E-2,-1.209513187E0,4.343251884E-1
1.015555524E0,-2.565634064E-2,-1.161254883E0,4.379903674E-1
1.017570214E0,-3.359758854E-2,-1.114218235E0,4.410447180E-1
1.019552136E0,-3.848451003E-2,-1.089783549E0,4.428772926E-1
1.021567135E0,-4.581489414E-2,-1.049466491E0,4.465425014E-1
1.023550518E0,-5.681046844E-2,-1.015868902E0,4.502076805E-1
1.025564978E0,-6.169738993E-2,-9.993755221E-1,4.502076805E-1
1.027549285E0,-7.330382615E-2,-9.724974632E-1,4.557054639E-1
1.029564052E0,-8.002334833E-2,-9.511171579E-1,4.593706727E-1
1.031546590E0,-8.552113175E-2,-9.450085163E-1,4.599815309E-1
1.033560973E0,-9.346238524E-2,-9.364564419E-1,4.636467099E-1
1.035574587E0,-1.038470939E-1,-9.346238375E-1,4.667010605E-1
1.037557893E0,-1.087340117E-1,-9.364564419E-1,4.691445231E-1
1.039572046E0,-1.166752651E-1,-9.437867999E-1,4.715879560E-1
1.041556353E0,-1.240056455E-1,-9.505063295E-1,4.715879560E-1
1.043569889E0,-1.325577646E-1,-9.669997096E-1,4.752531648E-1
1.045553581E0,-1.423316002E-1,-9.902125597E-1,4.764748812E-1
1.047568657E0,-1.459967941E-1,-1.003040791E0,4.752531648E-1
1.049552655E0,-1.545489132E-1,-1.030529618E0,4.764748812E-1
1.051567115E0,-1.618792862E-1,-1.061683774E0,4.789183438E-1
1.053549576E0,-1.679879427E-1,-1.080620646E0,4.795292318E-1
1.055563189E0,-1.722639948E-1,-1.117883444E0,4.764748812E-1
1.057547419E0,-1.808161139E-1,-1.158811331E0,4.758640230E-1
1.059561572E0,-1.863138974E-1,-1.181413412E0,4.740314186E-1
1.061575493E0,-1.948660165E-1,-1.225395679E0,4.734205604E-1
1.063558876E0,-2.009746730E-1,-1.274264932E0,4.709770977E-1
1.065573875E0,-2.058615834E-1,-1.298088670E0,4.685336351E-1
1.067556950E0,-2.138028294E-1,-1.348179579E0,4.667010605E-1
1.069572411E0,-2.174680233E-1,-1.400103092E0,4.630358517E-1
1.071554795E0,-2.211332172E-1,-1.422094345E0,4.612032473E-1
1.073570254E0,-2.180788964E-1,-1.475239515E0,4.550946057E-1
1.075553253E0,-2.168571651E-1,-1.500895858E0,4.538728893E-1
1.077566868E0,-2.101376504E-1,-1.549154282E0,4.471533597E-1
1.079550559E0,-2.064724565E-1,-1.592525721E0,4.440990388E-1
1.081564711E0,-2.052507252E-1,-1.610851645E0,4.410447180E-1
1.083549325E0,-1.948660165E-1,-1.649947047E0,4.349360466E-1
1.085561939E0,-1.869247705E-1,-1.684155464E0,4.269948006E-1
1.087576937E0,-1.869247705E-1,-1.697594523E0,4.233296216E-1
1.089561321E0,-1.808161139E-1,-1.722029090E0,4.196644127E-1
1.091575089E0,-1.704314053E-1,-1.744020224E0,4.141666293E-1
1.093557241E0,-1.673770845E-1,-1.752572417E0,4.123340547E-1
1.095572932E0,-1.606575549E-1,-1.760513663E0,4.098905921E-1
1.097556316E0,-1.496619880E-1,-1.767233133E0,4.068362415E-1
1.099569622E0,-1.453859210E-1,-1.769676566E0,4.050036669E-1
1.101553544E0,-1.380555481E-1,-1.765400529E0,4.025602043E-1
1.103568004E0,-1.301143020E-1,-1.755626678E0,3.982841372E-1
1.105550772E0,-1.264491081E-1,-1.748907208E0,3.988949955E-1
1.107565540E0,-1.221730486E-1,-1.730581284E0,3.976732790E-1
1.109550462E0,-1.185078546E-1,-1.717753053E0,3.964515328E-1
1.111564075E0,-1.160643995E-1,-1.690264106E0,3.964515328E-1
1.113548305E0,-1.099557430E-1,-1.661553502E0,3.988949955E-1
1.115561843E0,-1.075122803E-1,-1.643227458E0,3.976732790E-1
1.117574841E0,-1.044579595E-1,-1.605353832E0,4.007275999E-1
1.119558532E0,-9.957103431E-2,-1.564425945E0,4.050036669E-1
1.121572685E0,-9.834930301E-2,-1.547321677E0,4.086688459E-1
1.123556915E0,-9.590584040E-2,-1.500895858E0,4.092797041E-1
1.125570836E0,-9.346238524E-2,-1.455080986E0,4.141666293E-1
1.127554527E0,-8.979719132E-2,-1.435533285E0,4.172209501E-1
1.129570141E0,-8.979719132E-2,-1.388496757E0,4.214970171E-1
1.131552370E0,-8.979719132E-2,-1.345736146E0,4.257730842E-1
1.133565831E0,-9.101892263E-2,-1.321301579E0,4.276056588E-1
1.135550753E0,-9.346238524E-2,-1.277930140E0,4.324925840E-1
1.137564905E0,-9.529497474E-2,-1.238223910E0,4.349360466E-1
1.139547673E0,-9.590584040E-2,-1.217454433E0,4.392121136E-1
1.141561903E0,-9.834930301E-2,-1.177748203E0,4.404338300E-1
1.143576362E0,-1.014036313E-1,-1.160643935E0,4.440990388E-1
1.145560361E0,-1.044579595E-1,-1.124602914E0,4.477642179E-1
1.147574129E0,-1.093448773E-1,-1.094059706E0,4.502076805E-1
1.149559050E0,-1.105666086E-1,-1.080009699E0,4.526511431E-1
1.151571973E0,-1.185078546E-1,-1.054353356E0,4.587597847E-1
1.153557202E0,-1.240056455E-1,-1.034805775E0,4.599815309E-1
1.155569893E0,-1.264491081E-1,-1.024420977E0,4.612032473E-1
1.157553507E0,-1.313360333E-1,-1.012814522E0,4.630358517E-1
1.159567737E0,-1.386664063E-1,-1.003040791E0,4.642575979E-1
1.161550736E0,-1.404990107E-1,-1.000597239E0,4.654793143E-1
1.163565811E0,-1.466076523E-1,-9.975429177E-1,4.654793143E-1
1.165548887E0,-1.521054506E-1,-9.999864101E-1,4.599815309E-1
1.167563040E0,-1.533271819E-1,-1.004873276E0,4.599815309E-1
1.169548576E0,-1.576032341E-1,-1.011592865E0,4.587597847E-1
1.171561267E0,-1.600466967E-1,-1.013425469E0,4.544837475E-1
1.173574805E0,-1.612684280E-1,-1.029918790E0,4.508185387E-1
1.175559418E0,-1.643227488E-1,-1.046412110E0,4.422664344E-1
1.177573186E0,-1.618792862E-1,-1.059240341E0,4.379903674E-1
1.179555724E0,-1.624901593E-1,-1.083064079E0,4.312708676E-1
1.181571337E0,-1.655444801E-1,-1.106276989E0,4.221078753E-1
1.183554798E0,-1.637118906E-1,-1.122159481E0,4.178318381E-1
1.185568874E0,-1.649336219E-1,-1.150259256E0,4.068362415E-1
1.187551949E0,-1.618792862E-1,-1.178359032E0,3.958406746E-1
1.189566794E0,-1.624901593E-1,-1.195463300E0,3.940080702E-1
1.191549870E0,-1.600466967E-1,-1.226617455E0,3.811798990E-1
1.193564637E0,-1.576032341E-1,-1.258993268E0,3.720169365E-1
1.195548251E0,-1.551597714E-1,-1.273653984E0,3.652974069E-1
1.197562173E0,-1.527163088E-1,-1.303586483E0,3.536909819E-1
1.199545480E0,-1.453859210E-1,-1.332907915E0,3.402519524E-1
1.201559632E0,-1.423316002E-1,-1.349401355E0,3.323107064E-1
1.203575016E0,-1.368338168E-1,-1.375057697E0,3.170390725E-1
1.205557476E0,-1.313360333E-1,-1.387885809E0,3.158173263E-1
1.207571397E0,-1.233947799E-1,-1.415985584E0,3.017674387E-1
1.209556935E0,-1.178969890E-1,-1.434922457E0,2.895501256E-1
1.211569472E0,-1.154535338E-1,-1.445918083E0,2.846632004E-1
1.213552316E0,-1.069014147E-1,-1.465465665E0,2.724458873E-1
1.215566392E0,-9.896016866E-2,-1.480737329E0,2.577851415E-1
1.217550699E0,-9.346238524E-2,-1.486845970E0,2.528982162E-1
1.219565235E0,-8.491026610E-2,-1.494176388E0,2.455678284E-1
1.221549157E0,-7.024950534E-2,-1.502117634E0,2.302961946E-1
1.223563618E0,-6.475171447E-2,-1.502117634E0,2.254092693E-1
1.225547078E0,-5.192354694E-2,-1.498452425E0,2.150245607E-1
1.227560538E0,-4.337143153E-2,-1.488067746E0,2.064724565E-1
1.229575306E0,-3.543018550E-2,-1.481959105E0,2.021963894E-1
1.231558458E0,-2.504547499E-2,-1.459967971E0,1.905899495E-1
1.233572919E0,-1.404990070E-2,-1.437365890E0,1.826487035E-1
1.235555995E0,-1.038470957E-2,-1.422705173E0,1.808161139E-1
1.237570070E0,1.832595794E-3,-1.391551018E0,1.747074574E-1
1.239553761E0,4.886921961E-3,-1.372614264E0,1.728748679E-1
1.241567914E0,1.160643995E-2,-1.330464482E0,1.649336219E-1
1.243552220E0,1.710422710E-2,-1.285871387E0,1.563815027E-1
1.245566065E0,2.199114859E-2,-1.263880134E0,1.551597714E-1
1.247550141E0,2.565634064E-2,-1.210124016E0,1.478293836E-1
1.249564524E0,2.932153270E-2,-1.152702689E0,1.453859210E-1
1.251547368E0,3.176499158E-2,-1.125824690E0,1.435533315E-1
1.253561137E0,3.420845419E-2,-1.061683774E0,1.368338168E-1
1.255576828E0,3.359758854E-2,-9.981538057E-1,1.343903542E-1
1.257559287E0,3.481931984E-2,-9.645562172E-1,1.337794960E-1
1.259573209E0,3.359758854E-2,-8.943067193E-1,1.337794960E-1
1.261557824E0,3.298672289E-2,-8.258898258E-1,1.307251602E-1
1.263572283E0,3.176499158E-2,-7.867944241E-1,1.307251602E-1
1.265554744E0,2.932153270E-2,-7.171558142E-1,1.307251602E-1
1.267569128E0,2.809980139E-2,-6.444628239E-1,1.301143020E-1
1.269553818E0,2.443460934E-2,-6.084218025E-1,1.319468915E-1
1.271566740E0,2.687807009E-2,-5.363397002E-1,1.319468915E-1
1.273551354E0,2.443460934E-2,-4.990769029E-1,1.331686229E-1
1.275564506E0,2.015855350E-2,-4.294382632E-1,1.350012124E-1
1.277548505E0,1.710422710E-2,-3.622430861E-1,1.362229437E-1
1.279563273E0,1.649336144E-2,-3.280346394E-1,1.368338168E-1
1.281545810E0,1.404990070E-2,-2.608394623E-1,1.374446750E-1
1.283560501E0,1.160643995E-2,-1.973094791E-1,1.411098689E-1
1.285575269E0,1.038470957E-2,-1.667662114E-1,1.404990107E-1
1.287559268E0,6.719517522E-3,-1.093448773E-1,1.404990107E-1
1.289573420E0,3.054326167E-3,-5.314527452E-2,1.411098689E-1
1.291556265E0,0.000000000E0,-2.748893574E-2,1.417207420E-1
1.293569726E0,-2.443460980E-3,2.138028294E-2,1.429424733E-1
1.295553416E0,-7.941247895E-3,6.597344577E-2,1.411098689E-1
1.297567954E0,-1.099557430E-2,8.552113175E-2,1.411098689E-1
1.299551030E0,-1.710422710E-2,1.240056455E-1,1.423316002E-1
1.301565489E0,-1.893682219E-2,1.404990107E-1,1.398881376E-1
1.303549796E0,-1.832595654E-2,1.698205322E-1,1.398881376E-1
1.305564180E0,-1.893682219E-2,1.924225539E-1,1.386664063E-1
1.307546716E0,-1.954768784E-2,2.040289938E-1,1.374446750E-1
1.309562715E0,-1.832595654E-2,2.193006277E-1,1.350012124E-1
1.311544868E0,-2.138028294E-2,2.315179259E-1,1.331686229E-1
1.313559866E0,-1.893682219E-2,2.364048511E-1,1.313360333E-1
1.315574019E0,-1.771509275E-2,2.394591719E-1,1.307251602E-1
1.317557479E0,-1.527163107E-2,2.419026345E-1,1.252273768E-1
1.319571323E0,-1.282817032E-2,2.388483137E-1,1.221730486E-1
1.321554092E0,-1.343903504E-2,2.339613885E-1,1.197295859E-1
1.323569168E0,-1.160643995E-2,2.315179259E-1,1.136209369E-1
1.325553474E0,-1.160643995E-2,2.260201424E-1,1.142318025E-1
1.327566934E0,-7.941247895E-3,2.162462920E-1,1.081231460E-1
1.329550625E0,-6.108652335E-3,2.083050460E-1,1.007927656E-1
1.331564240E0,-3.054326167E-3,2.009746730E-1,9.834930301E-2
1.333548161E0,2.443460980E-3,1.905899495E-1,9.346238524E-2
1.335563006E0,2.443460980E-3,1.838704348E-1,9.040805697E-2
1.337546620E0,7.330383174E-3,1.704314053E-1,8.246681094E-2
1.339559234E0,1.160643995E-2,1.551597714E-1,7.635815442E-2
1.341573771E0,1.343903504E-2,1.478293836E-1,7.269296050E-2
1.343558309E0,1.893682219E-2,1.331686229E-1,6.719517708E-2
1.345572153E0,2.504547499E-2,1.160643995E-1,6.047565863E-2
1.347556459E0,2.443460934E-2,1.075122803E-1,5.742133409E-2
1.349570381E0,2.993239649E-2,8.918632567E-2,5.009094998E-2
1.351553456E0,3.237585723E-2,7.330382615E-2,4.459316283E-2
1.353568840E0,3.543018550E-2,6.597344577E-2,4.153883830E-2
1.355551531E0,3.543018550E-2,4.886921868E-2,3.237585723E-2
1.357565145E0,3.848451003E-2,3.176499158E-2,2.687807009E-2
1.359548836E0,3.909537569E-2,2.626720630E-2,2.382374369E-2
1.361563527E0,3.970624134E-2,9.162978269E-3,1.710422710E-2
1.363547218E0,4.092797264E-2,-8.552113548E-3,1.343903504E-2
1.365561140E0,4.092797264E-2,-1.527163107E-2,8.552113548E-3
1.367575908E0,3.726277873E-2,-2.993239649E-2,3.054326167E-3
1.369559907E0,3.787364438E-2,-3.604105115E-2,1.832595794E-3
1.371572828E0,3.543018550E-2,-5.070181563E-2,-1.832595794E-3
1.373556519E0,3.359758854E-2,-6.291911751E-2,-6.108652335E-3
1.375570288E0,3.054326214E-2,-6.780604273E-2,-8.552113548E-3
1.377554978E0,2.748893574E-2,-7.757988572E-2,-1.221730467E-2
1.379568823E0,2.382374369E-2,-8.735372871E-2,-1.649336144E-2
1.381552514E0,2.015855350E-2,-9.162978828E-2,-1.588249579E-2
1.383566666E0,1.893682219E-2,-9.896016866E-2,-2.076941915E-2
1.385550358E0,1.221730467E-2,-1.075122803E-1,-2.199114859E-2
1.387564741E0,1.160643995E-2,-1.093448773E-1,-2.321287990E-2
1.389548816E0,3.665191587E-3,-1.154535338E-1,-2.504547499E-2
1.391562354E0,1.832595794E-3,-1.227839142E-1,-2.748893574E-2
1.393546276E0,-1.221730490E-3,-1.246165112E-1,-2.687807009E-2
1.395560197E0,-5.497787148E-3,-1.295034289E-1,-2.504547499E-2
1.397573427E0,-1.099557430E-2,-1.331686229E-1,-2.993239649E-2
1.399557656E0,-1.282817032E-2,-1.362229437E-1,-3.054326214E-2
1.401571577E0,-1.588249579E-2,-1.380555481E-1,-3.176499158E-2
1.403556115E0,-1.893682219E-2,-1.368338168E-1,-3.176499158E-2
1.405569345E0,-2.382374369E-2,-1.380555481E-1,-3.115412779E-2
1.407553113E0,-2.565634064E-2,-1.404990107E-1,-3.298672289E-2
1.409568803E0,-2.932153270E-2,-1.398881376E-1,-2.932153270E-2
1.411551802E0,-3.298672289E-2,-1.374446750E-1,-2.993239649E-2
1.413564724E0,-3.298672289E-2,-1.380555481E-1,-2.626720630E-2
1.415549722E0,-3.665191308E-2,-1.343903542E-1,-2.871066704E-2
1.417563260E0,-3.970624134E-2,-1.319468915E-1,-2.809980139E-2
1.419545720E0,-4.092797264E-2,-1.276708394E-1,-2.748893574E-2
1.421561641E0,-4.276056588E-2,-1.252273768E-1,-2.809980139E-2
1.423574948E0,-4.337143153E-2,-1.258382350E-1,-3.115412779E-2
1.425558947E0,-4.459316283E-2,-1.203404516E-1,-3.115412779E-2
1.427572484E0,-4.703662544E-2,-1.185078546E-1,-2.993239649E-2
1.429557406E0,-4.825835302E-2,-1.172861308E-1,-3.115412779E-2
1.431570328E0,-5.009094998E-2,-1.117883399E-1,-2.993239649E-2
1.433554556E0,-4.764748737E-2,-1.117883399E-1,-2.932153270E-2
1.435568094E0,-4.764748737E-2,-1.069014147E-1,-3.298672289E-2
1.437552170E0,-4.764748737E-2,-1.050688252E-1,-3.115412779E-2
1.439566014E0,-4.886921868E-2,-1.014036313E-1,-3.237585723E-2
1.441550013E0,-4.581489414E-2,-9.773843735E-2,-3.176499158E-2
1.443564166E0,-4.764748737E-2,-9.651670605E-2,-2.871066704E-2
1.445547548E0,-4.520402849E-2,-9.162978828E-2,-3.176499158E-2
1.447561932E0,-4.276056588E-2,-8.918632567E-2,-2.993239649E-2
1.449577700E0,-4.398229718E-2,-8.552113175E-2,-3.115412779E-2
1.451559161E0,-4.031710699E-2,-8.124507964E-2,-2.932153270E-2
1.453573082E0,-3.726277873E-2,-7.819075137E-2,-2.871066704E-2
1.455556466E0,-3.420845419E-2,-7.452555746E-2,-2.748893574E-2
1.457571542E0,-2.993239649E-2,-7.024950534E-2,-2.809980139E-2
1.459554847E0,-2.626720630E-2,-6.536258012E-2,-2.687807009E-2
1.461569000E0,-2.138028294E-2,-6.352998316E-2,-2.809980139E-2
1.463552999E0,-1.649336144E-2,-7.330382615E-2,-2.993239649E-2
1.465567459E0,-1.343903504E-2,-6.963863969E-2,-2.932153270E-2
1.467550535E0,-7.330383174E-3,-6.475171447E-2,-2.565634064E-2
1.469565380E0,-3.665191587E-3,-5.681046844E-2,-2.382374369E-2
1.471548455E0,-6.108652451E-4,-5.497787148E-2,-2.260201424E-2
1.473563454E0,1.221730490E-3,-4.703662544E-2,-2.015855350E-2
1.475546299E0,4.276056774E-3,-4.092797264E-2,-2.199114859E-2
1.477560681E0,6.719517522E-3,-3.909537569E-2,-1.954768784E-2
1.479574834E0,1.099557430E-2,-3.237585723E-2,-1.954768784E-2
1.481557987E0,1.343903504E-2,-2.076941915E-2,-1.771509275E-2
1.483573293E0,1.527163107E-2,-1.832595654E-2,-1.466076635E-2
1.485556369E0,1.954768784E-2,-1.282817032E-2,-1.527163107E-2
1.487569983E0,2.504547499E-2,-6.108652335E-3,-1.527163107E-2
1.489555213E0,2.443460934E-2,-3.665191587E-3,-1.404990070E-2
1.491567826E0,2.809980139E-2,1.221730490E-3,-1.343903504E-2
1.493551441E0,3.054326214E-2,8.552113548E-3,-1.404990070E-2
1.495566517E0,3.359758854E-2,9.773843922E-3,-1.343903504E-2
1.497550592E0,3.298672289E-2,1.466076635E-2,-1.343903504E-2
1.499562898E0,3.726277873E-2,1.710422710E-2,-1.404990070E-2
1.501546897E0,3.543018550E-2,2.199114859E-2,-1.771509275E-2
1.503561972E0,3.787364438E-2,2.443460934E-2,-1.832595654E-2
1.505545279E0,3.665191308E-2,2.871066704E-2,-2.015855350E-2
1.507558816E0,3.909537569E-2,3.237585723E-2,-2.076941915E-2
1.509573891E0,3.787364438E-2,3.787364438E-2,-2.076941915E-2
1.511557583E0,3.787364438E-2,3.970624134E-2,-2.199114859E-2
1.513572043E0,3.359758854E-2,4.398229718E-2,-2.443460934E-2
1.515554503E0,3.481931984E-2,5.253441259E-2,-2.504547499E-2
1.517568655E0,3.359758854E-2,5.375614017E-2,-2.626720630E-2
1.519553270E0,3.237585723E-2,5.986479297E-2,-2.993239649E-2
1.521566806E0,3.115412779E-2,6.902777404E-2,-3.176499158E-2
1.523550805E0,2.809980139E-2,7.269296050E-2,-3.298672289E-2
1.525565343E0,2.626720630E-2,8.185594529E-2,-3.543018550E-2
1.527548418E0,2.382374369E-2,8.674286306E-2,-3.665191308E-2
1.529562571E0,2.260201424E-2,8.796459436E-2,-3.665191308E-2
1.531546493E0,2.015855350E-2,9.712757170E-2,-3.909537569E-2
1.533559107E0,1.771509275E-2,1.014036313E-1,-4.031710699E-2
1.535574490E0,1.771509275E-2,1.069014147E-1,-4.153883830E-2
1.537558796E0,1.527163107E-2,1.154535338E-1,-4.459316283E-2
1.539572411E0,1.404990070E-2,1.148426682E-1,-4.276056588E-2
1.541555409E0,1.221730467E-2,1.246165112E-1,-4.642575979E-2
1.543570792E0,1.221730467E-2,1.288925707E-1,-4.703662544E-2
1.545553868E0,1.160643995E-2,1.337794960E-1,-4.703662544E-2
1.547567405E0,1.160643995E-2,1.392772794E-1,-4.703662544E-2
1.549551481E0,1.038470957E-2,1.459967941E-1,-4.703662544E-2
1.551565326E0,1.466076635E-2,1.484402567E-1,-4.581489414E-2
1.553549016E0,1.221730467E-2,1.569923609E-1,-4.825835302E-2
1.555564015E0,1.527163107E-2,1.624901593E-1,-4.764748737E-2
1.557546553E0,1.404990070E-2,1.667662114E-1,-4.703662544E-2
1.559561012E0,2.015855350E-2,1.722639948E-1,-4.703662544E-2
1.561575088E0,1.771509275E-2,1.771509200E-1,-4.642575979E-2
1.563559164E0,2.015855350E-2,1.795943826E-1,-4.825835302E-2
1.565573239E0,2.382374369E-2,1.850921661E-1,-4.642575979E-2
1.567556315E0,2.443460934E-2,1.875356287E-1,-4.764748737E-2
1.569572699E0,2.809980139E-2,1.930334121E-1,-4.825835302E-2
1.571554774E0,2.871066704E-2,1.973094791E-1,-4.825835302E-2
1.573568003E0,3.054326214E-2,1.997529417E-1,-5.131268129E-2
1.575553541E0,3.543018550E-2,2.034181207E-1,-5.009094998E-2
1.577566463E0,3.970624134E-2,2.064724565E-1,-5.314527452E-2
1.579549538E0,4.153883830E-2,2.095267773E-1,-5.192354694E-2
1.581564383E0,4.703662544E-2,2.125810981E-1,-5.131268129E-2
1.583548613E0,5.131268129E-2,2.131919712E-1,-5.497787148E-2
1.585561918E0,5.619960278E-2,2.131919712E-1,-5.253441259E-2
1.587546148E0,5.742133409E-2,2.150245607E-1,-5.436700583E-2
1.589560686E0,6.597344577E-2,2.138028294E-1,-5.375614017E-2
1.591573914E0,6.536258012E-2,2.156354338E-1,-5.253441259E-2
1.593558529E0,6.902777404E-2,2.107485086E-1,-5.375614017E-2
1.595571682E0,7.452555746E-2,2.083050460E-1,-5.314527452E-2
1.597555449E0,7.941248268E-2,2.034181207E-1,-5.192354694E-2
1.599569909E0,8.368854225E-2,1.991420686E-1,-4.886921868E-2
1.601553216E0,8.552113175E-2,1.930334121E-1,-4.886921868E-2
1.603567983E0,9.224065393E-2,1.857030392E-1,-4.764748737E-2
1.605551367E0,9.468411654E-2,1.753183305E-1,-4.276056588E-2
1.607564981E0,9.957103431E-2,1.679879427E-1,-4.337143153E-2
1.609549902E0,1.044579595E-1,1.539380401E-1,-4.031710699E-2
1.611563055E0,1.056796908E-1,1.423316002E-1,-3.848451003E-2
1.613546208E0,1.087340117E-1,1.343903542E-1,-3.665191308E-2
1.615559976E0,1.136209369E-1,1.166752651E-1,-3.237585723E-2
1.617575667E0,1.130100712E-1,1.038470939E-1,-3.176499158E-2
1.619558512E0,1.148426682E-1,9.773843735E-2,-3.115412779E-2
1.621572895E0,1.185078546E-1,8.063421398E-2,-3.054326214E-2
1.623556893E0,1.215621829E-1,6.291911751E-2,-2.748893574E-2
1.625571046E0,1.227839142E-1,5.375614017E-2,-2.748893574E-2
1.627554199E0,1.246165112E-1,3.726277873E-2,-2.504547499E-2
1.629569274E0,1.258382350E-1,2.871066704E-2,-2.748893574E-2
1.631551735E0,1.288925707E-1,1.282817032E-2,-2.809980139E-2
1.633567426E0,1.343903542E-1,-1.832595794E-3,-2.504547499E-2
1.635550116E0,1.331686229E-1,-7.330383174E-3,-2.687807009E-2
1.637563961E0,1.404990107E-1,-1.832595654E-2,-2.504547499E-2
1.639547730E0,1.417207420E-1,-3.237585723E-2,-2.565634064E-2
1.641562420E0,1.417207420E-1,-3.543018550E-2,-2.626720630E-2
1.643545880E0,1.466076523E-1,-4.581489414E-2,-2.626720630E-2
1.645559341E0,1.527163088E-1,-5.375614017E-2,-2.748893574E-2
1.647573493E0,1.508837193E-1,-5.925392732E-2,-2.626720630E-2
1.649557800E0,1.582140923E-1,-6.475171447E-2,-2.932153270E-2
1.651572260E0,1.606575549E-1,-6.658431143E-2,-2.809980139E-2
1.653554490E0,1.618792862E-1,-6.841690838E-2,-2.993239649E-2
1.655570719E0,1.655444801E-1,-7.024950534E-2,-3.237585723E-2
1.657553564E0,1.692096740E-1,-6.963863969E-2,-3.359758854E-2
1.659567024E0,1.710422635E-1,-7.024950534E-2,-3.604105115E-2
1.661550792E0,1.734857261E-1,-6.719517708E-2,-3.848451003E-2
1.663565791E0,1.765400618E-1,-6.719517708E-2,-3.970624134E-2
1.665549174E0,1.814269722E-1,-6.230825558E-2,-4.092797264E-2
1.667562403E0,1.875356287E-1,-5.742133409E-2,-4.459316283E-2
1.669547094E0,1.893682331E-1,-5.497787148E-2,-4.886921868E-2
1.671561170E0,1.924225539E-1,-4.948008433E-2,-5.070181563E-2
1.673575091E0,1.985312104E-1,-4.276056588E-2,-5.436700583E-2
1.675559090E0,2.003637999E-1,-3.726277873E-2,-5.986479297E-2
1.677572628E0,2.034181207E-1,-2.932153270E-2,-6.414084882E-2
1.679556626E0,2.034181207E-1,-2.199114859E-2,-7.208210230E-2
1.681570779E0,2.058615834E-1,-1.832595654E-2,-7.208210230E-2
1.683554085E0,2.095267773E-1,-8.552113548E-3,-7.880161703E-2
1.685568622E0,2.113593817E-1,0.000000000E0,-8.307767659E-2
1.687551621E0,2.119702399E-1,4.886921961E-3,-8.674286306E-2
1.689567081E0,2.125810981E-1,1.649336144E-2,-9.285151958E-2
1.691549849E0,2.144137025E-1,2.565634064E-2,-1.032362282E-1
1.693564309E0,2.162462920E-1,3.237585723E-2,-1.038470939E-1
1.695547000E0,2.156354338E-1,4.153883830E-2,-1.136209369E-1
1.697561230E0,2.150245607E-1,4.764748737E-2,-1.172861308E-1
1.699576228E0,2.144137025E-1,6.169738993E-2,-1.215621829E-1
1.701559612E0,2.125810981E-1,7.147123665E-2,-1.276708394E-1
1.703573534E0,2.125810981E-1,7.941248268E-2,-1.325577646E-1
1.705557455E0,2.101376504E-1,9.040805697E-2,-1.398881376E-1
1.707571069E0,2.083050460E-1,1.038470939E-1,-1.447750628E-1
1.709555915E0,2.058615834E-1,1.093448773E-1,-1.466076523E-1
1.711569220E0,2.040289938E-1,1.209513173E-1,-1.521054506E-1
1.713553835E0,2.003637999E-1,1.319468915E-1,-1.576032341E-1
1.715567064E0,1.985312104E-1,1.362229437E-1,-1.594358236E-1
1.717550986E0,1.942551434E-1,1.472185254E-1,-1.631010175E-1
1.719565138E0,1.905899495E-1,1.582140923E-1,-1.692096740E-1
1.721548522E0,1.863138974E-1,1.624901593E-1,-1.692096740E-1
1.723562443E0,1.826487035E-1,1.716531366E-1,-1.710422635E-1
1.725546057E0,1.802052408E-1,1.765400618E-1,-1.747074574E-1
1.727559980E0,1.740965992E-1,1.850921661E-1,-1.765400618E-1
1.729574978E0,1.673770845E-1,1.918116808E-1,-1.771509200E-1
1.731558053E0,1.643227488E-1,1.973094791E-1,-1.771509200E-1
1.733571899E0,1.582140923E-1,2.028072625E-1,-1.802052408E-1
1.735556897E0,1.533271819E-1,2.064724565E-1,-1.795943826E-1
1.737571049E0,1.508837193E-1,2.076941878E-1,-1.795943826E-1
1.739552279E0,1.453859210E-1,2.138028294E-1,-1.802052408E-1
1.741567663E0,1.417207420E-1,2.156354338E-1,-1.808161139E-1
1.743552276E0,1.374446750E-1,2.150245607E-1,-1.777617931E-1
1.745565814E0,1.331686229E-1,2.193006277E-1,-1.777617931E-1
1.747549428E0,1.301143020E-1,2.174680233E-1,-1.747074574E-1
1.749564503E0,1.264491081E-1,2.186897546E-1,-1.753183305E-1
1.751547041E0,1.240056455E-1,2.162462920E-1,-1.728748679E-1
1.753562116E0,1.197295859E-1,2.199114859E-1,-1.722639948E-1
1.755545422E0,1.166752651E-1,2.193006277E-1,-1.704314053E-1
1.757559037E0,1.105666086E-1,2.162462920E-1,-1.679879427E-1
1.759573420E0,1.081231460E-1,2.162462920E-1,-1.685988009E-1
1.761556495E0,1.075122803E-1,2.168571651E-1,-1.643227488E-1
1.763571648E0,1.038470939E-1,2.138028294E-1,-1.655444801E-1
1.765554416E0,1.001819000E-1,2.150245607E-1,-1.631010175E-1
1.767569414E0,9.834930301E-2,2.107485086E-1,-1.618792862E-1
1.769553182E0,9.651670605E-2,2.095267773E-1,-1.606575549E-1
1.771568181E0,9.529497474E-2,2.089159191E-1,-1.582140923E-1
1.773549487E0,9.224065393E-2,2.095267773E-1,-1.594358236E-1
1.775563332E0,8.735372871E-2,2.083050460E-1,-1.569923609E-1
1.777548177E0,8.796459436E-2,2.040289938E-1,-1.557706445E-1
1.779562330E0,8.429940045E-2,2.052507252E-1,-1.539380401E-1
1.781545713E0,8.307767659E-2,2.015855312E-1,-1.527163088E-1
1.783561404E0,8.002334833E-2,2.021963894E-1,-1.539380401E-1
1.785574403E0,7.941248268E-2,1.979203373E-1,-1.521054506E-1
1.787557786E0,7.696902007E-2,1.973094791E-1,-1.502728462E-1
1.789573093E0,7.330382615E-2,1.948660165E-1,-1.508837193E-1
1.791556476E0,7.391469181E-2,1.899790913E-1,-1.447750628E-1
1.793570628E0,6.902777404E-2,1.912008226E-1,-1.447750628E-1
1.795553396E0,7.269296050E-2,1.850921661E-1,-1.429424733E-1
1.797567857E0,6.841690838E-2,1.814269722E-1,-1.429424733E-1
1.799551239E0,6.658431143E-2,1.808161139E-1,-1.411098689E-1
1.801566315E0,6.352998316E-2,1.765400618E-1,-1.386664063E-1
1.803549468E0,6.108652428E-2,1.716531366E-1,-1.386664063E-1
1.805563543E0,6.108652428E-2,1.704314053E-1,-1.368338168E-1
1.807547004E0,5.803219974E-2,1.655444801E-1,-1.337794960E-1
1.809562618E0,5.436700583E-2,1.612684280E-1,-1.325577646E-1
1.811544462E0,5.314527452E-2,1.612684280E-1,-1.301143020E-1
1.813558307E0,4.764748737E-2,1.557706445E-1,-1.288925707E-1
1.815572768E0,4.520402849E-2,1.551597714E-1,-1.227839142E-1
1.817557381E0,4.337143153E-2,1.557706445E-1,-1.215621829E-1
1.819570073E0,3.726277873E-2,1.533271819E-1,-1.178969890E-1
1.821554379E0,3.481931984E-2,1.527163088E-1,-1.142318025E-1
1.823569378E0,3.237585723E-2,1.533271819E-1,-1.130100712E-1
1.825552453E0,2.626720630E-2,1.533271819E-1,-1.099557430E-1
1.827565991E0,2.321287990E-2,1.545489132E-1,-1.087340117E-1
1.829550913E0,2.015855350E-2,1.557706445E-1,-1.038470939E-1
1.831564834E0,1.343903504E-2,1.576032341E-1,-9.957103431E-2
1.833549141E0,1.282817032E-2,1.606575549E-1,-9.590584040E-2
1.835561447E0,7.941247895E-3,1.618792862E-1,-8.979719132E-2
1.837576753E0,6.108652451E-4,1.716531366E-1,-8.552113175E-2
1.839559598E0,-6.108652451E-4,1.734857261E-1,-8.185594529E-2
1.841573751E0,-5.497787148E-3,1.789835095E-1,-7.513642311E-2
1.843557749E0,-1.160643995E-2,1.869247705E-1,-7.147123665E-2
1.845571825E0,-1.588249579E-2,1.924225539E-1,-6.963863969E-2
1.847555901E0,-1.954768784E-2,2.003637999E-1,-6.475171447E-2
1.849570053E0,-2.321287990E-2,2.070833147E-1,-5.864306539E-2
1.851553667E0,-2.382374369E-2,2.095267773E-1,-5.314527452E-2
1.853564128E0,-2.871066704E-2,2.193006277E-1,-5.070181563E-2
1.855550279E0,-3.176499158E-2,2.241875380E-1,-4.642575979E-2
1.857565663E0,-3.481931984E-2,2.309070677E-1,-4.092797264E-2
1.859548739E0,-3.848451003E-2,2.394591719E-1,-3.726277873E-2
1.861562584E0,-3.970624134E-2,2.455678284E-1,-3.481931984E-2
1.863547274E0,-4.337143153E-2,2.504547536E-1,-3.054326214E-2
1.865560504E0,-4.948008433E-2,2.608394623E-1,-2.932153270E-2
1.867575196E0,-4.764748737E-2,2.638937831E-1,-2.626720630E-2
1.869559270E0,-5.253441259E-2,2.712241709E-1,-2.321287990E-2
1.871572500E0,-5.375614017E-2,2.748893499E-1,-2.260201424E-2
1.873557345E0,-5.558873713E-2,2.779437006E-1,-2.076941915E-2
1.875570651E0,-5.864306539E-2,2.828305960E-1,-2.015855350E-2
1.877553650E0,-6.047565863E-2,2.846632004E-1,-1.832595654E-2
1.879568495E0,-6.169738993E-2,2.858849466E-1,-1.710422710E-2
1.881551570E0,-6.658431143E-2,2.895501256E-1,-1.710422710E-2
1.883566262E0,-6.597344577E-2,2.907718420E-1,-1.893682219E-2
1.885550337E0,-6.658431143E-2,2.889392674E-1,-1.710422710E-2
1.887564105E0,-6.963863969E-2,2.907718420E-1,-1.893682219E-2
1.889549642E0,-6.963863969E-2,2.883284092E-1,-1.954768784E-2
1.891562026E0,-6.902777404E-2,2.871066630E-1,-1.954768784E-2
1.893544716E0,-7.147123665E-2,2.883284092E-1,-1.954768784E-2
1.895560177E0,-7.330382615E-2,2.889392674E-1,-2.076941915E-2
1.897573406E0,-7.208210230E-2,2.864958048E-1,-2.382374369E-2
1.899556789E0,-7.086037099E-2,2.840523422E-1,-2.565634064E-2
1.901571480E0,-7.147123665E-2,2.828305960E-1,-2.809980139E-2
1.903554864E0,-7.147123665E-2,2.809980214E-1,-2.809980139E-2
1.905569017E0,-7.086037099E-2,2.809980214E-1,-3.237585723E-2
1.907552476E0,-7.269296050E-2,2.809980214E-1,-2.993239649E-2
1.909568091E0,-7.269296050E-2,2.773328125E-1,-3.359758854E-2
1.911550936E0,-7.269296050E-2,2.761110961E-1,-3.237585723E-2
1.913565626E0,-7.086037099E-2,2.755002379E-1,-3.543018550E-2
1.915548394E0,-7.269296050E-2,2.736676335E-1,-3.481931984E-2
1.917562624E0,-7.208210230E-2,2.718350291E-1,-3.848451003E-2
1.919546545E0,-7.147123665E-2,2.693915665E-1,-4.031710699E-2
1.921560390E0,-7.452555746E-2,2.663372457E-1,-4.214970022E-2
1.923574928E0,-7.391469181E-2,2.638937831E-1,-4.214970022E-2
1.925558311E0,-7.208210230E-2,2.645046413E-1,-4.459316283E-2
1.927572694E0,-7.513642311E-2,2.608394623E-1,-4.459316283E-2
1.929557309E0,-7.513642311E-2,2.577851415E-1,-4.398229718E-2
1.931570614E0,-7.574728876E-2,2.565633953E-1,-4.520402849E-2
1.933553306E0,-7.880161703E-2,2.522873580E-1,-4.642575979E-2
1.935567228E0,-7.941248268E-2,2.516764700E-1,-4.703662544E-2
1.937552149E0,-8.185594529E-2,2.486221492E-1,-4.764748737E-2
1.939565994E0,-8.307767659E-2,2.467895597E-1,-5.009094998E-2
1.941549070E0,-8.429940045E-2,2.449569702E-1,-5.131268129E-2
1.943563838E0,-8.552113175E-2,2.412917763E-1,-5.192354694E-2
1.945547144E0,-8.796459436E-2,2.388483137E-1,-5.314527452E-2
1.947561604E0,-8.857546002E-2,2.376265824E-1,-5.375614017E-2
1.949545911E0,-9.101892263E-2,2.351831198E-1,-5.375614017E-2
1.951559217E0,-9.224065393E-2,2.290744632E-1,-5.742133409E-2
1.953573677E0,-9.346238524E-2,2.278527319E-1,-5.619960278E-2
1.955557599E0,-9.285151958E-2,2.199114859E-1,-5.803219974E-2
1.957571520E0,-9.468411654E-2,2.199114859E-1,-5.925392732E-2
1.959554596E0,-9.529497474E-2,2.150245607E-1,-5.986479297E-2
1.961568749E0,-9.590584040E-2,2.089159191E-1,-6.047565863E-2
1.963552978E0,-9.590584040E-2,2.028072625E-1,-6.047565863E-2
1.965566285E0,-9.773843735E-2,2.015855312E-1,-6.291911751E-2
1.967550284E0,-9.651670605E-2,1.954768747E-1,-6.230825558E-2
1.969565897E0,-9.651670605E-2,1.936442852E-1,-6.230825558E-2
1.971548435E0,-9.651670605E-2,1.863138974E-1,-6.475171447E-2
1.973561587E0,-9.712757170E-2,1.814269722E-1,-6.475171447E-2
1.975576970E0,-9.712757170E-2,1.795943826E-1,-6.658431143E-2
1.977561046E0,-9.773843735E-2,1.734857261E-1,-6.719517708E-2
1.979573276E0,-9.529497474E-2,1.704314053E-1,-6.902777404E-2
1.981557966E0,-9.468411654E-2,1.673770845E-1,-6.841690838E-2
1.983572119E0,-9.468411654E-2,1.600466967E-1,-7.086037099E-2
1.985556426E0,-9.529497474E-2,1.545489132E-1,-7.391469181E-2
1.987569886E0,-9.407325089E-2,1.557706445E-1,-7.452555746E-2
1.989554499E0,-9.285151958E-2,1.521054506E-1,-7.574728876E-2
1.991567729E0,-9.101892263E-2,1.484402567E-1,-7.696902007E-2
1.993553036E0,-9.162978828E-2,1.478293836E-1,-7.880161703E-2
1.995564957E0,-8.735372871E-2,1.417207420E-1,-8.185594529E-2
1.997549033E0,-8.918632567E-2,1.417207420E-1,-8.307767659E-2
1.999564109E0,-8.918632567E-2,1.404990107E-1,-8.613199741E-2
2.001547107E0,-8.674286306E-2,1.386664063E-1,-8.857546002E-2
2.003561337E0,-8.491026610E-2,1.368338168E-1,-8.796459436E-2
2.005576336E0,-8.613199741E-2,1.368338168E-1,-9.407325089E-2
2.007559411E0,-8.246681094E-2,1.362229437E-1,-9.468411654E-2
2.009573871E0,-8.063421398E-2,1.350012124E-1,-9.773843735E-2
2.011557332E0,-7.941248268E-2,1.386664063E-1,-1.007927656E-1
2.013570560E0,-7.696902007E-2,1.423316002E-1,-1.032362282E-1
2.015553636E0,-7.574728876E-2,1.423316002E-1,-1.050688252E-1
2.017569251E0,-7.269296050E-2,1.447750628E-1,-1.081231460E-1
2.019552326E0,-7.147123665E-2,1.447750628E-1,-1.105666086E-1
2.021566479E0,-7.086037099E-2,1.514945775E-1,-1.117883399E-1
2.023549631E0,-6.963863969E-2,1.557706445E-1,-1.160643995E-1
2.025564707E0,-6.780604273E-2,1.563815027E-1,-1.166752651E-1
2.027548013E0,-6.597344577E-2,1.606575549E-1,-1.209513173E-1
2.029563397E0,-6.597344577E-2,1.661553532E-1,-1.221730486E-1
2.031545549E0,-6.658431143E-2,1.692096740E-1,-1.246165112E-1
2.033560394E0,-6.414084882E-2,1.728748679E-1,-1.270599663E-1
2.035574239E0,-6.475171447E-2,1.771509200E-1,-1.307251602E-1
2.037557622E0,-6.719517708E-2,1.783726513E-1,-1.313360333E-1
2.039571697E0,-6.536258012E-2,1.838704348E-1,-1.319468915E-1
2.041555466E0,-6.475171447E-2,1.887573600E-1,-1.350012124E-1
2.043569311E0,-6.536258012E-2,1.893682331E-1,-1.368338168E-1
2.045553540E0,-6.475171447E-2,1.948660165E-1,-1.380555481E-1
2.047567692E0,-6.475171447E-2,2.009746730E-1,-1.374446750E-1
2.049552384E0,-6.414084882E-2,2.046398520E-1,-1.392772794E-1
2.051565228E0,-6.169738993E-2,2.040289938E-1,-1.368338168E-1
2.053548919E0,-6.230825558E-2,2.070833147E-1,-1.380555481E-1
2.055563457E0,-6.414084882E-2,2.107485086E-1,-1.374446750E-1
2.057547147E0,-6.352998316E-2,2.113593817E-1,-1.319468915E-1
2.059560300E0,-6.230825558E-2,2.119702399E-1,-1.301143020E-1
2.061575760E0,-6.291911751E-2,2.113593817E-1,-1.258382350E-1
2.063559374E0,-5.986479297E-2,2.095267773E-1,-1.233947799E-1
2.065573296E0,-5.925392732E-2,2.089159191E-1,-1.197295859E-1
2.067556602E0,-5.925392732E-2,2.052507252E-1,-1.148426682E-1
2.069571678E0,-5.742133409E-2,1.997529417E-1,-1.111774743E-1
2.071554753E0,-5.619960278E-2,1.979203373E-1,-1.069014147E-1
2.073568906E0,-5.619960278E-2,1.893682331E-1,-1.020144969E-1
2.075551982E0,-5.558873713E-2,1.863138974E-1,-9.773843735E-2
2.077567057E0,-5.375614017E-2,1.826487035E-1,-9.712757170E-2
2.079550518E0,-5.192354694E-2,1.740965992E-1,-9.101892263E-2
2.081564055E0,-5.253441259E-2,1.649336219E-1,-8.674286306E-2
2.083547745E0,-5.070181563E-2,1.594358236E-1,-8.368854225E-2
2.085561591E0,-5.009094998E-2,1.496619880E-1,-8.002334833E-2
2.087545590E0,-4.825835302E-2,1.435533315E-1,-7.757988572E-2
2.089560664E0,-4.703662544E-2,1.337794960E-1,-7.574728876E-2
2.091574125E0,-4.520402849E-2,1.197295859E-1,-7.330382615E-2
2.093556586E0,-4.276056588E-2,1.148426682E-1,-7.086037099E-2
2.095571122E0,-4.398229718E-2,1.007927656E-1,-6.780604273E-2
2.097555121E0,-4.031710699E-2,9.040805697E-2,-6.291911751E-2
2.099569505E0,-3.970624134E-2,8.429940045E-2,-6.352998316E-2
2.101553195E0,-3.848451003E-2,7.086037099E-2,-6.169738993E-2
2.103567732E0,-3.665191308E-2,5.803219974E-2,-5.558873713E-2
2.105550424E0,-3.604105115E-2,4.886921868E-2,-5.497787148E-2
2.107564884E0,-3.176499158E-2,3.481931984E-2,-5.436700583E-2
2.109549267E0,-3.176499158E-2,2.199114859E-2,-4.948008433E-2
2.111563112E0,-2.993239649E-2,1.343903504E-2,-5.009094998E-2
2.113546496E0,-2.871066704E-2,0.000000000E0,-4.581489414E-2
2.115561186E0,-2.626720630E-2,-8.552113548E-3,-4.276056588E-2
2.117575954E0,-2.260201424E-2,-1.466076635E-2,-4.337143153E-2
2.119559030E0,-2.015855350E-2,-2.382374369E-2,-4.153883830E-2
2.121572336E0,-2.076941915E-2,-2.993239649E-2,-4.092797264E-2
2.123555719E0,-1.466076635E-2,-3.665191308E-2,-3.848451003E-2
2.125570103E0,-1.404990070E-2,-4.092797264E-2,-3.787364438E-2
2.127554101E0,-1.282817032E-2,-4.153883830E-2,-3.787364438E-2
2.129569254E0,-1.099557430E-2,-4.764748737E-2,-3.787364438E-2
2.131552330E0,-6.719517522E-3,-4.642575979E-2,-3.604105115E-2
2.133565789E0,-6.719517522E-3,-4.764748737E-2,-3.481931984E-2
2.135549558E0,-4.276056774E-3,-4.764748737E-2,-3.481931984E-2
2.137564557E0,-3.054326167E-3,-4.459316283E-2,-3.543018550E-2
2.139546478E0,-6.108652335E-3,-4.031710699E-2,-3.420845419E-2
2.141561477E0,-3.665191587E-3,-3.543018550E-2,-3.298672289E-2
2.143545783E0,-2.443460980E-3,-3.298672289E-2,-3.176499158E-2
2.145560243E0,-3.054326167E-3,-2.932153270E-2,-3.054326214E-2
2.147573165E0,-2.443460980E-3,-2.138028294E-2,-3.054326214E-2
2.149557856E0,-2.443460980E-3,-1.466076635E-2,-2.993239649E-2
2.151571394E0,-3.665191587E-3,-7.330383174E-3,-2.932153270E-2
2.153555623E0,-4.886921961E-3,6.108652451E-4,-2.565634064E-2
2.155569545E0,-4.886921961E-3,6.719517522E-3,-2.626720630E-2
2.157552313E0,-6.108652335E-3,1.710422710E-2,-2.138028294E-2
2.159566388E0,-4.276056774E-3,3.115412779E-2,-1.954768784E-2
2.161551002E0,-7.330383174E-3,3.665191308E-2,-2.015855350E-2
2.163564617E0,-6.108652335E-3,4.886921868E-2,-1.771509275E-2
2.165547999E0,-9.773843922E-3,6.108652428E-2,-1.466076635E-2
2.167562768E0,-1.160643995E-2,6.719517708E-2,-1.527163107E-2
2.169547613E0,-1.527163107E-2,7.880161703E-2,-1.343903504E-2
2.171560611E0,-1.649336144E-2,8.674286306E-2,-9.773843922E-3
2.173574071E0,-1.771509275E-2,9.224065393E-2,-1.221730467E-2
2.175557224E0,-1.954768784E-2,1.014036313E-1,-9.162978269E-3
2.177571684E0,-2.015855350E-2,1.105666086E-1,-1.099557430E-2
2.179556529E0,-2.138028294E-2,1.136209369E-1,-8.552113548E-3
2.181569528E0,-2.260201424E-2,1.227839142E-1,-1.038470957E-2
2.183554449E0,-2.138028294E-2,1.240056455E-1,-8.552113548E-3
2.185567371E0,-2.565634064E-2,1.301143020E-1,-7.330383174E-3
2.187551908E0,-2.565634064E-2,1.350012124E-1,-6.719517522E-3
2.189566676E0,-2.748893574E-2,1.386664063E-1,-6.108652335E-3
2.191549521E0,-3.176499158E-2,1.423316002E-1,-9.773843922E-3
2.193563904E0,-3.237585723E-2,1.435533315E-1,-7.330383174E-3
2.195547057E0,-3.115412779E-2,1.441642046E-1,-8.552113548E-3
2.197561132E0,-3.481931984E-2,1.459967941E-1,-8.552113548E-3
2.199575285E0,-3.604105115E-2,1.411098689E-1,-1.099557430E-2
2.201558746E0,-3.665191308E-2,1.386664063E-1,-1.099557430E-2
2.203574051E0,-3.726277873E-2,1.368338168E-1,-1.221730467E-2
2.205556820E0,-4.092797264E-2,1.313360333E-1,-1.282817032E-2
2.207571280E0,-3.726277873E-2,1.258382350E-1,-1.038470957E-2
2.209555355E0,-4.031710699E-2,1.221730486E-1,-1.466076635E-2
2.211568816E0,-4.153883830E-2,1.123992056E-1,-1.588249579E-2
2.213552507E0,-4.337143153E-2,1.093448773E-1,-1.710422710E-2
2.215567274E0,-4.214970022E-2,9.834930301E-2,-2.138028294E-2
2.217550735E0,-4.337143153E-2,9.101892263E-2,-2.076941915E-2
2.219563887E0,-4.214970022E-2,8.307767659E-2,-2.199114859E-2
2.221548809E0,-4.459316283E-2,7.269296050E-2,-2.626720630E-2
2.223562346E0,-4.337143153E-2,6.658431143E-2,-2.626720630E-2
2.225546037E0,-4.276056588E-2,5.314527452E-2,-2.809980139E-2
2.227560805E0,-4.581489414E-2,4.214970022E-2,-3.176499158E-2
2.229574727E0,-4.337143153E-2,3.481931984E-2,-3.359758854E-2
2.231557418E0,-4.398229718E-2,2.199114859E-2,-3.359758854E-2
2.233572571E0,-4.398229718E-2,1.099557430E-2,-3.665191308E-2
2.235555569E0,-4.153883830E-2,3.665191587E-3,-3.909537569E-2
2.237569799E0,-4.031710699E-2,-9.162978269E-3,-3.970624134E-2
2.239553721E0,-4.337143153E-2,-2.138028294E-2,-3.909537569E-2
2.241567873E0,-4.092797264E-2,-2.626720630E-2,-4.214970022E-2
2.243551256E0,-3.970624134E-2,-3.726277873E-2,-4.337143153E-2
2.245565409E0,-3.481931984E-2,-4.276056588E-2,-4.581489414E-2
2.247549176E0,-3.298672289E-2,-4.520402849E-2,-4.398229718E-2
2.249564252E0,-2.932153270E-2,-5.131268129E-2,-4.764748737E-2
2.251546713E0,-2.871066704E-2,-5.314527452E-2,-4.948008433E-2
2.253560480E0,-2.748893574E-2,-5.375614017E-2,-4.825835302E-2
2.255574402E0,-2.382374369E-2,-5.436700583E-2,-4.764748737E-2
2.257559324E0,-2.199114859E-2,-5.558873713E-2,-4.764748737E-2
2.259573091E0,-2.015855350E-2,-5.131268129E-2,-5.192354694E-2
2.261556167E0,-2.199114859E-2,-4.764748737E-2,-4.825835302E-2
2.263570936E0,-2.076941915E-2,-4.642575979E-2,-4.886921868E-2
2.265554934E0,-2.076941915E-2,-4.398229718E-2,-4.825835302E-2
2.267568471E0,-1.893682219E-2,-3.848451003E-2,-4.642575979E-2
2.269552239E0,-2.076941915E-2,-3.543018550E-2,-4.520402849E-2
2.271566083E0,-1.649336144E-2,-2.626720630E-2,-4.581489414E-2
2.273550621E0,-1.466076635E-2,-1.893682219E-2,-4.398229718E-2
2.275563620E0,-1.466076635E-2,-1.466076635E-2,-4.092797264E-2
2.277547542E0,-1.404990070E-2,-3.054326167E-3,-3.726277873E-2
2.279562001E0,-1.038470957E-2,1.160643995E-2,-3.726277873E-2
2.281546308E0,-1.160643995E-2,1.649336144E-2,-3.420845419E-2
2.283560230E0,-1.343903504E-2,2.993239649E-2,-3.298672289E-2
2.285574690E0,-1.404990070E-2,3.726277873E-2,-3.176499158E-2
2.287557458E0,-9.162978269E-3,4.459316283E-2,-2.871066704E-2
2.289572226E0,-1.038470957E-2,5.803219974E-2,-2.687807009E-2
2.291555301E0,-9.162978269E-3,6.230825558E-2,-2.504547499E-2
2.293569454E0,-9.162978269E-3,7.391469181E-2,-2.138028294E-2
2.295554376E0,-9.162978269E-3,8.735372871E-2,-2.199114859E-2
2.297567836E0,-7.941247895E-3,9.162978828E-2,-2.015855350E-2
2.299549758E0,-7.941247895E-3,1.038470939E-1,-2.076941915E-2
2.301565449E0,-7.330383174E-3,1.148426682E-1,-1.588249579E-2
2.303548832E0,-7.330383174E-3,1.191187203E-1,-1.466076635E-2
2.305562600E0,-9.162978269E-3,1.276708394E-1,-1.160643995E-2
2.307546368E0,-1.160643995E-2,1.356120855E-1,-1.160643995E-2
2.309561058E0,-9.162978269E-3,1.374446750E-1,-9.773843922E-3
2.311575596E0,-1.038470957E-2,1.441642046E-1,-8.552113548E-3
2.313559518E0,-1.099557430E-2,1.447750628E-1,-6.719517522E-3
2.315572825E0,-1.282817032E-2,1.484402567E-1,-3.054326167E-3
2.317556438E0,-1.038470957E-2,1.484402567E-1,-2.443460980E-3
2.319570591E0,-1.038470957E-2,1.502728462E-1,-3.054326167E-3
2.321553744E0,-8.552113548E-3,1.502728462E-1,0.000000000E0
2.323568434E0,-9.162978269E-3,1.459967941E-1,1.221730490E-3
2.325551895E0,-6.719517522E-3,1.490511149E-1,-1.221730490E-3
2.327566278E0,-8.552113548E-3,1.429424733E-1,3.054326167E-3
2.329550584E0,-7.941247895E-3,1.398881376E-1,2.443460980E-3
2.331563891E0,-8.552113548E-3,1.362229437E-1,2.443460980E-3
2.333546659E0,-7.941247895E-3,1.301143020E-1,6.108652451E-4
2.335561965E0,-6.719517522E-3,1.197295859E-1,-1.221730490E-3
2.337545964E0,-6.719517522E-3,1.154535338E-1,-3.054326167E-3
2.339559193E0,-7.330383174E-3,1.032362282E-1,-3.054326167E-3
2.341573345E0,-7.941247895E-3,9.285151958E-2,-6.719517522E-3
2.343557344E0,-4.886921961E-3,8.552113175E-2,-6.719517522E-3
2.345571497E0,-3.665191587E-3,7.147123665E-2,-1.038470957E-2
2.347554880E0,-5.497787148E-3,6.536258012E-2,-1.221730467E-2
2.349570033E0,-5.497787148E-3,4.948008433E-2,-1.404990070E-2
2.351552493E0,-3.665191587E-3,3.604105115E-2,-1.832595654E-2
2.353568106E0,-4.276056774E-3,2.871066704E-2,-2.015855350E-2
2.355551182E0,-4.276056774E-3,1.221730467E-2,-2.260201424E-2
2.357564181E0,-2.443460980E-3,-1.832595794E-3,-2.382374369E-2
2.359548488E0,-1.832595794E-3,-8.552113548E-3,-2.809980139E-2
2.361562332E0,-1.832595794E-3,-2.626720630E-2,-2.871066704E-2
2.363546870E0,-1.221730490E-3,-3.970624134E-2,-3.176499158E-2
2.365560407E0,-3.665191587E-3,-4.642575979E-2,-3.176499158E-2
2.367574867E0,-3.054326167E-3,-6.108652428E-2,-3.298672289E-2
2.369558558E0,-1.832595794E-3,-7.757988572E-2,-3.481931984E-2
2.371572480E0,-3.054326167E-3,-8.307767659E-2,-3.543018550E-2
2.373555863E0,-1.832595794E-3,-9.468411654E-2,-3.665191308E-2
2.375571477E0,-1.221730490E-3,-1.075122803E-1,-4.031710699E-2
2.377554015E0,-1.221730490E-3,-1.117883399E-1,-3.970624134E-2
2.379567551E0,-1.832595794E-3,-1.215621829E-1,-4.031710699E-2
2.381552165E0,-2.443460980E-3,-1.258382350E-1,-3.970624134E-2
2.383566241E0,0.000000000E0,-1.380555481E-1,-4.031710699E-2
2.385549009E0,-6.108652451E-4,-1.441642046E-1,-4.153883830E-2
2.387563546E0,0.000000000E0,-1.490511149E-1,-3.909537569E-2
2.389548391E0,-1.221730490E-3,-1.539380401E-1,-4.337143153E-2
2.391561312E0,0.000000000E0,-1.594358236E-1,-4.092797264E-2
2.393576388E0,6.108652451E-4,-1.600466967E-1,-4.031710699E-2
2.395558926E0,1.221730490E-3,-1.618792862E-1,-4.337143153E-2
2.397574232E0,2.443460980E-3,-1.649336219E-1,-4.092797264E-2
2.399557000E0,3.665191587E-3,-1.649336219E-1,-4.153883830E-2
2.401571229E0,2.443460980E-3,-1.637118906E-1,-4.276056588E-2
2.403555228E0,3.665191587E-3,-1.624901593E-1,-4.153883830E-2
2.405569303E0,4.276056774E-3,-1.618792862E-1,-4.092797264E-2
2.407552456E0,3.665191587E-3,-1.618792862E-1,-3.848451003E-2
2.409567840E0,4.886921961E-3,-1.588249654E-1,-3.909537569E-2
2.411550299E0,4.276056774E-3,-1.563815027E-1,-3.909537569E-2
2.413563837E0,4.886921961E-3,-1.490511149E-1,-3.909537569E-2
2.415547220E0,4.276056774E-3,-1.508837193E-1,-3.543018550E-2
2.417561988E0,5.497787148E-3,-1.441642046E-1,-3.726277873E-2
2.419546294E0,4.276056774E-3,-1.380555481E-1,-3.665191308E-2
2.421560986E0,6.719517522E-3,-1.362229437E-1,-3.787364438E-2
2.423574522E0,6.719517522E-3,-1.295034289E-1,-3.787364438E-2
2.425557906E0,7.941247895E-3,-1.197295859E-1,-3.787364438E-2
2.427572059E0,6.108652335E-3,-1.166752651E-1,-3.970624134E-2
2.429556749E0,8.552113548E-3,-1.093448773E-1,-3.909537569E-2
2.431569671E0,7.941247895E-3,-1.026253626E-1,-4.031710699E-2
2.433554593E0,8.552113548E-3,-9.834930301E-2,-3.909537569E-2
2.435568668E0,9.773843922E-3,-9.101892263E-2,-4.276056588E-2
2.437551513E0,1.099557430E-2,-8.552113175E-2,-4.031710699E-2
2.439565666E0,9.162978269E-3,-8.246681094E-2,-4.031710699E-2
2.441549050E0,1.099557430E-2,-7.635815442E-2,-4.276056588E-2
2.443563817E0,1.038470957E-2,-7.208210230E-2,-4.276056588E-2
2.445546816E0,1.282817032E-2,-6.658431143E-2,-4.520402849E-2
2.447560430E0,1.282817032E-2,-6.047565863E-2,-4.214970022E-2
2.449575198E0,1.099557430E-2,-5.803219974E-2,-4.581489414E-2
2.451559427E0,1.527163107E-2,-5.070181563E-2,-4.642575979E-2
2.453572119E0,1.710422710E-2,-4.642575979E-2,-4.825835302E-2
2.455557040E0,1.649336144E-2,-4.398229718E-2,-4.825835302E-2
2.457570885E0,1.771509275E-2,-3.970624134E-2,-4.948008433E-2
2.459553884E0,2.382374369E-2,-3.543018550E-2,-5.375614017E-2
2.461568728E0,2.382374369E-2,-3.237585723E-2,-5.497787148E-2
2.463552419E0,2.626720630E-2,-2.993239649E-2,-5.681046844E-2
2.465566572E0,2.932153270E-2,-2.382374369E-2,-5.925392732E-2
2.467550186E0,2.809980139E-2,-2.076941915E-2,-5.986479297E-2
2.469565031E0,3.054326214E-2,-1.588249579E-2,-6.291911751E-2
2.471547799E0,2.993239649E-2,-9.773843922E-3,-6.475171447E-2
2.473562182E0,3.237585723E-2,-7.941247895E-3,-6.780604273E-2
2.475545258E0,3.054326214E-2,-5.497787148E-3,-6.841690838E-2
2.477559718E0,3.176499158E-2,-4.886921961E-3,-7.208210230E-2
2.479573948E0,3.115412779E-2,-1.221730490E-3,-7.330382615E-2
2.481557023E0,3.115412779E-2,3.665191587E-3,-7.513642311E-2
2.483572099E0,3.115412779E-2,6.108652335E-3,-7.696902007E-2
2.485556021E0,3.359758854E-2,9.162978269E-3,-7.941248268E-2
2.487569634E0,3.665191308E-2,1.099557430E-2,-7.941248268E-2
2.489553326E0,3.787364438E-2,1.343903504E-2,-8.002334833E-2
2.491567786E0,3.543018550E-2,2.199114859E-2,-7.941248268E-2
2.493550553E0,3.604105115E-2,2.504547499E-2,-8.246681094E-2
2.495564091E0,3.420845419E-2,2.871066704E-2,-8.246681094E-2
2.497548397E0,3.298672289E-2,3.481931984E-2,-8.552113175E-2
2.499562549E0,3.359758854E-2,3.970624134E-2,-8.307767659E-2
2.501546241E0,3.237585723E-2,3.909537569E-2,-8.429940045E-2
2.503561009E0,3.237585723E-2,4.214970022E-2,-8.368854225E-2
2.505544699E0,3.237585723E-2,4.581489414E-2,-8.368854225E-2
2.507558775E0,3.115412779E-2,4.459316283E-2,-8.368854225E-2
2.509573236E0,3.359758854E-2,4.886921868E-2,-8.613199741E-2
2.511556695E0,3.420845419E-2,5.070181563E-2,-8.368854225E-2
2.513570463E0,3.115412779E-2,5.192354694E-2,-8.552113175E-2
2.515554232E0,2.993239649E-2,5.436700583E-2,-8.368854225E-2
2.517568999E0,3.115412779E-2,5.558873713E-2,-8.429940045E-2
2.519551998E0,3.176499158E-2,5.497787148E-2,-8.552113175E-2
2.521565612E0,3.054326214E-2,5.681046844E-2,-8.552113175E-2
2.523550150E0,2.993239649E-2,5.497787148E-2,-8.735372871E-2
2.525563994E0,2.932153270E-2,5.558873713E-2,-8.796459436E-2
2.527548070E0,2.993239649E-2,5.253441259E-2,-8.674286306E-2
2.529562223E0,2.993239649E-2,4.825835302E-2,-8.796459436E-2
2.531545528E0,2.932153270E-2,4.825835302E-2,-9.040805697E-2
2.533559681E0,2.993239649E-2,4.337143153E-2,-8.918632567E-2
2.535574219E0,3.176499158E-2,4.153883830E-2,-9.101892263E-2
2.537557909E0,3.054326214E-2,3.481931984E-2,-9.101892263E-2
2.539570523E0,2.993239649E-2,2.687807009E-2,-9.407325089E-2
2.541555061E0,2.871066704E-2,2.382374369E-2,-9.407325089E-2
2.543568982E0,2.871066704E-2,1.588249579E-2,-9.651670605E-2
2.545552596E0,3.115412779E-2,1.099557430E-2,-9.773843735E-2
2.547567057E0,2.993239649E-2,1.832595794E-3,-1.007927656E-1
2.549551670E0,2.993239649E-2,-9.162978269E-3,-1.020144969E-1
2.551565592E0,2.993239649E-2,-1.343903504E-2,-1.032362282E-1
2.553549899E0,2.993239649E-2,-2.565634064E-2,-1.075122803E-1
2.555562820E0,3.176499158E-2,-3.604105115E-2,-1.117883399E-1
2.557546742E0,3.481931984E-2,-4.092797264E-2,-1.111774743E-1
2.559560972E0,3.115412779E-2,-5.253441259E-2,-1.142318025E-1
2.561575048E0,3.237585723E-2,-6.780604273E-2,-1.166752651E-1
2.563558123E0,3.420845419E-2,-7.208210230E-2,-1.197295859E-1
2.565572891E0,3.604105115E-2,-8.552113175E-2,-1.203404516E-1
2.567555352E0,3.481931984E-2,-9.712757170E-2,-1.227839142E-1
2.569571119E0,3.848451003E-2,-1.056796908E-1,-1.252273768E-1
2.571554502E0,3.909537569E-2,-1.160643995E-1,-1.301143020E-1
2.573567040E0,4.459316283E-2,-1.246165112E-1,-1.343903542E-1
2.575550730E0,4.764748737E-2,-1.288925707E-1,-1.343903542E-1
2.577565498E0,4.886921868E-2,-1.356120855E-1,-1.380555481E-1
2.579549267E0,5.131268129E-2,-1.386664063E-1,-1.404990107E-1
2.581563342E0,5.314527452E-2,-1.417207420E-1,-1.429424733E-1
2.583547956E0,5.558873713E-2,-1.484402567E-1,-1.484402567E-1
2.585561801E0,5.864306539E-2,-1.508837193E-1,-1.490511149E-1
2.587545184E0,6.047565863E-2,-1.527163088E-1,-1.539380401E-1
2.589559414E0,5.986479297E-2,-1.533271819E-1,-1.569923609E-1
2.591573797E0,6.414084882E-2,-1.539380401E-1,-1.563815027E-1
2.593557795E0,6.475171447E-2,-1.521054506E-1,-1.618792862E-1
2.595571640E0,6.658431143E-2,-1.484402567E-1,-1.637118906E-1
2.597555332E0,6.780604273E-2,-1.472185254E-1,-1.637118906E-1
2.599568868E0,7.269296050E-2,-1.423316002E-1,-1.698205322E-1
2.601552867E0,7.452555746E-2,-1.325577646E-1,-1.698205322E-1
2.603567020E0,7.391469181E-2,-1.252273768E-1,-1.716531366E-1
2.605550711E0,7.391469181E-2,-1.166752651E-1,-1.747074574E-1
2.607564632E0,7.391469181E-2,-1.099557430E-1,-1.734857261E-1
2.609548554E0,7.574728876E-2,-9.590584040E-2,-1.777617931E-1
2.611562784E0,7.452555746E-2,-8.185594529E-2,-1.777617931E-1
2.613545859E0,7.513642311E-2,-7.513642311E-2,-1.777617931E-1
2.615560320E0,7.757988572E-2,-5.986479297E-2,-1.795943826E-1
2.617575088E0,7.941248268E-2,-4.581489414E-2,-1.814269722E-1
2.619557471E0,7.941248268E-2,-3.604105115E-2,-1.808161139E-1
2.621572623E0,8.124507964E-2,-2.076941915E-2,-1.832595766E-1
2.623556546E0,8.185594529E-2,-4.886921961E-3,-1.820378453E-1
2.625569774E0,8.368854225E-2,1.221730490E-3,-1.838704348E-1
2.627553543E0,8.307767659E-2,1.771509275E-2,-1.850921661E-1
2.629568003E0,8.307767659E-2,3.237585723E-2,-1.869247705E-1
2.631551078E0,8.368854225E-2,4.337143153E-2,-1.869247705E-1
2.633566077E0,8.246681094E-2,5.742133409E-2,-1.887573600E-1
2.635549461E0,8.552113175E-2,7.024950534E-2,-1.863138974E-1
2.637563612E0,8.307767659E-2,7.880161703E-2,-1.869247705E-1
2.639546688E0,8.552113175E-2,9.224065393E-2,-1.918116808E-1
2.641560841E0,8.674286306E-2,9.896016866E-2,-1.912008226E-1
2.643575609E0,8.735372871E-2,1.087340117E-1,-1.912008226E-1
2.645558761E0,8.979719132E-2,1.209513173E-1,-1.936442852E-1
2.647572606E0,9.040805697E-2,1.264491081E-1,-1.954768747E-1
2.649557452E0,9.285151958E-2,1.337794960E-1,-1.997529417E-1
2.651571296E0,9.407325089E-2,1.386664063E-1,-2.009746730E-1
2.653553833E0,9.285151958E-2,1.411098689E-1,-2.040289938E-1
2.655568294E0,9.529497474E-2,1.417207420E-1,-2.040289938E-1
2.657552292E0,9.773843735E-2,1.441642046E-1,-2.058615834E-1
2.659566445E0,9.834930301E-2,1.423316002E-1,-2.076941878E-1
2.661550136E0,1.026253626E-1,1.417207420E-1,-2.113593817E-1
2.663563903E0,1.044579595E-1,1.350012124E-1,-2.162462920E-1
2.665548210E0,1.044579595E-1,1.325577646E-1,-2.174680233E-1
2.667562363E0,1.081231460E-1,1.252273768E-1,-2.223549485E-1
2.669546130E0,1.105666086E-1,1.142318025E-1,-2.278527319E-1
2.671560514E0,1.136209369E-1,1.087340117E-1,-2.309070677E-1
2.673574666E0,1.148426682E-1,9.834930301E-2,-2.388483137E-1
2.675558126E0,1.185078546E-1,8.796459436E-2,-2.437352389E-1
2.677572202E0,1.233947799E-1,7.513642311E-2,-2.516764700E-1
2.679554739E0,1.264491081E-1,5.803219974E-2,-2.602286041E-1
2.681569430E0,1.252273768E-1,4.764748737E-2,-2.632829249E-1
2.683553813E0,1.319468915E-1,2.871066704E-2,-2.742784917E-1
2.685567659E0,1.350012124E-1,6.719517522E-3,-2.822197378E-1
2.687551658E0,1.343903542E-1,-3.665191587E-3,-2.877175212E-1
2.689566348E0,1.404990107E-1,-2.809980139E-2,-2.999348342E-1
2.691548885E0,1.441642046E-1,-5.192354694E-2,-3.103195429E-1
2.693562346E0,1.490511149E-1,-6.536258012E-2,-3.170390725E-1
2.695547575E0,1.527163088E-1,-8.552113175E-2,-3.292563558E-1
2.697561804E0,1.594358236E-1,-1.136209369E-1,-3.426954150E-1
2.699544265E0,1.637118906E-1,-1.233947799E-1,-3.475823104E-1
2.701558724E0,1.710422635E-1,-1.508837193E-1,-3.622430861E-1
2.703573185E0,1.802052408E-1,-1.777617931E-1,-3.762930036E-1
2.705556569E0,1.850921661E-1,-1.881465018E-1,-3.824016452E-1
2.707570644E0,1.912008226E-1,-2.113593817E-1,-3.964515328E-1
2.709555027E0,1.979203373E-1,-2.223549485E-1,-4.025602043E-1
2.711568488E0,2.070833147E-1,-2.474004179E-1,-4.184426963E-1
2.713553101E0,2.156354338E-1,-2.693915665E-1,-4.324925840E-1
2.715566408E0,2.211332172E-1,-2.779437006E-1,-4.379903674E-1
2.717549791E0,2.278527319E-1,-2.987131178E-1,-4.544837475E-1
2.719564174E0,2.388483137E-1,-3.194825351E-1,-4.721988440E-1
2.721547327E0,2.406809032E-1,-3.286454976E-1,-4.801400900E-1
2.723562095E0,2.486221492E-1,-3.494149148E-1,-4.954117239E-1
2.725545786E0,2.553416789E-1,-3.714060783E-1,-5.143485069E-1
2.727560554E0,2.565633953E-1,-3.817907870E-1,-5.222898126E-1
2.729574937E0,2.645046413E-1,-4.050036669E-1,-5.418374538E-1
2.731557782E0,2.718350291E-1,-4.294382632E-1,-5.601634383E-1
2.733568473E0,2.767219543E-1,-4.428772926E-1,-5.699372888E-1
2.735554395E0,2.840523422E-1,-4.703662395E-1,-5.907067060E-1
2.737570086E0,2.883284092E-1,-4.856378734E-1,-6.010913849E-1
2.739553392E0,2.968805134E-1,-5.155702829E-1,-6.230825782E-1
2.741567006E0,3.042109013E-1,-5.473352671E-1,-6.438519955E-1
2.743550698E0,3.072652221E-1,-5.638286471E-1,-6.548475623E-1
2.745565388E0,3.170390725E-1,-5.974262357E-1,-6.798930168E-1
2.747549079E0,3.262020350E-1,-6.340781450E-1,-7.055493593E-1
2.749564232E0,3.316998184E-1,-6.517932415E-1,-7.183775306E-1
2.751546384E0,3.390302062E-1,-6.866125464E-1,-7.446447611E-1
2.753560844E0,3.500257730E-1,-7.263187766E-1,-7.727445364E-1
2.755543613E0,3.567453027E-1,-7.476990819E-1,-7.874053121E-1
2.757558918E0,3.677408695E-1,-7.861835957E-1,-8.161159754E-1
2.759572225E0,3.793473244E-1,-8.289441466E-1,-8.472700715E-1
2.761555609E0,3.878994286E-1,-8.503243923E-1,-8.643743396E-1
2.763570068E0,4.031710625E-1,-8.869763613E-1,-8.967501521E-1
2.765554067E0,4.184426963E-1,-9.248499870E-1,-9.315695167E-1
2.767567528E0,4.269948006E-1,-9.425650835E-1,-9.486737251E-1
2.769552142E0,4.471533597E-1,-9.755517840E-1,-9.841039181E-1
2.771566371E0,4.575380683E-1,-9.896016717E-1,-1.001208186E0
2.773549139E0,4.746423066E-1,-1.017701507E0,-1.035416603E0
2.775564446E0,4.935791194E-1,-1.039692640E0,-1.069625020E0
2.777548136E0,5.051855445E-1,-1.048855662E0,-1.086729288E0
2.779561135E0,5.265658498E-1,-1.062905550E0,-1.122159481E0
2.781575827E0,5.510004759E-1,-1.071457624E0,-1.155757070E0
2.783560132E0,5.626068711E-1,-1.073290229E0,-1.177748203E0
2.785573670E0,5.888741016E-1,-1.064738154E0,-1.210734963E0
2.787557438E0,6.096435189E-1,-1.056185961E0,-1.247997642E0
2.789572128E0,6.200281978E-1,-1.046412110E0,-1.266934514E0
2.791555896E0,6.383541822E-1,-1.023810148E0,-1.304197311E0
2.793570280E0,6.548475623E-1,-9.963212013E-1,-1.341460109E0
2.795553047E0,6.621779203E-1,-9.798278809E-1,-1.361007810E0
2.797566585E0,6.750060916E-1,-9.468411207E-1,-1.398881435E0
2.799549968E0,6.884451509E-1,-9.095783234E-1,-1.436144233E0
2.801564736E0,6.957755089E-1,-8.930850029E-1,-1.454470158E0
2.803548504E0,7.086036801E-1,-8.539896011E-1,-1.490511179E0
2.805562580E0,7.128797174E-1,-8.332201838E-1,-1.508837104E0
2.807546348E0,7.250970602E-1,-7.904596329E-1,-1.541823864E0
2.809560731E0,7.373143435E-1,-7.446447611E-1,-1.579086661E0
2.811573960E0,7.422012687E-1,-7.220427394E-1,-1.594358325E0
2.813557652E0,7.495316267E-1,-6.731734872E-1,-1.627955914E0
2.815571881E0,7.605272532E-1,-6.255260110E-1,-1.660331726E0
2.817556418E0,7.654141784E-1,-6.010913849E-1,-1.673770785E0
2.819569955E0,7.745771408E-1,-5.540547967E-1,-1.704313993E0
2.821554261E0,7.843509912E-1,-5.070181489E-1,-1.736078978E0
2.823567568E0,7.892379165E-1,-4.856378734E-1,-1.745242000E0
2.825551875E0,7.996225953E-1,-4.398229718E-1,-1.777617812E0
2.827566026E0,8.057312369E-1,-3.970624208E-1,-1.801441550E0
2.829550256E0,8.124507666E-1,-3.799581826E-1,-1.815491557E0
2.831563794E0,8.197811842E-1,-3.439171314E-1,-1.842369556E0
2.833548099E0,8.216137290E-1,-3.145956099E-1,-1.853976011E0
2.835561329E0,8.283332586E-1,-3.036000133E-1,-1.885130167E0
2.837544713E0,8.374962807E-1,-2.846632004E-1,-1.910786510E0
2.839559480E0,8.393288255E-1,-2.791654170E-1,-1.925447226E0
2.841573633E0,8.466592431E-1,-2.736676335E-1,-1.955379605E0
2.843557401E0,8.491026759E-1,-2.761110961E-1,-1.985312104E0
2.845571168E0,8.503243923E-1,-2.809980214E-1,-1.999972820E0
2.847554244E0,8.546004891E-1,-2.950479090E-1,-2.035403013E0
2.849569628E0,8.582656980E-1,-3.213151097E-1,-2.066557169E0
2.851552704E0,8.570439219E-1,-3.335324228E-1,-2.087326527E0
2.853566317E0,8.619308472E-1,-3.683517575E-1,-2.121535063E0
2.855551162E0,8.686503768E-1,-4.153883755E-1,-2.157576084E0
2.857565315E0,8.710938692E-1,-4.379903674E-1,-2.177123785E0
2.859547544E0,8.784242272E-1,-4.899139404E-1,-2.211332083E0
2.861562235E0,8.827002645E-1,-5.467243791E-1,-2.247373343E0
2.863546234E0,8.845328689E-1,-5.791002512E-1,-2.266921043E0
2.865560386E0,8.894197941E-1,-6.456845403E-1,-2.306016207E0
2.867574231E0,8.936958313E-1,-7.128797174E-1,-2.345722437E0
2.869559230E0,8.991936445E-1,-7.489207983E-1,-2.365270138E0
2.871572074E0,9.028588533E-1,-8.252789378E-1,-2.401922226E0
2.873556073E0,9.077457786E-1,-8.588765264E-1,-2.422080755E0
2.875569611E0,9.187413454E-1,-9.358455539E-1,-2.459954262E0
2.877553686E0,9.364564419E-1,-1.011592865E0,-2.500882387E0
2.879567454E0,9.431759119E-1,-1.045190454E0,-2.520430088E0
2.881550915E0,9.608910084E-1,-1.115439892E0,-2.562579632E0
2.883565605E0,9.743300676E-1,-1.178969979E0,-2.607783794E0
2.885548758E0,9.828822017E-1,-1.207069755E0,-2.626720667E0
2.887563449E0,9.963212013E-1,-1.264491081E0,-2.674368143E0
2.889548063E0,1.011592865E0,-1.312138557E0,-2.720182896E0
2.891561369E0,1.016479731E0,-1.334129691E0,-2.742784977E0
2.893544368E0,1.026864529E0,-1.367727280E0,-2.792264938E0
2.895557059E0,1.039081812E0,-1.396438003E0,-2.838690758E0
2.897573365E0,1.041525245E0,-1.402546644E0,-2.861292839E0
2.899556364E0,1.049466491E0,-1.416596532E0,-2.907718658E0
2.901570902E0,1.053131700E0,-1.419650793E0,-2.926655293E0
2.903554284E0,1.058018565E0,-1.420872569E0,-2.965750694E0
2.905568976E0,1.058629513E0,-1.409266114E0,-3.008511305E0
2.907552359E0,1.061072946E0,-1.401324868E0,-3.025004625E0
2.909567434E0,1.062294602E0,-1.380555511E0,-3.060434818E0
2.911550202E0,1.059240341E0,-1.354899168E0,-3.095254183E0
2.913565278E0,1.061072946E0,-1.339627504E0,-3.108082294E0
2.915547815E0,1.057407737E0,-1.305419087E0,-3.134349585E0
2.917562198E0,1.051299095E0,-1.267545342E0,-3.158784151E0
2.919546197E0,1.048244715E0,-1.246165156E0,-3.172223330E0
2.921559426E0,1.042747021E0,-1.203404546E0,-3.193603516E0
2.923574810E0,1.035416603E0,-1.157589674E0,-3.212540388E0
2.925558193E0,1.028697014E0,-1.131322384E0,-3.222314119E0
2.927572038E0,1.020144939E0,-1.088561893E0,-3.237585783E0
2.929556729E0,1.007927656E0,-1.045190454E0,-3.254689932E0
2.931570189E0,1.001208186E0,-1.023199320E0,-3.262020350E0
2.933552342E0,9.865473509E-1,-9.798278809E-1,-3.279735565E0
2.935567725E0,9.798278809E-1,-9.584475756E-1,-3.285844088E0
2.937551416E0,9.663888216E-1,-9.187413454E-1,-3.304170132E0
2.939564338E0,9.511171579E-1,-8.857545853E-1,-3.320663452E0
2.941548721E0,9.456194043E-1,-8.710938692E-1,-3.326161146E0
2.943563489E0,9.346238375E-1,-8.448266387E-1,-3.345708847E0
2.945547104E0,9.230173826E-1,-8.240572214E-1,-3.364034891E0
2.947560409E0,9.205739498E-1,-8.161159754E-1,-3.375641346E0
2.949575485E0,9.132435322E-1,-8.100073338E-1,-3.397632599E0
2.951558561E0,9.059131742E-1,-8.069530129E-1,-3.422677994E0
2.953573328E0,9.028588533E-1,-8.057312369E-1,-3.434895277E0
2.955556635E0,8.955284357E-1,-8.136724830E-1,-3.461773396E0
2.957570557E0,8.857545853E-1,-8.283332586E-1,-3.486818790E0
2.959554170E0,8.814785480E-1,-8.362745047E-1,-3.503922939E0
2.961567785E0,8.717046976E-1,-8.552113175E-1,-3.530801058E0
2.963551784E0,8.637634516E-1,-8.802568316E-1,-3.555846691E0
2.965565936E0,8.558222055E-1,-8.936958313E-1,-3.572340012E0
2.967549935E0,8.509352803E-1,-9.242390990E-1,-3.599828959E0
2.969565549E0,8.503243923E-1,-9.395107627E-1,-3.612657070E0
2.971547702E0,8.466592431E-1,-9.731083512E-1,-3.637702465E0
2.973561546E0,8.417723179E-1,-1.004873276E0,-3.668245792E0
2.975545007E0,8.393288255E-1,-1.020144939E0,-3.682295799E0
2.977559775E0,8.301658630E-1,-1.051299095E0,-3.705508471E0
2.979574158E0,8.234463334E-1,-1.085507512E0,-3.726888895E0
2.981557003E0,8.167268038E-1,-1.102611780E0,-3.739717007E0
2.983571771E0,8.063421249E-1,-1.133765936E0,-3.760486364E0
2.985555461E0,7.971791625E-1,-1.167363524E0,-3.781255960E0
2.987569306E0,7.898487449E-1,-1.186911225E0,-3.792251348E0
2.989552998E0,7.819074988E-1,-1.222341299E0,-3.809966564E0
2.991567073E0,7.690793276E-1,-1.254717231E0,-3.825238228E0
2.993551995E0,7.611380816E-1,-1.274875760E0,-3.834401131E0
2.995565224E0,7.464773059E-1,-1.306640744E0,-3.849061966E0
2.997548992E0,7.379252315E-1,-1.324355841E0,-3.853948832E0
2.999562760E0,7.214318514E-1,-1.356120825E0,-3.868609667E0
3.001546451E0,7.049384713E-1,-1.389718413E0,-3.878383398E0
3.003560372E0,6.963863969E-1,-1.405600905E0,-3.885102987E0
3.005575064E0,6.774495840E-1,-1.434922457E0,-3.896709442E0
3.007557909E0,6.585127115E-1,-1.465465665E0,-3.902817965E0
3.009574215E0,6.499606371E-1,-1.480737329E0,-3.908926725E0
3.011556290E0,6.285803318E-1,-1.509448051E0,-3.915035248E0
3.013570443E0,6.041457057E-1,-1.537547827E0,-3.925420046E0
3.015554212E0,5.955936313E-1,-1.552208543E0,-3.929696083E0
3.017568056E0,5.723807216E-1,-1.576032281E0,-3.941302538E0
3.019551747E0,5.455026627E-1,-1.607797384E0,-3.952908993E0
3.021566438E0,5.332853794E-1,-1.621236324E0,-3.957795858E0
3.023549590E0,5.064072609E-1,-1.651168704E0,-3.968791485E0
3.025563358E0,4.819726646E-1,-1.682933807E0,-3.985284805E0
3.027547050E0,4.685336351E-1,-1.697594523E0,-3.993836880E0
3.029562509E0,4.440990388E-1,-1.727526903E0,-4.012773991E0
3.031545201E0,4.294382632E-1,-1.740355134E0,-4.023158550E0
3.033560276E0,4.031710625E-1,-1.767843962E0,-4.046371460E0
3.035573505E0,3.787364662E-1,-1.794111252E0,-4.069584370E0
3.037557812E0,3.665191531E-1,-1.805717707E0,-4.080579758E0
3.039571657E0,3.408628106E-1,-1.827097893E0,-4.109290600E0
3.041554194E0,3.145956099E-1,-1.847867370E0,-4.138612270E0
3.043569808E0,3.029891551E-1,-1.857641220E0,-4.152050972E0
3.045553269E0,2.797762752E-1,-1.872912884E0,-4.182594299E0
3.047567113E0,2.522873580E-1,-1.882686734E0,-4.211915970E0
3.049551958E0,2.400700450E-1,-1.887573600E0,-4.227187634E0
3.051564649E0,2.186897546E-1,-1.894293070E0,-4.260174274E0
3.053547725E0,1.918116808E-1,-1.897347450E0,-4.289495945E0
3.055561800E0,1.777617931E-1,-1.898569226E0,-4.305378437E0
3.057545568E0,1.527163088E-1,-1.892460585E0,-4.334088802E0
3.059560336E0,1.203404516E-1,-1.882686734E0,-4.362188816E0
3.061573873E0,1.093448773E-1,-1.875967145E0,-4.375627518E0
3.063558180E0,7.941248268E-2,-1.856419444E0,-4.403727531E0
3.065572332E0,6.475171447E-2,-1.844812989E0,-4.419610023E0
3.067555638E0,3.726277873E-2,-1.819156647E0,-4.444044590E0
3.069571022E0,7.330383174E-3,-1.786780834E0,-4.468479156E0
3.071553790E0,-4.886921961E-3,-1.767843962E0,-4.478864193E0
3.073568865E0,-3.420845419E-2,-1.724472642E0,-4.500854969E0
3.075551710E0,-5.742133409E-2,-1.677435994E0,-4.519792080E0
3.077565478E0,-7.208210230E-2,-1.653001308E0,-4.528954983E0
3.079549553E0,-9.773843735E-2,-1.604132175E0,-4.549113274E0
3.081563398E0,-1.227839142E-1,-1.555873752E0,-4.564995766E0
3.083548013E0,-1.325577646E-1,-1.531439185E0,-4.573548317E0
3.085562088E0,-1.576032341E-1,-1.481959105E0,-4.590652466E0
3.087544856E0,-1.795943826E-1,-1.436144233E0,-4.602258682E0
3.089560855E0,-1.887573600E-1,-1.414763927E0,-4.608978271E0
3.091573853E0,-2.089159191E-1,-1.367116451E0,-4.623028278E0
3.093556621E0,-2.272418737E-1,-1.324355841E0,-4.634634495E0
3.095571697E0,-2.376265824E-1,-1.301142931E0,-4.639521599E0
3.097554773E0,-2.559525371E-1,-1.262047648E0,-4.651127815E0
3.099568310E0,-2.675589919E-1,-1.241889000E0,-4.655404091E0
3.101551924E0,-2.852740586E-1,-1.208902359E0,-4.668232441E0
3.103566154E0,-3.060434759E-1,-1.174693823E0,-4.675562382E0
3.105550767E0,-3.145956099E-1,-1.165530920E0,-4.681060314E0
3.107564612E0,-3.341432810E-1,-1.143539786E0,-4.688390732E0
3.109548919E0,-3.567453027E-1,-1.125824690E0,-4.696331978E0
3.111562071E0,-3.659082949E-1,-1.119716048E0,-4.700608253E0
3.113546070E0,-3.903428912E-1,-1.109942198E0,-4.707327366E0
3.115559607E0,-4.141666293E-1,-1.105055213E0,-4.715268612E0
3.117574067E0,-4.269948006E-1,-1.105055213E0,-4.717101574E0
3.119558143E0,-4.526511431E-1,-1.106887817E0,-4.727486134E0
3.121571603E0,-4.795292318E-1,-1.115439892E0,-4.735427380E0
3.123555371E0,-4.923573732E-1,-1.119105101E0,-4.742146969E0
3.125569139E0,-5.192354321E-1,-1.131322384E0,-4.751309872E0
3.127552830E0,-5.497786999E-1,-1.142318010E0,-4.762305260E0
3.129568213E0,-5.644394755E-1,-1.150870085E0,-4.767192364E0
3.131551366E0,-5.962044597E-1,-1.164309144E0,-4.778187752E0
3.133565134E0,-6.096435189E-1,-1.170417786E0,-4.781242371E0
3.135547671E0,-6.414085031E-1,-1.183856845E0,-4.794070244E0
3.137563285E0,-6.719517708E-1,-1.196074128E0,-4.803233624E0
3.139546361E0,-6.872233748E-1,-1.200961113E0,-4.809341908E0
3.141560821E0,-7.171558142E-1,-1.211345792E0,-4.819116116E0
3.143544588E0,-7.476990819E-1,-1.218065262E0,-4.826446533E0
3.145558126E0,-7.641924024E-1,-1.219287038E0,-4.830722332E0
3.147572894E0,-7.935139537E-1,-1.218676209E0,-4.839885235E0
3.149557123E0,-8.203920126E-1,-1.217454433E0,-4.842939854E0
3.151570660E0,-8.344419003E-1,-1.216843605E0,-4.843550682E0
3.153554659E0,-8.631525636E-1,-1.213178396E0,-4.843550682E0
3.155568503E0,-8.894197941E-1,-1.210734963E0,-4.841106892E0
3.157551964E0,-9.046914577E-1,-1.210734963E0,-4.840496063E0
3.159565732E0,-9.303477407E-1,-1.207069755E0,-4.834387779E0
3.161549730E0,-9.450085163E-1,-1.204626322E0,-4.831943989E0
3.163564268E0,-9.669997096E-1,-1.199128509E0,-4.824613571E0
3.165547574E0,-9.902125597E-1,-1.187522054E0,-4.814229012E0
3.167561111E0,-1.003040791E0,-1.180191636E0,-4.813618183E0
3.169546110E0,-1.025031924E0,-1.162476540E0,-4.802622795E0
3.171559263E0,-1.044579625E0,-1.142928839E0,-4.794681072E0
3.173573799E0,-1.053131700E0,-1.131933331E0,-4.789183617E0
3.175558644E0,-1.071457624E0,-1.101390004E0,-4.779409885E0
3.177572182E0,-1.088561893E0,-1.072679400E0,-4.767192364E0
3.179554104E0,-1.098335743E0,-1.056796908E0,-4.761083603E0
3.181569717E0,-1.109942198E0,-1.025031924E0,-4.750699043E0
3.183552562E0,-1.127046347E0,-9.938777685E-1,-4.736649036E0
3.185566715E0,-1.134376764E0,-9.792169929E-1,-4.732984066E0
3.187550636E0,-1.151481032E0,-9.523389339E-1,-4.717101574E0
3.189565789E0,-1.167363524E0,-9.285151958E-1,-4.703051567E0
3.191549173E0,-1.177137375E0,-9.193521738E-1,-4.695721149E0
3.193563632E0,-1.194241524E0,-8.961393237E-1,-4.681060314E0
3.195546708E0,-1.200961113E0,-8.857545853E-1,-4.670064926E0
3.197560784E0,-1.216843605E0,-8.649851680E-1,-4.655404091E0
3.199574321E0,-1.230893493E0,-8.454375267E-1,-4.637078285E0
3.201557704E0,-1.238223910E0,-8.374962807E-1,-4.627304077E0
3.203573703E0,-1.254106402E0,-8.167268038E-1,-4.610199928E0
3.205556163E0,-1.269377947E0,-7.941248417E-1,-4.594317436E0
3.207571239E0,-1.278540969E0,-7.831292152E-1,-4.585765362E0
3.209555315E0,-1.294423461E0,-7.916813493E-1,-4.564384937E0
3.211567928E0,-1.307251573E0,-7.330383062E-1,-4.544226646E0
3.213550927E0,-1.314581990E0,-7.220427394E-1,-4.536285400E0
3.215565157E0,-1.326188445E0,-7.000515461E-1,-4.519181252E0
3.217549463E0,-1.335962296E0,-6.591235995E-1,-4.503298759E0
3.219564231E0,-1.343292713E0,-6.401867867E-1,-4.498411655E0
3.221547230E0,-1.354288220E0,-6.078109145E-1,-4.484972477E0
3.223561767E0,-1.368338108E0,-5.668829679E-1,-4.473366261E0
3.225545150E0,-1.372003317E0,-5.503895879E-1,-4.469700813E0
3.227558995E0,-1.379944563E0,-5.222898126E-1,-4.459927082E0
3.229574686E0,-1.385442376E0,-5.088507533E-1,-4.453207493E0
3.231556761E0,-1.396438003E0,-4.770857692E-1,-4.443433762E0
3.233572222E0,-1.408655286E0,-4.514294267E-1,-4.429994583E0
3.235554606E0,-1.411709547E0,-4.404338300E-1,-4.422664165E0
3.237568834E0,-1.419039965E0,-4.135557711E-1,-4.409836292E0
3.239552526E0,-1.428813815E0,-3.817907870E-1,-4.395786285E0
3.241567217E0,-1.434922457E0,-3.677408695E-1,-4.386012554E0
3.243550369E0,-1.438587666E0,-3.396410644E-1,-4.367075443E0
3.245564752E0,-1.447139740E0,-3.060434759E-1,-4.345084667E0
3.247548521E0,-1.447139740E0,-2.907718420E-1,-4.332867146E0
3.249563903E0,-1.457524419E0,-2.608394623E-1,-4.307210922E0
3.251546364E0,-1.459967971E0,-2.296853364E-1,-4.279721737E0
3.253559824E0,-1.465465665E0,-2.168571651E-1,-4.265672207E0
3.255575207E0,-1.472796082E0,-1.912008226E-1,-4.238793850E0
3.257558975E0,-1.478293896E0,-1.673770845E-1,-4.207639694E0
3.259572128E0,-1.478904724E0,-1.545489132E-1,-4.194811821E0
3.261555512E0,-1.481348276E0,-1.392772794E-1,-4.163046837E0
3.263569433E0,-1.481348276E0,-1.295034289E-1,-4.150218487E0
3.265553663E0,-1.483791709E0,-1.148426682E-1,-4.119675159E0
3.267567585E0,-1.481959105E0,-1.014036313E-1,-4.086688519E0
3.269552813E0,-1.482569933E0,-9.529497474E-2,-4.070806026E0
3.271566351E0,-1.483180761E0,-8.613199741E-2,-4.038430214E0
3.273549658E0,-1.484402537E0,-7.941248268E-2,-4.002388954E0
3.275563194E0,-1.486845970E0,-7.757988572E-2,-3.985284805E0
3.277547193E0,-1.487456918E0,-7.391469181E-2,-3.949854612E0
3.279561115E0,-1.488678575E0,-6.902777404E-2,-3.910759211E0
3.281545113E0,-1.488678575E0,-6.658431143E-2,-3.890600681E0
3.283559497E0,-1.492343783E0,-6.414084882E-2,-3.853338003E0
3.285573419E0,-1.491732955E0,-6.108652428E-2,-3.817296982E0
3.287557340E0,-1.492343783E0,-6.291911751E-2,-3.800803661E0
3.289571800E0,-1.491122007E0,-6.230825558E-2,-3.762319088E0
3.291554876E0,-1.486235142E0,-6.475171447E-2,-3.724445343E0
3.293568182E0,-1.485013366E0,-6.475171447E-2,-3.700010777E0
3.295551873E0,-1.481348276E0,-6.902777404E-2,-3.660915375E0
3.297566334E0,-1.478904724E0,-7.330382615E-2,-3.640146017E0
3.299549409E0,-1.480126500E0,-8.185594529E-2,-3.598607063E0
3.301564100E0,-1.475850463E0,-8.857546002E-2,-3.557679176E0
3.303548407E0,-1.475850463E0,-9.407325089E-2,-3.536298990E0
3.305561406E0,-1.473407030E0,-1.056796908E-1,-3.491094828E0
3.307546327E0,-1.472796082E0,-1.178969890E-1,-3.448334217E0
3.309560172E0,-1.470963478E0,-1.246165112E-1,-3.426954031E0
3.311574325E0,-1.467909217E0,-1.386664063E-1,-3.385415077E0
3.313557631E0,-1.466687441E0,-1.576032341E-1,-3.346319914E0
3.315572399E0,-1.467909217E0,-1.643227488E-1,-3.326161146E0
3.317555552E0,-1.469741821E0,-1.850921661E-1,-3.287676811E0
3.319569627E0,-1.475239515E0,-2.052507252E-1,-3.249803066E0
3.321553703E0,-1.474017859E0,-2.180788964E-1,-3.233309746E0
3.323568471E0,-1.479515672E0,-2.388483137E-1,-3.194825172E0
3.325550930E0,-1.478904724E0,-2.492330223E-1,-3.177110195E0
3.327565006E0,-1.478904724E0,-2.712241709E-1,-3.143512487E0
3.329549698E0,-1.475850463E0,-2.919935882E-1,-3.107471466E0
3.331563773E0,-1.478293896E0,-2.987131178E-1,-3.090367317E0
3.333546848E0,-1.472185254E0,-3.158173263E-1,-3.053104401E0
3.335561924E0,-1.470352650E0,-3.274237812E-1,-3.018896103E0
3.337544999E0,-1.467909217E0,-3.335324228E-1,-3.002402782E0
3.339557998E0,-1.463022232E0,-3.439171314E-1,-2.963918209E0
3.341573613E0,-1.456913590E0,-3.524692357E-1,-2.929709673E0
3.343557073E0,-1.453248382E0,-3.561344445E-1,-2.912605524E0
3.345570840E0,-1.445307136E0,-3.677408695E-1,-2.875953674E0
3.347554609E0,-1.436144233E0,-3.750712574E-1,-2.840523481E0
3.349569685E0,-1.428813815E0,-3.811798990E-1,-2.819753885E0
3.351552683E0,-1.415374756E0,-3.915646076E-1,-2.782491207E0
3.353566835E0,-1.403768301E0,-4.007275999E-1,-2.742174149E0
3.355549681E0,-1.397659659E0,-4.050036669E-1,-2.721404552E0
3.357564063E0,-1.382387996E0,-4.153883755E-1,-2.681698322E0
3.359547755E0,-1.376890302E0,-4.239404798E-1,-2.660928965E0
3.361561907E0,-1.357953429E0,-4.349360466E-1,-2.617557526E0
3.363545675E0,-1.337794900E0,-4.440990388E-1,-2.574186087E0
3.365559828E0,-1.330464482E0,-4.453207552E-1,-2.549140692E0
3.367574519E0,-1.312749386E0,-4.489859641E-1,-2.500271559E0
3.369557978E0,-1.293812633E0,-4.544837475E-1,-2.443460941E0
3.371571516E0,-1.282817006E0,-4.575380683E-1,-2.418415546E0
3.373554592E0,-1.268156290E0,-4.605923891E-1,-2.362826824E0
3.375568667E0,-1.249219418E0,-4.660901725E-1,-2.307238102E0
3.377553589E0,-1.246165156E0,-4.715879560E-1,-2.279749155E0
3.379567126E0,-1.230893493E0,-4.819726646E-1,-2.222938538E0
3.381550893E0,-1.218676209E0,-4.935791194E-1,-2.171015024E0
3.383564969E0,-1.214400053E0,-4.972442985E-1,-2.142915249E0
3.385549276E0,-1.204015374E0,-5.149593949E-1,-2.093435287E0
3.387563121E0,-1.195463300E0,-5.357288122E-1,-2.043344259E0
3.389546888E0,-1.190576315E0,-5.455026627E-1,-2.023796558E0
3.391561272E0,-1.185689449E0,-5.632177591E-1,-1.978592515E0
3.393544425E0,-1.183856845E0,-5.748242140E-1,-1.958433986E0
3.395559192E0,-1.178359032E0,-5.962044597E-1,-1.918727756E0
3.397573037E0,-1.178359032E0,-6.188064814E-1,-1.885130167E0
3.399556113E0,-1.176526427E0,-6.304129362E-1,-1.871080279E0
3.401570496E0,-1.175304770E0,-6.542366743E-1,-1.838093519E0
3.403554264E0,-1.172861218E0,-6.707300544E-1,-1.808161139E0
3.405568725E0,-1.172861218E0,-6.780604124E-1,-1.797165513E0
3.407551800E0,-1.169806957E0,-6.945537925E-1,-1.767843962E0
3.409566876E0,-1.168585181E0,-7.055493593E-1,-1.741576791E0
3.411549644E0,-1.164919972E0,-7.098253965E-1,-1.728137732E0
3.413563180E0,-1.159422278E0,-7.153232098E-1,-1.698816299E0
3.415547795E0,-1.152091861E0,-7.122688890E-1,-1.668272972E0
3.417562178E0,-1.147204876E0,-7.098253965E-1,-1.651779652E0
3.419544715E0,-1.136820197E0,-6.988298297E-1,-1.616349459E0
3.421560406E0,-1.122770309E0,-6.847799420E-1,-1.582751870E0
3.423574174E0,-1.116661668E0,-6.762278080E-1,-1.563204169E0
3.425557250E0,-1.100779176E0,-6.615670323E-1,-1.525941372E0
3.427571094E0,-1.094670534E0,-6.542366743E-1,-1.507004619E0
3.429555478E0,-1.083674908E0,-6.407976151E-1,-1.467909217E0
3.431568939E0,-1.067792416E0,-6.352998614E-1,-1.427592039E0
3.433553629E0,-1.061072946E0,-6.334672570E-1,-1.409266114E0
3.435567397E0,-1.048855662E0,-6.310238242E-1,-1.367727280E0
3.437550781E0,-1.033583999E0,-6.328563690E-1,-1.331075311E0
3.439565009E0,-1.028697014E0,-6.340781450E-1,-1.310305953E0
3.441548624E0,-1.018312335E0,-6.401867867E-1,-1.271210551E0
3.443563161E0,-1.007927656E0,-6.475171447E-1,-1.236391306E0
3.445545929E0,-1.002429843E0,-6.554583907E-1,-1.219287038E0
3.447561235E0,-9.902125597E-1,-6.652322412E-1,-1.183246017E0
3.449544696E0,-9.792169929E-1,-6.725626588E-1,-1.149037480E0
3.451558848E0,-9.743300676E-1,-6.805039048E-1,-1.133154988E0
3.453571693E0,-9.615018964E-1,-6.914994717E-1,-1.102611780E0
3.455554846E0,-9.553932548E-1,-6.963863969E-1,-1.084285855E0
3.457571074E0,-9.413433671E-1,-7.073819637E-1,-1.054353356E0
3.459553920E0,-9.285151958E-1,-7.189884186E-1,-1.025642753E0
3.461568303E0,-9.205739498E-1,-7.257078886E-1,-1.009760261E0
3.463551994E0,-9.004153609E-1,-7.348709106E-1,-9.847147465E-1
3.465565839E0,-8.839219809E-1,-7.403686643E-1,-9.602801800E-1
3.467549915E0,-8.784242272E-1,-7.403686643E-1,-9.492846131E-1
3.469564067E0,-8.649851680E-1,-7.409795523E-1,-9.285151958E-1
3.471548065E0,-8.546004891E-1,-7.415903807E-1,-9.126327038E-1
3.473561526E0,-8.460483551E-1,-7.446447611E-1,-9.034696817E-1
3.475545602E0,-8.265006542E-1,-7.507534027E-1,-8.845328689E-1
3.477559446E0,-8.075638413E-1,-7.623597980E-1,-8.625417352E-1
3.479573522E0,-7.929030657E-1,-7.739662528E-1,-8.527678847E-1
3.481556675E0,-7.696902156E-1,-7.971791625E-1,-8.228355050E-1
3.483571365E0,-7.452555895E-1,-8.252789378E-1,-7.867944241E-1
3.485554826E0,-7.348709106E-1,-8.368853927E-1,-7.684684992E-1
3.487568979E0,-7.159340382E-1,-8.637634516E-1,-7.232644558E-1
3.489553284E0,-7.086036801E-1,-8.753699064E-1,-7.006624341E-1
3.491566822E0,-6.921103001E-1,-8.918632865E-1,-6.542366743E-1
3.493549821E0,-6.798930168E-1,-9.046914577E-1,-6.041457057E-1
3.495565203E0,-6.731734872E-1,-9.095783234E-1,-5.833762884E-1
3.497548587E0,-6.627888083E-1,-9.132435322E-1,-5.345070958E-1
3.499562201E0,-6.487388611E-1,-9.162978530E-1,-4.929682612E-1
3.501545815E0,-6.420193911E-1,-9.175195694E-1,-4.697553813E-1
3.503560352E0,-6.279694438E-1,-9.193521738E-1,-4.318817258E-1
3.505574120E0,-6.114761233E-1,-9.193521738E-1,-3.940080702E-1
3.507557581E0,-6.047565937E-1,-9.175195694E-1,-3.830125034E-1
3.509573271E0,-5.888741016E-1,-9.169087410E-1,-3.549126983E-1
3.511556655E0,-5.705481172E-1,-9.144652486E-1,-3.323107064E-1
3.513570192E0,-5.619960427E-1,-9.120218158E-1,-3.213151097E-1
3.515553575E0,-5.467243791E-1,-9.022479653E-1,-3.036000133E-1
3.517567112E0,-5.277875662E-1,-8.906415105E-1,-2.877175212E-1
3.519551342E0,-5.204572082E-1,-8.827002645E-1,-2.791654170E-1
3.521565571E0,-5.045747161E-1,-8.655960560E-1,-2.663372457E-1
3.523549493E0,-4.954117239E-1,-8.558222055E-1,-2.590068579E-1
3.525562492E0,-4.807509482E-1,-8.332201838E-1,-2.443460971E-1
3.527546798E0,-4.648684561E-1,-8.106181622E-1,-2.309070677E-1
3.529562797E0,-4.550946057E-1,-7.984008789E-1,-2.223549485E-1
3.531544950E0,-4.410447180E-1,-7.690793276E-1,-2.089159191E-1
3.533558486E0,-4.288274050E-1,-7.422012687E-1,-1.930334121E-1
3.535573254E0,-4.208861589E-1,-7.305948138E-1,-1.857030392E-1
3.537557176E0,-4.105014503E-1,-7.018841505E-1,-1.698205322E-1
3.539571021E0,-3.976732790E-1,-6.756169796E-1,-1.527163088E-1
3.541554712E0,-3.915646076E-1,-6.621779203E-1,-1.466076523E-1
3.543568865E0,-3.781255782E-1,-6.340781450E-1,-1.313360333E-1
3.545552555E0,-3.677408695E-1,-6.084218025E-1,-1.203404516E-1
3.547566400E0,-3.597996235E-1,-5.943718553E-1,-1.123992056E-1
3.549551630E0,-3.457497358E-1,-5.662720799E-1,-1.001819000E-1
3.551564860E0,-3.335324228E-1,-5.357288122E-1,-9.101892263E-2
3.553547935E0,-3.292563558E-1,-5.235115290E-1,-8.613199741E-2
3.555562088E0,-3.152064681E-1,-4.941899776E-1,-7.635815442E-2
3.557546394E0,-3.097086847E-1,-4.795292318E-1,-7.208210230E-2
3.559559315E0,-2.974913716E-1,-4.502076805E-1,-6.291911751E-2
3.561574391E0,-2.852740586E-1,-4.233296216E-1,-5.742133409E-2
3.563557236E0,-2.767219543E-1,-4.105014503E-1,-5.497787148E-2
3.565571388E0,-2.681698501E-1,-3.848451078E-1,-4.825835302E-2
3.567555926E0,-2.583959997E-1,-3.659082949E-1,-4.459316283E-2
3.569570156E0,-2.535090744E-1,-3.543018401E-1,-3.787364438E-2
3.571553769E0,-2.449569702E-1,-3.353650272E-1,-3.481931984E-2
3.573567306E0,-2.351831198E-1,-3.207042515E-1,-2.993239649E-2
3.575551921E0,-2.321287990E-1,-3.152064681E-1,-3.054326214E-2
3.577565842E0,-2.254092693E-1,-3.042109013E-1,-2.626720630E-2
3.579548225E0,-2.168571651E-1,-2.938261926E-1,-2.565634064E-2
3.581563609E0,-2.113593817E-1,-2.889392674E-1,-2.443460934E-2
3.583547069E0,-2.064724565E-1,-2.816088796E-1,-2.748893574E-2
3.585562068E0,-2.040289938E-1,-2.785545588E-1,-2.626720630E-2
3.587544836E0,-1.991420686E-1,-2.761110961E-1,-2.809980139E-2
3.589559066E0,-1.966986060E-1,-2.736676335E-1,-3.054326214E-2
3.591573525E0,-1.936442852E-1,-2.755002379E-1,-3.420845419E-2
3.593557447E0,-1.863138974E-1,-2.748893499E-1,-3.726277873E-2
3.595570369E0,-1.826487035E-1,-2.736676335E-1,-3.970624134E-2
3.597554367E0,-1.814269722E-1,-2.785545588E-1,-4.031710699E-2
3.599568597E0,-1.765400618E-1,-2.834414840E-1,-4.276056588E-2
3.601551981E0,-1.740965992E-1,-2.883284092E-1,-4.520402849E-2
3.603566133E0,-1.740965992E-1,-2.889392674E-1,-4.642575979E-2
3.605550132E0,-1.698205322E-1,-2.974913716E-1,-4.703662544E-2
3.607564284E0,-1.667662114E-1,-3.042109013E-1,-5.070181563E-2
3.609548898E0,-1.673770845E-1,-3.072652221E-1,-4.948008433E-2
3.611561512E0,-1.673770845E-1,-3.145956099E-1,-5.070181563E-2
3.613544819E0,-1.667662114E-1,-3.213151097E-1,-5.558873713E-2
3.615558663E0,-1.649336219E-1,-3.249803185E-1,-5.803219974E-2
3.617574662E0,-1.655444801E-1,-3.304781020E-1,-6.169738993E-2
3.619557815E0,-1.673770845E-1,-3.323107064E-1,-6.352998316E-2
3.621571890E0,-1.685988009E-1,-3.371976018E-1,-7.330382615E-2
3.623555043E0,-1.698205322E-1,-3.420845270E-1,-7.819075137E-2
3.625569426E0,-1.716531366E-1,-3.445279896E-1,-8.246681094E-2
3.627553194E0,-1.716531366E-1,-3.469714522E-1,-9.224065393E-2
3.629567654E0,-1.734857261E-1,-3.481931984E-1,-1.007927656E-1
3.631551269E0,-1.734857261E-1,-3.494149148E-1,-1.069014147E-1
3.633566114E0,-1.716531366E-1,-3.463605940E-1,-1.203404516E-1
3.635548804E0,-1.722639948E-1,-3.451388776E-1,-1.301143020E-1
3.637563034E0,-1.716531366E-1,-3.414736688E-1,-1.380555481E-1
3.639546033E0,-1.722639948E-1,-3.359758854E-1,-1.478293836E-1
3.641561108E0,-1.728748679E-1,-3.316998184E-1,-1.563815027E-1
3.643544568E0,-1.704314053E-1,-3.268128932E-1,-1.631010175E-1
3.645558413E0,-1.685988009E-1,-3.194825351E-1,-1.722639948E-1
3.647572258E0,-1.673770845E-1,-3.084869385E-1,-1.820378453E-1
3.649556257E0,-1.637118906E-1,-3.023782969E-1,-1.844813079E-1
3.651570333E0,-1.618792862E-1,-2.901609838E-1,-1.899790913E-1
3.653553177E0,-1.606575549E-1,-2.822197378E-1,-1.912008226E-1
3.655568253E0,-1.557706445E-1,-2.687807083E-1,-1.930334121E-1
3.657551944E0,-1.508837193E-1,-2.535090744E-1,-1.991420686E-1
3.659564865E0,-1.472185254E-1,-2.443460971E-1,-1.979203373E-1
3.661549402E0,-1.429424733E-1,-2.302961946E-1,-1.973094791E-1
3.663564171E0,-1.429424733E-1,-2.131919712E-1,-2.009746730E-1
3.665547015E0,-1.404990107E-1,-2.089159191E-1,-2.009746730E-1
3.667562014E0,-1.374446750E-1,-1.912008226E-1,-1.991420686E-1
3.669545782E0,-1.319468915E-1,-1.777617931E-1,-1.979203373E-1
3.671559549E0,-1.307251602E-1,-1.685988009E-1,-1.997529417E-1
3.673574087E0,-1.264491081E-1,-1.539380401E-1,-1.985312104E-1
3.675557778E0,-1.203404516E-1,-1.343903542E-1,-1.985312104E-1
3.677571008E0,-1.197295859E-1,-1.276708394E-1,-1.979203373E-1
3.679555237E0,-1.123992056E-1,-1.093448773E-1,-1.948660165E-1
3.681568774E0,-1.075122803E-1,-9.162978828E-2,-1.918116808E-1
3.683553081E0,-1.050688252E-1,-8.063421398E-2,-1.899790913E-1
3.685567002E0,-1.026253626E-1,-6.536258012E-2,-1.844813079E-1
3.687550924E0,-1.026253626E-1,-5.436700583E-2,-1.838704348E-1
3.689565692E0,-9.651670605E-2,-3.970624134E-2,-1.759291887E-1
3.691548536E0,-9.224065393E-2,-2.382374369E-2,-1.704314053E-1
3.693561997E0,-9.101892263E-2,-1.466076635E-2,-1.661553532E-1
3.695545381E0,-8.735372871E-2,-4.886921961E-3,-1.563815027E-1
3.697560455E0,-8.185594529E-2,4.276056774E-3,-1.484402567E-1
3.699544147E0,-8.246681094E-2,1.282817032E-2,-1.435533315E-1
3.701558300E0,-7.880161703E-2,2.199114859E-2,-1.356120855E-1
3.703572221E0,-7.635815442E-2,3.054326214E-2,-1.240056455E-1
3.705556450E0,-7.269296050E-2,3.298672289E-2,-1.191187203E-1
3.707570065E0,-7.024950534E-2,3.848451003E-2,-1.075122803E-1
3.709553986E0,-6.963863969E-2,4.276056588E-2,-9.896016866E-2
3.711567523E0,-7.086037099E-2,4.459316283E-2,-9.773843735E-2
3.713551522E0,-6.780604273E-2,4.337143153E-2,-8.735372871E-2
3.715566060E0,-6.902777404E-2,3.909537569E-2,-8.124507964E-2
3.717549673E0,-6.902777404E-2,3.848451003E-2,-7.880161703E-2
3.719563518E0,-6.719517708E-2,3.359758854E-2,-7.391469181E-2
3.721547210E0,-6.780604273E-2,2.871066704E-2,-7.147123665E-2
3.723561439E0,-6.780604273E-2,1.893682219E-2,-6.719517708E-2
3.725545053E0,-6.658431143E-2,9.162978269E-3,-6.169738993E-2
3.727559206E0,-6.963863969E-2,6.108652335E-3,-6.291911751E-2
3.729574896E0,-6.963863969E-2,-7.330383174E-3,-6.291911751E-2
3.731556818E0,-7.452555746E-2,-1.649336144E-2,-5.681046844E-2
3.733570894E0,-7.574728876E-2,-1.771509275E-2,-5.619960278E-2
3.735555507E0,-7.819075137E-2,-2.993239649E-2,-5.742133409E-2
3.737569045E0,-8.368854225E-2,-3.970624134E-2,-5.742133409E-2
3.739551813E0,-8.552113175E-2,-4.886921868E-2,-5.742133409E-2
3.741566657E0,-8.796459436E-2,-5.986479297E-2,-5.803219974E-2
3.743550579E0,-9.224065393E-2,-7.269296050E-2,-6.291911751E-2
3.745564809E0,-9.529497474E-2,-7.635815442E-2,-6.597344577E-2
3.747548115E0,-9.834930301E-2,-8.674286306E-2,-6.780604273E-2
3.749563575E0,-9.957103431E-2,-9.468411654E-2,-7.208210230E-2
3.751546267E0,-1.026253626E-1,-1.026253626E-1,-7.330382615E-2
3.753561419E0,-1.038470939E-1,-1.117883399E-1,-7.880161703E-2
3.755544187E0,-1.056796908E-1,-1.154535338E-1,-8.185594529E-2
3.757557417E0,-1.093448773E-1,-1.191187203E-1,-8.613199741E-2
3.759572185E0,-1.105666086E-1,-1.227839142E-1,-8.918632567E-2
3.761555183E0,-1.117883399E-1,-1.252273768E-1,-9.162978828E-2
3.763570336E0,-1.130100712E-1,-1.276708394E-1,-9.407325089E-2
3.765553412E0,-1.154535338E-1,-1.240056455E-1,-9.468411654E-2
3.767567487E0,-1.166752651E-1,-1.252273768E-1,-9.651670605E-2
3.769551870E0,-1.166752651E-1,-1.246165112E-1,-9.834930301E-2
3.771565408E0,-1.154535338E-1,-1.191187203E-1,-9.957103431E-2
3.773548406E0,-1.166752651E-1,-1.178969890E-1,-1.026253626E-1
3.775562328E0,-1.154535338E-1,-1.142318025E-1,-1.038470939E-1
3.777546634E0,-1.166752651E-1,-1.069014147E-1,-1.014036313E-1
3.779561017E0,-1.154535338E-1,-1.044579595E-1,-1.020144969E-1
3.781544478E0,-1.111774743E-1,-9.957103431E-2,-1.020144969E-1
3.783558323E0,-1.111774743E-1,-9.346238524E-2,-9.896016866E-2
3.785573013E0,-1.093448773E-1,-8.613199741E-2,-9.773843735E-2
3.787557089E0,-1.075122803E-1,-7.757988572E-2,-9.590584040E-2
3.789571857E0,-1.044579595E-1,-7.391469181E-2,-9.162978828E-2
3.791554240E0,-1.026253626E-1,-6.902777404E-2,-8.918632567E-2
3.793568470E0,-9.773843735E-2,-6.475171447E-2,-8.552113175E-2
3.795553084E0,-9.651670605E-2,-6.352998316E-2,-8.307767659E-2
3.797566621E0,-9.407325089E-2,-5.803219974E-2,-8.124507964E-2
3.799550543E0,-8.918632567E-2,-5.742133409E-2,-7.696902007E-2
3.801564388E0,-9.162978828E-2,-5.681046844E-2,-7.941248268E-2
3.803548079E0,-8.979719132E-2,-5.619960278E-2,-7.635815442E-2
3.805561923E0,-8.735372871E-2,-5.558873713E-2,-7.757988572E-2
3.807546230E0,-8.796459436E-2,-5.619960278E-2,-8.002334833E-2
3.809560383E0,-8.613199741E-2,-6.047565863E-2,-7.819075137E-2
3.811573688E0,-8.674286306E-2,-6.108652428E-2,-8.124507964E-2
3.813557380E0,-8.857546002E-2,-6.291911751E-2,-8.124507964E-2
3.815571840E0,-8.674286306E-2,-6.719517708E-2,-8.491026610E-2
3.817555531E0,-8.674286306E-2,-6.841690838E-2,-8.735372871E-2
3.819568760E0,-8.918632567E-2,-7.086037099E-2,-8.613199741E-2
3.821553606E0,-8.796459436E-2,-7.269296050E-2,-9.040805697E-2
3.823567142E0,-8.918632567E-2,-7.024950534E-2,-9.285151958E-2
3.825550910E0,-8.857546002E-2,-7.513642311E-2,-9.101892263E-2
3.827564678E0,-9.162978828E-2,-7.269296050E-2,-9.224065393E-2
3.829549907E0,-9.040805697E-2,-7.330382615E-2,-9.468411654E-2
3.831563214E0,-9.162978828E-2,-7.574728876E-2,-9.468411654E-2
3.833547521E0,-9.285151958E-2,-7.696902007E-2,-9.529497474E-2
3.835560442E0,-9.590584040E-2,-7.513642311E-2,-9.651670605E-2
3.837544056E0,-9.346238524E-2,-7.574728876E-2,-9.590584040E-2
3.839558286E0,-9.529497474E-2,-7.452555746E-2,-9.896016866E-2
3.841572131E0,-9.590584040E-2,-7.391469181E-2,-9.712757170E-2
3.843556360E0,-9.712757170E-2,-7.452555746E-2,-1.001819000E-1
3.845570513E0,-9.957103431E-2,-7.086037099E-2,-1.014036313E-1
3.847554204E0,-9.896016866E-2,-7.147123665E-2,-1.001819000E-1
3.849570279E0,-1.014036313E-1,-6.902777404E-2,-1.026253626E-1
3.851551739E0,-1.007927656E-1,-6.719517708E-2,-1.062905490E-1
3.853565354E0,-1.020144969E-1,-6.414084882E-2,-1.069014147E-1
3.855549967E0,-1.026253626E-1,-6.230825558E-2,-1.062905490E-1
3.857563812E0,-1.020144969E-1,-6.047565863E-2,-1.075122803E-1
3.859548119E0,-1.056796908E-1,-5.558873713E-2,-1.093448773E-1
3.861560963E0,-1.026253626E-1,-5.192354694E-2,-1.075122803E-1
3.863544731E0,-1.044579595E-1,-4.764748737E-2,-1.081231460E-1
3.865559500E0,-1.062905490E-1,-4.398229718E-2,-1.062905490E-1
3.867573575E0,-1.026253626E-1,-3.787364438E-2,-1.062905490E-1
3.869558189E0,-1.026253626E-1,-3.787364438E-2,-1.069014147E-1
3.871571726E0,-1.044579595E-1,-3.115412779E-2,-1.056796908E-1
3.873555494E0,-1.014036313E-1,-2.504547499E-2,-1.026253626E-1
3.875568954E0,-1.038470939E-1,-2.443460934E-2,-1.001819000E-1
3.877552646E0,-9.773843735E-2,-1.771509275E-2,-9.651670605E-2
3.879566875E0,-9.712757170E-2,-1.466076635E-2,-9.346238524E-2
3.881551104E0,-9.346238524E-2,-1.099557430E-2,-9.162978828E-2
3.883565334E0,-9.101892263E-2,-6.108652335E-3,-8.613199741E-2
3.885548718E0,-8.674286306E-2,-5.497787148E-3,-8.246681094E-2
3.887562869E0,-8.368854225E-2,-1.832595794E-3,-7.941248268E-2
3.889546791E0,-8.124507964E-2,1.832595794E-3,-7.635815442E-2
3.891560944E0,-7.757988572E-2,1.221730490E-3,-7.269296050E-2
3.893543481E0,-7.635815442E-2,2.443460980E-3,-6.841690838E-2
3.895559403E0,-7.330382615E-2,1.221730490E-3,-6.597344577E-2
3.897572940E0,-7.147123665E-2,-6.108652451E-4,-6.352998316E-2
3.899555092E0,-6.902777404E-2,-4.886921961E-3,-6.169738993E-2
3.901570245E0,-6.841690838E-2,-1.038470957E-2,-6.108652428E-2
3.903554244E0,-6.841690838E-2,-1.038470957E-2,-5.925392732E-2
3.905568088E0,-6.414084882E-2,-1.527163107E-2,-5.925392732E-2
3.907551780E0,-6.536258012E-2,-2.199114859E-2,-6.047565863E-2
3.909566855E0,-6.414084882E-2,-2.565634064E-2,-5.986479297E-2
3.911549853E0,-6.597344577E-2,-3.115412779E-2,-6.047565863E-2
3.913564083E0,-6.536258012E-2,-3.298672289E-2,-6.047565863E-2
3.915547698E0,-6.597344577E-2,-4.398229718E-2,-6.291911751E-2
3.917561311E0,-6.414084882E-2,-5.070181563E-2,-6.536258012E-2
3.919544310E0,-6.352998316E-2,-5.375614017E-2,-6.414084882E-2
3.921559386E0,-6.597344577E-2,-5.864306539E-2,-6.108652428E-2
3.923573846E0,-6.536258012E-2,-6.536258012E-2,-6.414084882E-2
3.925556383E0,-6.841690838E-2,-6.841690838E-2,-6.230825558E-2
3.927571151E0,-6.841690838E-2,-7.208210230E-2,-6.597344577E-2
3.929555073E0,-6.902777404E-2,-7.635815442E-2,-6.597344577E-2
3.931569917E0,-6.902777404E-2,-7.757988572E-2,-6.291911751E-2
3.933551993E0,-6.963863969E-2,-8.491026610E-2,-6.475171447E-2
3.935566146E0,-7.024950534E-2,-8.918632567E-2,-6.536258012E-2
3.937551067E0,-7.024950534E-2,-9.162978828E-2,-6.658431143E-2
3.939564605E0,-7.330382615E-2,-9.773843735E-2,-6.536258012E-2
3.941548296E0,-7.391469181E-2,-1.038470939E-1,-6.719517708E-2
3.943562140E0,-7.452555746E-2,-1.081231460E-1,-6.597344577E-2
3.945546447E0,-7.757988572E-2,-1.142318025E-1,-6.902777404E-2
3.947560292E0,-7.941248268E-2,-1.191187203E-1,-7.147123665E-2
3.949574829E0,-8.002334833E-2,-1.270599663E-1,-7.208210230E-2
