"Time (s)","Acceleration x (m/s^2)","Acceleration y (m/s^2)","Acceleration z (m/s^2)"
3.941807000E-3,-7.254431248E-1,-3.782838583E-1,9.543288231E0
5.986424000E-3,-7.254431248E-1,-3.854664862E-1,9.543288231E0
8.091655000E-3,-7.422025204E-1,-4.213795066E-1,9.536105156E0
1.007534700E-2,-7.445967197E-1,-4.357447028E-1,9.533711433E0
1.208980800E-2,-7.541735172E-1,-4.453215301E-1,9.531316757E0
1.407311700E-2,-7.996633649E-1,-4.477157295E-1,9.526528358E0
1.608788600E-2,-8.116343617E-1,-4.501099288E-1,9.519346237E0
1.807157900E-2,-8.475474119E-1,-4.668693244E-1,9.528923035E0
2.008519400E-2,-8.762778044E-1,-4.668693244E-1,9.531316757E0
2.206942600E-2,-8.906430602E-1,-4.453215301E-1,9.538499832E0
2.408419500E-2,-9.241618514E-1,-4.525041282E-1,9.538499832E0
2.606758000E-2,-9.433154464E-1,-4.477157295E-1,9.569623947E0
2.808211800E-2,-9.576807022E-1,-4.405331016E-1,9.572018623E0
3.006511800E-2,-9.792284966E-1,-4.070142806E-1,9.603142738E0
3.207904200E-2,-9.983820915E-1,-4.022258818E-1,9.631873131E0
3.409311900E-2,-1.000776291E0,-4.046200812E-1,9.643844604E0
3.607688800E-2,-9.888052940E-1,-4.070142806E-1,9.670180321E0
3.809104200E-2,-9.959878922E-1,-3.806780577E-1,9.708487511E0
4.007381200E-2,-1.000776291E0,-3.854664862E-1,9.722852707E0
4.208888900E-2,-1.005564690E0,-3.830722570E-1,9.742006302E0
4.407258200E-2,-1.003170490E0,-3.854664862E-1,9.739612579E0
4.608604300E-2,-1.007958889E0,-3.830722570E-1,9.758766174E0
4.807096600E-2,-1.010353088E0,-3.950432837E-1,9.780313492E0
5.008450600E-2,-1.010353088E0,-3.902548850E-1,9.797073364E0
5.206789000E-2,-1.007958889E0,-3.926490843E-1,9.844957352E0
5.408212100E-2,-1.015141487E0,-4.022258818E-1,9.868899345E0
5.606581400E-2,-1.015141487E0,-3.974374831E-1,9.878476143E0
5.807989100E-2,-1.015141487E0,-3.974374831E-1,9.909601212E0
6.009504500E-2,-1.019929886E0,-3.926490843E-1,9.938331604E0
6.207750700E-2,-1.022324085E0,-4.022258818E-1,9.950302124E0
6.409258400E-2,-1.031900883E0,-3.950432837E-1,9.976638794E0
6.607566100E-2,-1.063025594E0,-3.782838583E-1,1.000058079E1
6.809004600E-2,-1.058237195E0,-4.022258818E-1,1.000776291E1
7.007350800E-2,-1.051054597E0,-3.830722570E-1,1.002212811E1
7.208796900E-2,-1.036689281E0,-3.926490843E-1,1.003649330E1
7.407135400E-2,-1.031900883E0,-4.022258818E-1,1.003888798E1
7.608574000E-2,-1.043871999E0,-4.022258818E-1,1.004607010E1
7.806912400E-2,-1.029506683E0,-4.094084799E-1,1.005085850E1
8.008274000E-2,-9.959878922E-1,-4.070142806E-1,1.005085850E1
8.206704700E-2,-9.624691010E-1,-4.237737060E-1,1.004607010E1
8.408020100E-2,-9.409212470E-1,-4.141969085E-1,1.003170490E1
8.606489500E-2,-9.074024558E-1,-4.070142806E-1,1.002691650E1
8.808027900E-2,-8.762778044E-1,-4.309563041E-1,1.001015759E1
9.006212500E-2,-8.547300100E-1,-4.381389022E-1,9.998186111E0
9.207712500E-2,-8.355764151E-1,-4.357447028E-1,9.974244118E0
9.409158800E-2,-8.140285611E-1,-4.453215301E-1,9.962273598E0
9.607374200E-2,-8.044517636E-1,-4.501099288E-1,9.943120003E0
9.808851100E-2,-7.852981687E-1,-4.596867263E-1,9.916783333E0
1.000715880E-1,-7.661445141E-1,-4.429273009E-1,9.900024414E0
1.020867420E-1,-7.685387731E-1,-4.309563041E-1,9.890447617E0
1.040710500E-1,-7.709329724E-1,-4.477157295E-1,9.878476143E0
1.060838970E-1,-7.637503147E-1,-4.501099288E-1,9.864110947E0
1.080682810E-1,-7.709329724E-1,-4.596867263E-1,9.847352028E0
1.100823580E-1,-7.637503147E-1,-4.812345505E-1,9.835380554E0
1.120657440E-1,-7.637503147E-1,-4.788403511E-1,9.828198433E0
1.140798980E-1,-7.541735172E-1,-4.860229492E-1,9.806650162E0
1.160633590E-1,-7.733271718E-1,-4.908113480E-1,9.780313492E0
1.180774360E-1,-7.900865674E-1,-4.860229492E-1,9.775525093E0
1.200928210E-1,-7.757213712E-1,-4.764461517E-1,9.761159897E0
1.220756680E-1,-7.589619160E-1,-4.908113480E-1,9.734824181E0
1.240888990E-1,-7.685387731E-1,-4.860229492E-1,9.734824181E0
1.260735140E-1,-7.996633649E-1,-4.596867263E-1,9.715670586E0
1.280882060E-1,-8.188169599E-1,-4.453215301E-1,9.706093788E0
1.300710530E-1,-8.236053586E-1,-4.429273009E-1,9.715670586E0
1.320845920E-1,-8.188169599E-1,-4.309563041E-1,9.696516991E0
1.340685150E-1,-8.259995580E-1,-4.333505034E-1,9.684545517E0
1.360827460E-1,-8.475474119E-1,-4.309563041E-1,9.686940193E0
1.380669770E-1,-8.427590132E-1,-4.118026793E-1,9.679757118E0
1.400808240E-1,-8.499416113E-1,-4.022258818E-1,9.677363396E0
1.420648240E-1,-8.643068075E-1,-3.950432837E-1,9.677363396E0
1.440790540E-1,-8.643068075E-1,-3.902548850E-1,9.696516991E0
1.460931310E-1,-8.667010069E-1,-3.950432837E-1,9.701305389E0
1.480778250E-1,-8.595184088E-1,-3.974374831E-1,9.703699112E0
1.500907480E-1,-8.475474119E-1,-4.070142806E-1,9.710882187E0
1.520744400E-1,-8.451532125E-1,-4.094084799E-1,9.715670586E0
1.540888250E-1,-8.667010069E-1,-3.926490843E-1,9.742006302E0
1.560722090E-1,-8.882488012E-1,-4.141969085E-1,9.742006302E0
1.580855180E-1,-8.882488012E-1,-4.189853072E-1,9.746794701E0
1.600700570E-1,-8.738836050E-1,-4.357447028E-1,9.773131371E0
1.620839800E-1,-8.882488012E-1,-4.213795066E-1,9.780313492E0
1.640672870E-1,-8.882488012E-1,-4.213795066E-1,9.785101891E0
1.660818270E-1,-8.978256583E-1,-4.309563041E-1,9.806650162E0
1.680675960E-1,-9.050082564E-1,-4.237737060E-1,9.804255486E0
1.700786730E-1,-9.050082564E-1,-4.213795066E-1,9.830592155E0
1.720935190E-1,-9.097966552E-1,-4.189853072E-1,9.837775230E0
1.740778270E-1,-9.169792533E-1,-4.118026793E-1,9.844957352E0
1.760909820E-1,-9.169792533E-1,-4.165911078E-1,9.852140427E0
1.780752890E-1,-9.313444495E-1,-4.189853072E-1,9.864110947E0
1.800892120E-1,-9.265560508E-1,-4.118026793E-1,9.866505623E0
1.820729050E-1,-9.145850539E-1,-4.237737060E-1,9.871294022E0
1.840876750E-1,-8.954314590E-1,-4.261679053E-1,9.880870819E0
1.860707520E-1,-8.978256583E-1,-4.333505034E-1,9.888052940E0
1.880861370E-1,-9.026140571E-1,-4.429273009E-1,9.900024414E0
1.900691370E-1,-9.097966552E-1,-4.333505034E-1,9.900024414E0
1.920823670E-1,-9.074024558E-1,-4.381389022E-1,9.904812813E0
1.940657530E-1,-8.978256583E-1,-4.309563041E-1,9.904812813E0
1.960808300E-1,-8.762778044E-1,-4.237737060E-1,9.900024414E0
1.980642140E-1,-8.690952063E-1,-4.285621047E-1,9.897629738E0
2.000780610E-1,-8.619126081E-1,-4.261679053E-1,9.885659218E0
2.020934460E-1,-8.619126081E-1,-4.309563041E-1,9.880870819E0
2.040756770E-1,-8.403648138E-1,-4.453215301E-1,9.885659218E0
2.060897540E-1,-8.236053586E-1,-4.477157295E-1,9.883264542E0
2.080747540E-1,-8.140285611E-1,-4.453215301E-1,9.878476143E0
2.100886000E-1,-8.140285611E-1,-4.237737060E-1,9.864110947E0
2.120716010E-1,-7.948749661E-1,-4.237737060E-1,9.864110947E0
2.140860630E-1,-7.876923680E-1,-4.261679053E-1,9.864110947E0
2.160695240E-1,-7.637503147E-1,-4.333505034E-1,9.856928825E0
2.180836780E-1,-7.709329724E-1,-4.357447028E-1,9.854534149E0
2.200676020E-1,-7.733271718E-1,-4.285621047E-1,9.847352028E0
2.220815250E-1,-7.445967197E-1,-4.333505034E-1,9.835380554E0
2.240661410E-1,-7.445967197E-1,-4.189853072E-1,9.828198433E0
2.260790640E-1,-7.326257229E-1,-4.189853072E-1,9.816226959E0
2.280950640E-1,-7.206547260E-1,-4.357447028E-1,9.811438560E0
2.300762950E-1,-7.110779285E-1,-4.333505034E-1,9.797073364E0
2.320909880E-1,-6.991068721E-1,-4.333505034E-1,9.799467087E0
2.340750650E-1,-7.062895298E-1,-4.453215301E-1,9.785101891E0
2.360895260E-1,-7.015010715E-1,-4.333505034E-1,9.785101891E0
2.380729120E-1,-6.871358752E-1,-4.309563041E-1,9.785101891E0
2.400870660E-1,-6.847416759E-1,-4.213795066E-1,9.770736694E0
2.420716810E-1,-6.871358752E-1,-4.237737060E-1,9.763554573E0
2.440842200E-1,-6.847416759E-1,-4.261679053E-1,9.756371498E0
2.460685270E-1,-6.727706790E-1,-4.333505034E-1,9.744400978E0
2.480806050E-1,-6.727706790E-1,-4.333505034E-1,9.744400978E0
2.500654510E-1,-6.703764796E-1,-4.381389022E-1,9.753977776E0
2.520806050E-1,-6.751648784E-1,-4.237737060E-1,9.753977776E0
2.540636820E-1,-6.799532771E-1,-4.261679053E-1,9.753977776E0
2.560781450E-1,-6.991068721E-1,-4.477157295E-1,9.763554573E0
2.580922220E-1,-7.086837292E-1,-4.453215301E-1,9.775525093E0
2.600753750E-1,-7.110779285E-1,-4.477157295E-1,9.785101891E0
2.620903750E-1,-7.230489254E-1,-4.477157295E-1,9.780313492E0
2.640740680E-1,-7.254431248E-1,-4.453215301E-1,9.765948296E0
2.660876840E-1,-7.254431248E-1,-4.477157295E-1,9.775525093E0
2.680725300E-1,-7.517793179E-1,-4.572925270E-1,9.782708168E0
2.700855300E-1,-7.589619160E-1,-4.668693244E-1,9.780313492E0
2.720689150E-1,-7.709329724E-1,-4.668693244E-1,9.799467087E0
2.740842240E-1,-7.805097699E-1,-4.644751251E-1,9.797073364E0
2.760670700E-1,-7.876923680E-1,-4.572925270E-1,9.797073364E0
2.780817620E-1,-8.140285611E-1,-4.740519226E-1,9.801861763E0
2.800643010E-1,-8.403648138E-1,-4.716577232E-1,9.828198433E0
2.820793010E-1,-8.355764151E-1,-4.692635238E-1,9.832986832E0
2.840926090E-1,-8.307880163E-1,-4.548983276E-1,9.844957352E0
2.860766090E-1,-8.379706144E-1,-4.548983276E-1,9.852140427E0
2.880919940E-1,-8.379706144E-1,-4.596867263E-1,9.844957352E0
2.900753020E-1,-8.403648138E-1,-4.548983276E-1,9.847352028E0
2.920885330E-1,-8.523358107E-1,-4.764461517E-1,9.856928825E0
2.940728410E-1,-8.619126081E-1,-4.836287498E-1,9.854534149E0
2.960867640E-1,-8.858546019E-1,-4.716577232E-1,9.854534149E0
2.980704560E-1,-8.930372596E-1,-4.548983276E-1,9.842563629E0
3.000845330E-1,-8.834604025E-1,-4.548983276E-1,9.840168953E0
3.020682270E-1,-8.858546019E-1,-4.596867263E-1,9.837775230E0
3.040830730E-1,-8.858546019E-1,-4.477157295E-1,9.830592155E0
3.060664570E-1,-8.858546019E-1,-4.405331016E-1,9.828198433E0
3.080811500E-1,-9.002198577E-1,-4.165911078E-1,9.835380554E0
3.100639200E-1,-9.026140571E-1,-4.070142806E-1,9.830592155E0
3.120775350E-1,-8.930372596E-1,-4.141969085E-1,9.821015358E0
3.140922280E-1,-8.882488012E-1,-4.022258818E-1,9.813833237E0
3.160756120E-1,-8.930372596E-1,-3.926490843E-1,9.809044838E0
3.180900740E-1,-8.738836050E-1,-3.950432837E-1,9.804255486E0
3.200729210E-1,-8.762778044E-1,-3.926490843E-1,9.804255486E0
3.220873830E-1,-8.810662031E-1,-3.926490843E-1,9.809044838E0
3.240707670E-1,-8.571242094E-1,-3.974374831E-1,9.806650162E0
3.260855360E-1,-8.259995580E-1,-3.758896589E-1,9.806650162E0
3.280697680E-1,-8.092401624E-1,-3.711012602E-1,9.806650162E0
3.300820760E-1,-8.068459630E-1,-3.734954596E-1,9.794678688E0
3.320673070E-1,-7.996633649E-1,-3.950432837E-1,9.785101891E0
3.340808450E-1,-7.996633649E-1,-4.070142806E-1,9.787496567E0
3.360648450E-1,-7.948749661E-1,-4.046200812E-1,9.787496567E0
3.380787690E-1,-7.924807668E-1,-4.141969085E-1,9.780313492E0
3.400934620E-1,-7.948749661E-1,-4.141969085E-1,9.777919769E0
3.420768460E-1,-7.805097699E-1,-3.998316824E-1,9.775525093E0
3.440916150E-1,-7.637503147E-1,-3.878606856E-1,9.768342972E0
3.460747700E-1,-7.661445141E-1,-3.878606856E-1,9.761159897E0
3.480900780E-1,-7.781155705E-1,-3.878606856E-1,9.780313492E0
3.500725400E-1,-7.781155705E-1,-3.926490843E-1,9.780313492E0
3.520860780E-1,-7.757213712E-1,-3.926490843E-1,9.794678688E0
3.540701550E-1,-7.637503147E-1,-4.118026793E-1,9.794678688E0
3.560849250E-1,-7.685387731E-1,-4.237737060E-1,9.789890289E0
3.580680020E-1,-7.805097699E-1,-4.141969085E-1,9.799467087E0
3.600817710E-1,-7.876923680E-1,-4.094084799E-1,9.792284966E0
3.620655410E-1,-7.805097699E-1,-4.189853072E-1,9.797073364E0
3.640762340E-1,-7.613561153E-1,-4.333505034E-1,9.801861763E0
3.660931570E-1,-7.589619160E-1,-4.572925270E-1,9.806650162E0
3.680783880E-1,-7.541735172E-1,-4.668693244E-1,9.811438560E0
3.700923110E-1,-7.637503147E-1,-4.716577232E-1,9.825803757E0
3.720750030E-1,-7.613561153E-1,-4.716577232E-1,9.835380554E0
3.740894660E-1,-7.661445141E-1,-4.860229492E-1,9.844957352E0
3.760731580E-1,-7.757213712E-1,-5.027823448E-1,9.854534149E0
3.780873120E-1,-7.781155705E-1,-5.123591423E-1,9.871294022E0
3.800706960E-1,-7.996633649E-1,-5.291185975E-1,9.873687744E0
3.820855440E-1,-8.283938169E-1,-5.219359994E-1,9.871294022E0
3.840692360E-1,-8.283938169E-1,-5.219359994E-1,9.873687744E0
3.860818510E-1,-8.427590132E-1,-5.291185975E-1,9.864110947E0
3.880673900E-1,-8.667010069E-1,-5.219359994E-1,9.859322548E0
3.900812360E-1,-8.810662031E-1,-5.195417404E-1,9.859322548E0
3.920639290E-1,-9.385270476E-1,-5.219359994E-1,9.854534149E0
3.940784680E-1,-9.696516991E-1,-5.123591423E-1,9.849745750E0
3.960929290E-1,-9.720458984E-1,-5.051765442E-1,9.844957352E0
3.980760060E-1,-9.816226959E-1,-5.027823448E-1,9.837775230E0
4.000904690E-1,-1.007958889E0,-5.003881454E-1,9.835380554E0
4.020746990E-1,-1.022324085E0,-4.979939461E-1,9.823410034E0
4.040873920E-1,-1.034295082E0,-4.908113480E-1,9.813833237E0
4.060725460E-1,-1.043871999E0,-4.812345505E-1,9.809044838E0
4.080883150E-1,-1.060631394E0,-4.740519226E-1,9.792284966E0
4.100689310E-1,-1.077390790E0,-4.692635238E-1,9.763554573E0
4.120846240E-1,-1.086967587E0,-4.692635238E-1,9.758766174E0
4.140673930E-1,-1.106121182E0,-4.620809257E-1,9.753977776E0
4.160818540E-1,-1.120486379E0,-4.572925270E-1,9.744400978E0
4.180654710E-1,-1.118092179E0,-4.501099288E-1,9.734824181E0
4.200793170E-1,-1.125274777E0,-4.357447028E-1,9.715670586E0
4.220943940E-1,-1.139639974E0,-4.285621047E-1,9.710882187E0
4.240781630E-1,-1.149216771E0,-4.118026793E-1,9.710882187E0
4.260919320E-1,-1.168370485E0,-3.950432837E-1,9.706093788E0
4.280759330E-1,-1.175553083E0,-3.830722570E-1,9.706093788E0
4.300898560E-1,-1.142034173E0,-3.854664862E-1,9.706093788E0
4.320737790E-1,-1.127668977E0,-3.854664862E-1,9.706093788E0
4.340870870E-1,-1.120486379E0,-3.950432837E-1,9.720458984E0
4.360710880E-1,-1.103726983E0,-4.070142806E-1,9.730035782E0
4.380845500E-1,-1.082179189E0,-3.854664862E-1,9.739612579E0
4.400683190E-1,-1.070208192E0,-3.830722570E-1,9.746794701E0
4.420824730E-1,-1.053448796E0,-3.854664862E-1,9.761159897E0
4.440658570E-1,-1.036689281E0,-3.878606856E-1,9.765948296E0
4.460797050E-1,-1.024718285E0,-3.854664862E-1,9.768342972E0
4.480947050E-1,-1.010353088E0,-3.639186621E-1,9.775525093E0
4.500790890E-1,-1.003170490E0,-3.567360640E-1,9.789890289E0
4.520922430E-1,-9.911994934E-1,-3.519476354E-1,9.794678688E0
4.540762440E-1,-9.864110947E-1,-3.758896589E-1,9.794678688E0
4.560900900E-1,-9.792284966E-1,-3.591302633E-1,9.809044838E0
4.580737830E-1,-9.648633003E-1,-3.471592367E-1,9.816226959E0
4.600885520E-1,-9.576807022E-1,-3.519476354E-1,9.813833237E0
4.620713980E-1,-9.552865028E-1,-3.495534360E-1,9.823410034E0
4.640864760E-1,-9.624691010E-1,-3.543418646E-1,9.854534149E0
4.660698600E-1,-9.457096457E-1,-3.782838583E-1,9.856928825E0
4.680846300E-1,-9.481038451E-1,-3.806780577E-1,9.861717224E0
4.700676300E-1,-9.600749016E-1,-3.974374831E-1,9.871294022E0
4.720814770E-1,-9.433154464E-1,-4.022258818E-1,9.856928825E0
4.740652460E-1,-9.361328483E-1,-4.237737060E-1,9.871294022E0
4.760793230E-1,-9.241618514E-1,-4.477157295E-1,9.885659218E0
4.780935540E-1,-9.265560508E-1,-4.477157295E-1,9.888052940E0
4.800769380E-1,-9.361328483E-1,-4.525041282E-1,9.890447617E0
4.820914010E-1,-9.313444495E-1,-4.812345505E-1,9.885659218E0
4.840747090E-1,-9.433154464E-1,-4.932055473E-1,9.883264542E0
4.860883240E-1,-9.337386489E-1,-5.051765442E-1,9.876082420E0
4.880710160E-1,-9.337386489E-1,-5.051765442E-1,9.876082420E0
4.900867100E-1,-9.385270476E-1,-5.099649429E-1,9.868899345E0
4.920707100E-1,-9.385270476E-1,-5.027823448E-1,9.864110947E0
4.940837100E-1,-9.361328483E-1,-5.003881454E-1,9.854534149E0
4.960685560E-1,-9.457096457E-1,-4.908113480E-1,9.852140427E0
4.980824020E-1,-9.409212470E-1,-4.668693244E-1,9.840168953E0
5.000660950E-1,-9.457096457E-1,-4.860229492E-1,9.840168953E0
5.020805570E-1,-9.552865028E-1,-4.884171486E-1,9.840168953E0
5.040645570E-1,-9.672574997E-1,-4.788403511E-1,9.835380554E0
5.060787110E-1,-9.911994934E-1,-4.740519226E-1,9.821015358E0
5.080931730E-1,-9.983820915E-1,-4.668693244E-1,9.813833237E0
5.100760190E-1,-1.019929886E0,-4.501099288E-1,9.801861763E0
5.120901730E-1,-1.034295082E0,-4.453215301E-1,9.787496567E0
5.140731730E-1,-1.048660398E0,-4.453215301E-1,9.782708168E0
5.160876350E-1,-1.082179189E0,-4.501099288E-1,9.775525093E0
5.180714050E-1,-1.089361787E0,-4.309563041E-1,9.770736694E0
5.200854820E-1,-1.091755986E0,-4.381389022E-1,9.753977776E0
5.220692510E-1,-1.120486379E0,-4.381389022E-1,9.737217903E0
5.240827900E-1,-1.144428372E0,-4.429273009E-1,9.739612579E0
5.260664060E-1,-1.154005170E0,-4.501099288E-1,9.734824181E0
5.280817910E-1,-1.187524080E0,-4.501099288E-1,9.720458984E0
5.300648680E-1,-1.180341482E0,-4.525041282E-1,9.725247383E0
5.320787910E-1,-1.182735682E0,-4.381389022E-1,9.730035782E0
5.340929450E-1,-1.189918280E0,-4.309563041E-1,9.720458984E0
5.360769460E-1,-1.204283476E0,-4.357447028E-1,9.720458984E0
5.380910230E-1,-1.225831270E0,-4.309563041E-1,9.727641106E0
5.400741760E-1,-1.218648672E0,-4.429273009E-1,9.742006302E0
5.420891760E-1,-1.206677675E0,-4.429273009E-1,9.739612579E0
5.440738700E-1,-1.204283476E0,-4.237737060E-1,9.753977776E0
5.460871000E-1,-1.209071875E0,-4.237737060E-1,9.773131371E0
5.480716390E-1,-1.197100878E0,-4.141969085E-1,9.782708168E0
5.500839470E-1,-1.175553083E0,-4.213795066E-1,9.792284966E0
5.520683310E-1,-1.137245774E0,-4.381389022E-1,9.792284966E0
5.540824090E-1,-1.120486379E0,-4.213795066E-1,9.799467087E0
5.560654860E-1,-1.106121182E0,-4.285621047E-1,9.809044838E0
5.580797170E-1,-1.094150186E0,-4.309563041E-1,9.818621635E0
5.600941010E-1,-1.060631394E0,-4.261679053E-1,9.823410034E0
5.620781790E-1,-1.041477680E0,-4.165911078E-1,9.842563629E0
5.640920260E-1,-1.027112484E0,-4.309563041E-1,9.852140427E0
5.660765640E-1,-9.983820915E-1,-4.548983276E-1,9.847352028E0
5.680907950E-1,-9.911994934E-1,-4.596867263E-1,9.837775230E0
5.700728720E-1,-9.744400978E-1,-4.572925270E-1,9.837775230E0
5.720879500E-1,-9.385270476E-1,-4.548983276E-1,9.840168953E0
5.740719500E-1,-9.289502501E-1,-4.644751251E-1,9.835380554E0
5.760855650E-1,-9.145850539E-1,-4.692635238E-1,9.835380554E0
5.780688730E-1,-8.762778044E-1,-4.836287498E-1,9.847352028E0
5.800836430E-1,-8.475474119E-1,-4.764461517E-1,9.844957352E0
5.820670280E-1,-8.403648138E-1,-4.692635238E-1,9.847352028E0
5.840811810E-1,-8.188169599E-1,-4.884171486E-1,9.847352028E0
5.860654890E-1,-8.044517636E-1,-4.860229492E-1,9.844957352E0
5.880800280E-1,-7.996633649E-1,-4.884171486E-1,9.854534149E0
5.900627980E-1,-7.829039693E-1,-4.884171486E-1,9.847352028E0
5.920769520E-1,-7.733271718E-1,-4.979939461E-1,9.832986832E0
5.940911060E-1,-7.685387731E-1,-4.932055473E-1,9.818621635E0
5.960741060E-1,-7.685387731E-1,-4.979939461E-1,9.816226959E0
5.980883370E-1,-7.661445141E-1,-5.051765442E-1,9.811438560E0
6.000722600E-1,-7.613561153E-1,-4.979939461E-1,9.818621635E0
6.020864140E-1,-7.709329724E-1,-5.003881454E-1,9.789890289E0
6.040697990E-1,-7.661445141E-1,-5.003881454E-1,9.780313492E0
6.060834140E-1,-7.757213712E-1,-4.860229492E-1,9.794678688E0
6.080682610E-1,-7.924807668E-1,-4.692635238E-1,9.770736694E0
6.100821850E-1,-8.044517636E-1,-4.692635238E-1,9.770736694E0
6.120661080E-1,-8.379706144E-1,-4.716577232E-1,9.773131371E0
6.140800310E-1,-8.379706144E-1,-4.716577232E-1,9.758766174E0
6.160631090E-1,-8.547300100E-1,-4.716577232E-1,9.768342972E0
6.180774930E-1,-8.882488012E-1,-4.716577232E-1,9.773131371E0
6.200920320E-1,-9.169792533E-1,-4.740519226E-1,9.763554573E0
6.220756470E-1,-9.337386489E-1,-4.644751251E-1,9.763554573E0
6.240901090E-1,-9.648633003E-1,-4.644751251E-1,9.775525093E0
6.260738790E-1,-9.720458984E-1,-4.596867263E-1,9.777919769E0
6.280886480E-1,-1.000776291E0,-4.548983276E-1,9.763554573E0
6.300714170E-1,-9.959878922E-1,-4.477157295E-1,9.768342972E0
6.320858020E-1,-1.005564690E0,-4.453215301E-1,9.770736694E0
6.340691880E-1,-1.043871999E0,-4.596867263E-1,9.777919769E0
6.360830340E-1,-1.060631394E0,-4.836287498E-1,9.789890289E0
6.380668030E-1,-1.063025594E0,-4.836287498E-1,9.789890289E0
6.400809570E-1,-1.074996591E0,-4.644751251E-1,9.794678688E0
6.420651880E-1,-1.082179189E0,-4.692635238E-1,9.799467087E0
6.440781120E-1,-1.101332784E0,-4.716577232E-1,9.792284966E0
6.460925730E-1,-1.098938584E0,-4.644751251E-1,9.789890289E0
6.480771890E-1,-1.096544385E0,-4.716577232E-1,9.792284966E0
6.500904960E-1,-1.091755986E0,-4.668693244E-1,9.789890289E0
6.520748050E-1,-1.122880578E0,-4.596867263E-1,9.789890289E0
6.540879590E-1,-1.118092179E0,-4.668693244E-1,9.806650162E0
6.560717280E-1,-1.106121182E0,-4.692635238E-1,9.804255486E0
6.580858050E-1,-1.106121182E0,-4.740519226E-1,9.804255486E0
6.600692670E-1,-1.108515382E0,-4.860229492E-1,9.811438560E0
6.620839600E-1,-1.101332784E0,-4.836287498E-1,9.825803757E0
6.640686520E-1,-1.115697980E0,-4.764461517E-1,9.804255486E0
6.660818830E-1,-1.120486379E0,-4.716577232E-1,9.804255486E0
6.680661140E-1,-1.113303781E0,-4.525041282E-1,9.818621635E0
6.700802690E-1,-1.103726983E0,-4.572925270E-1,9.816226959E0
6.720636530E-1,-1.101332784E0,-4.429273009E-1,9.809044838E0
6.740771920E-1,-1.115697980E0,-4.309563041E-1,9.799467087E0
6.760913460E-1,-1.106121182E0,-4.237737060E-1,9.787496567E0
6.780751150E-1,-1.108515382E0,-4.237737060E-1,9.794678688E0
6.800898080E-1,-1.115697980E0,-4.381389022E-1,9.787496567E0
6.820738080E-1,-1.108515382E0,-4.285621047E-1,9.770736694E0
6.840839620E-1,-1.091755986E0,-4.261679053E-1,9.770736694E0
6.860701930E-1,-1.091755986E0,-4.189853072E-1,9.780313492E0
6.880855780E-1,-1.065419793E0,-4.094084799E-1,9.780313492E0
6.900689630E-1,-1.060631394E0,-4.213795066E-1,9.785101891E0
6.920830400E-1,-1.058237195E0,-4.429273009E-1,9.785101891E0
6.940664250E-1,-1.058237195E0,-4.429273009E-1,9.792284966E0
6.960808860E-1,-1.048660398E0,-4.357447028E-1,9.787496567E0
6.980636560E-1,-1.041477680E0,-4.333505034E-1,9.763554573E0
7.000781950E-1,-1.046266198E0,-4.429273009E-1,9.765948296E0
7.020926560E-1,-1.053448796E0,-4.644751251E-1,9.773131371E0
7.040765790E-1,-1.048660398E0,-4.836287498E-1,9.782708168E0
7.060904270E-1,-1.046266198E0,-4.884171486E-1,9.777919769E0
7.080753500E-1,-1.053448796E0,-4.836287498E-1,9.770736694E0
7.100879650E-1,-1.048660398E0,-4.788403511E-1,9.782708168E0
7.120720420E-1,-1.051054597E0,-4.788403511E-1,9.789890289E0
7.140855030E-1,-1.048660398E0,-4.692635238E-1,9.780313492E0
7.160695810E-1,-1.043871999E0,-4.572925270E-1,9.773131371E0
7.180834280E-1,-1.051054597E0,-4.644751251E-1,9.780313492E0
7.200673510E-1,-1.070208192E0,-4.644751251E-1,9.782708168E0
7.220811970E-1,-1.065419793E0,-4.596867263E-1,9.770736694E0
7.240655050E-1,-1.043871999E0,-4.548983276E-1,9.777919769E0
7.260791210E-1,-1.053448796E0,-4.572925270E-1,9.780313492E0
7.280919670E-1,-1.053448796E0,-4.572925270E-1,9.780313492E0
7.300766590E-1,-1.060631394E0,-4.572925270E-1,9.780313492E0
7.320913520E-1,-1.058237195E0,-4.525041282E-1,9.787496567E0
7.340750450E-1,-1.058237195E0,-4.572925270E-1,9.797073364E0
7.360891990E-1,-1.041477680E0,-4.525041282E-1,9.799467087E0
7.380728910E-1,-1.053448796E0,-4.596867263E-1,9.813833237E0
7.400867370E-1,-1.055842996E0,-4.716577232E-1,9.806650162E0
7.420707380E-1,-1.046266198E0,-4.812345505E-1,9.799467087E0
7.440855840E-1,-1.027112484E0,-4.932055473E-1,9.789890289E0
7.460682770E-1,-1.024718285E0,-4.932055473E-1,9.787496567E0
7.480836610E-1,-1.034295082E0,-4.979939461E-1,9.797073364E0
7.500668150E-1,-1.058237195E0,-5.123591423E-1,9.787496567E0
7.520808930E-1,-1.051054597E0,-5.075707436E-1,9.785101891E0
7.540645850E-1,-1.053448796E0,-5.003881454E-1,9.773131371E0
7.560772780E-1,-1.048660398E0,-4.955997467E-1,9.775525093E0
7.580923550E-1,-1.027112484E0,-4.908113480E-1,9.768342972E0
7.600757400E-1,-1.034295082E0,-4.668693244E-1,9.775525093E0
7.620902020E-1,-1.034295082E0,-4.716577232E-1,9.777919769E0
7.640728940E-1,-1.036689281E0,-4.812345505E-1,9.768342972E0
7.660876630E-1,-1.029506683E0,-4.668693244E-1,9.777919769E0
7.680720480E-1,-1.022324085E0,-4.716577232E-1,9.768342972E0
7.700862030E-1,-1.015141487E0,-4.740519226E-1,9.758766174E0
7.720698180E-1,-1.003170490E0,-4.764461517E-1,9.756371498E0
7.740840490E-1,-9.983820915E-1,-4.668693244E-1,9.746794701E0
7.760670490E-1,-1.005564690E0,-4.620809257E-1,9.753977776E0
7.780812810E-1,-1.007958889E0,-4.548983276E-1,9.744400978E0
7.800646650E-1,-1.010353088E0,-4.429273009E-1,9.744400978E0
7.820797420E-1,-9.864110947E-1,-4.429273009E-1,9.753977776E0
7.840938960E-1,-9.911994934E-1,-4.788403511E-1,9.746794701E0
7.860768960E-1,-9.864110947E-1,-4.788403511E-1,9.756371498E0
7.880919740E-1,-9.864110947E-1,-4.572925270E-1,9.763554573E0
7.900751280E-1,-9.959878922E-1,-4.477157295E-1,9.758766174E0
7.920886670E-1,-1.003170490E0,-4.501099288E-1,9.749189377E0
7.940723590E-1,-9.840168953E-1,-4.620809257E-1,9.758766174E0
7.960862060E-1,-9.816226959E-1,-4.477157295E-1,9.768342972E0
7.980707440E-1,-9.935936928E-1,-4.572925270E-1,9.768342972E0
8.000843600E-1,-9.911994934E-1,-4.668693244E-1,9.775525093E0
8.020685910E-1,-9.864110947E-1,-4.668693244E-1,9.785101891E0
8.040815140E-1,-9.816226959E-1,-4.812345505E-1,9.813833237E0
8.060667450E-1,-9.720458984E-1,-4.668693244E-1,9.832986832E0
8.080818990E-1,-9.792284966E-1,-4.644751251E-1,9.840168953E0
8.100631300E-1,-9.744400978E-1,-4.572925270E-1,9.835380554E0
8.120775920E-1,-9.792284966E-1,-4.405331016E-1,9.832986832E0
8.140917460E-1,-9.816226959E-1,-4.572925270E-1,9.844957352E0
8.160760540E-1,-9.816226959E-1,-4.788403511E-1,9.864110947E0
8.180904390E-1,-9.648633003E-1,-4.979939461E-1,9.868899345E0
8.200738230E-1,-9.672574997E-1,-5.003881454E-1,9.866505623E0
8.220876710E-1,-9.672574997E-1,-4.979939461E-1,9.861717224E0
8.240716710E-1,-9.696516991E-1,-5.027823448E-1,9.873687744E0
8.260855170E-1,-9.600749016E-1,-4.979939461E-1,9.873687744E0
8.280704400E-1,-9.720458984E-1,-4.979939461E-1,9.880870819E0
8.300839780E-1,-9.816226959E-1,-5.027823448E-1,9.876082420E0
8.320667490E-1,-9.720458984E-1,-5.147533417E-1,9.868899345E0
8.340809020E-1,-9.720458984E-1,-5.003881454E-1,9.866505623E0
8.360649020E-1,-9.696516991E-1,-5.075707436E-1,9.868899345E0
8.380788250E-1,-9.648633003E-1,-4.932055473E-1,9.854534149E0
8.400935960E-1,-9.648633003E-1,-5.051765442E-1,9.849745750E0
8.420762880E-1,-9.672574997E-1,-4.979939461E-1,9.854534149E0
8.440883650E-1,-9.696516991E-1,-4.812345505E-1,9.847352028E0
8.460735960E-1,-9.959878922E-1,-4.668693244E-1,9.832986832E0
8.480899030E-1,-9.911994934E-1,-4.572925270E-1,9.813833237E0
8.500723660E-1,-9.768342972E-1,-4.381389022E-1,9.797073364E0
8.520855200E-1,-9.696516991E-1,-4.309563041E-1,9.792284966E0
8.540695200E-1,-9.672574997E-1,-4.189853072E-1,9.789890289E0
8.560846740E-1,-9.552865028E-1,-3.974374831E-1,9.797073364E0
8.580676750E-1,-9.648633003E-1,-3.974374831E-1,9.804255486E0
8.600824440E-1,-1.000776291E0,-3.878606856E-1,9.787496567E0
8.620659050E-1,-9.911994934E-1,-3.782838583E-1,9.789890289E0
8.640802900E-1,-9.768342972E-1,-3.758896589E-1,9.785101891E0
8.660631360E-1,-9.768342972E-1,-3.711012602E-1,9.773131371E0
8.680796760E-1,-9.624691010E-1,-3.758896589E-1,9.761159897E0
8.700914450E-1,-9.672574997E-1,-3.830722570E-1,9.761159897E0
8.720753680E-1,-9.600749016E-1,-4.022258818E-1,9.753977776E0
8.740895220E-1,-9.696516991E-1,-3.998316824E-1,9.765948296E0
8.760732920E-1,-9.696516991E-1,-3.974374831E-1,9.768342972E0
8.780873690E-1,-9.720458984E-1,-4.118026793E-1,9.761159897E0
8.800710610E-1,-9.672574997E-1,-4.357447028E-1,9.770736694E0
8.820849840E-1,-9.528923035E-1,-4.405331016E-1,9.768342972E0
8.840683690E-1,-9.409212470E-1,-4.572925270E-1,9.777919769E0
8.860833700E-1,-9.337386489E-1,-4.668693244E-1,9.773131371E0
8.880680620E-1,-9.457096457E-1,-4.788403511E-1,9.780313492E0
8.900802930E-1,-9.504981041E-1,-5.099649429E-1,9.789890289E0
8.920649850E-1,-9.433154464E-1,-5.123591423E-1,9.787496567E0
8.940778330E-1,-9.217676520E-1,-5.003881454E-1,9.789890289E0
8.960929100E-1,-9.241618514E-1,-4.884171486E-1,9.799467087E0
8.980762940E-1,-9.169792533E-1,-4.884171486E-1,9.806650162E0
9.000908330E-1,-9.265560508E-1,-4.836287498E-1,9.825803757E0
9.020739100E-1,-9.121908545E-1,-4.692635238E-1,9.809044838E0
9.040901410E-1,-9.002198577E-1,-4.668693244E-1,9.818621635E0
9.060726800E-1,-8.786720037E-1,-4.525041282E-1,9.840168953E0
9.080873720E-1,-8.834604025E-1,-4.357447028E-1,9.847352028E0
9.100699110E-1,-8.762778044E-1,-4.165911078E-1,9.849745750E0
9.120837580E-1,-8.643068075E-1,-4.118026793E-1,9.852140427E0
9.140674500E-1,-8.619126081E-1,-4.213795066E-1,9.852140427E0
9.160818350E-1,-8.643068075E-1,-4.189853072E-1,9.849745750E0
9.180655270E-1,-8.834604025E-1,-4.022258818E-1,9.852140427E0
9.200794500E-1,-8.834604025E-1,-4.022258818E-1,9.849745750E0
9.220945280E-1,-8.954314590E-1,-4.070142806E-1,9.864110947E0
9.240766050E-1,-9.002198577E-1,-4.022258818E-1,9.852140427E0
9.260908360E-1,-9.026140571E-1,-3.950432837E-1,9.847352028E0
9.280766050E-1,-8.882488012E-1,-3.878606856E-1,9.849745750E0
9.300896060E-1,-8.930372596E-1,-4.070142806E-1,9.854534149E0
9.320732210E-1,-9.026140571E-1,-4.118026793E-1,9.856928825E0
9.340873750E-1,-9.050082564E-1,-3.950432837E-1,9.840168953E0
9.360707600E-1,-9.121908545E-1,-4.141969085E-1,9.828198433E0
9.380852980E-1,-9.193734527E-1,-4.261679053E-1,9.832986832E0
9.400686070E-1,-9.385270476E-1,-4.453215301E-1,9.823410034E0
9.420833760E-1,-9.385270476E-1,-4.405331016E-1,9.806650162E0
9.440667610E-1,-9.289502501E-1,-4.381389022E-1,9.806650162E0
9.460809150E-1,-9.313444495E-1,-4.165911078E-1,9.809044838E0
9.480662230E-1,-9.313444495E-1,-4.189853072E-1,9.789890289E0
9.500787620E-1,-9.385270476E-1,-4.285621047E-1,9.780313492E0
9.520926850E-1,-9.409212470E-1,-4.333505034E-1,9.780313492E0
9.540759930E-1,-9.361328483E-1,-4.213795066E-1,9.777919769E0
9.560907620E-1,-9.433154464E-1,-4.165911078E-1,9.773131371E0
9.580738400E-1,-9.624691010E-1,-4.213795066E-1,9.775525093E0
9.600883780E-1,-9.600749016E-1,-4.261679053E-1,9.768342972E0
9.620720710E-1,-9.672574997E-1,-4.285621047E-1,9.758766174E0
9.640855320E-1,-9.768342972E-1,-4.118026793E-1,9.744400978E0
9.660692250E-1,-1.003170490E0,-4.285621047E-1,9.742006302E0
9.680824560E-1,-1.007958889E0,-4.285621047E-1,9.742006302E0
9.700686100E-1,-1.007958889E0,-4.261679053E-1,9.744400978E0
9.720819180E-1,-1.015141487E0,-4.094084799E-1,9.744400978E0
9.740646870E-1,-1.043871999E0,-3.950432837E-1,9.746794701E0
9.760793800E-1,-1.048660398E0,-3.854664862E-1,9.756371498E0
9.780938420E-1,-1.055842996E0,-3.902548850E-1,9.763554573E0
9.800779190E-1,-1.070208192E0,-3.950432837E-1,9.777919769E0
9.820920730E-1,-1.070208192E0,-4.046200812E-1,9.777919769E0
9.840757660E-1,-1.070208192E0,-3.998316824E-1,9.777919769E0
9.860893040E-1,-1.094150186E0,-3.998316824E-1,9.777919769E0
9.880733040E-1,-1.103726983E0,-3.974374831E-1,9.785101891E0
9.900871510E-1,-1.113303781E0,-3.734954596E-1,9.785101891E0
9.920707660E-1,-1.132457376E0,-3.830722570E-1,9.792284966E0
9.940849210E-1,-1.137245774E0,-3.639186621E-1,9.801861763E0
9.960680750E-1,-1.142034173E0,-3.447650373E-1,9.801861763E0
9.980822280E-1,-1.122880578E0,-3.280056417E-1,9.789890289E0
1.000065613E0,-1.127668977E0,-3.375824392E-1,9.785101891E0
1.002080306E0,-1.125274777E0,-3.495534360E-1,9.770736694E0
1.004063383E0,-1.113303781E0,-3.495534360E-1,9.749189377E0
1.006077537E0,-1.108515382E0,-3.591302633E-1,9.739612579E0
1.008093537E0,-1.110909581E0,-3.974374831E-1,9.732429504E0
1.010076306E0,-1.098938584E0,-3.974374831E-1,9.722852707E0
1.012090154E0,-1.106121182E0,-3.974374831E-1,9.722852707E0
1.014073307E0,-1.077390790E0,-4.189853072E-1,9.706093788E0
1.016088000E0,-1.046266198E0,-4.381389022E-1,9.694122314E0
1.018071461E0,-1.024718285E0,-4.572925270E-1,9.703699112E0
1.020085232E0,-1.000776291E0,-4.812345505E-1,9.713275909E0
1.022069308E0,-9.911994934E-1,-5.075707436E-1,9.713275909E0
1.024083385E0,-9.600749016E-1,-5.386953950E-1,9.734824181E0
1.026067770E0,-9.528923035E-1,-5.698199868E-1,9.770736694E0
1.028083078E0,-9.504981041E-1,-5.793967843E-1,9.797073364E0
1.030065617E0,-9.385270476E-1,-5.889736414E-1,9.852140427E0
1.032079079E0,-9.313444495E-1,-5.985504389E-1,9.909601212E0
1.034093309E0,-9.337386489E-1,-6.129156351E-1,9.935936928E0
1.036077309E0,-9.385270476E-1,-6.105214357E-1,9.969455719E0
1.038091772E0,-9.528923035E-1,-5.722141862E-1,9.976638794E0
1.040074234E0,-9.504981041E-1,-5.434837937E-1,9.986215591E0
1.042089618E0,-9.576807022E-1,-4.788403511E-1,9.976638794E0
1.044071772E0,-9.720458984E-1,-4.333505034E-1,9.938331604E0
1.046086849E0,-9.864110947E-1,-4.046200812E-1,9.916783333E0
1.048072388E0,-1.017535686E0,-3.543418646E-1,9.895236015E0
1.050084004E0,-1.022324085E0,-3.184288144E-1,9.873687744E0
1.052068312E0,-1.046266198E0,-2.944868207E-1,9.842563629E0
1.054082465E0,-1.053448796E0,-2.609679997E-1,9.813833237E0
1.056066159E0,-1.055842996E0,-2.489969730E-1,9.792284966E0
1.058080389E0,-1.039083481E0,-2.394201756E-1,9.756371498E0
1.060063697E0,-1.034295082E0,-2.466027737E-1,9.732429504E0
1.062077620E0,-1.029506683E0,-2.585737705E-1,9.715670586E0
1.064092697E0,-1.012747288E0,-2.681505978E-1,9.686940193E0
1.066075698E0,-9.864110947E-1,-3.136404157E-1,9.672574997E0
1.068089929E0,-9.600749016E-1,-3.423708379E-1,9.662998199E0
1.070074160E0,-9.145850539E-1,-3.854664862E-1,9.646238327E0
1.072087390E0,-8.714894056E-1,-4.333505034E-1,9.667786598E0
1.074071391E0,-8.571242094E-1,-4.692635238E-1,9.670180321E0
1.076085930E0,-8.307880163E-1,-5.003881454E-1,9.679757118E0
1.078069315E0,-7.781155705E-1,-5.195417404E-1,9.708487511E0
1.080083776E0,-7.637503147E-1,-5.219359994E-1,9.722852707E0
1.082067776E0,-7.422025204E-1,-5.243301988E-1,9.746794701E0
1.084080085E0,-7.350199223E-1,-5.386953950E-1,9.763554573E0
1.086064316E0,-7.326257229E-1,-5.506663918E-1,9.811438560E0
1.088079777E0,-7.230489254E-1,-5.386953950E-1,9.830592155E0
1.090093008E0,-7.086837292E-1,-5.291185975E-1,9.840168953E0
1.092076086E0,-7.302315235E-1,-5.267243981E-1,9.871294022E0
1.094091086E0,-7.613561153E-1,-5.243301988E-1,9.876082420E0
1.096074547E0,-7.781155705E-1,-5.171475410E-1,9.876082420E0
1.098089317E0,-8.068459630E-1,-5.123591423E-1,9.895236015E0
1.100072086E0,-8.547300100E-1,-5.123591423E-1,9.895236015E0
1.102087087E0,-8.714894056E-1,-5.003881454E-1,9.895236015E0
1.104070779E0,-9.193734527E-1,-4.692635238E-1,9.909601212E0
1.106084702E0,-9.313444495E-1,-4.525041282E-1,9.902418137E0
1.108069241E0,-9.409212470E-1,-4.285621047E-1,9.892841339E0
1.110081626E0,-9.696516991E-1,-4.285621047E-1,9.895236015E0
1.112065319E0,-9.744400978E-1,-4.333505034E-1,9.873687744E0
1.114080011E0,-9.768342972E-1,-4.237737060E-1,9.885659218E0
1.116063473E0,-9.696516991E-1,-4.501099288E-1,9.873687744E0
1.118077626E0,-9.816226959E-1,-4.596867263E-1,9.864110947E0
1.120091397E0,-9.792284966E-1,-4.596867263E-1,9.847352028E0
1.122076012E0,-9.696516991E-1,-4.405331016E-1,9.828198433E0
1.124089550E0,-9.696516991E-1,-4.405331016E-1,9.818621635E0
1.126073858E0,-9.624691010E-1,-4.548983276E-1,9.801861763E0
1.128088398E0,-9.409212470E-1,-4.453215301E-1,9.787496567E0
1.130070475E0,-9.361328483E-1,-4.453215301E-1,9.787496567E0
1.132085321E0,-9.193734527E-1,-4.357447028E-1,9.773131371E0
1.134069551E0,-8.978256583E-1,-4.333505034E-1,9.751583099E0
1.136082859E0,-8.882488012E-1,-4.213795066E-1,9.746794701E0
1.138066860E0,-8.810662031E-1,-4.213795066E-1,9.710882187E0
1.140080706E0,-8.786720037E-1,-4.261679053E-1,9.708487511E0
1.142065014E0,-8.834604025E-1,-4.333505034E-1,9.701305389E0
1.144079783E0,-8.786720037E-1,-4.429273009E-1,9.696516991E0
1.146092707E0,-8.810662031E-1,-4.644751251E-1,9.706093788E0
1.148077554E0,-8.978256583E-1,-4.692635238E-1,9.706093788E0
1.150091400E0,-9.265560508E-1,-4.740519226E-1,9.725247383E0
1.152073938E0,-9.433154464E-1,-4.740519226E-1,9.734824181E0
1.154088707E0,-9.433154464E-1,-4.644751251E-1,9.739612579E0
1.156072093E0,-9.409212470E-1,-4.812345505E-1,9.746794701E0
1.158086170E0,-9.576807022E-1,-4.812345505E-1,9.753977776E0
1.160070247E0,-9.768342972E-1,-4.596867263E-1,9.746794701E0
1.162085016E0,-9.864110947E-1,-4.333505034E-1,9.744400978E0
1.164067094E0,-9.935936928E-1,-4.405331016E-1,9.746794701E0
1.166080709E0,-1.000776291E0,-4.333505034E-1,9.753977776E0
1.168066556E0,-9.983820915E-1,-4.213795066E-1,9.758766174E0
1.170079709E0,-9.911994934E-1,-4.070142806E-1,9.763554573E0
1.172093940E0,-1.000776291E0,-4.070142806E-1,9.763554573E0
1.174077249E0,-1.003170490E0,-3.878606856E-1,9.768342972E0
1.176091787E0,-1.005564690E0,-3.758896589E-1,9.768342972E0
1.178074557E0,-1.015141487E0,-3.758896589E-1,9.756371498E0
1.180089018E0,-1.017535686E0,-3.495534360E-1,9.744400978E0
1.182073250E0,-1.024718285E0,-3.495534360E-1,9.744400978E0
1.184088096E0,-1.036689281E0,-3.591302633E-1,9.753977776E0
1.186070865E0,-1.029506683E0,-3.567360640E-1,9.756371498E0
1.188085635E0,-1.031900883E0,-3.734954596E-1,9.758766174E0
1.190068942E0,-1.043871999E0,-3.878606856E-1,9.768342972E0
1.192082559E0,-1.051054597E0,-3.782838583E-1,9.770736694E0
1.194066866E0,-1.036689281E0,-3.734954596E-1,9.770736694E0
1.196080328E0,-1.043871999E0,-3.974374831E-1,9.768342972E0
1.198065020E0,-1.034295082E0,-4.046200812E-1,9.770736694E0
1.200078483E0,-1.039083481E0,-3.974374831E-1,9.787496567E0
1.202092944E0,-1.043871999E0,-4.070142806E-1,9.799467087E0
1.204075713E0,-1.039083481E0,-4.118026793E-1,9.804255486E0
1.206089944E0,-1.060631394E0,-4.261679053E-1,9.830592155E0
1.208072406E0,-1.060631394E0,-4.261679053E-1,9.830592155E0
1.210087715E0,-1.051054597E0,-4.381389022E-1,9.835380554E0
1.212072022E0,-1.063025594E0,-4.453215301E-1,9.840168953E0
1.214085868E0,-1.065419793E0,-4.501099288E-1,9.840168953E0
1.216069022E0,-1.074996591E0,-4.644751251E-1,9.864110947E0
1.218083792E0,-1.086967587E0,-4.644751251E-1,9.871294022E0
1.220067408E0,-1.079784989E0,-4.620809257E-1,9.866505623E0
1.222081946E0,-1.074996591E0,-4.501099288E-1,9.864110947E0
1.224066254E0,-1.058237195E0,-4.501099288E-1,9.861717224E0
1.226079408E0,-1.060631394E0,-4.572925270E-1,9.861717224E0
1.228094178E0,-1.067813993E0,-4.572925270E-1,9.852140427E0
1.230077870E0,-1.048660398E0,-4.548983276E-1,9.861717224E0
1.232091409E0,-1.039083481E0,-4.429273009E-1,9.864110947E0
1.234075409E0,-1.055842996E0,-4.477157295E-1,9.842563629E0
1.236089564E0,-1.053448796E0,-4.525041282E-1,9.830592155E0
1.238073025E0,-1.065419793E0,-4.572925270E-1,9.832986832E0
1.240087487E0,-1.070208192E0,-4.548983276E-1,9.840168953E0
1.242071102E0,-1.077390790E0,-4.429273009E-1,9.844957352E0
1.244084641E0,-1.063025594E0,-4.453215301E-1,9.842563629E0
1.246068411E0,-1.065419793E0,-4.381389022E-1,9.811438560E0
1.248083103E0,-1.074996591E0,-4.429273009E-1,9.799467087E0
1.250066565E0,-1.082179189E0,-4.357447028E-1,9.799467087E0
1.252080949E0,-1.086967587E0,-4.357447028E-1,9.801861763E0
1.254064027E0,-1.089361787E0,-4.381389022E-1,9.801861763E0
1.256077643E0,-1.113303781E0,-4.357447028E-1,9.794678688E0
1.258092335E0,-1.113303781E0,-4.261679053E-1,9.777919769E0
1.260076027E0,-1.113303781E0,-4.213795066E-1,9.780313492E0
1.262089643E0,-1.125274777E0,-4.118026793E-1,9.763554573E0
1.264074490E0,-1.122880578E0,-4.237737060E-1,9.749189377E0
1.266088336E0,-1.120486379E0,-4.189853072E-1,9.739612579E0
1.268072721E0,-1.134851575E0,-3.998316824E-1,9.739612579E0
1.270085874E0,-1.130063176E0,-3.902548850E-1,9.739612579E0
1.272069875E0,-1.132457376E0,-3.974374831E-1,9.742006302E0
1.274083414E0,-1.156399369E0,-3.926490843E-1,9.742006302E0
1.276066799E0,-1.151610970E0,-3.974374831E-1,9.727641106E0
1.278081337E0,-1.151610970E0,-3.998316824E-1,9.727641106E0
1.280064645E0,-1.137245774E0,-4.046200812E-1,9.718064308E0
1.282079723E0,-1.132457376E0,-3.974374831E-1,9.718064308E0
1.284093338E0,-1.149216771E0,-3.950432837E-1,9.725247383E0
1.286077569E0,-1.151610970E0,-4.070142806E-1,9.744400978E0
1.288092107E0,-1.139639974E0,-4.213795066E-1,9.746794701E0
1.290074801E0,-1.154005170E0,-4.189853072E-1,9.751583099E0
1.292088724E0,-1.156399369E0,-4.118026793E-1,9.761159897E0
1.294072416E0,-1.156399369E0,-3.998316824E-1,9.763554573E0
1.296086570E0,-1.142034173E0,-4.022258818E-1,9.773131371E0
1.298070493E0,-1.151610970E0,-4.189853072E-1,9.775525093E0
1.300083802E0,-1.151610970E0,-4.261679053E-1,9.780313492E0
1.302069340E0,-1.137245774E0,-4.357447028E-1,9.782708168E0
1.304083417E0,-1.134851575E0,-4.429273009E-1,9.789890289E0
1.306065955E0,-1.137245774E0,-4.453215301E-1,9.794678688E0
1.308081264E0,-1.142034173E0,-4.453215301E-1,9.792284966E0
1.310064418E0,-1.134851575E0,-4.501099288E-1,9.792284966E0
1.312077957E0,-1.137245774E0,-4.453215301E-1,9.818621635E0
1.314091803E0,-1.139639974E0,-4.381389022E-1,9.828198433E0
1.316075803E0,-1.144428372E0,-4.333505034E-1,9.818621635E0
1.318089573E0,-1.146822572E0,-4.213795066E-1,9.823410034E0
1.320073881E0,-1.144428372E0,-4.261679053E-1,9.825803757E0
1.322087419E0,-1.130063176E0,-4.381389022E-1,9.828198433E0
1.324070496E0,-1.122880578E0,-4.261679053E-1,9.842563629E0
1.326084651E0,-1.130063176E0,-4.381389022E-1,9.844957352E0
1.328070189E0,-1.122880578E0,-4.381389022E-1,9.844957352E0
1.330083420E0,-1.118092179E0,-4.357447028E-1,9.852140427E0
1.332067112E0,-1.122880578E0,-4.333505034E-1,9.837775230E0
1.334081266E0,-1.130063176E0,-4.381389022E-1,9.840168953E0
1.336064344E0,-1.125274777E0,-4.477157295E-1,9.849745750E0
1.338079190E0,-1.142034173E0,-4.285621047E-1,9.837775230E0
1.340092960E0,-1.142034173E0,-4.237737060E-1,9.830592155E0
1.342076421E0,-1.144428372E0,-4.189853072E-1,9.821015358E0
1.344092038E0,-1.146822572E0,-4.285621047E-1,9.823410034E0
1.346073884E0,-1.134851575E0,-4.237737060E-1,9.821015358E0
1.348088961E0,-1.120486379E0,-4.261679053E-1,9.813833237E0
1.350072345E0,-1.118092179E0,-4.189853072E-1,9.806650162E0
1.352086576E0,-1.122880578E0,-4.046200812E-1,9.794678688E0
1.354070500E0,-1.113303781E0,-3.998316824E-1,9.797073364E0
1.356084346E0,-1.108515382E0,-3.974374831E-1,9.799467087E0
1.358067192E0,-1.103726983E0,-3.902548850E-1,9.794678688E0
1.360082577E0,-1.118092179E0,-3.950432837E-1,9.804255486E0
1.362066501E0,-1.115697980E0,-3.950432837E-1,9.799467087E0
1.364079193E0,-1.108515382E0,-4.046200812E-1,9.775525093E0
1.366095193E0,-1.098938584E0,-3.950432837E-1,9.768342972E0
1.368078501E0,-1.091755986E0,-3.902548850E-1,9.763554573E0
1.370091732E0,-1.098938584E0,-3.950432837E-1,9.746794701E0
1.372075733E0,-1.091755986E0,-3.950432837E-1,9.753977776E0
1.374088733E0,-1.094150186E0,-3.902548850E-1,9.746794701E0
1.376073271E0,-1.096544385E0,-3.902548850E-1,9.730035782E0
1.378087502E0,-1.091755986E0,-3.854664862E-1,9.730035782E0
1.380070888E0,-1.101332784E0,-3.902548850E-1,9.739612579E0
1.382085657E0,-1.106121182E0,-4.070142806E-1,9.742006302E0
1.384069042E0,-1.101332784E0,-4.261679053E-1,9.739612579E0
1.386083119E0,-1.098938584E0,-4.357447028E-1,9.737217903E0
1.388067503E0,-1.113303781E0,-4.285621047E-1,9.727641106E0
1.390080966E0,-1.108515382E0,-4.309563041E-1,9.725247383E0
1.392064350E0,-1.110909581E0,-4.189853072E-1,9.746794701E0
1.394078196E0,-1.108515382E0,-4.189853072E-1,9.737217903E0
1.396092966E0,-1.108515382E0,-4.189853072E-1,9.742006302E0
1.398076736E0,-1.098938584E0,-4.405331016E-1,9.751583099E0
1.400091121E0,-1.106121182E0,-4.381389022E-1,9.749189377E0
1.402074582E0,-1.110909581E0,-4.285621047E-1,9.749189377E0
1.404085890E0,-1.108515382E0,-4.309563041E-1,9.756371498E0
1.406071198E0,-1.101332784E0,-4.477157295E-1,9.751583099E0
1.408088122E0,-1.101332784E0,-4.525041282E-1,9.758766174E0
1.410070506E0,-1.103726983E0,-4.501099288E-1,9.761159897E0
1.412084737E0,-1.103726983E0,-4.525041282E-1,9.761159897E0
1.414067737E0,-1.079784989E0,-4.501099288E-1,9.768342972E0
1.416081353E0,-1.098938584E0,-4.596867263E-1,9.770736694E0
1.418065969E0,-1.106121182E0,-4.525041282E-1,9.765948296E0
1.420079430E0,-1.106121182E0,-4.596867263E-1,9.773131371E0
1.422093969E0,-1.106121182E0,-4.405331016E-1,9.782708168E0
1.424078276E0,-1.108515382E0,-4.285621047E-1,9.782708168E0
1.426092124E0,-1.106121182E0,-4.501099288E-1,9.770736694E0
1.428076047E0,-1.106121182E0,-4.548983276E-1,9.780313492E0
1.430089585E0,-1.103726983E0,-4.453215301E-1,9.792284966E0
1.432072431E0,-1.084573388E0,-4.477157295E-1,9.799467087E0
1.434086894E0,-1.072602391E0,-4.644751251E-1,9.799467087E0
1.436070817E0,-1.065419793E0,-4.596867263E-1,9.804255486E0
1.438084740E0,-1.074996591E0,-4.333505034E-1,9.813833237E0
1.440068740E0,-1.072602391E0,-4.668693244E-1,9.816226959E0
1.442082817E0,-1.053448796E0,-4.692635238E-1,9.813833237E0
1.444065587E0,-1.036689281E0,-4.716577232E-1,9.811438560E0
1.446080126E0,-1.022324085E0,-4.692635238E-1,9.856928825E0
1.448062587E0,-1.022324085E0,-4.692635238E-1,9.856928825E0
1.450078280E0,-1.019929886E0,-4.668693244E-1,9.859322548E0
1.452092434E0,-1.022324085E0,-4.740519226E-1,9.847352028E0
1.454076127E0,-1.041477680E0,-4.644751251E-1,9.847352028E0
1.456090204E0,-1.043871999E0,-4.668693244E-1,9.859322548E0
1.458073896E0,-1.036689281E0,-4.620809257E-1,9.849745750E0
1.460088050E0,-1.022324085E0,-4.501099288E-1,9.847352028E0
1.462071820E0,-1.041477680E0,-4.453215301E-1,9.852140427E0
1.464087128E0,-1.041477680E0,-4.525041282E-1,9.859322548E0
1.466069666E0,-1.034295082E0,-4.501099288E-1,9.861717224E0
1.468085589E0,-1.036689281E0,-4.285621047E-1,9.847352028E0
1.470067436E0,-1.041477680E0,-4.118026793E-1,9.837775230E0
1.472082283E0,-1.046266198E0,-4.022258818E-1,9.818621635E0
1.474064975E0,-1.060631394E0,-3.902548850E-1,9.813833237E0
1.476079744E0,-1.043871999E0,-3.758896589E-1,9.804255486E0
1.478093283E0,-1.067813993E0,-3.495534360E-1,9.785101891E0
1.480077284E0,-1.079784989E0,-3.495534360E-1,9.780313492E0
1.482091514E0,-1.086967587E0,-3.567360640E-1,9.768342972E0
1.484074207E0,-1.108515382E0,-3.543418646E-1,9.765948296E0
1.486088053E0,-1.108515382E0,-3.495534360E-1,9.756371498E0
1.488073362E0,-1.110909581E0,-3.351882398E-1,9.734824181E0
1.490086515E0,-1.132457376E0,-3.208230138E-1,9.713275909E0
1.492070208E0,-1.122880578E0,-3.184288144E-1,9.710882187E0
1.494085054E0,-1.127668977E0,-3.447650373E-1,9.701305389E0
1.496068362E0,-1.134851575E0,-3.399766386E-1,9.696516991E0
1.498082824E0,-1.137245774E0,-3.399766386E-1,9.689333916E0
1.500066286E0,-1.130063176E0,-3.567360640E-1,9.694122314E0
1.502080670E0,-1.122880578E0,-3.782838583E-1,9.694122314E0
1.504064440E0,-1.115697980E0,-3.926490843E-1,9.691728592E0
1.506078517E0,-1.122880578E0,-4.094084799E-1,9.684545517E0
1.508093287E0,-1.113303781E0,-4.261679053E-1,9.684545517E0
1.510076364E0,-1.086967587E0,-4.429273009E-1,9.691728592E0
1.512090210E0,-1.074996591E0,-4.620809257E-1,9.708487511E0
1.514073671E0,-1.072602391E0,-4.572925270E-1,9.706093788E0
1.516088365E0,-1.074996591E0,-4.596867263E-1,9.713275909E0
1.518071749E0,-1.060631394E0,-4.668693244E-1,9.727641106E0
1.520086288E0,-1.063025594E0,-4.740519226E-1,9.734824181E0
1.522069595E0,-1.055842996E0,-4.740519226E-1,9.739612579E0
1.524082519E0,-1.058237195E0,-4.740519226E-1,9.765948296E0
1.526068058E0,-1.053448796E0,-4.740519226E-1,9.780313492E0
1.528083135E0,-1.043871999E0,-4.860229492E-1,9.801861763E0
1.530064366E0,-1.053448796E0,-4.788403511E-1,9.806650162E0
1.532079135E0,-1.058237195E0,-4.812345505E-1,9.809044838E0
1.534093059E0,-1.060631394E0,-4.788403511E-1,9.823410034E0
1.536077674E0,-1.067813993E0,-4.692635238E-1,9.842563629E0
1.538091444E0,-1.067813993E0,-4.668693244E-1,9.849745750E0
1.540074521E0,-1.096544385E0,-4.716577232E-1,9.878476143E0
1.542089598E0,-1.094150186E0,-4.668693244E-1,9.880870819E0
1.544073598E0,-1.089361787E0,-4.860229492E-1,9.876082420E0
1.546087137E0,-1.096544385E0,-4.668693244E-1,9.885659218E0
1.548071137E0,-1.106121182E0,-4.668693244E-1,9.895236015E0
1.550084752E0,-1.122880578E0,-4.525041282E-1,9.892841339E0
1.552068369E0,-1.139639974E0,-4.572925270E-1,9.888052940E0
1.554082523E0,-1.142034173E0,-4.572925270E-1,9.892841339E0
1.556066599E0,-1.163581967E0,-4.501099288E-1,9.885659218E0
1.558080061E0,-1.170764685E0,-4.285621047E-1,9.888052940E0
1.560094216E0,-1.161187768E0,-4.237737060E-1,9.880870819E0
1.562078293E0,-1.170764685E0,-4.309563041E-1,9.859322548E0
1.564088370E0,-1.204283476E0,-4.333505034E-1,9.856928825E0
1.566075216E0,-1.206677675E0,-4.261679053E-1,9.849745750E0
1.568090601E0,-1.206677675E0,-4.237737060E-1,9.837775230E0
1.570073678E0,-1.221042871E0,-4.213795066E-1,9.821015358E0
1.572088063E0,-1.230619669E0,-4.141969085E-1,9.811438560E0
1.574071448E0,-1.216254473E0,-4.213795066E-1,9.794678688E0
1.576085294E0,-1.211466074E0,-4.165911078E-1,9.782708168E0
1.578068987E0,-1.223437071E0,-4.189853072E-1,9.758766174E0
1.580083756E0,-1.194706678E0,-4.118026793E-1,9.758766174E0
1.582067756E0,-1.199495077E0,-4.046200812E-1,9.753977776E0
1.584082295E0,-1.201889277E0,-4.022258818E-1,9.737217903E0
1.586064756E0,-1.189918280E0,-4.046200812E-1,9.706093788E0
1.588080142E0,-1.177947283E0,-4.046200812E-1,9.703699112E0
1.590093680E0,-1.156399369E0,-4.165911078E-1,9.696516991E0
1.592076373E0,-1.130063176E0,-4.165911078E-1,9.679757118E0
1.594090527E0,-1.122880578E0,-4.118026793E-1,9.682151794E0
1.596073912E0,-1.118092179E0,-4.165911078E-1,9.667786598E0
1.598088682E0,-1.113303781E0,-4.189853072E-1,9.672574997E0
1.600071835E0,-1.108515382E0,-4.046200812E-1,9.682151794E0
1.602086912E0,-1.084573388E0,-4.022258818E-1,9.667786598E0
1.604069989E0,-1.065419793E0,-4.141969085E-1,9.662998199E0
1.606085067E0,-1.048660398E0,-4.046200812E-1,9.674968719E0
1.608069067E0,-1.036689281E0,-4.070142806E-1,9.694122314E0
1.610081990E0,-1.039083481E0,-4.213795066E-1,9.710882187E0
1.612065913E0,-1.036689281E0,-4.046200812E-1,9.718064308E0
1.614080068E0,-1.012747288E0,-4.213795066E-1,9.722852707E0
1.616094530E0,-1.012747288E0,-4.309563041E-1,9.722852707E0
1.618077607E0,-1.017535686E0,-4.309563041E-1,9.742006302E0
1.620091530E0,-1.005564690E0,-4.309563041E-1,9.737217903E0
1.622075530E0,-1.003170490E0,-4.285621047E-1,9.744400978E0
1.624089608E0,-1.012747288E0,-4.501099288E-1,9.768342972E0
1.626073915E0,-1.007958889E0,-4.596867263E-1,9.780313492E0
1.628087761E0,-1.003170490E0,-4.525041282E-1,9.792284966E0
1.630071531E0,-1.022324085E0,-4.644751251E-1,9.816226959E0
1.632085916E0,-1.039083481E0,-4.501099288E-1,9.844957352E0
1.634068993E0,-1.034295082E0,-4.453215301E-1,9.861717224E0
1.636082301E0,-1.027112484E0,-4.596867263E-1,9.878476143E0
1.638067147E0,-1.027112484E0,-4.644751251E-1,9.892841339E0
1.640081378E0,-1.041477680E0,-4.644751251E-1,9.900024414E0
1.642064994E0,-1.039083481E0,-4.572925270E-1,9.890447617E0
1.644077994E0,-1.048660398E0,-4.501099288E-1,9.895236015E0
1.646092687E0,-1.067813993E0,-4.477157295E-1,9.911994934E0
1.648077610E0,-1.070208192E0,-4.477157295E-1,9.897629738E0
1.650091226E0,-1.074996591E0,-4.501099288E-1,9.892841339E0
1.652074841E0,-1.096544385E0,-4.285621047E-1,9.883264542E0
1.654088688E0,-1.094150186E0,-4.189853072E-1,9.888052940E0
1.656072072E0,-1.091755986E0,-4.285621047E-1,9.885659218E0
1.658085918E0,-1.096544385E0,-4.381389022E-1,9.885659218E0
1.660070227E0,-1.091755986E0,-4.237737060E-1,9.868899345E0
1.662083843E0,-1.098938584E0,-4.213795066E-1,9.864110947E0
1.664069304E0,-1.101332784E0,-4.333505034E-1,9.868899345E0
1.666081381E0,-1.098938584E0,-4.381389022E-1,9.878476143E0
1.668066536E0,-1.098938584E0,-4.405331016E-1,9.873687744E0
1.670079844E0,-1.098938584E0,-4.189853072E-1,9.852140427E0
1.672093690E0,-1.094150186E0,-4.213795066E-1,9.852140427E0
1.674077382E0,-1.091755986E0,-4.453215301E-1,9.852140427E0
1.676091844E0,-1.074996591E0,-4.309563041E-1,9.842563629E0
1.678074614E0,-1.063025594E0,-4.381389022E-1,9.840168953E0
1.680089998E0,-1.067813993E0,-4.381389022E-1,9.813833237E0
1.682072460E0,-1.043871999E0,-4.333505034E-1,9.794678688E0
1.684087229E0,-1.036689281E0,-4.405331016E-1,9.787496567E0
1.686070538E0,-1.036689281E0,-4.405331016E-1,9.730035782E0
1.688083769E0,-1.029506683E0,-4.261679053E-1,9.718064308E0
1.690069692E0,-1.029506683E0,-4.261679053E-1,9.718064308E0
1.692083153E0,-1.027112484E0,-4.189853072E-1,9.703699112E0
1.694066846E0,-1.024718285E0,-4.022258818E-1,9.701305389E0
1.696080693E0,-1.015141487E0,-4.022258818E-1,9.698910713E0
1.698064077E0,-9.816226959E-1,-4.022258818E-1,9.694122314E0
1.700078000E0,-9.768342972E-1,-4.189853072E-1,9.691728592E0
1.702093000E0,-9.696516991E-1,-4.141969085E-1,9.696516991E0
1.704077001E0,-9.624691010E-1,-3.974374831E-1,9.706093788E0
1.706090309E0,-9.600749016E-1,-4.070142806E-1,9.706093788E0
1.708074925E0,-9.409212470E-1,-4.213795066E-1,9.725247383E0
1.710088463E0,-9.457096457E-1,-4.094084799E-1,9.720458984E0
1.712072078E0,-9.552865028E-1,-4.141969085E-1,9.722852707E0
1.714086002E0,-9.361328483E-1,-4.022258818E-1,9.713275909E0
1.716069310E0,-9.528923035E-1,-4.070142806E-1,9.725247383E0
1.718083156E0,-9.481038451E-1,-4.070142806E-1,9.734824181E0
1.720067464E0,-9.504981041E-1,-3.902548850E-1,9.732429504E0
1.722082234E0,-9.720458984E-1,-3.950432837E-1,9.727641106E0
1.724064696E0,-9.720458984E-1,-3.974374831E-1,9.720458984E0
1.726079157E0,-9.696516991E-1,-3.926490843E-1,9.718064308E0
1.728094850E0,-9.911994934E-1,-3.926490843E-1,9.730035782E0
1.730077619E0,-9.935936928E-1,-3.902548850E-1,9.739612579E0
1.732091851E0,-1.015141487E0,-3.758896589E-1,9.770736694E0
1.734074928E0,-1.036689281E0,-3.902548850E-1,9.775525093E0
1.736088774E0,-1.041477680E0,-3.998316824E-1,9.780313492E0
1.738073312E0,-1.043871999E0,-4.165911078E-1,9.792284966E0
1.740087159E0,-1.041477680E0,-4.070142806E-1,9.809044838E0
1.742070621E0,-1.055842996E0,-4.141969085E-1,9.835380554E0
1.744085082E0,-1.058237195E0,-4.046200812E-1,9.856928825E0
1.746068698E0,-1.074996591E0,-4.165911078E-1,9.849745750E0
1.748083237E0,-1.089361787E0,-4.285621047E-1,9.849745750E0
1.750066622E0,-1.108515382E0,-4.501099288E-1,9.861717224E0
1.752080160E0,-1.106121182E0,-4.477157295E-1,9.861717224E0
1.754063853E0,-1.096544385E0,-4.381389022E-1,9.876082420E0
1.756078237E0,-1.096544385E0,-4.357447028E-1,9.885659218E0
1.758092700E0,-1.098938584E0,-4.357447028E-1,9.888052940E0
1.760076469E0,-1.094150186E0,-4.429273009E-1,9.880870819E0
1.762090854E0,-1.106121182E0,-4.525041282E-1,9.876082420E0
1.764073008E0,-1.110909581E0,-4.501099288E-1,9.873687744E0
1.766088086E0,-1.098938584E0,-4.429273009E-1,9.868899345E0
1.768072162E0,-1.101332784E0,-4.405331016E-1,9.866505623E0
1.770085701E0,-1.106121182E0,-4.357447028E-1,9.852140427E0
1.772069701E0,-1.091755986E0,-4.429273009E-1,9.847352028E0
1.774083239E0,-1.094150186E0,-4.405331016E-1,9.840168953E0
1.776067548E0,-1.108515382E0,-4.429273009E-1,9.842563629E0
1.778081010E0,-1.094150186E0,-4.453215301E-1,9.840168953E0
1.780065087E0,-1.084573388E0,-4.501099288E-1,9.832986832E0
1.782079471E0,-1.082179189E0,-4.381389022E-1,9.804255486E0
1.784094241E0,-1.074996591E0,-4.501099288E-1,9.787496567E0
1.786077626E0,-1.060631394E0,-4.501099288E-1,9.780313492E0
1.788091857E0,-1.043871999E0,-4.501099288E-1,9.780313492E0
1.790075241E0,-1.027112484E0,-4.333505034E-1,9.768342972E0
1.792089088E0,-1.019929886E0,-4.261679053E-1,9.761159897E0
1.794072396E0,-1.003170490E0,-4.118026793E-1,9.749189377E0
1.796086012E0,-1.003170490E0,-4.309563041E-1,9.744400978E0
1.798070935E0,-1.007958889E0,-4.237737060E-1,9.739612579E0
1.800084704E0,-9.935936928E-1,-4.309563041E-1,9.734824181E0
1.802068090E0,-9.696516991E-1,-4.309563041E-1,9.727641106E0
1.804081397E0,-9.624691010E-1,-4.141969085E-1,9.746794701E0
1.806066320E0,-9.648633003E-1,-4.165911078E-1,9.749189377E0
1.808081397E0,-9.576807022E-1,-4.070142806E-1,9.744400978E0
1.810063782E0,-9.672574997E-1,-4.094084799E-1,9.751583099E0
1.812078860E0,-9.528923035E-1,-4.237737060E-1,9.763554573E0
1.814092706E0,-9.481038451E-1,-4.141969085E-1,9.756371498E0
1.816075783E0,-9.552865028E-1,-4.309563041E-1,9.746794701E0
1.818090244E0,-9.696516991E-1,-4.309563041E-1,9.742006302E0
1.820073938E0,-9.720458984E-1,-4.309563041E-1,9.753977776E0
1.822088399E0,-9.911994934E-1,-4.189853072E-1,9.753977776E0
1.824072399E0,-9.792284966E-1,-4.141969085E-1,9.770736694E0
1.826085630E0,-9.816226959E-1,-4.094084799E-1,9.775525093E0
1.828070322E0,-9.935936928E-1,-3.998316824E-1,9.789890289E0
1.830084093E0,-1.000776291E0,-4.070142806E-1,9.785101891E0
1.832067477E0,-1.022324085E0,-4.046200812E-1,9.780313492E0
1.834081400E0,-1.029506683E0,-4.094084799E-1,9.797073364E0
1.836064400E0,-1.036689281E0,-4.118026793E-1,9.801861763E0
1.838078324E0,-1.043871999E0,-4.141969085E-1,9.823410034E0
1.840093940E0,-1.046266198E0,-4.189853072E-1,9.832986832E0
1.842076478E0,-1.046266198E0,-4.285621047E-1,9.832986832E0
1.844091171E0,-1.055842996E0,-4.357447028E-1,9.828198433E0
1.846075171E0,-1.060631394E0,-4.237737060E-1,9.840168953E0
1.848090556E0,-1.058237195E0,-4.285621047E-1,9.847352028E0
1.850072095E0,-1.065419793E0,-4.429273009E-1,9.847352028E0
1.852087172E0,-1.074996591E0,-4.453215301E-1,9.849745750E0
1.854070249E0,-1.070208192E0,-4.333505034E-1,9.844957352E0
1.856083865E0,-1.072602391E0,-4.261679053E-1,9.830592155E0
1.858068480E0,-1.084573388E0,-4.165911078E-1,9.828198433E0
1.860081711E0,-1.086967587E0,-4.165911078E-1,9.835380554E0
1.862065942E0,-1.070208192E0,-4.309563041E-1,9.837775230E0
1.864081019E0,-1.060631394E0,-4.429273009E-1,9.825803757E0
1.866063866E0,-1.070208192E0,-4.381389022E-1,9.828198433E0
1.868078328E0,-1.055842996E0,-4.453215301E-1,9.835380554E0
1.870091866E0,-1.053448796E0,-4.357447028E-1,9.821015358E0
1.872075558E0,-1.019929886E0,-4.405331016E-1,9.821015358E0
1.874089098E0,-1.019929886E0,-4.572925270E-1,9.804255486E0
1.876073405E0,-1.012747288E0,-4.596867263E-1,9.806650162E0
1.878087867E0,-1.000776291E0,-4.620809257E-1,9.794678688E0
1.880070944E0,-9.983820915E-1,-4.548983276E-1,9.777919769E0
1.882085713E0,-9.983820915E-1,-4.453215301E-1,9.780313492E0
1.884068406E0,-9.696516991E-1,-4.477157295E-1,9.785101891E0
1.886082253E0,-9.504981041E-1,-4.405331016E-1,9.770736694E0
1.888068176E0,-9.433154464E-1,-4.357447028E-1,9.768342972E0
1.890081099E0,-9.385270476E-1,-4.165911078E-1,9.758766174E0
1.892064715E0,-9.241618514E-1,-4.070142806E-1,9.746794701E0
1.894078946E0,-9.313444495E-1,-4.141969085E-1,9.739612579E0
1.896092484E0,-9.361328483E-1,-3.998316824E-1,9.734824181E0
1.898076715E0,-9.337386489E-1,-3.926490843E-1,9.737217903E0
1.900090869E0,-9.528923035E-1,-3.998316824E-1,9.739612579E0
1.902074947E0,-9.528923035E-1,-4.213795066E-1,9.739612579E0
1.904089332E0,-9.600749016E-1,-4.094084799E-1,9.742006302E0
1.906072485E0,-9.672574997E-1,-4.070142806E-1,9.742006302E0
1.908087562E0,-9.696516991E-1,-3.902548850E-1,9.746794701E0
1.910070333E0,-9.768342972E-1,-3.902548850E-1,9.749189377E0
1.912084410E0,-9.983820915E-1,-3.998316824E-1,9.744400978E0
1.914068179E0,-9.983820915E-1,-4.094084799E-1,9.744400978E0
1.916082025E0,-1.003170490E0,-4.046200812E-1,9.742006302E0
1.918065333E0,-1.005564690E0,-4.022258818E-1,9.749189377E0
1.920079488E0,-1.017535686E0,-4.118026793E-1,9.758766174E0
1.922094257E0,-1.017535686E0,-4.118026793E-1,9.758766174E0
1.924077103E0,-1.007958889E0,-4.070142806E-1,9.749189377E0
1.926091257E0,-1.027112484E0,-4.189853072E-1,9.775525093E0
1.928073642E0,-1.027112484E0,-4.189853072E-1,9.775525093E0
1.930088796E0,-1.022324085E0,-4.118026793E-1,9.770736694E0
1.932073335E0,-1.019929886E0,-4.070142806E-1,9.770736694E0
1.934087565E0,-1.015141487E0,-3.998316824E-1,9.782708168E0
1.936070642E0,-1.029506683E0,-4.118026793E-1,9.801861763E0
1.938085643E0,-1.034295082E0,-4.094084799E-1,9.811438560E0
1.940068490E0,-1.024718285E0,-4.261679053E-1,9.799467087E0
1.942083566E0,-1.041477680E0,-4.094084799E-1,9.797073364E0
1.944067797E0,-1.036689281E0,-4.094084799E-1,9.813833237E0
1.946080721E0,-1.029506683E0,-4.094084799E-1,9.828198433E0
1.948065337E0,-1.031900883E0,-4.165911078E-1,9.828198433E0
1.950079260E0,-1.036689281E0,-4.213795066E-1,9.828198433E0
1.952092414E0,-1.039083481E0,-4.165911078E-1,9.821015358E0
1.954076106E0,-1.036689281E0,-4.213795066E-1,9.813833237E0
1.956090030E0,-1.027112484E0,-4.285621047E-1,9.821015358E0
1.958074261E0,-1.019929886E0,-4.357447028E-1,9.830592155E0
1.960088107E0,-1.022324085E0,-4.501099288E-1,9.821015358E0
1.962072492E0,-1.007958889E0,-4.477157295E-1,9.816226959E0
1.964085416E0,-9.983820915E-1,-4.477157295E-1,9.816226959E0
1.966069954E0,-9.983820915E-1,-4.453215301E-1,9.816226959E0
1.968085339E0,-9.888052940E-1,-4.429273009E-1,9.823410034E0
1.970067262E0,-9.696516991E-1,-4.309563041E-1,9.806650162E0
1.972081723E0,-9.624691010E-1,-4.285621047E-1,9.797073364E0
1.974065417E0,-9.504981041E-1,-4.261679053E-1,9.797073364E0
1.976079801E0,-9.481038451E-1,-4.189853072E-1,9.794678688E0
1.978093417E0,-9.385270476E-1,-4.118026793E-1,9.787496567E0
1.980077109E0,-9.385270476E-1,-4.237737060E-1,9.773131371E0
1.982091572E0,-9.241618514E-1,-4.094084799E-1,9.770736694E0
1.984075572E0,-9.145850539E-1,-3.998316824E-1,9.765948296E0
1.986089725E0,-9.169792533E-1,-4.165911078E-1,9.763554573E0
1.988073649E0,-9.145850539E-1,-4.070142806E-1,9.768342972E0
1.990086956E0,-9.193734527E-1,-4.118026793E-1,9.768342972E0
1.992070880E0,-9.265560508E-1,-4.165911078E-1,9.770736694E0
1.994085342E0,-9.241618514E-1,-4.189853072E-1,9.775525093E0
1.996068111E0,-9.433154464E-1,-4.285621047E-1,9.773131371E0
1.998082650E0,-9.457096457E-1,-4.118026793E-1,9.780313492E0
2.000066035E0,-9.552865028E-1,-4.022258818E-1,9.780313492E0
2.002080189E0,-9.600749016E-1,-3.854664862E-1,9.770736694E0
2.004063189E0,-9.624691010E-1,-3.711012602E-1,9.773131371E0
2.006078958E0,-9.624691010E-1,-3.758896589E-1,9.768342972E0
2.008093727E0,-9.768342972E-1,-4.070142806E-1,9.749189377E0
2.010075267E0,-9.983820915E-1,-4.381389022E-1,9.739612579E0
2.012090652E0,-1.003170490E0,-4.525041282E-1,9.753977776E0
2.014073652E0,-1.015141487E0,-4.357447028E-1,9.785101891E0
2.016087882E0,-1.029506683E0,-4.381389022E-1,9.804255486E0
2.018071499E0,-1.034295082E0,-4.333505034E-1,9.813833237E0
2.020085960E0,-1.053448796E0,-4.357447028E-1,9.830592155E0
2.022069422E0,-1.055842996E0,-4.237737060E-1,9.825803757E0
2.024084806E0,-1.060631394E0,-4.261679053E-1,9.825803757E0
2.026067499E0,-1.055842996E0,-4.357447028E-1,9.823410034E0
2.028082654E0,-1.053448796E0,-4.118026793E-1,9.818621635E0
2.030065654E0,-1.055842996E0,-3.998316824E-1,9.804255486E0
2.032079269E0,-1.063025594E0,-3.950432837E-1,9.777919769E0
2.034093423E0,-1.055842996E0,-3.974374831E-1,9.773131371E0
2.036076808E0,-1.048660398E0,-3.950432837E-1,9.756371498E0
2.038091501E0,-1.063025594E0,-3.950432837E-1,9.751583099E0
2.040074962E0,-1.063025594E0,-3.950432837E-1,9.751583099E0
2.042089424E0,-1.065419793E0,-4.022258818E-1,9.758766174E0
2.044072116E0,-1.070208192E0,-4.094084799E-1,9.770736694E0
2.046086040E0,-1.070208192E0,-4.165911078E-1,9.773131371E0
2.048071809E0,-1.067813993E0,-4.141969085E-1,9.780313492E0
2.050084502E0,-1.036689281E0,-4.285621047E-1,9.789890289E0
2.052068502E0,-1.024718285E0,-4.141969085E-1,9.797073364E0
2.054082272E0,-1.027112484E0,-4.141969085E-1,9.811438560E0
2.056065734E0,-1.019929886E0,-4.141969085E-1,9.811438560E0
2.058080195E0,-1.024718285E0,-4.285621047E-1,9.813833237E0
2.060063811E0,-1.024718285E0,-4.141969085E-1,9.811438560E0
2.062078580E0,-1.015141487E0,-4.046200812E-1,9.801861763E0
2.064092812E0,-1.007958889E0,-4.094084799E-1,9.813833237E0
2.066076119E0,-1.007958889E0,-4.094084799E-1,9.809044838E0
2.068090965E0,-1.012747288E0,-4.070142806E-1,9.809044838E0
2.070073965E0,-1.000776291E0,-4.189853072E-1,9.811438560E0
2.072088197E0,-1.000776291E0,-4.141969085E-1,9.813833237E0
2.074071582E0,-9.911994934E-1,-4.094084799E-1,9.818621635E0
2.076086043E0,-9.983820915E-1,-4.189853072E-1,9.825803757E0
2.078068736E0,-9.816226959E-1,-4.094084799E-1,9.832986832E0
2.080083505E0,-9.720458984E-1,-4.094084799E-1,9.830592155E0
2.082067583E0,-9.840168953E-1,-4.118026793E-1,9.844957352E0
2.084080506E0,-9.864110947E-1,-4.141969085E-1,9.849745750E0
2.086065352E0,-9.935936928E-1,-4.118026793E-1,9.849745750E0
2.088081044E0,-9.768342972E-1,-4.141969085E-1,9.844957352E0
2.090062276E0,-9.648633003E-1,-4.046200812E-1,9.852140427E0
2.092076199E0,-9.504981041E-1,-4.022258818E-1,9.861717224E0
2.094090584E0,-9.624691010E-1,-4.118026793E-1,9.849745750E0
2.096074892E0,-9.552865028E-1,-4.094084799E-1,9.840168953E0
2.098089122E0,-9.576807022E-1,-4.213795066E-1,9.823410034E0
2.100072123E0,-9.600749016E-1,-4.237737060E-1,9.823410034E0
2.102086893E0,-9.528923035E-1,-4.237737060E-1,9.823410034E0
2.104070662E0,-9.361328483E-1,-4.261679053E-1,9.840168953E0
2.106085046E0,-9.576807022E-1,-4.261679053E-1,9.821015358E0
2.108068817E0,-9.696516991E-1,-4.213795066E-1,9.816226959E0
2.110083201E0,-9.600749016E-1,-4.261679053E-1,9.813833237E0
2.112065663E0,-9.624691010E-1,-4.357447028E-1,9.801861763E0
2.114080201E0,-9.648633003E-1,-4.357447028E-1,9.797073364E0
2.116063509E0,-9.672574997E-1,-4.333505034E-1,9.789890289E0
2.118078587E0,-9.792284966E-1,-4.237737060E-1,9.785101891E0
2.120091895E0,-9.888052940E-1,-4.213795066E-1,9.787496567E0
2.122076125E0,-9.959878922E-1,-4.141969085E-1,9.792284966E0
2.124086664E0,-9.911994934E-1,-4.046200812E-1,9.787496567E0
2.126073126E0,-9.864110947E-1,-3.974374831E-1,9.787496567E0
2.128088742E0,-9.720458984E-1,-4.046200812E-1,9.780313492E0
2.130071588E0,-9.552865028E-1,-4.046200812E-1,9.773131371E0
2.132085357E0,-9.552865028E-1,-4.165911078E-1,9.775525093E0
2.134069126E0,-9.528923035E-1,-4.189853072E-1,9.770736694E0
2.136083204E0,-9.528923035E-1,-4.165911078E-1,9.775525093E0
2.138067204E0,-9.457096457E-1,-4.213795066E-1,9.775525093E0
2.140081050E0,-9.552865028E-1,-4.165911078E-1,9.777919769E0
2.142064820E0,-9.576807022E-1,-4.141969085E-1,9.780313492E0
2.144079282E0,-9.504981041E-1,-4.094084799E-1,9.768342972E0
2.146092513E0,-9.385270476E-1,-4.141969085E-1,9.770736694E0
2.148077975E0,-9.265560508E-1,-4.141969085E-1,9.770736694E0
2.150090282E0,-9.409212470E-1,-4.094084799E-1,9.782708168E0
2.152074282E0,-9.433154464E-1,-4.118026793E-1,9.773131371E0
2.154088514E0,-9.481038451E-1,-4.237737060E-1,9.773131371E0
2.156071899E0,-9.457096457E-1,-4.165911078E-1,9.761159897E0
2.158086053E0,-9.337386489E-1,-4.094084799E-1,9.777919769E0
2.160069745E0,-9.193734527E-1,-4.141969085E-1,9.780313492E0
2.162083823E0,-9.552865028E-1,-4.141969085E-1,9.787496567E0
2.164067515E0,-9.576807022E-1,-4.118026793E-1,9.785101891E0
2.166082054E0,-9.696516991E-1,-3.902548850E-1,9.782708168E0
2.168064130E0,-9.696516991E-1,-3.902548850E-1,9.782708168E0
2.170079515E0,-9.792284966E-1,-3.974374831E-1,9.782708168E0
2.172093978E0,-9.696516991E-1,-4.070142806E-1,9.785101891E0
2.174078055E0,-9.840168953E-1,-4.094084799E-1,9.789890289E0
2.176091516E0,-9.840168953E-1,-4.094084799E-1,9.806650162E0
2.178074901E0,-9.768342972E-1,-3.998316824E-1,9.794678688E0
2.180089133E0,-9.935936928E-1,-4.070142806E-1,9.799467087E0
2.182073056E0,-9.959878922E-1,-4.213795066E-1,9.804255486E0
2.184088517E0,-9.959878922E-1,-4.453215301E-1,9.825803757E0
2.186071286E0,-1.012747288E0,-4.405331016E-1,9.835380554E0
2.188086902E0,-1.017535686E0,-4.381389022E-1,9.837775230E0
2.190069441E0,-1.005564690E0,-4.285621047E-1,9.828198433E0
2.192082364E0,-1.012747288E0,-4.237737060E-1,9.823410034E0
2.194066980E0,-1.027112484E0,-4.285621047E-1,9.811438560E0
2.196081057E0,-1.012747288E0,-4.094084799E-1,9.806650162E0
2.198064135E0,-1.010353088E0,-4.189853072E-1,9.804255486E0
2.200078673E0,-1.010353088E0,-4.070142806E-1,9.799467087E0
2.202092211E0,-1.003170490E0,-3.950432837E-1,9.792284966E0
2.204076135E0,-1.010353088E0,-4.022258818E-1,9.799467087E0
2.206090058E0,-1.012747288E0,-4.165911078E-1,9.804255486E0
2.208074289E0,-9.983820915E-1,-4.165911078E-1,9.777919769E0
2.210087828E0,-1.003170490E0,-4.261679053E-1,9.770736694E0
2.212071905E0,-1.019929886E0,-4.070142806E-1,9.768342972E0
2.214085674E0,-1.012747288E0,-4.046200812E-1,9.775525093E0
2.216069752E0,-1.007958889E0,-4.022258818E-1,9.775525093E0
2.218084137E0,-1.000776291E0,-4.189853072E-1,9.777919769E0
2.220068137E0,-1.000776291E0,-4.046200812E-1,9.777919769E0
2.222081675E0,-1.003170490E0,-4.022258818E-1,9.768342972E0
2.224066290E0,-9.983820915E-1,-3.830722570E-1,9.763554573E0
2.226079215E0,-9.935936928E-1,-3.854664862E-1,9.763554573E0
2.228094676E0,-1.003170490E0,-3.950432837E-1,9.780313492E0
2.230077368E0,-9.816226959E-1,-3.950432837E-1,9.768342972E0
2.232090984E0,-9.768342972E-1,-3.998316824E-1,9.756371498E0
2.234075216E0,-9.816226959E-1,-4.141969085E-1,9.751583099E0
2.236089139E0,-1.000776291E0,-3.998316824E-1,9.758766174E0
2.238072216E0,-9.983820915E-1,-4.046200812E-1,9.761159897E0
2.240086985E0,-9.935936928E-1,-4.046200812E-1,9.770736694E0
2.242070600E0,-9.840168953E-1,-3.806780577E-1,9.765948296E0
2.244084140E0,-9.840168953E-1,-3.758896589E-1,9.765948296E0
2.246069986E0,-9.816226959E-1,-3.950432837E-1,9.782708168E0
2.248084524E0,-9.935936928E-1,-3.902548850E-1,9.785101891E0
2.250066063E0,-9.959878922E-1,-3.782838583E-1,9.780313492E0
2.252081371E0,-9.840168953E-1,-3.830722570E-1,9.773131371E0
2.254064218E0,-9.935936928E-1,-3.902548850E-1,9.782708168E0
2.256078602E0,-9.959878922E-1,-3.878606856E-1,9.785101891E0
2.258092756E0,-9.959878922E-1,-3.926490843E-1,9.792284966E0
2.260075525E0,-9.983820915E-1,-3.854664862E-1,9.785101891E0
2.262090603E0,-9.840168953E-1,-3.974374831E-1,9.792284966E0
2.264074296E0,-9.744400978E-1,-3.974374831E-1,9.792284966E0
2.266087834E0,-9.672574997E-1,-3.998316824E-1,9.792284966E0
2.268072757E0,-9.888052940E-1,-4.022258818E-1,9.797073364E0
2.270085373E0,-9.959878922E-1,-4.022258818E-1,9.816226959E0
2.272069681E0,-9.935936928E-1,-3.998316824E-1,9.821015358E0
2.274084143E0,-9.864110947E-1,-3.782838583E-1,9.825803757E0
2.276066912E0,-9.935936928E-1,-3.926490843E-1,9.818621635E0
2.278081989E0,-9.888052940E-1,-3.902548850E-1,9.818621635E0
2.280065067E0,-9.816226959E-1,-3.878606856E-1,9.821015358E0
2.282079298E0,-9.792284966E-1,-4.046200812E-1,9.823410034E0
2.284090682E0,-9.864110947E-1,-4.046200812E-1,9.823410034E0
2.286076451E0,-9.840168953E-1,-3.974374831E-1,9.830592155E0
2.288091606E0,-9.864110947E-1,-3.902548850E-1,9.837775230E0
2.290074683E0,-1.000776291E0,-3.830722570E-1,9.835380554E0
2.292089068E0,-1.003170490E0,-3.878606856E-1,9.828198433E0
2.294072760E0,-9.935936928E-1,-3.854664862E-1,9.832986832E0
2.296087299E0,-9.864110947E-1,-3.998316824E-1,9.837775230E0
2.298070607E0,-1.012747288E0,-4.141969085E-1,9.830592155E0
2.300084761E0,-1.019929886E0,-4.070142806E-1,9.830592155E0
2.302068838E0,-9.983820915E-1,-4.046200812E-1,9.828198433E0
2.304083223E0,-1.007958889E0,-3.950432837E-1,9.835380554E0
2.306065993E0,-1.015141487E0,-4.046200812E-1,9.828198433E0
2.308081455E0,-1.017535686E0,-3.974374831E-1,9.813833237E0
2.310064839E0,-9.911994934E-1,-4.118026793E-1,9.821015358E0
2.312078301E0,-9.935936928E-1,-4.046200812E-1,9.818621635E0
2.314092455E0,-9.983820915E-1,-3.926490843E-1,9.809044838E0
2.316075609E0,-9.959878922E-1,-3.974374831E-1,9.801861763E0
2.318090302E0,-9.959878922E-1,-3.878606856E-1,9.809044838E0
2.320074071E0,-9.864110947E-1,-3.663128614E-1,9.816226959E0
2.322088148E0,-9.816226959E-1,-3.854664862E-1,9.811438560E0
2.324071226E0,-9.983820915E-1,-3.902548850E-1,9.801861763E0
2.326086610E0,-9.959878922E-1,-3.854664862E-1,9.801861763E0
2.328071226E0,-9.911994934E-1,-3.926490843E-1,9.789890289E0
2.330082687E0,-9.935936928E-1,-3.782838583E-1,9.789890289E0
2.332067610E0,-9.911994934E-1,-3.782838583E-1,9.775525093E0
2.334081996E0,-1.005564690E0,-3.782838583E-1,9.775525093E0
2.336064227E0,-1.005564690E0,-3.974374831E-1,9.775525093E0
2.338079304E0,-1.010353088E0,-4.118026793E-1,9.761159897E0
2.340093150E0,-1.010353088E0,-4.141969085E-1,9.753977776E0
2.342077459E0,-1.003170490E0,-4.094084799E-1,9.751583099E0
2.344091305E0,-9.959878922E-1,-4.118026793E-1,9.758766174E0
2.346074074E0,-1.000776291E0,-4.070142806E-1,9.758766174E0
2.348089074E0,-9.959878922E-1,-4.022258818E-1,9.765948296E0
2.350072151E0,-9.911994934E-1,-3.998316824E-1,9.768342972E0
2.352086613E0,-9.864110947E-1,-3.998316824E-1,9.775525093E0
2.354070306E0,-9.840168953E-1,-3.974374831E-1,9.777919769E0
2.356084844E0,-9.911994934E-1,-4.022258818E-1,9.773131371E0
2.358068460E0,-1.015141487E0,-4.141969085E-1,9.768342972E0
2.360082076E0,-1.003170490E0,-3.902548850E-1,9.777919769E0
2.362066922E0,-9.983820915E-1,-3.998316824E-1,9.782708168E0
2.364078076E0,-9.864110947E-1,-3.998316824E-1,9.775525093E0
2.366094691E0,-9.840168953E-1,-4.070142806E-1,9.773131371E0
2.368078691E0,-9.864110947E-1,-4.118026793E-1,9.782708168E0
2.370092846E0,-9.864110947E-1,-3.998316824E-1,9.789890289E0
2.372075923E0,-9.696516991E-1,-4.046200812E-1,9.797073364E0
2.374090000E0,-9.696516991E-1,-4.070142806E-1,9.794678688E0
2.376073077E0,-9.696516991E-1,-3.902548850E-1,9.804255486E0
2.378087001E0,-9.696516991E-1,-4.046200812E-1,9.799467087E0
2.380071309E0,-9.720458984E-1,-4.070142806E-1,9.804255486E0
2.382085463E0,-9.744400978E-1,-4.022258818E-1,9.804255486E0
2.384069386E0,-9.696516991E-1,-4.094084799E-1,9.813833237E0
2.386083001E0,-9.696516991E-1,-4.046200812E-1,9.809044838E0
2.388067002E0,-9.648633003E-1,-3.854664862E-1,9.801861763E0
2.390081694E0,-9.624691010E-1,-3.878606856E-1,9.809044838E0
2.392064771E0,-9.672574997E-1,-3.950432837E-1,9.811438560E0
2.394078694E0,-9.792284966E-1,-3.974374831E-1,9.818621635E0
2.396092772E0,-9.816226959E-1,-3.998316824E-1,9.816226959E0
2.398076542E0,-9.720458984E-1,-4.165911078E-1,9.809044838E0
2.400090388E0,-9.672574997E-1,-4.094084799E-1,9.811438560E0
2.402074695E0,-9.696516991E-1,-3.950432837E-1,9.813833237E0
2.404088542E0,-9.600749016E-1,-4.046200812E-1,9.809044838E0
2.406071543E0,-9.504981041E-1,-4.070142806E-1,9.816226959E0
2.408085081E0,-9.504981041E-1,-4.070142806E-1,9.816226959E0
2.410070004E0,-9.600749016E-1,-4.165911078E-1,9.818621635E0
2.412084466E0,-9.600749016E-1,-4.094084799E-1,9.823410034E0
2.414067621E0,-9.457096457E-1,-4.094084799E-1,9.821015358E0
2.416082082E0,-9.337386489E-1,-3.878606856E-1,9.806650162E0
2.418065390E0,-9.313444495E-1,-3.806780577E-1,9.813833237E0
2.420080159E0,-9.385270476E-1,-3.926490843E-1,9.816226959E0
2.422093774E0,-9.648633003E-1,-3.878606856E-1,9.830592155E0
2.424078083E0,-9.576807022E-1,-3.902548850E-1,9.832986832E0
2.426092852E0,-9.313444495E-1,-3.806780577E-1,9.811438560E0
2.428076545E0,-9.385270476E-1,-3.974374831E-1,9.806650162E0
2.430089699E0,-9.433154464E-1,-4.070142806E-1,9.813833237E0
2.432073392E0,-9.361328483E-1,-4.070142806E-1,9.811438560E0
2.434087007E0,-9.528923035E-1,-3.974374831E-1,9.799467087E0
2.436070392E0,-9.481038451E-1,-3.902548850E-1,9.801861763E0
2.438085084E0,-9.648633003E-1,-4.070142806E-1,9.804255486E0
2.440068238E0,-9.481038451E-1,-4.165911078E-1,9.794678688E0
2.442082931E0,-9.409212470E-1,-4.046200812E-1,9.797073364E0
2.444066008E0,-9.265560508E-1,-3.950432837E-1,9.794678688E0
2.446079931E0,-9.433154464E-1,-3.998316824E-1,9.792284966E0
2.448095854E0,-9.409212470E-1,-3.878606856E-1,9.787496567E0
2.450078702E0,-9.504981041E-1,-3.902548850E-1,9.794678688E0
2.452092240E0,-9.481038451E-1,-3.926490843E-1,9.801861763E0
2.454076240E0,-9.361328483E-1,-4.022258818E-1,9.804255486E0
2.456091009E0,-9.409212470E-1,-3.902548850E-1,9.809044838E0
2.458074317E0,-9.481038451E-1,-3.830722570E-1,9.801861763E0
2.460088241E0,-9.481038451E-1,-3.782838583E-1,9.787496567E0
2.462072241E0,-9.433154464E-1,-3.782838583E-1,9.785101891E0
2.464086626E0,-9.337386489E-1,-3.782838583E-1,9.773131371E0
2.466070318E0,-9.121908545E-1,-3.663128614E-1,9.777919769E0
2.468085088E0,-9.074024558E-1,-3.758896589E-1,9.775525093E0
2.470067627E0,-9.217676520E-1,-3.878606856E-1,9.773131371E0
2.472081165E0,-9.241618514E-1,-3.854664862E-1,9.787496567E0
2.474065396E0,-9.074024558E-1,-3.782838583E-1,9.780313492E0
2.476080165E0,-9.050082564E-1,-3.854664862E-1,9.782708168E0
2.478093782E0,-9.145850539E-1,-3.878606856E-1,9.787496567E0
2.480077397E0,-9.217676520E-1,-3.854664862E-1,9.785101891E0
2.482091628E0,-9.193734527E-1,-3.854664862E-1,9.782708168E0
2.484074705E0,-9.289502501E-1,-3.926490843E-1,9.785101891E0
2.486089706E0,-9.241618514E-1,-3.758896589E-1,9.782708168E0
2.488074013E0,-9.217676520E-1,-3.758896589E-1,9.797073364E0
2.490086398E0,-9.145850539E-1,-3.878606856E-1,9.801861763E0
2.492071013E0,-9.097966552E-1,-3.926490843E-1,9.804255486E0
2.494085706E0,-9.121908545E-1,-3.902548850E-1,9.804255486E0
2.496068553E0,-9.241618514E-1,-3.806780577E-1,9.797073364E0
2.498082707E0,-9.241618514E-1,-3.782838583E-1,9.787496567E0
2.500066322E0,-9.241618514E-1,-3.878606856E-1,9.799467087E0
2.502080861E0,-9.289502501E-1,-3.663128614E-1,9.799467087E0
2.504064862E0,-9.313444495E-1,-3.639186621E-1,9.811438560E0
2.506078708E0,-9.433154464E-1,-3.758896589E-1,9.804255486E0
2.508093400E0,-9.457096457E-1,-3.758896589E-1,9.799467087E0
2.510076785E0,-9.433154464E-1,-3.758896589E-1,9.809044838E0
2.512090708E0,-9.600749016E-1,-3.878606856E-1,9.818621635E0
2.514074016E0,-9.576807022E-1,-3.998316824E-1,9.818621635E0
2.516087555E0,-9.552865028E-1,-3.902548850E-1,9.811438560E0
2.518071863E0,-9.600749016E-1,-3.806780577E-1,9.813833237E0
2.520086940E0,-9.672574997E-1,-3.854664862E-1,9.825803757E0
2.522069171E0,-9.816226959E-1,-3.926490843E-1,9.821015358E0
2.524083017E0,-9.648633003E-1,-4.094084799E-1,9.811438560E0
2.526068479E0,-9.696516991E-1,-3.998316824E-1,9.809044838E0
2.528082633E0,-9.552865028E-1,-3.950432837E-1,9.818621635E0
2.530064556E0,-9.385270476E-1,-4.046200812E-1,9.813833237E0
2.532079942E0,-9.481038451E-1,-3.974374831E-1,9.806650162E0
2.534093480E0,-9.576807022E-1,-3.854664862E-1,9.818621635E0
2.536076557E0,-9.672574997E-1,-3.902548850E-1,9.811438560E0
2.538090711E0,-9.648633003E-1,-3.711012602E-1,9.811438560E0
2.540074712E0,-9.504981041E-1,-3.615244627E-1,9.794678688E0
2.542088789E0,-9.385270476E-1,-3.639186621E-1,9.787496567E0
2.544072866E0,-9.361328483E-1,-3.543418646E-1,9.789890289E0
2.546087020E0,-9.457096457E-1,-3.543418646E-1,9.787496567E0
2.548071866E0,-9.624691010E-1,-3.854664862E-1,9.787496567E0
2.550085790E0,-9.481038451E-1,-3.926490843E-1,9.792284966E0
2.552069174E0,-9.433154464E-1,-3.974374831E-1,9.797073364E0
2.554082713E0,-9.385270476E-1,-4.046200812E-1,9.799467087E0
2.556066097E0,-9.361328483E-1,-4.189853072E-1,9.804255486E0
2.558080175E0,-9.528923035E-1,-4.261679053E-1,9.806650162E0
2.560094945E0,-9.552865028E-1,-4.189853072E-1,9.801861763E0
2.562078098E0,-9.648633003E-1,-3.998316824E-1,9.794678688E0
2.564092252E0,-9.504981041E-1,-4.046200812E-1,9.789890289E0
2.566076483E0,-9.528923035E-1,-4.046200812E-1,9.792284966E0
2.568092253E0,-9.576807022E-1,-3.950432837E-1,9.789890289E0
2.570073484E0,-9.481038451E-1,-3.950432837E-1,9.799467087E0
2.572087638E0,-9.481038451E-1,-3.974374831E-1,9.801861763E0
2.574071869E0,-9.433154464E-1,-4.118026793E-1,9.806650162E0
2.576085101E0,-9.457096457E-1,-4.070142806E-1,9.794678688E0
2.578069485E0,-9.433154464E-1,-4.022258818E-1,9.794678688E0
2.580082408E0,-9.624691010E-1,-4.022258818E-1,9.797073364E0
2.582066947E0,-9.672574997E-1,-3.998316824E-1,9.789890289E0
2.584082024E0,-9.720458984E-1,-3.926490843E-1,9.789890289E0
2.586064255E0,-9.409212470E-1,-3.950432837E-1,9.799467087E0
2.588080178E0,-9.409212470E-1,-3.974374831E-1,9.799467087E0
2.590093409E0,-9.433154464E-1,-3.902548850E-1,9.794678688E0
2.592076563E0,-9.433154464E-1,-3.902548850E-1,9.794678688E0
2.594091333E0,-9.457096457E-1,-3.830722570E-1,9.801861763E0
2.596074103E0,-9.720458984E-1,-3.782838583E-1,9.799467087E0
2.598088256E0,-9.840168953E-1,-3.567360640E-1,9.797073364E0
2.600072256E0,-9.840168953E-1,-3.543418646E-1,9.792284966E0
2.602087026E0,-9.672574997E-1,-3.687070608E-1,9.799467087E0
2.604069411E0,-9.720458984E-1,-3.806780577E-1,9.794678688E0
2.606083565E0,-9.696516991E-1,-3.806780577E-1,9.785101891E0
2.608069719E0,-9.744400978E-1,-3.711012602E-1,9.775525093E0
2.610081796E0,-9.816226959E-1,-3.734954596E-1,9.789890289E0
2.612065797E0,-9.864110947E-1,-3.830722570E-1,9.789890289E0
2.614080489E0,-9.792284966E-1,-3.902548850E-1,9.773131371E0
2.616063874E0,-9.816226959E-1,-3.998316824E-1,9.773131371E0
2.618077797E0,-9.816226959E-1,-3.998316824E-1,9.789890289E0
2.620091643E0,-9.672574997E-1,-3.758896589E-1,9.789890289E0
2.622075952E0,-9.600749016E-1,-3.782838583E-1,9.777919769E0
2.624091259E0,-9.576807022E-1,-3.854664862E-1,9.775525093E0
2.626073798E0,-9.672574997E-1,-3.950432837E-1,9.787496567E0
2.628088490E0,-9.672574997E-1,-4.022258818E-1,9.797073364E0
2.630072261E0,-9.624691010E-1,-3.974374831E-1,9.816226959E0
2.632085414E0,-9.648633003E-1,-3.711012602E-1,9.811438560E0
2.634068491E0,-9.576807022E-1,-3.711012602E-1,9.806650162E0
2.636083261E0,-9.576807022E-1,-3.782838583E-1,9.804255486E0
2.638066722E0,-9.576807022E-1,-3.830722570E-1,9.811438560E0
2.640080877E0,-9.528923035E-1,-3.806780577E-1,9.816226959E0
2.642064800E0,-9.600749016E-1,-3.806780577E-1,9.806650162E0
2.644078338E0,-9.552865028E-1,-3.782838583E-1,9.792284966E0
2.646092569E0,-9.385270476E-1,-3.878606856E-1,9.792284966E0
2.648075339E0,-9.385270476E-1,-4.046200812E-1,9.792284966E0
2.650090416E0,-9.337386489E-1,-4.046200812E-1,9.794678688E0
2.652074647E0,-9.337386489E-1,-4.094084799E-1,9.787496567E0
2.654087878E0,-9.313444495E-1,-4.165911078E-1,9.785101891E0
2.656072263E0,-9.169792533E-1,-4.141969085E-1,9.787496567E0
2.658086110E0,-9.193734527E-1,-4.165911078E-1,9.794678688E0
2.660070340E0,-9.289502501E-1,-4.141969085E-1,9.794678688E0
2.662084187E0,-9.313444495E-1,-4.094084799E-1,9.789890289E0
2.664069110E0,-9.217676520E-1,-4.213795066E-1,9.801861763E0
2.666082418E0,-9.026140571E-1,-4.118026793E-1,9.789890289E0
2.668067265E0,-9.002198577E-1,-3.998316824E-1,9.794678688E0
2.670079649E0,-8.954314590E-1,-4.046200812E-1,9.792284966E0
2.672094342E0,-8.954314590E-1,-3.926490843E-1,9.789890289E0
2.674077419E0,-8.834604025E-1,-3.806780577E-1,9.792284966E0
2.676091650E0,-8.954314590E-1,-3.854664862E-1,9.794678688E0
2.678075573E0,-8.906430602E-1,-3.758896589E-1,9.777919769E0
2.680089419E0,-8.810662031E-1,-3.711012602E-1,9.785101891E0
2.682073496E0,-8.906430602E-1,-3.734954596E-1,9.792284966E0
2.684086344E0,-9.026140571E-1,-3.734954596E-1,9.794678688E0
2.686071267E0,-9.050082564E-1,-3.782838583E-1,9.797073364E0
2.688085805E0,-9.169792533E-1,-3.711012602E-1,9.794678688E0
2.690068190E0,-9.097966552E-1,-3.663128614E-1,9.787496567E0
2.692082652E0,-9.050082564E-1,-3.758896589E-1,9.782708168E0
2.694067268E0,-9.145850539E-1,-3.782838583E-1,9.785101891E0
2.696080806E0,-9.265560508E-1,-3.902548850E-1,9.789890289E0
2.698064498E0,-9.409212470E-1,-3.926490843E-1,9.789890289E0
2.700078422E0,-9.337386489E-1,-3.878606856E-1,9.789890289E0
2.702092884E0,-9.385270476E-1,-3.806780577E-1,9.792284966E0
2.704077730E0,-9.385270476E-1,-3.782838583E-1,9.787496567E0
2.706090346E0,-9.385270476E-1,-3.854664862E-1,9.785101891E0
2.708074423E0,-9.385270476E-1,-3.926490843E-1,9.804255486E0
2.710088193E0,-9.337386489E-1,-4.118026793E-1,9.818621635E0
2.712072193E0,-9.337386489E-1,-3.806780577E-1,9.821015358E0
2.714086424E0,-9.265560508E-1,-3.806780577E-1,9.816226959E0
2.716070039E0,-9.457096457E-1,-3.830722570E-1,9.799467087E0
2.718083654E0,-9.672574997E-1,-3.878606856E-1,9.806650162E0
2.720067271E0,-9.576807022E-1,-3.734954596E-1,9.806650162E0
2.722082655E0,-9.648633003E-1,-3.782838583E-1,9.804255486E0
2.724064809E0,-9.744400978E-1,-3.806780577E-1,9.801861763E0
2.726080501E0,-9.816226959E-1,-3.950432837E-1,9.813833237E0
2.728064503E0,-9.600749016E-1,-3.926490843E-1,9.801861763E0
2.730076810E0,-9.576807022E-1,-3.854664862E-1,9.801861763E0
2.732091041E0,-9.935936928E-1,-3.806780577E-1,9.794678688E0
2.734075579E0,-9.983820915E-1,-3.639186621E-1,9.780313492E0
2.736089426E0,-9.911994934E-1,-3.711012602E-1,9.780313492E0
2.738073196E0,-9.888052940E-1,-3.902548850E-1,9.789890289E0
2.740087350E0,-9.983820915E-1,-3.830722570E-1,9.785101891E0
2.742071042E0,-9.911994934E-1,-3.830722570E-1,9.780313492E0
2.744085427E0,-9.888052940E-1,-3.639186621E-1,9.777919769E0
2.746069197E0,-9.864110947E-1,-3.687070608E-1,9.773131371E0
2.748083966E0,-9.911994934E-1,-3.758896589E-1,9.775525093E0
2.750066428E0,-9.744400978E-1,-3.806780577E-1,9.765948296E0
2.752080274E0,-9.768342972E-1,-3.902548850E-1,9.775525093E0
2.754063658E0,-9.720458984E-1,-3.854664862E-1,9.789890289E0
2.756078121E0,-9.504981041E-1,-3.854664862E-1,9.780313492E0
2.758092890E0,-9.481038451E-1,-3.854664862E-1,9.777919769E0
2.760076890E0,-9.552865028E-1,-3.902548850E-1,9.780313492E0
2.762090044E0,-9.481038451E-1,-3.806780577E-1,9.787496567E0
2.764073122E0,-9.385270476E-1,-3.782838583E-1,9.792284966E0
2.766087353E0,-9.193734527E-1,-3.902548850E-1,9.794678688E0
2.768072276E0,-9.337386489E-1,-3.854664862E-1,9.806650162E0
2.770086045E0,-9.361328483E-1,-3.806780577E-1,9.809044838E0
2.772070122E0,-9.265560508E-1,-3.806780577E-1,9.801861763E0
2.774083892E0,-9.265560508E-1,-3.950432837E-1,9.806650162E0
2.776067277E0,-9.193734527E-1,-3.950432837E-1,9.811438560E0
2.778081123E0,-9.169792533E-1,-3.782838583E-1,9.811438560E0
2.780065123E0,-9.050082564E-1,-3.830722570E-1,9.811438560E0
2.782079586E0,-9.097966552E-1,-3.830722570E-1,9.809044838E0
2.784094739E0,-9.121908545E-1,-3.878606856E-1,9.813833237E0
2.786078355E0,-9.026140571E-1,-3.950432837E-1,9.804255486E0
2.788092201E0,-9.002198577E-1,-3.902548850E-1,9.806650162E0
2.790075586E0,-9.002198577E-1,-3.830722570E-1,9.823410034E0
2.792089125E0,-8.954314590E-1,-3.878606856E-1,9.823410034E0
2.794072587E0,-8.858546019E-1,-3.830722570E-1,9.840168953E0
2.796087048E0,-8.882488012E-1,-3.878606856E-1,9.830592155E0
2.798070125E0,-8.858546019E-1,-3.926490843E-1,9.825803757E0
2.800084818E0,-8.810662031E-1,-3.854664862E-1,9.830592155E0
2.802068280E0,-8.858546019E-1,-3.878606856E-1,9.849745750E0
2.804082357E0,-8.858546019E-1,-3.902548850E-1,9.842563629E0
2.806067049E0,-8.954314590E-1,-4.022258818E-1,9.825803757E0
2.808081818E0,-9.050082564E-1,-3.998316824E-1,9.835380554E0
2.810063589E0,-9.026140571E-1,-3.974374831E-1,9.835380554E0
2.812078358E0,-9.050082564E-1,-3.974374831E-1,9.823410034E0
2.814092281E0,-8.978256583E-1,-4.046200812E-1,9.821015358E0
2.816075589E0,-8.954314590E-1,-3.902548850E-1,9.821015358E0
2.818090128E0,-8.954314590E-1,-3.687070608E-1,9.804255486E0
2.820074128E0,-9.074024558E-1,-3.639186621E-1,9.799467087E0
2.822088205E0,-9.145850539E-1,-3.639186621E-1,9.797073364E0
2.824071590E0,-9.121908545E-1,-3.711012602E-1,9.799467087E0
2.826085820E0,-9.121908545E-1,-3.734954596E-1,9.794678688E0
2.828070129E0,-9.241618514E-1,-3.734954596E-1,9.785101891E0
2.830083668E0,-9.313444495E-1,-3.639186621E-1,9.799467087E0
2.832067360E0,-9.313444495E-1,-3.615244627E-1,9.799467087E0
2.834080898E0,-9.313444495E-1,-3.830722570E-1,9.785101891E0
2.836065130E0,-9.193734527E-1,-3.734954596E-1,9.782708168E0
2.838079053E0,-9.241618514E-1,-3.687070608E-1,9.782708168E0
2.840092899E0,-9.337386489E-1,-3.543418646E-1,9.768342972E0
2.842076899E0,-9.385270476E-1,-3.687070608E-1,9.770736694E0
2.844088515E0,-9.385270476E-1,-3.758896589E-1,9.773131371E0
2.846074131E0,-9.385270476E-1,-3.974374831E-1,9.785101891E0
2.848089131E0,-9.241618514E-1,-3.902548850E-1,9.787496567E0
2.850073516E0,-9.265560508E-1,-3.758896589E-1,9.780313492E0
2.852086439E0,-9.265560508E-1,-3.734954596E-1,9.777919769E0
2.854070055E0,-9.193734527E-1,-3.782838583E-1,9.775525093E0
2.856084209E0,-9.217676520E-1,-4.046200812E-1,9.780313492E0
2.858068209E0,-9.313444495E-1,-3.926490843E-1,9.777919769E0
2.860082440E0,-9.361328483E-1,-3.806780577E-1,9.782708168E0
2.862065825E0,-9.241618514E-1,-3.830722570E-1,9.780313492E0
2.864081441E0,-9.385270476E-1,-3.830722570E-1,9.789890289E0
2.866063364E0,-9.457096457E-1,-3.926490843E-1,9.794678688E0
2.868078979E0,-9.481038451E-1,-3.926490843E-1,9.799467087E0
2.870092210E0,-9.576807022E-1,-3.830722570E-1,9.806650162E0
2.872075365E0,-9.528923035E-1,-3.878606856E-1,9.801861763E0
2.874089211E0,-9.457096457E-1,-3.830722570E-1,9.809044838E0
2.876073827E0,-9.528923035E-1,-3.663128614E-1,9.809044838E0
2.878087673E0,-9.433154464E-1,-3.782838583E-1,9.821015358E0
2.880070980E0,-9.552865028E-1,-3.687070608E-1,9.811438560E0
2.882085135E0,-9.481038451E-1,-3.734954596E-1,9.816226959E0
2.884068904E0,-9.457096457E-1,-3.782838583E-1,9.832986832E0
2.886082674E0,-9.265560508E-1,-3.734954596E-1,9.828198433E0
2.888065212E0,-9.265560508E-1,-3.734954596E-1,9.828198433E0
2.890078444E0,-9.265560508E-1,-3.734954596E-1,9.828198433E0
2.892095059E0,-9.193734527E-1,-3.902548850E-1,9.832986832E0
2.894079367E0,-9.145850539E-1,-3.926490843E-1,9.835380554E0
2.896092829E0,-9.097966552E-1,-4.022258818E-1,9.840168953E0
2.898076598E0,-9.169792533E-1,-4.046200812E-1,9.828198433E0
2.900090983E0,-9.289502501E-1,-4.022258818E-1,9.823410034E0
2.902074445E0,-9.193734527E-1,-3.998316824E-1,9.821015358E0
2.904089137E0,-9.002198577E-1,-3.830722570E-1,9.823410034E0
2.906072599E0,-9.026140571E-1,-3.830722570E-1,9.825803757E0
2.908087061E0,-9.026140571E-1,-3.687070608E-1,9.821015358E0
2.910070446E0,-9.074024558E-1,-3.687070608E-1,9.823410034E0
2.912084831E0,-9.074024558E-1,-3.854664862E-1,9.811438560E0
2.914068215E0,-9.217676520E-1,-3.830722570E-1,9.811438560E0
2.916082138E0,-9.169792533E-1,-3.902548850E-1,9.806650162E0
2.918065139E0,-9.193734527E-1,-3.854664862E-1,9.804255486E0
2.920079601E0,-9.289502501E-1,-3.806780577E-1,9.823410034E0
2.922093832E0,-9.409212470E-1,-3.830722570E-1,9.823410034E0
2.924077216E0,-9.433154464E-1,-3.854664862E-1,9.799467087E0
2.926090756E0,-9.409212470E-1,-4.046200812E-1,9.801861763E0
2.928076602E0,-9.433154464E-1,-4.022258818E-1,9.799467087E0
2.930089756E0,-9.409212470E-1,-3.926490843E-1,9.789890289E0
2.932073448E0,-9.265560508E-1,-3.687070608E-1,9.787496567E0
2.934087371E0,-9.217676520E-1,-3.711012602E-1,9.787496567E0
2.936070449E0,-9.241618514E-1,-3.806780577E-1,9.789890289E0
2.938085218E0,-9.337386489E-1,-3.615244627E-1,9.780313492E0
2.940069141E0,-9.385270476E-1,-3.806780577E-1,9.782708168E0
2.942083064E0,-9.600749016E-1,-3.854664862E-1,9.789890289E0
2.944067912E0,-9.504981041E-1,-3.711012602E-1,9.789890289E0
2.946080527E0,-9.385270476E-1,-3.687070608E-1,9.794678688E0
2.948066065E0,-9.504981041E-1,-3.806780577E-1,9.777919769E0
2.950078758E0,-9.457096457E-1,-3.902548850E-1,9.777919769E0
2.952092835E0,-9.433154464E-1,-3.878606856E-1,9.792284966E0
2.954076297E0,-9.504981041E-1,-3.711012602E-1,9.789890289E0
2.956090143E0,-9.552865028E-1,-3.806780577E-1,9.792284966E0
2.958074682E0,-9.433154464E-1,-3.806780577E-1,9.780313492E0
2.960088605E0,-9.361328483E-1,-3.734954596E-1,9.770736694E0
2.962071375E0,-9.361328483E-1,-3.734954596E-1,9.775525093E0
2.964085529E0,-9.361328483E-1,-3.687070608E-1,9.785101891E0
2.966070683E0,-9.600749016E-1,-3.711012602E-1,9.789890289E0
2.968086760E0,-9.576807022E-1,-3.663128614E-1,9.785101891E0
2.970067606E0,-9.504981041E-1,-3.663128614E-1,9.787496567E0
2.972081222E0,-9.433154464E-1,-3.806780577E-1,9.792284966E0
2.974065453E0,-9.313444495E-1,-3.854664862E-1,9.787496567E0
2.976079607E0,-9.121908545E-1,-3.926490843E-1,9.797073364E0
2.978093453E0,-9.074024558E-1,-3.926490843E-1,9.797073364E0
2.980077454E0,-9.265560508E-1,-3.902548850E-1,9.801861763E0
2.982091916E0,-9.121908545E-1,-3.926490843E-1,9.789890289E0
2.984074762E0,-9.169792533E-1,-3.806780577E-1,9.789890289E0
2.986089762E0,-9.241618514E-1,-3.902548850E-1,9.797073364E0
2.988074454E0,-9.097966552E-1,-3.878606856E-1,9.799467087E0
2.990087071E0,-8.954314590E-1,-3.806780577E-1,9.797073364E0
2.992070763E0,-9.217676520E-1,-3.854664862E-1,9.818621635E0
2.994085148E0,-9.074024558E-1,-3.902548850E-1,9.809044838E0
2.996069148E0,-9.121908545E-1,-3.950432837E-1,9.809044838E0
2.998082687E0,-9.265560508E-1,-3.902548850E-1,9.813833237E0
3.000066379E0,-9.169792533E-1,-3.782838583E-1,9.813833237E0
3.002080841E0,-9.241618514E-1,-3.830722570E-1,9.816226959E0
3.004062995E0,-9.217676520E-1,-3.878606856E-1,9.799467087E0
3.006077841E0,-9.265560508E-1,-3.854664862E-1,9.799467087E0
3.008092842E0,-9.337386489E-1,-3.878606856E-1,9.801861763E0
3.010075919E0,-9.409212470E-1,-3.734954596E-1,9.813833237E0
3.012090996E0,-9.504981041E-1,-3.639186621E-1,9.823410034E0
3.014073842E0,-9.409212470E-1,-3.902548850E-1,9.818621635E0
3.016087997E0,-9.337386489E-1,-3.854664862E-1,9.818621635E0
3.018071304E0,-9.409212470E-1,-3.830722570E-1,9.816226959E0
3.020085458E0,-9.576807022E-1,-3.687070608E-1,9.806650162E0
3.022069458E0,-9.528923035E-1,-3.687070608E-1,9.806650162E0
3.024084535E0,-9.504981041E-1,-3.758896589E-1,9.811438560E0
3.026067305E0,-9.385270476E-1,-3.830722570E-1,9.809044838E0
3.028082767E0,-9.457096457E-1,-3.878606856E-1,9.801861763E0
3.030066690E0,-9.457096457E-1,-3.830722570E-1,9.801861763E0
3.032079921E0,-9.504981041E-1,-3.902548850E-1,9.806650162E0
3.034093768E0,-9.385270476E-1,-3.902548850E-1,9.794678688E0
3.036076537E0,-9.337386489E-1,-3.902548850E-1,9.794678688E0
3.038091614E0,-9.361328483E-1,-3.758896589E-1,9.785101891E0
3.040074460E0,-9.361328483E-1,-3.782838583E-1,9.782708168E0
3.042089845E0,-9.337386489E-1,-3.711012602E-1,9.789890289E0
3.044072538E0,-9.433154464E-1,-3.734954596E-1,9.789890289E0
3.046087615E0,-9.361328483E-1,-3.902548850E-1,9.794678688E0
3.048072615E0,-9.217676520E-1,-3.854664862E-1,9.792284966E0
3.050084538E0,-9.169792533E-1,-3.998316824E-1,9.792284966E0
3.052068539E0,-9.121908545E-1,-3.998316824E-1,9.785101891E0
3.054083001E0,-8.930372596E-1,-3.998316824E-1,9.797073364E0
3.056066078E0,-8.954314590E-1,-3.926490843E-1,9.794678688E0
3.058080232E0,-9.002198577E-1,-3.854664862E-1,9.787496567E0
3.060063924E0,-9.145850539E-1,-3.926490843E-1,9.799467087E0
3.062077771E0,-9.121908545E-1,-3.902548850E-1,9.792284966E0
3.064093156E0,-9.097966552E-1,-3.878606856E-1,9.794678688E0
3.066076617E0,-8.954314590E-1,-3.854664862E-1,9.799467087E0
3.068091079E0,-9.026140571E-1,-3.830722570E-1,9.806650162E0
3.070074387E0,-9.002198577E-1,-3.926490843E-1,9.811438560E0
3.072088234E0,-9.002198577E-1,-3.950432837E-1,9.813833237E0
3.074071003E0,-9.050082564E-1,-3.926490843E-1,9.818621635E0
3.076085234E0,-8.882488012E-1,-3.998316824E-1,9.806650162E0
3.078069464E0,-8.738836050E-1,-3.902548850E-1,9.804255486E0
3.080083619E0,-8.714894056E-1,-3.926490843E-1,9.801861763E0
3.082067004E0,-8.690952063E-1,-4.070142806E-1,9.799467087E0
3.084077850E0,-8.762778044E-1,-4.022258818E-1,9.809044838E0
3.086095004E0,-8.786720037E-1,-4.022258818E-1,9.811438560E0
3.088080543E0,-8.882488012E-1,-3.950432837E-1,9.806650162E0
3.090062159E0,-8.834604025E-1,-3.974374831E-1,9.813833237E0
3.092076851E0,-8.834604025E-1,-3.902548850E-1,9.809044838E0
3.094091082E0,-9.145850539E-1,-3.711012602E-1,9.804255486E0
3.096074082E0,-9.169792533E-1,-3.734954596E-1,9.799467087E0
3.098089467E0,-9.217676520E-1,-3.591302633E-1,9.804255486E0
3.100072544E0,-9.217676520E-1,-3.639186621E-1,9.801861763E0
3.102086775E0,-9.217676520E-1,-3.567360640E-1,9.799467087E0
3.104071006E0,-9.145850539E-1,-3.447650373E-1,9.806650162E0
3.106084238E0,-9.121908545E-1,-3.471592367E-1,9.816226959E0
3.108069545E0,-9.289502501E-1,-3.423708379E-1,9.821015358E0
3.110082699E0,-9.241618514E-1,-3.543418646E-1,9.806650162E0
3.112065468E0,-9.289502501E-1,-3.663128614E-1,9.794678688E0
3.114080007E0,-9.433154464E-1,-3.711012602E-1,9.792284966E0
3.116093854E0,-9.457096457E-1,-3.663128614E-1,9.797073364E0
3.118077777E0,-9.576807022E-1,-3.519476354E-1,9.789890289E0
3.120092546E0,-9.528923035E-1,-3.351882398E-1,9.799467087E0
3.122076931E0,-9.433154464E-1,-3.447650373E-1,9.787496567E0
3.124089778E0,-9.337386489E-1,-3.447650373E-1,9.785101891E0
3.126072624E0,-9.361328483E-1,-3.543418646E-1,9.797073364E0
3.128086471E0,-9.481038451E-1,-3.519476354E-1,9.797073364E0
3.130070778E0,-9.504981041E-1,-3.591302633E-1,9.794678688E0
3.132085240E0,-9.504981041E-1,-3.687070608E-1,9.792284966E0
3.134068933E0,-9.504981041E-1,-3.758896589E-1,9.799467087E0
3.136083395E0,-9.481038451E-1,-3.711012602E-1,9.801861763E0
3.138067395E0,-9.481038451E-1,-3.711012602E-1,9.797073364E0
3.140081241E0,-9.481038451E-1,-3.854664862E-1,9.811438560E0
3.142064242E0,-9.433154464E-1,-3.830722570E-1,9.811438560E0
3.144079626E0,-9.361328483E-1,-3.830722570E-1,9.818621635E0
3.146092857E0,-9.433154464E-1,-3.926490843E-1,9.813833237E0
3.148078088E0,-9.552865028E-1,-3.854664862E-1,9.804255486E0
3.150091934E0,-9.600749016E-1,-3.998316824E-1,9.804255486E0
3.152074704E0,-9.528923035E-1,-4.022258818E-1,9.787496567E0
3.154088320E0,-9.576807022E-1,-4.046200812E-1,9.789890289E0
3.156072551E0,-9.648633003E-1,-3.998316824E-1,9.799467087E0
3.158086166E0,-9.433154464E-1,-3.830722570E-1,9.789890289E0
3.160070167E0,-9.409212470E-1,-3.878606856E-1,9.787496567E0
3.162084321E0,-9.528923035E-1,-3.878606856E-1,9.780313492E0
3.164067321E0,-9.552865028E-1,-3.758896589E-1,9.773131371E0
3.166081244E0,-9.528923035E-1,-3.854664862E-1,9.773131371E0
3.168066705E0,-9.504981041E-1,-3.854664862E-1,9.773131371E0
3.170079629E0,-9.433154464E-1,-3.687070608E-1,9.773131371E0
3.172094168E0,-9.361328483E-1,-3.639186621E-1,9.785101891E0
3.174077245E0,-9.504981041E-1,-3.639186621E-1,9.787496567E0
3.176092553E0,-9.409212470E-1,-3.711012602E-1,9.785101891E0
3.178075323E0,-9.193734527E-1,-3.782838583E-1,9.789890289E0
3.180089861E0,-9.241618514E-1,-3.830722570E-1,9.785101891E0
3.182072938E0,-9.313444495E-1,-3.758896589E-1,9.789890289E0
3.184088323E0,-9.313444495E-1,-3.615244627E-1,9.797073364E0
3.186071400E0,-9.169792533E-1,-3.687070608E-1,9.777919769E0
3.188086708E0,-9.193734527E-1,-3.854664862E-1,9.785101891E0
3.190069170E0,-9.313444495E-1,-3.687070608E-1,9.782708168E0
3.192082478E0,-9.409212470E-1,-3.854664862E-1,9.782708168E0
3.194066785E0,-9.289502501E-1,-3.926490843E-1,9.780313492E0
3.196080633E0,-9.193734527E-1,-3.902548850E-1,9.792284966E0
3.198064556E0,-9.241618514E-1,-4.022258818E-1,9.789890289E0
3.200079017E0,-9.217676520E-1,-3.950432837E-1,9.794678688E0
3.202093248E0,-9.217676520E-1,-3.854664862E-1,9.797073364E0
3.204076325E0,-9.193734527E-1,-3.998316824E-1,9.804255486E0
3.206091403E0,-9.217676520E-1,-3.926490843E-1,9.801861763E0
3.208075326E0,-9.313444495E-1,-3.902548850E-1,9.813833237E0
3.210088018E0,-9.289502501E-1,-4.046200812E-1,9.809044838E0
3.212072249E0,-9.265560508E-1,-4.070142806E-1,9.823410034E0
3.214085788E0,-9.145850539E-1,-3.998316824E-1,9.806650162E0
3.216069558E0,-9.169792533E-1,-3.950432837E-1,9.804255486E0
3.218084019E0,-9.265560508E-1,-4.022258818E-1,9.823410034E0
3.220068019E0,-9.217676520E-1,-3.974374831E-1,9.821015358E0
3.222082096E0,-9.193734527E-1,-3.974374831E-1,9.828198433E0
3.224065789E0,-9.026140571E-1,-3.902548850E-1,9.835380554E0
3.226079636E0,-9.193734527E-1,-3.998316824E-1,9.828198433E0
3.228095405E0,-9.265560508E-1,-4.022258818E-1,9.830592155E0
3.230077482E0,-9.145850539E-1,-4.094084799E-1,9.828198433E0
3.232091637E0,-9.169792533E-1,-4.094084799E-1,9.823410034E0
3.234075406E0,-9.193734527E-1,-4.070142806E-1,9.825803757E0
3.236089867E0,-9.145850539E-1,-3.974374831E-1,9.818621635E0
3.238073483E0,-9.145850539E-1,-3.974374831E-1,9.823410034E0
3.240087098E0,-9.050082564E-1,-3.902548850E-1,9.818621635E0
3.242070791E0,-9.121908545E-1,-3.854664862E-1,9.821015358E0
3.244081176E0,-9.169792533E-1,-3.734954596E-1,9.816226959E0
3.246067945E0,-9.145850539E-1,-3.639186621E-1,9.816226959E0
3.248084253E0,-9.145850539E-1,-3.830722570E-1,9.825803757E0
3.250066485E0,-9.050082564E-1,-3.854664862E-1,9.823410034E0
3.252081177E0,-8.978256583E-1,-3.878606856E-1,9.821015358E0
3.254064869E0,-8.906430602E-1,-3.782838583E-1,9.821015358E0
3.256078100E0,-8.906430602E-1,-3.639186621E-1,9.823410034E0
3.258092331E0,-8.978256583E-1,-3.663128614E-1,9.818621635E0
3.260075717E0,-9.074024558E-1,-3.615244627E-1,9.801861763E0
3.262090178E0,-9.097966552E-1,-3.663128614E-1,9.797073364E0
3.264074409E0,-9.074024558E-1,-3.830722570E-1,9.787496567E0
3.266088640E0,-9.097966552E-1,-3.854664862E-1,9.789890289E0
3.268072871E0,-8.978256583E-1,-3.782838583E-1,9.797073364E0
3.270085795E0,-8.954314590E-1,-3.782838583E-1,9.799467087E0
3.272069487E0,-9.002198577E-1,-3.854664862E-1,9.804255486E0
3.274083410E0,-8.930372596E-1,-3.854664862E-1,9.813833237E0
3.276067102E0,-8.858546019E-1,-3.758896589E-1,9.813833237E0
3.278081565E0,-8.786720037E-1,-3.734954596E-1,9.809044838E0
3.280064949E0,-8.547300100E-1,-3.687070608E-1,9.809044838E0
3.282079642E0,-8.547300100E-1,-3.711012602E-1,9.806650162E0
3.284092949E0,-8.571242094E-1,-3.758896589E-1,9.804255486E0
3.286077489E0,-8.667010069E-1,-3.758896589E-1,9.809044838E0
3.288092950E0,-8.714894056E-1,-3.615244627E-1,9.806650162E0
3.290074489E0,-8.643068075E-1,-3.687070608E-1,9.806650162E0
3.292089566E0,-8.571242094E-1,-3.806780577E-1,9.799467087E0
3.294072643E0,-8.786720037E-1,-3.687070608E-1,9.794678688E0
3.296086798E0,-8.834604025E-1,-3.782838583E-1,9.794678688E0
3.298070721E0,-8.834604025E-1,-3.711012602E-1,9.794678688E0
3.300084951E0,-8.810662031E-1,-3.615244627E-1,9.789890289E0
3.302068567E0,-8.858546019E-1,-3.567360640E-1,9.777919769E0
3.304083106E0,-8.882488012E-1,-3.543418646E-1,9.780313492E0
3.306066414E0,-8.858546019E-1,-3.567360640E-1,9.780313492E0
3.308081491E0,-8.954314590E-1,-3.543418646E-1,9.801861763E0
3.310064260E0,-9.145850539E-1,-3.734954596E-1,9.789890289E0
3.312078799E0,-9.241618514E-1,-3.687070608E-1,9.789890289E0
3.314092338E0,-9.217676520E-1,-3.711012602E-1,9.801861763E0
3.316075954E0,-9.313444495E-1,-3.567360640E-1,9.806650162E0
3.318090800E0,-9.241618514E-1,-3.591302633E-1,9.804255486E0
3.320074107E0,-9.265560508E-1,-3.711012602E-1,9.794678688E0
3.322089262E0,-9.576807022E-1,-3.663128614E-1,9.794678688E0
3.324070801E0,-9.504981041E-1,-3.687070608E-1,9.794678688E0
3.326086185E0,-9.409212470E-1,-3.782838583E-1,9.794678688E0
3.328069878E0,-9.433154464E-1,-3.663128614E-1,9.799467087E0
3.330083647E0,-9.481038451E-1,-3.782838583E-1,9.797073364E0
3.332067340E0,-9.385270476E-1,-3.878606856E-1,9.806650162E0
3.334081802E0,-9.385270476E-1,-3.830722570E-1,9.804255486E0
3.336065263E0,-9.672574997E-1,-3.926490843E-1,9.782708168E0
3.338079109E0,-9.624691010E-1,-3.830722570E-1,9.789890289E0
3.340092957E0,-9.624691010E-1,-3.830722570E-1,9.794678688E0
3.342076957E0,-9.600749016E-1,-3.902548850E-1,9.794678688E0
3.344091649E0,-9.552865028E-1,-3.854664862E-1,9.799467087E0
3.346075034E0,-9.600749016E-1,-3.926490843E-1,9.792284966E0
3.348090110E0,-9.576807022E-1,-3.926490843E-1,9.797073364E0
3.350072342E0,-9.600749016E-1,-3.711012602E-1,9.794678688E0
3.352087035E0,-9.600749016E-1,-3.711012602E-1,9.801861763E0
3.354070188E0,-9.409212470E-1,-3.782838583E-1,9.799467087E0
3.356084881E0,-9.528923035E-1,-3.830722570E-1,9.785101891E0
3.358067959E0,-9.528923035E-1,-3.830722570E-1,9.787496567E0
3.360082189E0,-9.552865028E-1,-3.806780577E-1,9.792284966E0
3.362066420E0,-9.504981041E-1,-3.687070608E-1,9.789890289E0
3.364079651E0,-9.361328483E-1,-3.711012602E-1,9.797073364E0
3.366093574E0,-9.409212470E-1,-3.806780577E-1,9.780313492E0
3.368076344E0,-9.409212470E-1,-3.806780577E-1,9.780313492E0
3.370091652E0,-9.409212470E-1,-3.758896589E-1,9.775525093E0
3.372076344E0,-9.289502501E-1,-3.854664862E-1,9.792284966E0
3.374089883E0,-9.289502501E-1,-3.854664862E-1,9.801861763E0
3.376073499E0,-9.337386489E-1,-3.758896589E-1,9.801861763E0
3.378087345E0,-9.313444495E-1,-3.687070608E-1,9.809044838E0
3.380071653E0,-9.289502501E-1,-3.758896589E-1,9.799467087E0
3.382085268E0,-9.169792533E-1,-3.782838583E-1,9.811438560E0
3.384069807E0,-9.241618514E-1,-3.902548850E-1,9.811438560E0
3.386083731E0,-9.193734527E-1,-3.806780577E-1,9.806650162E0
3.388068577E0,-9.217676520E-1,-3.734954596E-1,9.816226959E0
3.390081885E0,-9.241618514E-1,-3.806780577E-1,9.821015358E0
3.392065192E0,-9.193734527E-1,-3.782838583E-1,9.816226959E0
3.394079117E0,-9.169792533E-1,-3.687070608E-1,9.835380554E0
3.396092655E0,-9.121908545E-1,-3.830722570E-1,9.832986832E0
3.398076886E0,-9.074024558E-1,-3.854664862E-1,9.823410034E0
3.400090809E0,-9.121908545E-1,-3.639186621E-1,9.818621635E0
3.402074732E0,-9.145850539E-1,-3.591302633E-1,9.825803757E0
3.404088041E0,-8.906430602E-1,-3.854664862E-1,9.825803757E0
3.406071964E0,-8.978256583E-1,-3.926490843E-1,9.818621635E0
3.408087425E0,-9.121908545E-1,-3.878606856E-1,9.806650162E0
3.410070425E0,-9.193734527E-1,-3.758896589E-1,9.801861763E0
3.412083734E0,-9.026140571E-1,-3.711012602E-1,9.806650162E0
3.414067734E0,-9.074024558E-1,-3.734954596E-1,9.813833237E0
3.416081888E0,-8.978256583E-1,-3.878606856E-1,9.804255486E0
3.418065272E0,-8.930372596E-1,-3.782838583E-1,9.792284966E0
3.420079734E0,-8.906430602E-1,-3.711012602E-1,9.789890289E0
3.422094427E0,-9.026140571E-1,-3.806780577E-1,9.801861763E0
3.424078504E0,-9.050082564E-1,-3.734954596E-1,9.804255486E0
3.426091658E0,-9.026140571E-1,-3.687070608E-1,9.794678688E0
3.428077197E0,-9.050082564E-1,-3.878606856E-1,9.787496567E0
3.430088890E0,-9.002198577E-1,-3.830722570E-1,9.787496567E0
3.432072890E0,-9.026140571E-1,-3.782838583E-1,9.787496567E0
3.434087351E0,-8.978256583E-1,-3.711012602E-1,9.775525093E0
3.436071121E0,-8.954314590E-1,-3.734954596E-1,9.773131371E0
3.438085582E0,-9.050082564E-1,-3.878606856E-1,9.773131371E0
3.440068968E0,-9.169792533E-1,-3.878606856E-1,9.773131371E0
3.442083122E0,-9.074024558E-1,-3.926490843E-1,9.775525093E0
3.444066122E0,-9.050082564E-1,-3.998316824E-1,9.765948296E0
3.446081506E0,-9.169792533E-1,-3.974374831E-1,9.770736694E0
3.448065892E0,-9.050082564E-1,-3.878606856E-1,9.775525093E0
3.450077815E0,-9.074024558E-1,-3.663128614E-1,9.785101891E0
3.452092661E0,-9.050082564E-1,-3.734954596E-1,9.792284966E0
3.454075969E0,-9.002198577E-1,-3.854664862E-1,9.792284966E0
3.456090738E0,-8.906430602E-1,-3.950432837E-1,9.809044838E0
3.458074739E0,-9.026140571E-1,-3.998316824E-1,9.809044838E0
3.460088047E0,-9.050082564E-1,-4.070142806E-1,9.813833237E0
3.462072278E0,-9.002198577E-1,-3.974374831E-1,9.799467087E0
3.464087354E0,-9.026140571E-1,-4.022258818E-1,9.806650162E0
3.466069894E0,-8.906430602E-1,-3.974374831E-1,9.806650162E0
3.468084971E0,-8.906430602E-1,-3.926490843E-1,9.799467087E0
3.470067356E0,-8.858546019E-1,-3.974374831E-1,9.806650162E0
3.472081817E0,-8.882488012E-1,-4.094084799E-1,9.813833237E0
3.474065202E0,-9.002198577E-1,-4.022258818E-1,9.821015358E0
3.476079972E0,-9.002198577E-1,-3.926490843E-1,9.818621635E0
3.478093818E0,-8.810662031E-1,-3.902548850E-1,9.816226959E0
3.480077510E0,-8.834604025E-1,-3.926490843E-1,9.811438560E0
3.482092280E0,-8.858546019E-1,-3.734954596E-1,9.811438560E0
3.484074511E0,-8.906430602E-1,-3.711012602E-1,9.816226959E0
3.486089281E0,-8.906430602E-1,-3.782838583E-1,9.811438560E0
3.488074434E0,-8.930372596E-1,-3.782838583E-1,9.811438560E0
3.490087434E0,-8.882488012E-1,-3.687070608E-1,9.797073364E0
3.492070819E0,-9.002198577E-1,-3.830722570E-1,9.792284966E0
3.494085282E0,-9.121908545E-1,-3.758896589E-1,9.799467087E0
3.496068666E0,-9.145850539E-1,-3.687070608E-1,9.792284966E0
3.498082820E0,-9.145850539E-1,-3.663128614E-1,9.794678688E0
3.500066205E0,-9.265560508E-1,-3.711012602E-1,9.794678688E0
3.502080898E0,-9.217676520E-1,-3.734954596E-1,9.801861763E0
3.504065283E0,-9.241618514E-1,-3.711012602E-1,9.789890289E0
3.506079129E0,-9.457096457E-1,-3.543418646E-1,9.797073364E0
3.508093283E0,-9.457096457E-1,-3.471592367E-1,9.794678688E0
3.510075744E0,-9.409212470E-1,-3.543418646E-1,9.794678688E0
3.512090514E0,-9.337386489E-1,-3.543418646E-1,9.801861763E0
3.514073591E0,-9.433154464E-1,-3.663128614E-1,9.792284966E0
3.516088591E0,-9.433154464E-1,-3.734954596E-1,9.794678688E0
3.518071976E0,-9.289502501E-1,-3.687070608E-1,9.789890289E0
3.520086515E0,-9.385270476E-1,-3.711012602E-1,9.801861763E0
3.522069592E0,-9.385270476E-1,-3.782838583E-1,9.818621635E0
3.524083054E0,-9.217676520E-1,-3.830722570E-1,9.816226959E0
3.526068669E0,-9.169792533E-1,-3.782838583E-1,9.809044838E0
3.528081900E0,-9.313444495E-1,-3.830722570E-1,9.809044838E0
3.530064286E0,-9.337386489E-1,-3.806780577E-1,9.816226959E0
3.532079132E0,-9.361328483E-1,-3.830722570E-1,9.813833237E0
3.534093286E0,-9.169792533E-1,-3.806780577E-1,9.818621635E0
3.536076670E0,-9.289502501E-1,-3.902548850E-1,9.823410034E0
3.538091056E0,-9.289502501E-1,-3.998316824E-1,9.818621635E0
3.540075441E0,-9.265560508E-1,-3.998316824E-1,9.832986832E0
3.542088671E0,-9.241618514E-1,-4.046200812E-1,9.825803757E0
3.544073518E0,-9.265560508E-1,-3.950432837E-1,9.813833237E0
3.546087979E0,-9.313444495E-1,-4.070142806E-1,9.828198433E0
3.548072057E0,-9.241618514E-1,-4.189853072E-1,9.835380554E0
3.550084365E0,-9.289502501E-1,-4.213795066E-1,9.828198433E0
3.552068595E0,-9.169792533E-1,-3.950432837E-1,9.811438560E0
3.554082749E0,-9.145850539E-1,-4.046200812E-1,9.801861763E0
3.556065904E0,-9.217676520E-1,-3.974374831E-1,9.804255486E0
3.558079750E0,-9.217676520E-1,-4.022258818E-1,9.809044838E0
3.560094827E0,-9.217676520E-1,-3.902548850E-1,9.797073364E0
3.562078750E0,-9.241618514E-1,-3.806780577E-1,9.787496567E0
3.564088904E0,-9.241618514E-1,-3.639186621E-1,9.789890289E0
3.566075059E0,-9.289502501E-1,-3.711012602E-1,9.792284966E0
3.568090828E0,-9.169792533E-1,-3.663128614E-1,9.770736694E0
3.570073828E0,-9.121908545E-1,-3.687070608E-1,9.756371498E0
3.572087982E0,-9.097966552E-1,-3.615244627E-1,9.761159897E0
3.574071368E0,-9.241618514E-1,-3.495534360E-1,9.773131371E0
3.576084906E0,-9.074024558E-1,-3.663128614E-1,9.768342972E0
3.578069599E0,-9.169792533E-1,-3.687070608E-1,9.775525093E0
3.580084060E0,-9.217676520E-1,-3.830722570E-1,9.773131371E0
3.582067675E0,-9.217676520E-1,-3.830722570E-1,9.770736694E0
3.584082446E0,-9.217676520E-1,-3.782838583E-1,9.773131371E0
3.586064984E0,-9.265560508E-1,-3.663128614E-1,9.773131371E0
3.588080676E0,-9.121908545E-1,-3.615244627E-1,9.770736694E0
3.590062830E0,-9.121908545E-1,-3.591302633E-1,9.773131371E0
3.592076908E0,-9.097966552E-1,-3.615244627E-1,9.777919769E0
3.594091447E0,-9.145850539E-1,-3.639186621E-1,9.777919769E0
3.596074447E0,-9.002198577E-1,-3.591302633E-1,9.792284966E0
3.598088985E0,-9.050082564E-1,-3.495534360E-1,9.794678688E0
3.600072371E0,-9.026140571E-1,-3.543418646E-1,9.799467087E0
3.602086525E0,-9.050082564E-1,-3.758896589E-1,9.782708168E0
3.604069525E0,-9.241618514E-1,-3.615244627E-1,9.782708168E0
3.606084063E0,-9.457096457E-1,-3.471592367E-1,9.792284966E0
3.608066525E0,-9.457096457E-1,-3.471592367E-1,9.792284966E0
3.610081910E0,-9.552865028E-1,-3.567360640E-1,9.804255486E0
3.612066141E0,-9.624691010E-1,-3.711012602E-1,9.816226959E0
3.614080372E0,-9.576807022E-1,-3.782838583E-1,9.816226959E0
3.616063680E0,-9.624691010E-1,-3.734954596E-1,9.816226959E0
3.618077834E0,-9.672574997E-1,-3.687070608E-1,9.818621635E0
3.620092065E0,-9.624691010E-1,-3.830722570E-1,9.818621635E0
3.622076296E0,-9.648633003E-1,-3.711012602E-1,9.823410034E0
3.624090219E0,-9.552865028E-1,-3.782838583E-1,9.832986832E0
3.626073604E0,-9.576807022E-1,-3.711012602E-1,9.837775230E0
3.628088374E0,-9.528923035E-1,-3.639186621E-1,9.832986832E0
3.630071451E0,-9.600749016E-1,-3.782838583E-1,9.842563629E0
3.632085835E0,-9.816226959E-1,-3.950432837E-1,9.837775230E0
3.634068989E0,-9.792284966E-1,-3.950432837E-1,9.825803757E0
3.636083452E0,-9.624691010E-1,-3.998316824E-1,9.830592155E0
3.638066760E0,-9.648633003E-1,-4.046200812E-1,9.825803757E0
3.640080913E0,-9.648633003E-1,-3.998316824E-1,9.818621635E0
3.642065529E0,-9.720458984E-1,-3.926490843E-1,9.818621635E0
3.644078221E0,-9.457096457E-1,-3.782838583E-1,9.811438560E0
3.646093607E0,-9.528923035E-1,-3.854664862E-1,9.809044838E0
3.648076991E0,-9.265560508E-1,-3.878606856E-1,9.801861763E0
3.650090530E0,-9.193734527E-1,-3.830722570E-1,9.794678688E0
3.652074145E0,-9.074024558E-1,-3.758896589E-1,9.797073364E0
3.654088685E0,-8.954314590E-1,-3.471592367E-1,9.806650162E0
3.656072300E0,-9.026140571E-1,-3.615244627E-1,9.787496567E0
3.658085915E0,-8.882488012E-1,-3.663128614E-1,9.792284966E0
3.660070146E0,-8.762778044E-1,-3.663128614E-1,9.787496567E0
3.662084069E0,-8.786720037E-1,-3.615244627E-1,9.792284966E0
3.664068609E0,-8.786720037E-1,-3.758896589E-1,9.787496567E0
3.666082763E0,-8.810662031E-1,-3.758896589E-1,9.777919769E0
3.668066840E0,-8.762778044E-1,-3.758896589E-1,9.782708168E0
3.670080916E0,-8.667010069E-1,-3.926490843E-1,9.780313492E0
3.672062841E0,-8.667010069E-1,-3.998316824E-1,9.792284966E0
3.674077841E0,-8.619126081E-1,-3.902548850E-1,9.792284966E0
3.676091379E0,-8.738836050E-1,-3.926490843E-1,9.787496567E0
3.678075764E0,-8.643068075E-1,-3.830722570E-1,9.792284966E0
3.680089917E0,-8.643068075E-1,-3.902548850E-1,9.789890289E0
3.682074149E0,-8.523358107E-1,-3.926490843E-1,9.787496567E0
3.684087380E0,-8.595184088E-1,-3.878606856E-1,9.789890289E0
3.686071688E0,-8.619126081E-1,-3.902548850E-1,9.794678688E0
3.688086226E0,-8.667010069E-1,-3.902548850E-1,9.789890289E0
3.690068612E0,-8.690952063E-1,-3.974374831E-1,9.797073364E0
3.692083458E0,-8.619126081E-1,-3.926490843E-1,9.801861763E0
3.694067150E0,-8.690952063E-1,-3.974374831E-1,9.811438560E0
3.696081304E0,-8.690952063E-1,-3.878606856E-1,9.813833237E0
3.698064381E0,-8.523358107E-1,-3.711012602E-1,9.806650162E0
3.700078459E0,-8.667010069E-1,-3.663128614E-1,9.801861763E0
3.702093613E0,-8.667010069E-1,-3.806780577E-1,9.801861763E0
3.704076305E0,-8.786720037E-1,-3.639186621E-1,9.799467087E0
3.706090228E0,-8.930372596E-1,-3.711012602E-1,9.799467087E0
3.708075383E0,-8.930372596E-1,-3.639186621E-1,9.799467087E0
3.710088306E0,-8.978256583E-1,-3.519476354E-1,9.799467087E0
3.712071998E0,-9.121908545E-1,-3.591302633E-1,9.804255486E0
3.714086229E0,-9.169792533E-1,-3.615244627E-1,9.801861763E0
3.716069845E0,-9.097966552E-1,-3.663128614E-1,9.804255486E0
3.718083999E0,-9.289502501E-1,-3.711012602E-1,9.806650162E0
3.720067769E0,-9.433154464E-1,-3.687070608E-1,9.811438560E0
3.722081538E0,-9.528923035E-1,-3.615244627E-1,9.813833237E0
3.724064923E0,-9.504981041E-1,-3.591302633E-1,9.809044838E0
3.726079462E0,-9.528923035E-1,-3.495534360E-1,9.813833237E0
3.728094462E0,-9.504981041E-1,-3.495534360E-1,9.809044838E0
3.730077308E0,-9.576807022E-1,-3.519476354E-1,9.811438560E0
3.732091693E0,-9.672574997E-1,-3.711012602E-1,9.806650162E0
3.734075693E0,-9.648633003E-1,-3.615244627E-1,9.806650162E0
3.736089309E0,-9.672574997E-1,-3.519476354E-1,9.804255486E0
3.738073232E0,-9.720458984E-1,-3.567360640E-1,9.804255486E0
3.740087463E0,-9.576807022E-1,-3.711012602E-1,9.799467087E0
3.742070771E0,-9.576807022E-1,-3.687070608E-1,9.804255486E0
3.744085541E0,-9.600749016E-1,-3.711012602E-1,9.797073364E0
3.746068618E0,-9.672574997E-1,-3.758896589E-1,9.785101891E0
3.748083464E0,-9.768342972E-1,-3.806780577E-1,9.789890289E0
3.750066156E0,-9.576807022E-1,-3.926490843E-1,9.794678688E0
3.752080926E0,-9.528923035E-1,-3.782838583E-1,9.799467087E0
3.754064004E0,-9.504981041E-1,-3.782838583E-1,9.797073364E0
3.756078465E0,-9.433154464E-1,-3.734954596E-1,9.789890289E0
3.758092927E0,-9.409212470E-1,-3.663128614E-1,9.785101891E0
3.760075773E0,-9.385270476E-1,-3.711012602E-1,9.792284966E0
3.762090235E0,-9.457096457E-1,-3.711012602E-1,9.785101891E0
3.764073851E0,-9.433154464E-1,-3.782838583E-1,9.780313492E0
3.766089005E0,-9.385270476E-1,-3.758896589E-1,9.787496567E0
3.768073543E0,-9.313444495E-1,-3.878606856E-1,9.797073364E0
3.770086158E0,-9.313444495E-1,-3.830722570E-1,9.797073364E0
3.772069236E0,-9.409212470E-1,-3.782838583E-1,9.787496567E0
3.774084006E0,-9.337386489E-1,-3.974374831E-1,9.794678688E0
3.776067390E0,-9.289502501E-1,-3.926490843E-1,9.801861763E0
3.778081852E0,-9.169792533E-1,-3.734954596E-1,9.809044838E0
3.780065545E0,-9.050082564E-1,-3.806780577E-1,9.804255486E0
3.782080084E0,-9.026140571E-1,-3.782838583E-1,9.809044838E0
3.784094160E0,-9.026140571E-1,-3.806780577E-1,9.813833237E0
3.786077622E0,-8.954314590E-1,-3.758896589E-1,9.816226959E0
3.788092007E0,-8.930372596E-1,-3.711012602E-1,9.813833237E0
3.790075469E0,-9.121908545E-1,-3.758896589E-1,9.806650162E0
3.792088623E0,-9.050082564E-1,-3.758896589E-1,9.811438560E0
3.794072623E0,-8.882488012E-1,-3.806780577E-1,9.809044838E0
3.796087085E0,-8.906430602E-1,-3.926490843E-1,9.799467087E0
3.798070470E0,-8.930372596E-1,-3.902548850E-1,9.809044838E0
3.800084932E0,-9.002198577E-1,-3.830722570E-1,9.804255486E0
3.802069009E0,-8.954314590E-1,-3.878606856E-1,9.801861763E0
3.804081624E0,-9.026140571E-1,-3.854664862E-1,9.801861763E0
3.806065932E0,-9.026140571E-1,-3.711012602E-1,9.804255486E0
3.808081010E0,-9.002198577E-1,-3.687070608E-1,9.813833237E0
3.810064087E0,-9.074024558E-1,-3.734954596E-1,9.813833237E0
3.812077933E0,-9.050082564E-1,-3.782838583E-1,9.823410034E0
3.814092010E0,-8.954314590E-1,-3.782838583E-1,9.816226959E0
3.816076395E0,-8.954314590E-1,-3.854664862E-1,9.821015358E0
3.818090241E0,-8.882488012E-1,-3.950432837E-1,9.806650162E0
3.820074549E0,-8.738836050E-1,-3.926490843E-1,9.797073364E0
3.822088395E0,-8.690952063E-1,-3.854664862E-1,9.801861763E0
3.824072626E0,-8.786720037E-1,-3.543418646E-1,9.799467087E0
3.826085935E0,-8.834604025E-1,-3.471592367E-1,9.804255486E0
3.828071166E0,-8.882488012E-1,-3.615244627E-1,9.809044838E0
3.830083396E0,-9.002198577E-1,-3.567360640E-1,9.799467087E0
3.832067704E0,-9.026140571E-1,-3.615244627E-1,9.801861763E0
3.834081859E0,-8.954314590E-1,-3.782838583E-1,9.801861763E0
3.836065013E0,-8.930372596E-1,-3.711012602E-1,9.787496567E0
3.838079397E0,-8.978256583E-1,-3.711012602E-1,9.797073364E0
3.840093244E0,-9.121908545E-1,-3.663128614E-1,9.811438560E0
3.842076936E0,-9.145850539E-1,-3.734954596E-1,9.811438560E0
3.844090860E0,-9.265560508E-1,-3.830722570E-1,9.809044838E0
3.846074168E0,-9.241618514E-1,-3.830722570E-1,9.823410034E0
3.848087398E0,-9.313444495E-1,-3.830722570E-1,9.823410034E0
3.850072091E0,-9.313444495E-1,-3.830722570E-1,9.823410034E0
3.852087169E0,-9.409212470E-1,-3.806780577E-1,9.809044838E0
3.854070784E0,-9.361328483E-1,-3.734954596E-1,9.811438560E0
3.856084323E0,-9.528923035E-1,-3.639186621E-1,9.806650162E0
3.858068092E0,-9.313444495E-1,-3.615244627E-1,9.809044838E0
3.860082553E0,-9.265560508E-1,-3.663128614E-1,9.809044838E0
3.862066247E0,-9.289502501E-1,-3.782838583E-1,9.797073364E0
3.864081016E0,-9.457096457E-1,-3.687070608E-1,9.804255486E0
3.866064016E0,-9.433154464E-1,-3.758896589E-1,9.804255486E0
3.868078170E0,-9.433154464E-1,-3.830722570E-1,9.801861763E0
3.870092094E0,-9.481038451E-1,-3.830722570E-1,9.792284966E0
3.872076094E0,-9.433154464E-1,-3.782838583E-1,9.797073364E0
3.874090248E0,-9.385270476E-1,-3.878606856E-1,9.794678688E0
3.876073863E0,-9.481038451E-1,-3.711012602E-1,9.804255486E0
3.878088094E0,-9.528923035E-1,-3.806780577E-1,9.809044838E0
3.880071402E0,-9.313444495E-1,-3.830722570E-1,9.794678688E0
3.882085941E0,-9.217676520E-1,-3.854664862E-1,9.794678688E0
3.884068326E0,-9.217676520E-1,-3.734954596E-1,9.792284966E0
3.886083095E0,-9.145850539E-1,-3.687070608E-1,9.789890289E0
3.888068634E0,-9.145850539E-1,-3.734954596E-1,9.801861763E0
3.890081250E0,-9.026140571E-1,-3.687070608E-1,9.806650162E0
3.892064711E0,-8.978256583E-1,-3.854664862E-1,9.797073364E0
3.894079173E0,-9.002198577E-1,-3.998316824E-1,9.792284966E0
3.896093634E0,-9.050082564E-1,-3.974374831E-1,9.785101891E0
3.898076712E0,-9.145850539E-1,-3.926490843E-1,9.792284966E0
3.900090481E0,-9.121908545E-1,-3.902548850E-1,9.797073364E0
3.902074558E0,-8.906430602E-1,-3.878606856E-1,9.797073364E0
3.904089328E0,-8.954314590E-1,-3.806780577E-1,9.794678688E0
3.906072406E0,-8.882488012E-1,-3.806780577E-1,9.792284966E0
3.908087790E0,-8.978256583E-1,-3.711012602E-1,9.780313492E0
3.910070867E0,-8.834604025E-1,-3.639186621E-1,9.794678688E0
3.912084329E0,-8.834604025E-1,-3.639186621E-1,9.792284966E0
3.914067713E0,-8.978256583E-1,-3.687070608E-1,9.794678688E0
3.916082176E0,-8.930372596E-1,-3.782838583E-1,9.789890289E0
3.918065637E0,-8.930372596E-1,-3.711012602E-1,9.787496567E0
3.920080022E0,-9.121908545E-1,-3.663128614E-1,9.792284966E0
3.922094484E0,-9.002198577E-1,-3.758896589E-1,9.789890289E0
3.924077638E0,-8.954314590E-1,-3.878606856E-1,9.801861763E0
3.926092638E0,-8.906430602E-1,-3.878606856E-1,9.789890289E0
3.928076715E0,-8.834604025E-1,-3.854664862E-1,9.787496567E0
3.930088715E0,-8.906430602E-1,-3.854664862E-1,9.799467087E0
3.932073869E0,-9.002198577E-1,-3.878606856E-1,9.792284966E0
3.934086870E0,-8.978256583E-1,-3.902548850E-1,9.794678688E0
3.936071101E0,-8.978256583E-1,-3.878606856E-1,9.806650162E0
3.938084716E0,-8.906430602E-1,-3.974374831E-1,9.823410034E0
3.940069024E0,-9.002198577E-1,-3.902548850E-1,9.825803757E0
3.942083717E0,-9.121908545E-1,-3.711012602E-1,9.811438560E0
3.944067487E0,-9.289502501E-1,-3.758896589E-1,9.813833237E0
3.946080717E0,-9.217676520E-1,-3.663128614E-1,9.816226959E0
3.948065948E0,-9.241618514E-1,-3.591302633E-1,9.813833237E0
3.950078563E0,-9.265560508E-1,-3.639186621E-1,9.818621635E0
3.952093026E0,-9.289502501E-1,-3.639186621E-1,9.818621635E0
3.954077026E0,-9.313444495E-1,-3.567360640E-1,9.813833237E0
3.956090795E0,-9.337386489E-1,-3.591302633E-1,9.823410034E0
3.958073872E0,-9.433154464E-1,-3.615244627E-1,9.818621635E0
3.960088719E0,-9.648633003E-1,-3.687070608E-1,9.823410034E0
3.962071796E0,-9.552865028E-1,-3.758896589E-1,9.821015358E0
3.964085950E0,-9.457096457E-1,-3.519476354E-1,9.811438560E0
3.966070489E0,-9.528923035E-1,-3.495534360E-1,9.811438560E0
3.968084950E0,-9.576807022E-1,-3.423708379E-1,9.809044838E0
3.970067797E0,-9.624691010E-1,-3.519476354E-1,9.797073364E0
3.972081951E0,-9.576807022E-1,-3.615244627E-1,9.782708168E0
3.974065643E0,-9.481038451E-1,-3.543418646E-1,9.777919769E0
3.976080028E0,-9.457096457E-1,-3.447650373E-1,9.770736694E0
3.978093952E0,-9.337386489E-1,-3.567360640E-1,9.770736694E0
3.980077568E0,-9.433154464E-1,-3.543418646E-1,9.768342972E0
3.982092029E0,-9.552865028E-1,-3.495534360E-1,9.763554573E0
3.984076414E0,-9.433154464E-1,-3.423708379E-1,9.758766174E0
3.986089337E0,-9.361328483E-1,-3.399766386E-1,9.749189377E0
3.988073953E0,-9.361328483E-1,-3.303998411E-1,9.768342972E0
3.990087415E0,-9.289502501E-1,-3.280056417E-1,9.763554573E0
3.992071415E0,-9.385270476E-1,-3.423708379E-1,9.770736694E0
3.994084722E0,-9.576807022E-1,-3.615244627E-1,9.758766174E0
3.996068647E0,-9.552865028E-1,-3.639186621E-1,9.753977776E0
3.998082877E0,-9.385270476E-1,-3.615244627E-1,9.768342972E0
4.000066493E0,-9.217676520E-1,-3.830722570E-1,9.780313492E0
4.002081031E0,-9.169792533E-1,-3.878606856E-1,9.785101891E0
