"Time (s)","Linear Acceleration x (m/s^2)","Linear Acceleration y (m/s^2)","Linear Acceleration z (m/s^2)"
1.208980800E-2,1.852822304E-2,1.094835997E-2,-2.341909409E-1
2.008519400E-2,-8.743768930E-2,-7.809579372E-3,-2.327699661E-1
2.808211800E-2,-1.442936659E-1,1.718488336E-2,-1.901168823E-1
3.607688800E-2,-1.514537930E-1,4.449677467E-2,-9.021759033E-2
4.407258200E-2,-1.440109611E-1,5.744898319E-2,-1.928329468E-2
5.206789000E-2,-1.294293404E-1,4.281100631E-2,8.745002747E-2
6.009504500E-2,-1.244161129E-1,3.587990999E-2,1.820611954E-1
6.809004600E-2,-1.443290710E-1,2.133864164E-2,2.529811859E-1
7.608574000E-2,-1.176968217E-1,1.707574725E-2,2.922620773E-1
8.408020100E-2,-1.981753111E-2,5.192279816E-3,2.774200439E-1
9.207712500E-2,7.991296053E-2,-1.624077559E-2,2.194366455E-1
1.000715880E-1,1.244274974E-1,-2.222779393E-2,1.429605484E-1
1.080682810E-1,1.029077768E-1,-3.430005908E-2,8.897972107E-2
1.160633590E-1,8.699768782E-2,-5.669733882E-2,2.112388611E-2
1.240888990E-1,8.018916845E-2,-4.502126575E-2,-2.507209778E-2
1.320845920E-1,2.772837877E-2,9.400278330E-3,-6.359767914E-2
1.400808240E-1,-4.906177521E-3,3.749766946E-2,-8.291053772E-2
1.480778250E-1,-1.050657034E-2,3.416070342E-2,-5.659198761E-2
1.560722090E-1,-3.995424509E-2,1.687866449E-2,-1.837062836E-2
1.640672870E-1,-2.923244238E-2,6.173640490E-3,2.550792694E-2
1.720935190E-1,-5.191403627E-2,8.224785328E-3,7.806587219E-2
1.800892120E-1,-5.516862869E-2,1.171058416E-2,1.078319550E-1
1.880861370E-1,-3.314036131E-2,-1.964759827E-2,1.411695480E-1
1.960808300E-1,-9.296357632E-3,-7.506012917E-4,1.409378052E-1
2.040756770E-1,2.359873056E-2,-2.240023017E-2,1.262998581E-1
2.120716010E-1,6.601095200E-2,-8.439421654E-4,1.044797897E-1
2.200676020E-1,7.184422016E-2,-3.281921148E-3,8.644962311E-2
2.280950640E-1,1.077232361E-1,-9.273290634E-3,4.914855957E-2
2.360895260E-1,1.100161672E-1,-6.038755178E-3,2.143287659E-2
2.440842200E-1,1.103139520E-1,1.095414162E-3,-8.653640747E-3
2.520806050E-1,1.053432226E-1,3.189474344E-3,-1.223373413E-2
2.600753750E-1,5.989634991E-2,-1.823747158E-2,1.824283600E-2
2.680725300E-1,2.236038446E-2,-2.777212858E-2,1.610088348E-2
2.760670700E-1,-1.777070761E-2,-2.098867297E-2,3.043365479E-2
2.840926090E-1,-5.658298731E-2,-1.878318191E-2,7.864761353E-2
2.920885330E-1,-6.809139252E-2,-3.561112285E-2,9.163284302E-2
3.000845330E-1,-8.776175976E-2,-1.203411818E-2,7.589149475E-2
3.080811500E-1,-1.006830931E-1,2.597373724E-2,7.140254974E-2
3.160756120E-1,-9.002584219E-2,4.986983538E-2,4.535007477E-2
3.240707670E-1,-5.079203844E-2,4.540196061E-2,4.324340820E-2
3.320673070E-1,1.011830568E-2,4.853278399E-2,2.201366425E-2
3.400934620E-1,1.868575811E-2,3.038296103E-2,1.519203186E-2
3.480900780E-1,3.983974457E-2,5.814853311E-2,1.801776886E-2
3.560849250E-1,5.478894711E-2,2.392074466E-2,2.812385559E-2
3.640762340E-1,6.863319874E-2,1.599091291E-2,4.073524475E-2
3.720750030E-1,7.652646303E-2,-2.077293396E-2,7.499980927E-2
3.800706960E-1,4.694777727E-2,-7.693281770E-2,1.141204834E-1
3.880673900E-1,-1.065456867E-2,-6.909927726E-2,1.006078720E-1
3.960929290E-1,-1.059722304E-1,-5.236199498E-2,8.712673187E-2
4.040873920E-1,-1.581764221E-1,-3.851962090E-2,5.687522888E-2
4.120846240E-1,-2.016298771E-1,-1.789301634E-2,2.596855164E-3
4.200793170E-1,-2.321815491E-1,1.452302933E-2,-3.984165192E-2
4.280759330E-1,-2.758451104E-1,6.619784236E-2,-4.885673523E-2
4.360710880E-1,-1.981751323E-1,4.148012400E-2,-2.441024780E-2
4.440658570E-1,-1.260267496E-1,6.008175015E-2,1.195240021E-2
4.520922430E-1,-7.623386383E-2,9.579649568E-2,4.107666016E-2
4.600885520E-1,-3.895133734E-2,9.589907527E-2,6.058979034E-2
4.680846300E-1,-2.573275566E-2,6.752049923E-2,1.088333130E-1
4.760793230E-1,1.785635948E-3,1.160293818E-3,1.331462860E-1
4.840747090E-1,-1.356196404E-2,-4.364559054E-2,1.311445236E-1
4.920707100E-1,-4.510223866E-3,-5.286079645E-2,1.124153137E-1
5.000660950E-1,-7.213711739E-3,-3.593978286E-2,8.891105652E-2
5.080931730E-1,-5.557209253E-2,-1.674011350E-2,6.299304962E-2
5.160876350E-1,-1.355508566E-1,1.584291458E-4,2.506065369E-2
5.240827900E-1,-1.945345998E-1,7.563471794E-3,-1.052284241E-2
5.320787910E-1,-2.300928235E-1,1.287534833E-2,-1.980781555E-2
5.400741760E-1,-2.636861801E-1,8.912950754E-3,-7.572174072E-3
5.480716390E-1,-2.403291464E-1,3.894060850E-2,3.336715698E-2
5.560654860E-1,-1.485726237E-1,2.604177594E-2,5.984878540E-2
5.640920260E-1,-7.013595104E-2,2.527758479E-2,1.029644012E-1
5.720879500E-1,1.676309109E-2,3.054052591E-3,9.090805054E-2
5.800836430E-1,1.055236459E-1,-1.693236828E-2,9.555244446E-2
5.880800280E-1,1.514988542E-1,-2.746361494E-2,1.050109863E-1
5.960741060E-1,1.818112135E-1,-3.630116582E-2,6.665992737E-2
6.040697990E-1,1.849596500E-1,-3.847321868E-2,3.083038330E-2
6.120661080E-1,1.154054403E-1,-9.848147631E-3,2.386474609E-2
6.200920320E-1,3.986757994E-2,-1.262065768E-2,1.461029053E-2
6.280886480E-1,-3.962677717E-2,6.062269211E-3,1.501083374E-2
6.360830340E-1,-9.479808807E-2,-2.291247249E-2,4.179859161E-2
6.440781120E-1,-1.308392882E-1,-1.101592183E-2,4.465293884E-2
6.520748050E-1,-1.480996609E-1,1.001626253E-3,4.268741608E-2
6.600692670E-1,-1.302338243E-1,-2.514138818E-2,6.459617615E-2
6.680661140E-1,-1.321159005E-1,8.611381054E-3,7.208156586E-2
6.760913460E-1,-1.227095723E-1,3.759595752E-2,4.119396210E-2
6.840839620E-1,-1.066376567E-1,3.555324674E-2,2.462291718E-2
6.920830400E-1,-7.207375765E-2,1.909479499E-2,3.910732269E-2
7.000781950E-1,-5.950659513E-2,1.935932040E-2,2.002716064E-2
7.080753500E-1,-6.646692753E-2,-2.109584212E-2,2.484893799E-2
7.160695810E-1,-5.692088604E-2,5.423992872E-3,2.725028992E-2
7.240655050E-1,-5.709630251E-2,7.854282856E-3,3.202247620E-2
7.320913520E-1,-7.185131311E-2,1.025623083E-2,4.155921936E-2
7.400867370E-1,-7.002073526E-2,-8.820980787E-3,6.066036224E-2
7.480836610E-1,-4.974299669E-2,-3.510722518E-2,5.095672607E-2
7.560772780E-1,-6.595444679E-2,-3.268185258E-2,2.922344208E-2
7.640728940E-1,-5.576908588E-2,-1.846432686E-2,2.185440063E-2
7.720698180E-1,-2.409249544E-2,-1.409739256E-2,9.678840637E-3
7.800646650E-1,-3.326153755E-2,1.900368929E-2,-2.511024475E-3
7.880919740E-1,-1.155233383E-2,4.076302052E-3,1.639175415E-2
7.960862060E-1,-9.115636349E-3,1.335576177E-2,2.093219757E-2
8.040815140E-1,-1.147681475E-2,-2.027344704E-2,6.618118286E-2
8.120775920E-1,-1.132941246E-2,2.045056224E-2,8.511257172E-2
8.200738230E-1,-1.984953880E-3,-3.953266144E-2,1.183643341E-1
8.280704400E-1,-9.431242943E-3,-3.762799501E-2,1.324434280E-1
8.360649020E-1,-9.468972683E-3,-4.833874106E-2,1.201791763E-1
8.440883650E-1,-1.159000397E-2,-2.383458614E-2,9.833717346E-2
8.520855200E-1,-1.342266798E-2,2.426072955E-2,4.298782349E-2
8.600824440E-1,-4.629486799E-2,6.497561932E-2,3.791713715E-2
8.680796760E-1,-9.976506233E-3,7.459706068E-2,1.127719879E-2
8.760732920E-1,-1.914042234E-2,5.104491115E-2,1.817417145E-2
8.840683690E-1,7.715046406E-3,-1.051190495E-2,2.749061584E-2
8.920649850E-1,4.060208797E-3,-6.695815921E-2,3.688240051E-2
9.000908330E-1,2.030241489E-2,-3.936919570E-2,7.508659363E-2
9.080873720E-1,6.390601397E-2,7.363587618E-3,9.663200378E-2
9.160818350E-1,8.426368237E-2,2.311009169E-2,9.909725189E-2
9.240766050E-1,4.993307590E-2,3.920385242E-2,1.016159058E-1
9.320732210E-1,4.919397831E-2,2.906492352E-2,1.065397263E-1
9.400686070E-1,1.517498493E-2,-5.023270845E-3,7.318019867E-2
9.480662230E-1,2.461987734E-2,2.054110169E-2,3.984737396E-2
9.560907620E-1,1.534479856E-2,2.182793617E-2,2.330303192E-2
9.640855320E-1,-1.503473520E-2,2.538177371E-2,-5.172729492E-3
9.720819180E-1,-5.024218559E-2,2.631714940E-2,-4.932403564E-3
9.800779190E-1,-1.026294231E-1,3.918758035E-2,2.878570557E-2
9.880733040E-1,-1.344125867E-1,3.529271483E-2,3.607368469E-2
9.960680750E-1,-1.724022031E-1,8.645787835E-2,5.279827118E-2
1.004063383E0,-1.452222466E-1,8.041626215E-2,-8.392333984E-5
1.012090154E0,-1.409225464E-1,3.182134032E-2,-2.673721313E-2
1.020085232E0,-3.844469786E-2,-5.215948820E-2,-3.660678864E-2
1.028083078E0,1.071774960E-2,-1.504897475E-1,4.707431793E-2
1.036077309E0,2.386265993E-2,-1.823058724E-1,2.195415497E-1
1.044071772E0,-8.324086666E-3,-6.044059992E-3,1.885089874E-1
1.052068312E0,-8.359533548E-2,1.322897971E-1,9.261417389E-2
1.060063697E0,-7.466566563E-2,1.799591184E-1,-1.782989502E-2
1.068089929E0,-4.132449627E-3,8.440777659E-2,-8.761310577E-2
1.076085930E0,1.217515469E-1,-7.285571098E-2,-7.115459442E-2
1.084080085E0,2.165284753E-1,-1.102367043E-1,1.258754730E-2
1.092076086E0,2.232273221E-1,-9.745934606E-2,1.205482483E-1
1.100072086E0,1.016977429E-1,-8.218777180E-2,1.448211670E-1
1.108069241E0,1.895767450E-2,2.530097961E-3,1.428070068E-1
1.116063473E0,-6.033897400E-3,-1.826742291E-2,1.240549088E-1
1.124089550E0,-2.818644047E-3,-7.963627577E-3,6.933975220E-2
1.132085321E0,5.068784952E-2,-2.524018288E-3,2.419853210E-2
1.140080706E0,9.460306168E-2,7.509678602E-3,-4.010486603E-2
1.148077554E0,7.911825180E-2,-3.504416347E-2,-4.210758209E-2
1.156072093E0,4.038619995E-2,-4.655265808E-2,-9.469985962E-4
1.164067094E0,-7.196187973E-3,-5.923837423E-3,-4.367828369E-4
1.172093940E0,-8.536696434E-3,2.727290988E-2,1.690101624E-2
1.180089018E0,-1.930916309E-2,8.427551389E-2,-1.661300659E-3
1.188085635E0,-2.789008617E-2,6.004315615E-2,1.328468323E-2
1.196080328E0,-3.411412239E-2,3.612655401E-2,2.345657349E-2
1.212072022E0,-4.231190681E-2,-1.107344031E-2,9.645462036E-2
1.220067408E0,-5.374443531E-2,-2.759128809E-2,1.233615875E-1
1.228094178E0,-3.647708893E-2,-2.251571417E-2,1.095685959E-1
1.236089564E0,-1.725769043E-2,-1.761153340E-2,8.854103088E-2
1.244084641E0,-2.227962017E-2,-1.050636172E-2,1.009950638E-1
1.252080949E0,-4.180812836E-2,-1.251518726E-3,6.075096130E-2
1.260076027E0,-6.398892403E-2,1.263940334E-2,3.962802887E-2
1.268072721E0,-8.168065548E-2,3.358367085E-2,-6.837844849E-4
1.276066799E0,-9.502184391E-2,3.549048305E-2,-1.230621338E-2
1.284093338E0,-8.973550797E-2,3.746581078E-2,-1.440429688E-2
1.292088724E0,-9.442782402E-2,2.045291662E-2,2.176761627E-2
1.300083802E0,-8.761370182E-2,5.974978209E-3,4.113674164E-2
1.308081264E0,-7.630085945E-2,-1.327154040E-2,5.329513550E-2
1.316075803E0,-7.701766491E-2,-1.342654228E-3,7.981300354E-2
1.324070496E0,-5.396664143E-2,5.806148052E-3,1.039180756E-1
1.332067112E0,-5.288982391E-2,-1.345247030E-3,9.924983978E-2
1.340092960E0,-7.136201859E-2,8.260965347E-3,9.214305878E-2
1.348088961E0,-4.926919937E-2,5.877733231E-3,7.544422150E-2
1.356084346E0,-3.681719303E-2,3.464356065E-2,6.113338470E-2
1.364079193E0,-3.654813766E-2,2.744662762E-2,3.722000122E-2
1.372075733E0,-1.974070072E-2,3.718227148E-2,1.568412781E-2
1.380070888E0,-2.947652340E-2,4.213505983E-2,1.309394836E-3
1.388067503E0,-4.156136513E-2,4.080355167E-3,-1.066398621E-2
1.396092966E0,-3.679656982E-2,1.393428445E-2,3.711700439E-3
1.404085890E0,-3.679168224E-2,2.271294594E-3,1.809024811E-2
1.412084737E0,-3.229618073E-2,-1.889058948E-2,2.286338806E-2
1.420079430E0,-3.532934189E-2,-2.573457360E-2,3.478050232E-2
1.428076047E0,-3.603899479E-2,-2.054062486E-2,4.190254211E-2
1.436070817E0,3.775000572E-3,-2.484232187E-2,6.576919556E-2
1.452092434E0,4.610431194E-2,-3.833949566E-2,1.088199615E-1
1.460088050E0,4.632294178E-2,-1.426091790E-2,1.088504791E-1
1.468085589E0,3.276431561E-2,6.923228502E-3,1.089229584E-1
1.476079744E0,2.688050270E-2,5.865523219E-2,6.592655182E-2
1.484074207E0,-3.614985943E-2,7.903221250E-2,2.774524689E-2
1.492070208E0,-4.920756817E-2,1.139371991E-1,-2.722263336E-2
1.500066286E0,-5.522358418E-2,7.472044230E-2,-4.389381409E-2
1.508093287E0,-3.763389587E-2,4.959404469E-3,-5.339336395E-2
1.516088365E0,1.071214676E-3,-2.848902345E-2,-2.461528778E-2
1.524082519E0,1.867604256E-2,-4.242524505E-2,2.816867828E-2
1.532079135E0,2.001845837E-2,-4.920071363E-2,7.143211365E-2
1.540074521E0,-1.664209366E-2,-3.919813037E-2,1.410646439E-1
1.548071137E0,-2.462482452E-2,-3.411492705E-2,1.580152512E-1
1.556066599E0,-8.109319210E-2,-1.727786660E-2,1.485519409E-1
1.564088370E0,-1.216214895E-1,-7.043480873E-4,1.198329926E-1
1.572088063E0,-1.487485170E-1,1.802840829E-2,7.423591614E-2
1.580083756E0,-1.143821478E-1,1.999342442E-2,2.137279510E-2
1.588080142E0,-9.984385967E-2,2.668777108E-2,-3.396224976E-2
1.596073912E0,-4.280054569E-2,1.421603560E-2,-7.020759583E-2
1.604069989E0,6.912827492E-3,1.635211706E-2,-7.533454895E-2
1.612065913E0,3.270137310E-2,2.596580982E-2,-2.058982849E-2
1.620091530E0,6.104898453E-2,-2.104341984E-4,-1.733779907E-3
1.628087761E0,6.104147434E-2,-2.148213983E-2,5.308246613E-2
1.636082301E0,3.510224819E-2,-2.847194672E-2,1.390647888E-1
1.644077994E0,1.180887222E-2,-1.889204979E-2,1.556339264E-1
1.652074841E0,-3.804111481E-2,2.523750067E-3,1.434431076E-1
1.660070227E0,-3.548467159E-2,7.177233696E-3,1.288299561E-1
1.668066536E0,-4.518330097E-2,-9.585201740E-3,1.333456039E-1
1.676091844E0,-2.422976494E-2,9.602308273E-5,1.019029617E-1
1.684087229E0,1.067292690E-2,-9.489506483E-3,4.646873474E-2
1.692083153E0,1.683521271E-2,1.193821430E-2,-3.770065308E-2
1.700078000E0,6.403291225E-2,1.180472970E-2,-5.000591278E-2
1.708074925E0,9.783178568E-2,8.984744549E-3,-1.673221588E-2
1.716069310E0,8.447313309E-2,2.276265621E-2,-1.690578461E-2
1.724064696E0,6.444394588E-2,3.187009692E-2,-2.180767059E-2
1.732091851E0,2.075469494E-2,5.297428370E-2,2.838611603E-2
1.740087159E0,-5.884647369E-3,2.147197723E-2,6.664657593E-2
1.748083237E0,-5.405926704E-2,-4.437565804E-4,1.072998047E-1
1.756078237E0,-6.187760830E-2,-7.879018784E-3,1.431350708E-1
1.764073008E0,-7.751214504E-2,-2.254709601E-2,1.310148239E-1
1.772069701E0,-6.022393703E-2,-1.572260261E-2,1.044664383E-1
1.780065087E0,-5.549776554E-2,-2.331095934E-2,8.982372284E-2
1.788091857E0,-1.762640476E-2,-2.378058434E-2,3.683090210E-2
1.796086012E0,2.032685280E-2,-5.213290453E-3,6.036758423E-4
1.804081397E0,5.862343311E-2,1.111781597E-2,2.726554871E-3
1.812078860E0,6.635510921E-2,1.158982515E-3,1.927661896E-2
1.820073938E0,4.601919651E-2,-6.409257650E-3,9.559631348E-3
1.828070322E0,2.368593216E-2,2.434527874E-2,4.537391663E-2
1.836064400E0,-1.987516880E-2,1.205483079E-2,5.728244781E-2
1.844091171E0,-3.947043419E-2,-1.209929585E-2,8.356380463E-2
1.852087172E0,-5.956161022E-2,-2.188605070E-2,1.050043106E-1
1.860081711E0,-7.302320004E-2,6.684511900E-3,9.047794342E-2
1.868078328E0,-4.375827312E-2,-2.229091525E-2,9.027385712E-2
1.876073405E0,-2.658843994E-3,-3.704121709E-2,6.131935120E-2
1.884068406E0,3.864729404E-2,-2.551519871E-2,3.956604004E-2
1.892064715E0,8.277040720E-2,1.461061835E-2,1.092910767E-3
1.900090869E0,5.314362049E-2,2.118158340E-2,-6.208419800E-3
1.908087562E0,3.578662872E-2,3.005534410E-2,8.811950684E-4
1.916082025E0,1.931309700E-3,1.503503323E-2,-3.969192505E-3
1.924077103E0,-3.121614456E-3,1.202917099E-2,3.159523010E-3
1.932073335E0,-1.538264751E-2,1.159268618E-2,2.465820312E-2
1.940068490E0,-2.058994770E-2,-7.896900177E-3,5.333137512E-2
1.948065337E0,-2.854371071E-2,1.476317644E-3,8.197402954E-2
1.956090030E0,-2.484297752E-2,-1.068642735E-2,7.467079163E-2
1.964085416E0,2.681493759E-3,-2.984303236E-2,6.975936890E-2
1.972081723E0,3.739959002E-2,-1.067101955E-2,5.048370361E-2
1.980077109E0,6.043797731E-2,-5.965441465E-3,2.644538879E-2
1.988073649E0,8.387893438E-2,1.074165106E-2,2.160263062E-2
1.996068111E0,5.488252640E-2,-1.093950868E-2,2.635860443E-2
2.004063189E0,3.570419550E-2,4.620099068E-2,2.634239197E-2
2.012090652E0,-4.410028458E-3,-3.572687507E-2,7.225990295E-3
2.020085960E0,-5.423682928E-2,-1.945295930E-2,8.386611938E-2
2.028082654E0,-5.405724049E-2,3.824442625E-3,7.188606262E-2
2.036076808E0,-4.960340261E-2,2.005070448E-2,9.578704834E-3
2.044072116E0,-7.216155529E-2,5.399793386E-3,2.382850647E-2
2.052068502E0,-2.772545815E-2,4.724264145E-4,5.005073547E-2
2.060063811E0,-2.915978432E-2,3.089904785E-4,6.426334381E-2
2.068090965E0,-1.874589920E-2,7.300347090E-3,6.170177460E-2
2.076086043E0,-6.072938442E-3,-4.798382521E-3,7.828235626E-2
2.084080506E0,4.166305065E-3,-9.831786156E-5,1.020450592E-1
2.092076199E0,3.840649128E-2,1.179221272E-2,1.138429642E-1
2.100072123E0,2.736371756E-2,-9.856075048E-3,7.538318634E-2
2.108068817E0,1.674580574E-2,-7.658034563E-3,6.808662415E-2
2.116063509E0,1.823157072E-2,-1.997369528E-2,4.164314270E-2
2.124086664E0,-6.558418274E-3,8.180916309E-3,3.913974762E-2
2.132085357E0,2.884626389E-2,-4.453152418E-3,2.708911896E-2
2.140081050E0,2.873128653E-2,-5.081743002E-3,2.944564819E-2
2.148077975E0,5.766326189E-2,-3.138422966E-3,2.226352692E-2
2.156071899E0,3.900450468E-2,-5.874812603E-3,1.272201538E-2
2.164067515E0,2.785676718E-2,-1.379162073E-3,3.673458099E-2
2.172093978E0,1.689302921E-2,3.185957670E-3,3.682804108E-2
2.180089133E0,-5.893588066E-3,2.999663353E-3,5.130195618E-2
2.188086902E0,-2.892297506E-2,-2.836647630E-2,8.969211578E-2
2.196081057E0,-2.365309000E-2,3.889203072E-5,5.860233307E-2
2.204076135E0,-2.098447084E-2,6.874799728E-3,5.143260956E-2
2.212071905E0,-3.036075830E-2,1.589953899E-3,2.030849457E-2
2.220068137E0,-1.123106480E-2,3.531396389E-3,2.986335754E-2
2.228094676E0,-1.367855072E-2,1.261612773E-2,3.223133087E-2
2.236089139E0,-1.136821508E-2,7.206678391E-3,1.064968109E-2
2.244084140E0,5.285322666E-3,3.061747551E-2,1.779842377E-2
2.252081371E0,5.075931549E-3,2.280005813E-2,2.493476868E-2
2.260075525E0,-9.468317032E-3,1.976794004E-2,3.686046600E-2
2.268072757E0,-4.661083221E-5,2.443969250E-3,4.879283905E-2
2.276066912E0,-5.146145821E-3,1.143598557E-2,7.028484344E-2
2.284090682E0,1.678407192E-3,-1.098811626E-3,7.501316071E-2
2.292089068E0,-1.556384563E-2,1.510110497E-2,7.973003387E-2
2.300084761E0,-3.297001123E-2,-4.525214434E-3,8.203792572E-2
2.308081455E0,-3.138107061E-2,4.483073950E-3,6.517505646E-2
2.316075609E0,-1.074570417E-2,3.866165876E-3,5.308532715E-2
2.324071226E0,-1.416712999E-2,1.033324003E-2,5.295276642E-2
2.332067610E0,-8.072435856E-3,2.160024643E-2,2.647686005E-2
2.340093150E0,-2.852743864E-2,-1.506778598E-2,4.767417908E-3
2.348089074E0,-1.556384563E-2,-3.643989563E-3,1.657485962E-2
2.356084844E0,-1.228016615E-2,-4.091143608E-3,2.358818054E-2
2.364078076E0,-9.014666080E-3,-2.079278231E-3,2.581310272E-2
2.372075923E0,6.184220314E-3,-7.275789976E-3,4.718875885E-2
2.380071309E0,2.167046070E-3,-9.963124990E-3,5.419635773E-2
2.388067002E0,7.556855679E-3,1.117721200E-2,5.160713196E-2
2.396092772E0,-1.101964712E-2,-3.669083118E-3,6.577205658E-2
2.404088542E0,8.747279644E-3,-8.905500174E-3,5.839443207E-2
2.412084466E0,6.948053837E-3,-1.416093111E-2,7.256221771E-2
2.420080159E0,2.661138773E-2,2.182751894E-3,6.517505646E-2
2.428076545E0,2.489095926E-2,-2.973020077E-3,5.541419983E-2
2.436070392E0,1.356899738E-2,3.905653954E-3,5.044078827E-2
2.444066008E0,3.362691402E-2,-1.140922308E-3,4.310035706E-2
2.452092240E0,1.064169407E-2,1.018792391E-3,5.013275146E-2
2.460088241E0,9.478926659E-3,1.511126757E-2,3.564167023E-2
2.468085088E0,4.910272360E-2,1.715555787E-2,2.355098724E-2
2.476080165E0,5.058091879E-2,7.206201553E-3,3.062915802E-2
2.484074705E0,2.592867613E-2,-2.375543118E-4,3.294277191E-2
2.492071013E0,4.469704628E-2,-5.582273006E-4,5.204582214E-2
2.500066322E0,3.022468090E-2,3.924757242E-3,4.723453522E-2
2.508093400E0,8.682727814E-3,1.566916704E-2,4.722595215E-2
2.516087555E0,-7.347464561E-4,9.949803352E-4,5.920028687E-2
2.524083017E0,-1.015675068E-2,-1.849937439E-2,5.920219421E-2
2.532079942E0,6.749749184E-3,-6.929814816E-3,5.441188812E-2
2.540074712E0,4.341661930E-3,2.858692408E-2,4.242324829E-2
2.548071866E0,-7.713496685E-3,4.293918610E-3,3.521919250E-2
2.556066097E0,1.854312420E-2,-2.948752046E-2,5.195999146E-2
2.564092252E0,3.991186619E-3,-1.535403728E-2,3.756713867E-2
2.572087638E0,6.414055824E-3,-8.555650711E-3,4.952621460E-2
2.580082408E0,-7.924973965E-3,-1.371291280E-2,4.472541809E-2
2.588080178E0,1.369488239E-2,-9.274095297E-3,4.711246490E-2
2.596074103E0,-1.743185520E-2,9.488999844E-3,4.709720612E-2
2.604069411E0,-1.758956909E-2,6.708472967E-3,4.227733612E-2
2.612065797E0,-3.206372261E-2,3.973960876E-3,3.746509552E-2
2.620091643E0,-1.334261894E-2,1.095056534E-2,3.741455078E-2
2.628088490E0,-1.388150454E-2,-1.543876529E-2,4.454326630E-2
2.636083261E0,-5.237042904E-3,8.489102125E-3,5.163288116E-2
2.644078338E0,-3.956496716E-3,8.490949869E-3,3.955364227E-2
2.652074647E0,1.661682129E-2,-2.251094580E-2,3.467559814E-2
2.660070340E0,2.039271593E-2,-2.728652954E-2,4.175949097E-2
2.668067265E0,4.853034019E-2,-1.293936372E-2,4.170131683E-2
2.676091650E0,5.309957266E-2,1.284539700E-3,4.167461395E-2
2.684086344E0,4.583853483E-2,1.324132085E-2,4.166603088E-2
2.692082652E0,4.337972403E-2,1.076671481E-2,2.968597412E-2
2.700078422E0,1.462101936E-2,-1.227110624E-3,3.686428070E-2
2.708074423E0,9.967267513E-3,-6.164222956E-3,5.123615265E-2
2.716070039E0,2.982616425E-3,3.161400557E-3,4.645729065E-2
2.724064809E0,-2.568054199E-2,5.332797766E-3,4.885005951E-2
2.732091041E0,-4.512715340E-2,5.134671926E-3,4.163074493E-2
2.740087350E0,-5.058974028E-2,2.569705248E-3,3.198146820E-2
2.748083966E0,-4.424357414E-2,9.653389454E-3,2.231979370E-2
2.756078121E0,-4.582822323E-3,-1.826882362E-5,2.700233459E-2
2.764073122E0,6.298661232E-3,7.085561752E-3,3.886604309E-2
2.772070122E0,1.714438200E-2,4.729270935E-3,4.833507538E-2
2.780065123E0,3.754395247E-2,2.468347549E-3,5.780601501E-2
2.788092201E0,4.142105579E-2,-4.615604877E-3,5.293369293E-2
2.796087048E0,5.269116163E-2,-2.199500799E-3,7.680892944E-2
2.804082357E0,5.464291573E-2,-4.526048899E-3,8.874034882E-2
2.812078358E0,3.514081240E-2,-1.191806793E-2,6.954479218E-2
2.820074128E0,3.248876333E-2,2.131831646E-2,4.556560516E-2
2.828070129E0,1.557213068E-2,1.156455278E-2,3.117847443E-2
2.836065130E0,2.032572031E-2,1.132383943E-2,2.877235413E-2
2.844088515E0,1.314520836E-3,8.779644966E-3,1.920318604E-2
2.852086439E0,1.339477301E-2,1.103416085E-2,2.399730682E-2
2.860082440E0,3.925740719E-3,3.885626793E-3,2.879714966E-2
2.868078979E0,-7.957279682E-3,-8.057117462E-3,4.556465149E-2
2.876073827E0,-1.275116205E-2,1.835855842E-2,5.514526367E-2
2.884068904E0,-5.498111248E-3,6.404101849E-3,7.909488678E-2
2.892095059E0,2.070808411E-2,-5.545079708E-3,7.908439636E-2
2.900090983E0,1.105076075E-2,-1.768353581E-2,6.949234009E-2
2.908087061E0,3.730708361E-2,1.575681567E-2,6.708717346E-2
2.916082138E0,2.292275429E-2,-5.974411964E-3,5.271244049E-2
2.924077216E0,-3.297030926E-3,-1.393616199E-3,4.553222656E-2
2.932073448E0,1.354336739E-2,1.519852877E-2,3.356361389E-2
2.940069141E0,1.722335815E-3,3.108829260E-3,2.878379822E-2
2.948066065E0,-1.029223204E-2,2.924740314E-3,2.398490906E-2
2.956090143E0,-1.515376568E-2,2.813547850E-3,3.833866119E-2
2.964085529E0,3.857135773E-3,1.470467448E-2,3.113842010E-2
2.972081222E0,-3.540694714E-3,2.649784088E-3,3.829765320E-2
2.980077454E0,1.301509142E-2,-6.888300180E-3,4.785633087E-2
2.988074454E0,2.947765589E-2,-4.533439875E-3,4.543113708E-2
2.996069148E0,2.697920799E-2,-1.174539328E-2,5.499839783E-2
3.004062995E0,1.727384329E-2,-4.584372044E-3,4.540729523E-2
3.012090996E0,-1.170217991E-2,1.928511262E-2,6.932353973E-2
3.020085458E0,-1.914530993E-2,1.440736651E-2,5.253505707E-2
3.028082767E0,-7.579147816E-3,-4.692435265E-3,4.770946503E-2
3.036076537E0,4.002392292E-3,-7.130414248E-3,4.048728943E-2
3.044072538E0,-6.125271320E-3,9.526610374E-3,3.564262390E-2
3.052068539E0,2.468585968E-2,-1.699140668E-2,3.081703186E-2
3.060063924E0,2.205920219E-2,-9.865015745E-3,4.515743256E-2
3.068091079E0,3.395313025E-2,-4.571676254E-4,5.232620239E-2
3.076085234E0,4.831260443E-2,-1.731836796E-2,5.232143402E-2
3.084077850E0,6.029284000E-2,-1.988893747E-2,5.471038818E-2
3.092076851E0,5.342680216E-2,-8.113086224E-3,5.473327637E-2
3.100072544E0,1.566779613E-2,1.790300012E-2,4.759025574E-2
3.108069545E0,9.133756161E-3,3.909325600E-2,6.679248810E-2
3.116093854E0,-6.919264793E-3,1.488214731E-2,4.290771484E-2
3.124089778E0,5.638122559E-3,3.622436523E-2,3.098487854E-2
3.132085240E0,-1.078438759E-2,1.225614548E-2,3.819942474E-2
3.140081241E0,-8.176386356E-3,-4.554361105E-3,5.737113953E-2
3.148078088E0,-1.531374454E-2,-4.627227783E-3,5.018997192E-2
3.156072551E0,-2.506393194E-2,-1.909428835E-2,4.538059235E-2
3.164067321E0,-1.592475176E-2,4.759937525E-3,1.899909973E-2
3.172094168E0,2.636075020E-3,1.663491130E-2,3.090953827E-2
3.180089861E0,1.391667128E-2,-2.538651228E-3,3.084182739E-2
3.188086708E0,1.792019606E-2,-4.942446947E-3,3.076553345E-2
3.196080633E0,1.718115807E-2,-9.641468525E-3,3.788185120E-2
3.204076325E0,1.637041569E-2,-1.918068528E-2,4.977607727E-2
3.212072249E0,8.429586887E-3,-2.622592449E-2,6.886291504E-2
3.220068019E0,1.246690750E-2,-1.657360792E-2,6.639957428E-2
3.228095405E0,6.943643093E-3,-2.141129971E-2,7.590389252E-2
3.236089867E0,1.838630438E-2,-1.665934920E-2,6.388092041E-2
3.244081176E0,1.541596651E-2,7.275909185E-3,6.143093109E-2
3.252081177E0,3.405058384E-2,-7.029831409E-3,6.617259979E-2
3.260075717E0,2.391368151E-2,1.933687925E-2,4.696655273E-2
3.268072871E0,3.311973810E-2,2.728819847E-3,4.214859009E-2
3.276067102E0,4.484182596E-2,5.252569914E-3,5.889034271E-2
3.284092949E0,7.348942757E-2,5.302488804E-3,4.930591583E-2
3.292089566E0,7.359248400E-2,5.179047585E-4,4.452800751E-2
3.300084951E0,5.005204678E-2,1.961642504E-2,3.498649597E-2
3.308081491E0,3.624397516E-2,2.665758133E-2,4.700565338E-2
3.316075954E0,9.253025055E-4,2.416229248E-2,5.184745789E-2
3.324070801E0,-1.765084267E-2,1.209002733E-2,3.992748260E-2
3.332067340E0,-5.271553993E-3,-7.253378630E-3,5.193042755E-2
3.340092957E0,-2.888691425E-2,-2.683132887E-3,3.998184204E-2
3.348090110E0,-2.387070656E-2,-1.246306300E-2,4.238986969E-2
3.356084881E0,-1.898211241E-2,-3.052622080E-3,3.042125702E-2
3.364079651E0,-2.380669117E-3,8.805900812E-3,4.237365723E-2
3.372076344E0,4.527509212E-3,-5.608290434E-3,3.755760193E-2
3.380071653E0,4.199743271E-3,3.948092461E-3,4.470634460E-2
3.388068577E0,1.105797291E-2,6.358116865E-3,6.143665314E-2
3.396092655E0,2.026546001E-2,-3.212958574E-3,7.816123962E-2
3.404088041E0,4.146397114E-2,-5.549669266E-3,7.094764709E-2
3.412083734E0,2.913957834E-2,8.729726076E-3,5.175685883E-2
3.420079734E0,4.080611467E-2,8.536905050E-3,3.495979309E-2
3.428077197E0,2.613967657E-2,-8.301675320E-3,3.253459930E-2
3.436071121E0,3.548043966E-2,5.976974964E-3,1.814365387E-2
3.444066122E0,2.575564384E-2,-2.031007409E-2,1.094722748E-2
3.452092661E0,2.563494444E-2,6.167560816E-3,3.727912903E-2
3.460088047E0,2.559810877E-2,-2.725768089E-2,5.882644653E-2
3.468084971E0,3.997206688E-2,-1.290455461E-2,4.446220398E-2
3.476079972E0,3.068155050E-2,-1.298728585E-2,6.363964081E-2
3.484074511E0,4.071223736E-2,8.439838886E-3,6.128406525E-2
3.492070819E0,3.160119057E-2,-3.697335720E-3,3.738021851E-2
3.500066205E0,5.688548088E-3,8.099317551E-3,3.980731964E-2
3.508093283E0,-1.308143139E-2,3.187221289E-2,3.983688354E-2
3.516088591E0,-1.025241613E-2,5.491107702E-3,3.987693787E-2
3.524083054E0,1.169043779E-2,-4.029780626E-3,6.146526337E-2
3.532079132E0,-2.470314503E-3,-3.757655621E-3,5.910205841E-2
3.540075441E0,7.249116898E-3,-2.025091648E-2,7.827949524E-2
3.548072057E0,9.827077389E-3,-3.915157914E-2,8.070087433E-2
3.556065904E0,1.243621111E-2,-1.760461926E-2,4.959583282E-2
3.564088904E0,1.008081436E-2,1.579466462E-2,3.522968292E-2
3.580084060E0,1.269048452E-2,-3.526955843E-3,1.848506927E-2
3.588080676E0,2.244597673E-2,1.796951890E-2,1.610565186E-2
3.596074447E0,3.465914726E-2,2.039745450E-2,3.767871857E-2
3.604069525E0,1.103419065E-2,1.801547408E-2,2.813243866E-2
3.612066141E0,-2.700227499E-2,8.491754532E-3,6.167888641E-2
3.620092065E0,-2.668213844E-2,-3.405362368E-3,6.410694122E-2
3.628088374E0,-1.733356714E-2,1.582315564E-2,7.845401764E-2
3.636083452E0,-2.769964933E-2,-2.018871903E-2,7.597923279E-2
3.644078221E0,-1.209872961E-2,1.222968102E-3,5.670928955E-2
3.652074145E0,2.513897419E-2,3.677159548E-3,4.224491119E-2
3.660070146E0,5.527359247E-2,1.328998804E-2,3.257465363E-2
3.668066840E0,5.420500040E-2,3.906577826E-3,2.769184113E-2
3.676091379E0,5.585432053E-2,-1.269462705E-2,3.241539001E-2
3.684087380E0,6.996655464E-2,-7.870227098E-3,3.478622437E-2
3.692083458E0,6.792551279E-2,-1.276487112E-2,4.678726196E-2
3.700078459E0,6.384575367E-2,1.339948177E-2,4.684829712E-2
3.708075383E0,3.836429119E-2,1.547589898E-2,4.452323914E-2
3.716069845E0,2.263247967E-2,1.275226474E-2,4.939651489E-2
3.724064923E0,-1.706618071E-2,1.964291930E-2,5.427074432E-2
3.732091693E0,-3.302323818E-2,7.380366325E-3,5.194091797E-2
3.740087463E0,-2.288925648E-2,7.160693407E-3,4.480266571E-2
3.748083464E0,-4.182893038E-2,-2.546757460E-3,3.524208069E-2
3.756078465E0,-8.396983147E-3,4.640370607E-3,3.523349762E-2
3.764073851E0,-8.616566658E-3,-1.019835472E-4,2.563762665E-2
3.772069236E0,-6.592512131E-3,-9.804964066E-5,3.278541565E-2
3.780065545E0,2.891182899E-2,-2.434074879E-3,4.950714111E-2
3.788092007E0,4.037940502E-2,7.158458233E-3,5.903720856E-2
3.796087085E0,4.225361347E-2,-1.429063082E-2,4.462528229E-2
3.804081624E0,2.988314629E-2,-7.082074881E-3,4.698371887E-2
3.812077933E0,2.712064981E-2,9.426474571E-5,6.849575043E-2
3.820074549E0,5.803322792E-2,-1.435995102E-2,4.213523865E-2
3.828071166E0,4.359477758E-2,1.666340232E-2,5.409526825E-2
3.836065013E0,3.899300098E-2,6.839305162E-3,3.255653381E-2
3.844090860E0,5.948126316E-3,-5.267262459E-3,5.414390564E-2
3.852087169E0,-7.931590080E-3,-2.989530563E-3,5.418586731E-2
3.860082553E0,6.761252880E-3,1.123484969E-2,5.421161652E-2
3.868078170E0,-9.843647480E-3,-5.510270596E-3,4.704380035E-2
3.876073863E0,-1.459723711E-2,6.506413221E-3,4.944324493E-2
3.884068326E0,1.161289215E-2,4.119336605E-3,3.746128082E-2
3.892064711E0,3.532469273E-2,-7.818728685E-3,4.222774506E-2
3.900090481E0,2.070885897E-2,-1.257124543E-2,4.220581055E-2
3.908087790E0,3.496330976E-2,6.485372782E-3,2.543163300E-2
3.916082176E0,3.982430696E-2,-7.463097572E-4,3.501319885E-2
3.924077638E0,3.749948740E-2,-1.040703058E-2,4.698753357E-2
3.932073869E0,3.287398815E-2,-1.041850448E-2,3.742599487E-2
3.940069024E0,3.321212530E-2,-1.283657551E-2,7.097625732E-2
3.948065948E0,9.652972221E-3,1.820689440E-2,5.903911591E-2
3.956090795E0,3.201961517E-4,1.801159978E-2,6.863307953E-2
3.964085950E0,-1.151549816E-2,2.503463626E-2,5.666828156E-2
3.972081951E0,-2.370685339E-2,1.531457901E-2,2.791023254E-2
3.980077568E0,-9.892404079E-3,2.235466242E-2,1.348686218E-2
3.988073953E0,-3.322601318E-3,4.628369212E-2,1.342868805E-2
3.996068647E0,-2.320873737E-2,1.275461912E-2,-1.008033752E-3
4.004064108E0,1.921427250E-2,-1.588669419E-2,3.963279724E-2
4.012091724E0,3.289717436E-2,-2.058711648E-2,3.478240967E-2
4.020086187E0,3.239142895E-2,-2.776741982E-2,5.388927460E-2
4.028083188E0,1.049679518E-2,-1.333704591E-2,7.780075073E-2
4.036077881E0,1.029932499E-2,-8.640497923E-3,6.580638885E-2
4.044072652E0,6.134510040E-4,-1.583716273E-2,9.213256836E-2
4.052068345E0,7.610380650E-3,8.178144693E-3,6.817531586E-2
4.060064038E0,3.382575512E-2,5.897074938E-3,6.577396393E-2
4.068091501E0,4.558140039E-2,2.270716429E-2,5.378437042E-2
4.076085347E0,4.313099384E-2,1.554682851E-2,4.899024963E-2
4.084080656E0,5.280208588E-2,2.030771971E-2,2.984428406E-2
4.092077964E0,5.320209265E-2,8.165627718E-3,2.508735657E-2
4.100072735E0,6.341809034E-2,5.539178848E-3,5.147743225E-2
4.108068966E0,3.059160709E-2,-1.895815134E-3,3.477287292E-2
4.116064352E0,-9.236514568E-3,-2.028644085E-3,4.203510284E-2
4.124089276E0,1.114487648E-3,4.951119423E-3,3.012847900E-2
4.132086200E0,-3.175824881E-2,-2.398550510E-3,3.497314453E-2
4.140081586E0,-5.050724745E-2,1.648882031E-2,4.218482971E-2
4.148078278E0,-5.051386356E-2,1.864850521E-3,4.217338562E-2
4.156072433E0,-3.646248579E-2,6.495177746E-3,3.495502472E-2
4.164068050E0,-2.281713486E-2,-3.198713064E-3,3.727626801E-2
4.172094204E0,-2.166569233E-3,-1.040685177E-2,5.634307861E-2
4.180089975E0,2.806049585E-2,-1.268213987E-2,3.950119019E-2
4.188085591E0,4.389572144E-2,-5.422234535E-3,4.899311066E-2
4.196081284E0,4.548126459E-2,1.844972372E-3,6.807422638E-2
4.204076055E0,6.885957718E-2,1.140531898E-2,5.604839325E-2
4.212072363E0,4.698139429E-2,1.782089472E-3,3.446674347E-2
4.220067517E0,4.678326845E-2,-7.926911116E-3,2.965450287E-2
4.228094595E0,3.492867947E-2,6.354629993E-3,2.726840973E-2
4.236089904E0,6.569683552E-3,-5.707502365E-3,2.251243591E-2
4.244084982E0,7.076740265E-3,8.578985929E-3,4.410552979E-2
4.252080367E0,5.078196526E-3,-5.920022726E-3,4.892539978E-2
4.260075522E0,1.255613565E-2,6.002753973E-3,2.740478516E-2
4.268073369E0,2.251607180E-2,-3.658890724E-3,4.659175873E-2
4.276067755E0,4.449528456E-2,-2.289453149E-2,5.860137939E-2
4.284090295E0,5.685907602E-2,-3.907859325E-3,3.708362579E-2
4.292088756E0,1.424193382E-2,7.782906294E-3,4.430103302E-2
4.300085680E0,-1.165741682E-2,2.195757627E-2,4.433536530E-2
4.308081066E0,-1.155596972E-2,1.224455237E-2,6.349372864E-2
4.316075836E0,-6.826817989E-3,2.675950527E-4,4.672813416E-2
4.324071222E0,9.758532047E-3,5.045622587E-3,4.910564423E-2
4.332067223E0,2.400285006E-2,2.756029367E-3,4.670429230E-2
4.340093378E0,1.433670521E-2,-6.662428379E-3,4.909515381E-2
4.348090302E0,3.604376316E-2,-6.639868021E-3,3.953456879E-2
4.356084380E0,2.203422785E-2,-1.150274277E-2,5.153751373E-2
4.364079764E0,2.010375261E-2,2.793550491E-3,3.721332550E-2
4.372075842E0,-5.813539028E-3,2.851486206E-4,3.246116638E-2
4.380071459E0,6.577789783E-3,2.653148770E-2,1.813220978E-2
4.388067844E0,-2.105832100E-4,1.691383123E-2,2.774524689E-2
4.396093691E0,4.982769489E-3,-9.453833103E-3,3.736019135E-2
4.402074923E0,-1.851677895E-3,2.167332172E-2,3.260421753E-2
4.404088462E0,5.425214767E-4,3.603851795E-2,2.542114258E-2
4.412084386E0,7.674694061E-4,1.923719049E-2,5.177879333E-2
4.420079771E0,-1.593261957E-2,1.206561923E-2,5.178451538E-2
4.428077619E0,-6.649434566E-3,4.958242178E-3,5.654811859E-2
4.436070849E0,1.429796219E-2,2.300739288E-4,4.930877686E-2
4.444066235E0,3.505843878E-2,-9.334981441E-3,6.360054016E-2
4.452093313E0,1.983499527E-2,-9.365886450E-3,3.478622437E-2
4.460088160E0,4.069691896E-2,5.063861609E-3,4.190635681E-2
4.468085315E0,4.484856129E-2,2.563297749E-4,4.902648926E-2
4.476079855E0,5.866104364E-2,-6.931930780E-3,4.418563843E-2
4.484074856E0,3.205060959E-2,-6.988435984E-3,4.655170441E-2
4.492071241E0,7.520461082E-2,1.927533746E-2,4.415988922E-2
4.500066627E0,3.476762772E-2,2.459019423E-3,3.939437866E-2
4.508093628E0,4.254114628E-2,2.137923241E-2,5.380821228E-2
4.516088705E0,4.870533943E-3,-1.958382130E-2,5.146408081E-2
4.524084475E0,6.861686707E-4,-7.816404104E-3,4.911899567E-2
4.532079784E0,-1.310348511E-2,8.664757013E-3,5.155849457E-2
4.540074939E0,-6.031990051E-4,3.236672282E-2,4.681110382E-2
4.548072170E0,-7.553339005E-3,2.028256655E-2,3.964614868E-2
4.556066018E0,-1.964569092E-4,2.029329538E-2,5.642318726E-2
4.564092480E0,-1.854300499E-4,1.192897558E-3,4.206085205E-2
4.572087789E0,-1.715588570E-2,-1.308849454E-2,5.401515961E-2
4.580083790E0,-1.262253523E-2,-1.058039069E-2,4.202461243E-2
4.588080713E0,3.250610828E-2,-8.184492588E-3,4.677772522E-2
4.596074945E0,3.926622868E-2,6.117194891E-3,3.955268860E-2
4.604069638E0,4.605144262E-2,2.284482121E-2,2.275466919E-2
4.612065716E0,5.551630259E-2,1.793283224E-2,3.231525421E-2
4.620092179E0,3.883814812E-2,3.443747759E-3,5.386734009E-2
4.628089410E0,2.959376574E-2,8.129775524E-4,4.670619965E-2
4.636083258E0,1.588249207E-2,1.740890741E-2,4.915618896E-2
4.644078566E0,4.538476467E-3,-6.659805775E-3,5.160617828E-2
4.652074875E0,2.753794193E-3,-6.806761026E-3,6.363010406E-2
4.660070875E0,-6.384551525E-3,-1.652196050E-2,6.845569611E-2
4.668066876E0,3.371417522E-3,-1.894614100E-2,5.171108246E-2
4.676092108E0,2.019923925E-2,2.169516683E-2,5.171585083E-2
4.684084186E0,5.892038345E-3,2.404841781E-2,5.172061920E-2
4.692083571E0,1.542884111E-2,-2.305835485E-3,4.692745209E-2
4.700079188E0,2.959340811E-2,9.625822306E-3,4.690647125E-2
4.708076112E0,3.419774771E-2,2.639168501E-2,4.449367523E-2
4.716070267E0,1.712590456E-2,-4.002451897E-5,4.685497284E-2
4.724065422E0,1.444709301E-2,-2.493500710E-3,2.527809143E-2
4.732091806E0,1.416045427E-2,-2.545118332E-3,2.285385132E-2
4.740086884E0,-5.302667618E-3,4.621595144E-3,3.479480743E-2
4.748084116E0,2.802604437E-2,1.898702979E-2,2.519989014E-2
4.756078655E0,2.065229416E-2,2.852350473E-2,3.715133667E-2
4.764073733E0,2.530121803E-2,-9.803831577E-3,3.234958649E-2
4.772069657E0,2.034503222E-2,-2.654781938E-2,4.430389404E-2
4.780065043E0,1.060539484E-2,-5.040019751E-3,3.470993042E-2
4.788092506E0,2.004593611E-2,-7.630407810E-3,4.666137695E-2
4.796087276E0,8.034527302E-3,-1.015058160E-2,4.665279388E-2
4.804082584E0,1.518511772E-2,8.876830339E-3,5.143356323E-2
4.812078277E0,6.672143936E-4,-1.023477316E-2,5.860328674E-2
4.820074047E0,1.715254784E-2,-2.922895551E-2,7.055377960E-2
4.828070356E0,2.396672964E-2,-7.493436337E-3,6.094837189E-2
4.836065357E0,4.760670662E-2,-1.216089725E-2,6.092453003E-2
4.844090666E0,6.164717674E-2,9.581476450E-3,4.892921448E-2
4.852086897E0,6.386274099E-2,9.615063667E-3,5.130863190E-2
4.860082283E0,6.398379803E-2,2.623775601E-2,2.737236023E-2
4.868079899E0,5.713737011E-2,2.844041586E-2,1.542663574E-2
4.876073746E0,3.871840239E-2,4.737672210E-2,1.788234711E-2
4.884069054E0,2.282643318E-2,1.362589002E-2,1.316833496E-2
4.892066286E0,-3.372889757E-2,6.200253963E-3,4.436969757E-2
4.900091210E0,-4.028481245E-2,-8.248060942E-3,4.442691803E-2
4.908087596E0,-4.473066330E-2,-2.030053735E-2,5.403423309E-2
4.916081751E0,-1.347059011E-2,-2.269044518E-2,5.883598328E-2
4.924077059E0,5.578815937E-3,1.311191916E-2,5.642700195E-2
4.932073137E0,1.480454206E-2,-6.143122911E-3,4.681205750E-2
4.940069061E0,2.385485172E-2,-6.326466799E-3,3.239059448E-2
4.948065446E0,3.765261173E-2,-3.975212574E-3,3.472805023E-2
4.956090909E0,3.470164537E-2,7.960200310E-3,5.382728577E-2
4.964086371E0,6.056767702E-2,1.517543197E-2,5.138969421E-2
4.972081757E0,7.228857279E-2,5.652040243E-3,6.333923340E-2
4.980077989E0,3.863650560E-2,9.016692638E-4,4.896163940E-2
4.988074605E0,3.630495071E-2,-1.582822204E-2,6.812381744E-2
4.996069452E0,1.005846262E-2,-6.273835897E-3,4.658222198E-2
5.004063607E0,2.434372902E-2,-3.949940205E-3,4.417800903E-2
5.012090993E0,2.684205770E-2,-3.966420889E-3,5.136966705E-2
5.020086608E0,1.730167866E-2,-1.639425755E-3,5.137157440E-2
5.028083225E0,5.818063021E-2,-6.461322308E-3,4.181003571E-2
5.036077456E0,5.372637510E-2,-1.135253906E-2,2.507877350E-2
5.052068458E0,5.482709408E-2,4.115098715E-2,2.996540070E-2
5.060094382E0,3.622770309E-2,1.952198148E-2,4.438018799E-2
5.068091537E0,1.505172253E-2,1.960167289E-2,5.399703979E-2
5.076085154E0,-1.819306612E-2,2.454584837E-2,7.557678223E-2
5.084080847E0,-1.799392700E-2,3.021597862E-3,8.038425446E-2
5.092077155E0,1.436531544E-3,5.512267351E-3,5.886745453E-2
5.100072848E0,6.508231163E-3,1.287457347E-2,6.129550934E-2
5.108070003E0,-2.188247442E-2,-1.100566983E-2,7.808971405E-2
5.116064158E0,-2.444803715E-3,1.059335470E-2,5.417728424E-2
5.124089159E0,-2.405214310E-2,1.552054286E-2,3.741741180E-2
5.132085698E0,-2.223390341E-2,2.281352878E-2,1.581764221E-2
5.140081161E0,8.088350296E-3,1.108497381E-2,2.532672882E-2
5.148078316E0,2.306580544E-3,6.657034159E-3,2.763938904E-2
5.156072855E0,4.465740919E-2,4.534214735E-3,4.673290253E-2
5.164067548E0,6.112509966E-2,9.560495615E-3,7.065582275E-2
5.172094702E0,6.116467714E-2,-2.610149980E-2,6.109237671E-2
5.180089780E0,4.921793938E-2,-8.984774351E-3,8.505058289E-2
5.188086935E0,1.319169998E-2,-4.223158956E-2,6.110763550E-2
5.196081167E0,2.009063959E-2,-1.572981477E-2,3.714561462E-2
5.204075937E0,2.936291695E-2,1.067411900E-2,3.951168060E-2
5.212072246E0,6.497865915E-2,3.514826298E-3,2.990818024E-2
5.220067939E0,3.867369890E-2,5.961745977E-3,2.512454987E-2
5.228065479E0,5.422472954E-3,6.018757820E-3,3.712368011E-2
5.236090094E0,2.045565844E-2,1.805126667E-2,2.282524109E-2
5.244084788E0,1.397377253E-2,6.112188101E-3,3.246974945E-2
5.252080481E0,5.028843880E-3,-2.016198635E-2,5.647468567E-2
5.260076174E0,1.980924606E-2,-1.527345181E-2,5.651760101E-2
5.268073406E0,-3.893196583E-3,4.073560238E-3,5.654811859E-2
5.276067330E0,2.244079113E-2,8.953571320E-3,7.810020447E-2
5.284093485E0,3.190672398E-2,2.343013883E-2,7.809352875E-2
5.292089486E0,3.677606583E-2,1.391723752E-2,5.895042419E-2
5.300084795E0,4.432791471E-2,2.108314633E-2,5.898475647E-2
5.308081487E0,3.046846390E-2,1.881539822E-3,3.748321533E-2
5.316076565E0,4.782855511E-3,1.861199737E-2,3.514957428E-2
5.324070951E0,-1.850438118E-2,-1.013189554E-2,2.803039551E-2
5.332067336E0,-1.333117485E-3,9.051680565E-3,2.328205109E-2
5.340093491E0,-1.297229528E-2,-1.965516806E-2,3.768062592E-2
5.348090415E0,-7.497668266E-4,4.374712706E-3,4.489040375E-2
5.356084493E0,-2.762556076E-3,-1.469820738E-2,5.450725555E-2
5.364079879E0,1.449710131E-2,-2.770930529E-3,4.737091064E-2
5.372076803E0,8.754730225E-4,4.332125187E-3,6.898784637E-2
5.380070957E0,-8.040964603E-3,9.048312902E-3,6.426048279E-2
5.388069496E0,1.953482628E-3,1.859045029E-2,4.993343353E-2
5.396093113E0,4.564464092E-3,2.107521892E-2,4.995727539E-2
5.404087960E0,2.260804176E-3,2.061724663E-3,5.236625671E-2
5.412084499E0,1.905453205E-2,-1.698869467E-2,4.997825623E-2
5.420080577E0,3.111410141E-2,-2.473711967E-3,6.914806366E-2
5.428077117E0,3.867226839E-2,1.438087225E-2,4.763889313E-2
5.436071271E0,1.510149240E-2,7.253110409E-3,5.007171631E-2
5.444066119E0,3.539741039E-3,-2.148076892E-2,3.335094452E-2
5.452093735E0,1.420676708E-3,2.435386181E-3,2.619457245E-2
5.460088889E0,-1.298940182E-2,2.163371444E-2,1.422023773E-2
5.468085505E0,-1.094615459E-2,1.450577378E-2,2.137088776E-2
5.476079968E0,-4.485726357E-3,2.545416355E-4,1.172828674E-2
5.484074661E0,-5.251228809E-3,5.121082067E-3,3.799438477E-2
5.492071047E0,-1.806813478E-2,-2.341422439E-2,4.989147186E-2
5.500066432E0,1.678478718E-2,-1.729875803E-3,4.740047455E-2
5.508094434E0,2.266073227E-2,3.255695105E-3,6.404209137E-2
5.516087896E0,2.345848083E-2,-1.811829209E-2,5.431938171E-2
5.524083666E0,6.490480900E-2,-1.801797748E-2,5.895328522E-2
5.532080205E0,5.854141712E-2,-2.038520575E-2,3.486061096E-2
5.540074975E0,6.936299801E-2,-1.322087646E-2,5.390453339E-2
5.548071591E0,6.152224541E-2,1.787316799E-2,5.862903595E-2
5.556066131E0,3.985977173E-2,3.562659025E-3,6.580257416E-2
5.564091593E0,1.363581419E-2,1.158744097E-3,8.257198334E-2
5.572088210E0,6.631433964E-3,-5.850464106E-3,8.499050140E-2
5.580084211E0,-7.461249828E-3,3.970563412E-3,6.587123871E-2
5.588079981E0,1.196515560E-2,1.856279373E-2,6.830120087E-2
5.596075290E0,3.862935305E-2,1.862245798E-2,4.199886322E-2
5.604070982E0,5.094248056E-2,1.856228709E-2,3.005695343E-2
5.612066368E0,3.711968660E-2,3.281244636E-2,2.052783966E-2
5.620092600E0,2.580231428E-2,2.546373010E-2,1.579570770E-2
5.628089524E0,3.133833408E-2,2.059799433E-2,1.107597351E-2
5.636083294E0,1.531302929E-2,1.097580791E-2,2.072048187E-2
5.644075987E0,-3.269016743E-3,6.265044212E-3,2.077865601E-2
5.652074681E0,-4.838603735E-2,1.645505428E-3,5.194568634E-2
5.660070682E0,-3.640985489E-2,-3.661364317E-2,5.913162231E-2
5.668066452E0,-2.735221386E-2,-2.931979299E-2,7.823944092E-2
5.676092298E0,-2.014636993E-3,-2.934208512E-2,5.898952484E-2
5.684087914E0,-1.048028469E-2,-3.209292889E-3,5.407047272E-2
5.692083377E0,2.300322056E-3,3.872752190E-3,6.031036377E-3
5.700078455E0,5.358415842E-2,1.824182272E-2,5.897521973E-3
5.708075610E0,6.437164545E-2,1.534670591E-3,1.057529449E-2
5.716070149E0,6.341272593E-2,1.357233524E-2,1.766967773E-2
5.724064612E0,7.242643833E-2,-3.078401089E-3,3.437900543E-2
5.732091921E0,5.778992176E-2,1.850441098E-2,5.111503601E-2
5.740087614E0,5.763292313E-2,1.126855612E-2,6.785774231E-2
5.748083691E0,6.479871273E-2,-2.951309085E-2,8.221912384E-2
5.756078692E0,3.141474724E-2,-2.961888909E-2,8.940887451E-2
5.764073847E0,2.928519249E-2,-3.410488367E-3,6.069946289E-2
5.772069540E0,2.000868320E-2,1.079928875E-2,5.832767487E-2
5.780065233E0,2.975618839E-2,1.100301743E-3,4.397392273E-2
5.788092927E0,2.760195732E-2,1.539599895E-2,3.681182861E-2
5.796087005E0,2.315109968E-2,8.156627417E-3,3.205299377E-2
5.804081852E0,-5.193471909E-3,2.722167969E-2,2.969169617E-2
5.812078776E0,6.592273712E-5,2.716237307E-2,2.973461151E-2
5.820074468E0,-1.397866011E-2,2.237302065E-2,5.610084534E-2
5.828070162E0,-1.622146368E-2,-1.109218597E-2,6.090641022E-2
5.836064316E0,-6.660461426E-3,9.448230267E-4,7.766723633E-2
5.844091394E0,-6.913661957E-3,-6.242692471E-3,6.088256836E-2
5.852087088E0,4.703581333E-3,9.566247463E-4,6.085014343E-2
5.860082396E0,2.572554350E-2,3.399431705E-3,5.601310730E-2
5.868079090E0,2.038371563E-2,-8.589208126E-3,4.159450531E-2
5.876073860E0,4.139560461E-2,5.804508924E-3,3.196811676E-2
5.884069169E0,3.630357981E-2,1.540565491E-2,2.954578400E-2
5.892064861E0,2.413725853E-2,3.432422876E-3,1.994991302E-2
5.900091016E0,2.166920900E-2,1.543721557E-2,5.346393585E-2
5.908087709E0,1.213079691E-2,1.544934511E-2,6.065082550E-2
5.916081864E0,-9.568452835E-3,2.022525668E-2,5.105876923E-2
5.924077481E0,-2.528488636E-3,2.262020111E-2,6.062221527E-2
5.932073558E0,4.335939884E-3,-3.784805536E-3,6.058883667E-2
5.940069483E0,1.858812571E-2,5.717217922E-3,5.099868774E-2
5.948066176E0,1.122099161E-2,-2.553284168E-2,6.055259705E-2
5.956091638E0,8.448958397E-3,1.266369224E-2,4.375362396E-2
5.964084023E0,1.034283638E-2,7.765322924E-3,1.736640930E-2
5.972081793E0,1.201683283E-2,1.477509737E-2,1.250267029E-2
5.980077564E0,1.128041744E-2,-2.028018236E-3,2.919006348E-2
5.988074488E0,4.876124859E-2,5.162745714E-3,2.911186218E-2
5.996069181E0,5.259710550E-2,-4.402965307E-3,5.057048798E-2
6.004063720E0,5.667144060E-2,-1.389747858E-2,6.008338928E-2
6.012090721E0,6.334906816E-2,5.607008934E-4,6.722259521E-2
6.020086723E0,5.841594934E-2,2.842426300E-3,5.283927917E-2
6.028083724E0,6.306171417E-2,2.644956112E-3,6.478881836E-2
6.036077493E0,2.957010269E-2,-1.183021069E-2,6.478691101E-2
6.044072263E0,2.249199152E-2,-7.233291864E-3,5.760765076E-2
6.052068879E0,1.799017191E-2,-1.216405630E-2,4.565715790E-2
6.060095342E0,3.267508745E-2,1.642450690E-2,3.131771088E-2
6.068091728E0,1.628834009E-2,2.106863260E-2,4.571151733E-2
6.076085575E0,-1.204079390E-2,-3.172129393E-3,4.095077515E-2
6.084081191E0,-2.118629217E-2,1.360833645E-3,4.576969147E-2
6.092077500E0,-8.857965469E-3,6.025254726E-3,4.340362549E-2
6.100072655E0,1.541811228E-2,1.538184285E-2,2.666759491E-2
6.108069578E0,-1.065605879E-2,1.279005408E-2,6.020355225E-2
6.116094810E0,6.162881851E-3,1.512193680E-2,5.302524567E-2
6.124089272E0,-1.258254051E-3,7.889240980E-3,5.539417267E-2
6.132085581E0,5.554497242E-3,7.067620754E-4,6.493663788E-2
6.140081505E0,1.227450371E-2,-2.313259244E-2,6.968498230E-2
6.148077891E0,1.416009665E-2,7.349550724E-4,5.048084259E-2
6.156072892E0,2.566087246E-2,-6.471186876E-3,5.522346497E-2
6.164068047E0,4.202580452E-2,-8.937984705E-3,4.321193695E-2
6.172094740E0,3.451508284E-2,-6.650388241E-3,3.838825226E-2
6.180090201E0,3.198009729E-2,4.372298717E-4,4.316043854E-2
6.188087356E0,1.257568598E-2,-4.372209311E-3,2.877044678E-2
6.196080973E0,3.628551960E-2,9.949982166E-3,2.874660492E-2
6.204076051E0,2.408701181E-2,-9.264945984E-3,3.351116180E-2
6.212072359E0,3.586173058E-2,5.000144243E-3,4.067230225E-2
6.220068053E0,2.369475365E-2,-4.741787910E-3,5.261898041E-2
6.228094823E0,1.393175125E-2,2.379089594E-3,6.217575073E-2
6.236089593E0,-7.814466953E-3,4.687786102E-3,7.412433624E-2
6.244085825E0,1.813352108E-2,2.224981785E-3,6.690311432E-2
6.252081210E0,2.478265762E-2,3.087964654E-2,4.769515991E-2
6.260076980E0,2.183604240E-2,-2.670019865E-3,5.003738403E-2
6.268073289E0,5.010998249E-2,4.563093185E-3,4.281330109E-2
6.276067982E0,4.498040676E-2,-2.173238993E-2,5.475425720E-2
6.284092675E0,4.242181778E-2,-3.607404232E-2,2.840232849E-2
6.292089522E0,2.337348461E-2,4.629522562E-3,4.277801514E-2
6.300084985E0,9.138524532E-3,1.172396541E-2,3.799819946E-2
6.308081909E0,1.166224480E-2,-9.896039963E-3,3.800773621E-2
6.316076064E0,-2.962946892E-4,2.118188143E-2,3.800678253E-2
6.324071141E0,2.106302977E-2,1.397153735E-2,2.601814270E-2
6.332068296E0,1.374769211E-2,1.621520519E-2,4.036521912E-2
6.340093528E0,4.005694389E-2,1.726299524E-3,6.908798218E-2
6.348089836E0,-3.988146782E-4,-8.667111397E-4,7.149887085E-2
6.356084683E0,-1.204639673E-2,3.721982241E-3,7.152175903E-2
6.364077607E0,1.920247078E-2,1.317235827E-2,7.631587982E-2
6.372075685E0,-4.743993282E-3,1.195609570E-3,7.631587982E-2
6.380071686E0,-2.523660660E-4,1.334697008E-3,6.432151794E-2
6.388068918E0,1.350986958E-2,1.582854986E-2,4.751014709E-2
6.396093919E0,3.923171759E-2,1.599159837E-2,5.464172363E-2
6.404088304E0,3.628253937E-2,4.191964865E-3,3.065395355E-2
6.412084305E0,5.283743143E-2,-5.322366953E-3,3.781986237E-2
6.420080306E0,5.786210299E-2,-1.256909966E-2,4.502296448E-2
6.428076384E0,4.639768600E-2,-7.956564426E-3,2.351474762E-2
6.436071385E0,3.266382217E-2,1.103901863E-2,2.596282959E-2
6.444066463E0,7.065176964E-3,1.318567991E-2,4.517650604E-2
6.452092695E0,-1.631331444E-2,5.779266357E-3,4.282665253E-2
6.460088696E0,-3.027343750E-2,-4.002481699E-3,3.806781769E-2
6.468086158E0,-2.775788307E-2,-1.369413733E-2,5.004692078E-2
6.476080004E0,-3.258389235E-2,-1.149690151E-2,7.876586914E-2
6.484075467E0,-1.379054785E-2,-2.353456616E-2,5.718231201E-2
6.492071468E0,-9.818673134E-3,-2.829360962E-2,5.950069427E-2
6.500066777E0,1.252710819E-3,-1.876229048E-2,4.983711243E-2
6.508094162E0,2.415144444E-2,-1.997917891E-3,4.734420776E-2
6.516088702E0,5.174434185E-2,1.241317391E-2,4.963493347E-2
6.524083472E0,4.126054049E-2,1.004448533E-2,4.715538025E-2
6.532080319E0,5.016529560E-2,1.488080621E-2,5.188465118E-2
6.540075166E0,7.124340534E-2,2.905875444E-3,4.944610596E-2
6.548072397E0,4.721784592E-2,2.852946520E-3,6.140804291E-2
6.556066167E0,1.851856709E-2,3.065168858E-4,5.901050568E-2
6.564092399E0,4.323422909E-3,-2.211749554E-3,5.423259735E-2
6.572088631E0,-3.331303596E-4,7.221549749E-3,3.029823303E-2
6.580083709E0,1.633822918E-2,-1.440882683E-2,3.028678894E-2
6.588080095E0,4.965019226E-2,-9.805977345E-3,1.110649109E-2
6.596074865E0,6.623131037E-2,-1.713418961E-2,3.263092041E-2
6.604070250E0,6.601423025E-2,2.573308349E-2,3.871917725E-3
6.612067098E0,3.972029686E-2,2.560618520E-2,1.584243774E-2
6.620092328E0,3.030705452E-2,8.735150099E-3,3.021907806E-2
6.628088945E0,6.532549858E-3,2.067476511E-2,6.135845184E-2
6.636083792E0,-3.028631210E-3,3.841847181E-3,6.853961945E-2
6.644078870E0,8.825600147E-3,6.278932095E-3,7.092475891E-2
6.652074871E0,1.784640551E-2,-9.264051914E-4,6.608390808E-2
6.660070872E0,1.471799612E-2,1.574614644E-2,6.122303009E-2
6.668066181E0,4.034388065E-2,1.313924789E-3,3.721141815E-2
6.676092105E0,7.101631165E-2,2.518442273E-2,3.956127167E-2
6.684088644E0,8.294260502E-2,-1.385688782E-3,3.954887390E-2
6.692083413E0,5.932533741E-2,-1.624166965E-3,6.351184845E-2
6.700079107E0,1.700824499E-2,1.487493515E-2,5.878639221E-2
6.708075185E0,-1.089394093E-3,1.933920383E-2,5.408477783E-2
6.716070493E0,-4.563987255E-2,2.624291182E-2,4.937362671E-2
6.724064725E0,-4.729539156E-2,2.610313892E-2,5.183219910E-2
6.732092034E0,-5.655449629E-2,1.647421718E-2,5.185985565E-2
6.740088112E0,-3.239697218E-2,-1.227489114E-2,5.666732788E-2
6.748084728E0,-2.279603481E-2,-3.135591745E-2,9.019184113E-2
6.756078499E0,-2.297335863E-2,-1.454022527E-2,8.299350739E-2
6.764073576E0,-1.872032881E-2,-1.692909002E-2,5.900192261E-2
6.772069961E0,-2.782106400E-3,-7.342547178E-3,2.540588379E-2
6.780064731E0,5.816102028E-3,-9.730935097E-3,2.770900726E-2
6.788092348E0,3.125441074E-2,-7.374167442E-3,1.804733276E-2
6.796087503E0,6.863498688E-2,-4.085719585E-2,2.514457703E-2
6.804082273E0,6.807458401E-2,-1.213949919E-2,3.945827484E-2
6.812078889E0,5.102157593E-2,-7.434815168E-3,4.660892487E-2
6.820074583E0,1.992177963E-2,-1.228526235E-2,4.421520233E-2
6.828070814E0,1.999843121E-2,-1.234132051E-2,5.140304565E-2
6.836065584E0,1.043874025E-2,-7.601112127E-3,4.900836945E-2
6.844088046E0,-1.732826233E-3,1.858264208E-3,4.898548126E-2
6.852086816E0,1.473194361E-2,-6.507933140E-4,5.374240875E-2
6.860082510E0,7.025122643E-3,1.784116030E-3,3.693485260E-2
6.868079434E0,2.302068472E-2,-5.401968956E-3,2.968215942E-2
6.876073589E0,2.458572388E-2,-1.977416873E-2,2.721023560E-2
6.884069051E0,2.607887983E-2,-2.963960171E-3,1.515769958E-2
6.892066206E0,3.254890442E-2,-5.218088627E-4,1.988220215E-2
6.900090900E0,5.843400955E-2,4.197955132E-3,5.096340179E-2
6.908087515E0,6.755512953E-2,-1.503032446E-2,3.655147552E-2
6.916082285E0,5.983906984E-2,2.560475469E-2,5.325984955E-2
6.924077055E0,3.552627563E-2,2.783986926E-2,5.082607269E-2
6.932073595E0,3.535306454E-2,2.050152421E-2,5.080318451E-2
6.940069288E0,4.968988895E-2,6.060034037E-3,6.755733490E-2
6.948065289E0,5.700969696E-2,3.561764956E-3,6.277751923E-2
6.956090829E0,5.733501911E-2,-1.422941685E-3,7.477188110E-2
6.964086214E0,2.205580473E-2,5.461603403E-3,8.679008484E-2
6.972082215E0,2.758818865E-2,1.947680116E-2,5.093383789E-2
6.980077600E0,1.858353615E-3,4.305917025E-2,4.139804840E-2
6.988074524E0,-2.385437489E-3,3.307434916E-2,4.622173309E-2
6.996068756E0,-1.394754648E-2,3.523632884E-2,3.428077698E-2
7.004063757E0,-1.133584976E-2,6.455808878E-3,4.866409302E-2
7.012090912E0,6.030201912E-4,2.791902423E-2,4.865837097E-2
7.020086297E0,-1.402562857E-2,1.599264145E-2,4.624080658E-2
7.028083760E0,-7.209479809E-3,-5.500346422E-3,5.818080902E-2
7.036077607E0,-1.965332031E-2,-1.977562904E-2,5.574607849E-2
7.044072762E0,2.067232132E-2,-2.214732766E-2,6.289386749E-2
7.052069070E0,3.238105774E-2,-1.253214478E-2,5.329513550E-2
7.060064686E0,3.221368790E-2,-7.770776749E-3,5.806541443E-2
7.068091226E0,3.222155571E-2,1.845607162E-2,4.130268097E-2
7.076086227E0,1.578104496E-2,-5.558520555E-3,2.935981750E-2
7.084078228E0,4.737854004E-2,8.702635765E-3,4.615879059E-2
7.092077383E0,3.855669498E-2,3.816813231E-3,4.383087158E-2
7.100073307E0,8.094072342E-3,1.336255670E-2,3.191947937E-2
7.108069385E0,-1.521658897E-2,1.090237498E-2,5.591869354E-2
7.116064386E0,-1.903927326E-2,5.933970213E-3,5.360698700E-2
7.124090232E0,-1.564931870E-2,-1.817846298E-2,8.721256256E-2
7.132086233E0,-2.679061890E-2,-1.832610369E-2,6.813049316E-2
7.140081003E0,-5.999994278E-2,-6.375193596E-3,5.618858337E-2
7.148077927E0,-5.771988630E-2,1.279398799E-2,4.181194305E-2
7.156073082E0,-5.821728706E-2,1.287263632E-2,2.979850769E-2
7.164067237E0,-3.057128191E-2,1.297363639E-2,1.054668427E-2
7.172063238E0,4.041433334E-3,2.988016605E-2,2.000808716E-2
7.180090008E0,2.907866240E-2,1.811251044E-2,2.947235107E-2
7.188086317E0,2.542251348E-2,1.592001319E-2,3.175640106E-2
7.196081086E0,3.594249487E-2,-5.329638720E-3,4.121017456E-2
7.212071780E0,5.433464050E-2,-4.073891044E-2,3.614902496E-2
7.220067858E0,7.734352350E-2,-4.295846820E-2,3.846454620E-2
7.228095782E0,6.988191605E-2,-4.522049427E-2,6.717395782E-2
7.236090245E0,3.898084164E-2,-1.644080877E-2,7.198524475E-2
7.244084708E0,1.525521278E-2,-1.400089264E-2,7.440090179E-2
7.252081016E0,-8.798480034E-3,2.433270216E-2,6.481552124E-2
7.260076479E0,7.299602032E-3,3.878101707E-2,2.884387970E-2
7.268073940E0,7.100999355E-2,3.659003973E-2,3.528594971E-5
7.276068095E0,9.426414967E-2,3.211110830E-3,-2.417564392E-3
7.284093327E0,1.154416800E-1,-2.298685908E-2,4.064846039E-2
7.292089328E0,1.038203835E-1,-6.297647953E-3,4.786205292E-2
7.300085944E0,5.681097507E-2,1.260101795E-2,5.511569977E-2
7.308082253E0,-1.868247986E-3,1.702144742E-2,4.323863983E-2
7.316076177E0,-2.201712132E-2,3.100740910E-2,5.771827698E-2
7.324070948E0,-5.426937342E-2,1.389738917E-2,7.218742371E-2
7.332068718E0,-4.398405552E-2,1.117885113E-2,6.745243073E-2
7.340093719E0,-2.930933237E-2,-9.461939335E-4,5.550479889E-2
7.348090873E0,-1.752287149E-2,1.583811641E-2,6.027698517E-2
7.356084797E0,5.895674229E-3,6.229102612E-3,4.107284546E-2
7.364079875E0,2.920413017E-2,-2.956837416E-2,4.341316223E-2
7.372076106E0,4.322028160E-2,-3.904360533E-2,4.817295074E-2
7.380071569E0,6.472212076E-2,-1.746505499E-2,4.338169098E-2
7.388068493E0,3.164851665E-2,-3.429535031E-2,6.018066406E-2
7.396093956E0,3.001660109E-2,-2.963480353E-2,7.461071014E-2
7.404088418E0,-2.943754196E-3,6.159901619E-3,2.916812897E-2
7.412085112E0,-4.797160625E-3,3.956809640E-2,2.442550659E-2
7.420080112E0,-6.838917732E-3,3.219491243E-2,4.599857330E-2
7.428076497E0,-2.073371410E-2,-1.824671030E-2,4.843139648E-2
7.436072114E0,1.322090626E-3,-2.305269241E-2,6.284236908E-2
7.444066961E0,-1.271402836E-2,-1.457571983E-3,4.850864410E-2
7.452093346E0,-2.233302593E-2,-1.819550991E-2,6.765937805E-2
7.460089040E0,-2.771157026E-2,-8.630156517E-3,1.732635498E-2
7.468085733E0,4.801058769E-2,2.962741256E-2,7.664680481E-3
7.476079811E0,4.245316982E-2,3.677031398E-2,9.986877441E-3
7.484075197E0,7.321935892E-2,3.191101551E-2,2.767562866E-3
7.492071504E0,6.839430332E-2,-8.773237467E-3,3.388977051E-2
7.500067505E0,1.577591896E-2,-6.289243698E-3,7.220554352E-2
7.508093737E0,-3.051757812E-3,7.975280285E-3,7.462692261E-2
7.516088738E0,-7.605791092E-3,1.267713308E-2,6.267452240E-2
7.524083893E0,-3.781914711E-4,-2.094617486E-2,5.788612366E-2
7.532080125E0,-7.244348526E-4,-8.951216936E-3,5.785465240E-2
7.540075511E0,6.234705448E-3,-4.162341356E-3,3.149700165E-2
7.548072127E0,6.088733673E-3,-1.133155823E-2,5.063915253E-2
7.556066359E0,3.464668989E-2,1.024377346E-2,7.217121124E-2
7.564089051E0,2.730149031E-2,7.895529270E-3,2.427387238E-2
7.572088437E0,2.704834938E-2,2.700418234E-2,2.185440063E-2
7.580083899E0,1.497703791E-2,2.229136229E-2,1.466560364E-2
7.588081669E0,2.450579405E-2,1.033082604E-2,2.663230896E-2
7.596075209E0,1.970982552E-2,8.006095886E-3,4.578781128E-2
7.604070595E0,1.499372721E-2,-6.292015314E-3,6.255626678E-2
7.612066596E0,1.492291689E-2,-1.341748238E-2,6.973552704E-2
7.620092443E0,1.955455542E-2,-2.296394110E-2,8.169269562E-2
7.628089444E0,1.930427551E-2,1.518872380E-2,6.490516663E-2
7.636084136E0,1.186889410E-2,7.222294807E-4,5.530071259E-2
7.644076214E0,4.367291927E-3,-6.556361914E-3,4.090213776E-2
7.652075292E0,1.354753971E-2,-8.972257376E-3,3.607654572E-2
7.660071216E0,1.788455248E-2,-1.372390985E-2,3.124713898E-2
7.668067217E0,2.214807272E-2,-8.824259043E-3,1.204967499E-2
7.676092834E0,3.609013557E-2,3.179818392E-3,1.201248169E-2
7.684087296E0,4.798948765E-2,-8.744508028E-3,9.613037109E-3
7.692083912E0,4.101759195E-2,3.199934959E-3,4.075622559E-2
7.700078914E0,5.103611946E-2,-1.730144024E-3,6.233882904E-2
7.708075606E0,1.573598385E-2,2.929830551E-2,5.521011353E-2
7.716069761E0,1.931071281E-3,2.439704537E-2,6.962299347E-2
7.724065069E0,-1.679623127E-2,3.145697713E-2,9.120464325E-2
7.732092147E0,-7.062077522E-3,9.750336409E-3,6.487751007E-2
7.740087302E0,1.923048496E-2,2.492785454E-3,4.571628571E-2
7.748084226E0,1.901590824E-2,4.066827893E-2,2.893352509E-2
7.756079227E0,1.170647144E-2,2.374377847E-2,2.173233032E-2
7.764074382E0,3.322148323E-2,2.363273501E-2,4.087829590E-2
7.772069999E0,2.124512196E-2,2.596172690E-2,4.327011108E-2
7.780065460E0,1.428538561E-2,1.154360175E-2,5.525970459E-2
7.788093384E0,1.350045204E-4,2.118334174E-2,4.570484161E-2
7.796087616E0,-6.937682629E-3,9.344279766E-3,5.769157410E-2
7.804082617E0,-1.173841953E-2,3.334328532E-2,5.769252777E-2
7.812078618E0,9.643852711E-3,4.730343819E-3,6.007575989E-2
7.820074081E0,1.667129993E-2,2.638450265E-2,6.006526947E-2
7.828071005E0,7.039785385E-3,1.156628132E-4,4.330348969E-2
7.836065698E0,2.620309591E-2,1.694026589E-2,6.485462189E-2
7.844091007E0,1.454263926E-2,5.007743835E-3,4.094219208E-2
7.852087853E0,2.202874422E-2,-2.164989710E-3,4.575920105E-2
7.860083316E0,5.304634571E-3,-1.162400842E-2,2.182388306E-2
7.868080240E0,1.003432274E-2,-1.391953230E-2,3.858280182E-2
7.876074625E0,2.434587479E-2,-9.156763554E-3,2.421092987E-2
7.884068857E0,2.185600996E-2,2.698063850E-3,3.138065338E-2
7.892065397E0,4.086804390E-2,9.747833014E-3,3.854560852E-2
7.900091551E0,-4.721462727E-3,3.839865327E-2,6.008148193E-2
7.908087629E0,1.671165228E-2,2.641266584E-2,5.528259277E-2
7.916082400E0,-1.948094368E-2,1.458200812E-2,4.568386078E-2
7.924077707E0,-5.714058876E-3,1.008281112E-2,4.563903809E-2
7.932074324E0,-6.552696228E-3,-1.837238669E-2,5.275440216E-2
7.940069171E0,5.467557907E-2,-4.918494821E-2,4.070186615E-2
7.948066018E0,6.102561951E-2,-4.174500704E-2,4.063415527E-2
7.956091019E0,1.059319377E-1,-3.199139237E-2,4.298210144E-2
7.964086020E0,7.486283779E-2,-2.722936869E-2,2.143764496E-2
7.972082636E0,7.779806852E-2,3.004661202E-2,2.866363525E-2
7.980078330E0,6.444054842E-2,1.548081636E-2,2.635478973E-2
7.988074639E0,2.974462509E-2,1.776969433E-2,2.646255493E-2
7.996069408E0,-7.479310036E-3,2.245387435E-2,6.247234344E-2
8.004064486E0,-4.357278347E-3,3.427156806E-2,6.013965607E-2
8.012091333E0,-1.832455397E-2,-4.102915525E-3,5.777835846E-2
8.020086334E0,1.056128740E-2,-2.794674039E-2,5.779647827E-2
8.028083873E0,2.515864372E-2,-1.593452692E-2,6.500339508E-2
8.036077797E0,3.264313936E-2,-8.777976036E-3,6.981849670E-2
8.044072798E0,2.847081423E-2,-1.596599817E-2,6.029891968E-2
8.052068261E0,-6.713509560E-3,1.011729240E-2,7.711601257E-2
8.060064801E0,-2.490514517E-2,3.638154268E-2,5.565452576E-2
8.068091877E0,-3.159183264E-2,3.633847833E-2,4.372787476E-2
8.076086340E0,-4.599696398E-2,1.013657451E-2,4.372882843E-2
8.084081418E0,-4.647541046E-2,1.027759910E-2,2.692985535E-2
8.092077188E0,-2.325695753E-2,1.533916593E-2,3.644943237E-2
8.100073420E0,1.411271095E-2,2.031010389E-2,3.397560120E-2
8.108070344E0,3.008741140E-2,-5.786657333E-3,2.912425995E-2
8.116064576E0,2.713537216E-2,-3.241240978E-3,4.344367981E-2
8.124086654E0,1.475328207E-2,6.454378366E-3,2.664947510E-2
8.132086116E0,4.938066006E-3,-3.886955976E-2,2.424049377E-2
8.140081809E0,1.201081276E-2,-5.306899548E-4,3.380775452E-2
8.148079271E0,1.198863983E-2,1.869490743E-2,3.859710693E-2
8.156072888E0,9.601473808E-3,-1.234921813E-2,6.493759155E-2
8.164067966E0,2.137279510E-2,-1.219418645E-2,6.013584137E-2
8.172094659E0,2.100366354E-2,8.109211922E-5,6.729602814E-2
8.180090429E0,1.584261656E-2,7.573425770E-3,4.333019257E-2
8.188086969E0,2.510988712E-2,-1.689612865E-3,4.092025757E-2
8.196081508E0,5.108880997E-2,8.704960346E-4,3.131580353E-2
8.204076817E0,4.343652725E-2,5.697339773E-3,9.727478027E-3
8.212072895E0,5.028557777E-2,-1.480519772E-3,-7.062911987E-3
8.220068587E0,5.270886421E-2,2.483126521E-2,-1.184940338E-2
8.228095665E0,6.004631519E-2,2.715587616E-2,9.710311890E-3
8.236090358E0,5.792558193E-2,-6.419003010E-3,3.128051758E-2
8.244084821E0,2.005296946E-2,-1.842498779E-2,5.286788940E-2
8.252081514E0,1.106446981E-2,-6.482660770E-3,6.010341644E-2
8.260076285E0,-9.808123112E-3,5.428582430E-3,6.734561920E-2
8.268073132E0,-1.426637173E-2,-2.581784129E-2,7.216072083E-2
8.276067979E0,-3.069865704E-2,-4.423648119E-3,7.697296143E-2
8.284093211E0,-1.812636852E-3,1.886785030E-4,4.585552216E-2
8.292089826E0,4.703998566E-4,1.440912485E-2,5.541706085E-2
8.300086058E0,1.230835915E-2,1.427477598E-2,2.906322479E-2
8.308081520E0,3.362721205E-2,2.150800824E-2,4.340934753E-2
8.316076521E0,2.158868313E-2,2.629500628E-2,3.621959686E-2
8.324071984E0,1.940667629E-2,7.150948048E-3,3.623962402E-2
8.332068600E0,2.214521170E-2,-5.990266800E-6,5.063915253E-2
8.340093448E0,1.060801744E-2,4.781961441E-3,6.504440308E-2
8.348090987E0,2.061539888E-2,-2.639681101E-2,5.550479889E-2
8.356085219E0,9.142756462E-3,1.421833038E-2,5.554771423E-2
8.364077142E0,2.154320478E-2,4.611879587E-3,4.600906372E-2
8.372075989E0,1.468729973E-2,-9.827643633E-3,5.082607269E-2
8.380071606E0,1.014196873E-2,-5.039662123E-3,4.127025604E-2
8.388068299E0,-1.647055149E-3,-1.704195142E-2,2.452754974E-2
8.396093838E0,4.646503925E-2,1.893818378E-2,1.497459412E-2
8.404088609E0,4.444402456E-2,2.158194780E-3,-4.145622253E-3
8.412085225E0,3.524625301E-2,4.620343447E-3,7.862091064E-3
8.420079072E0,1.170587540E-2,-1.685124636E-2,3.663349152E-2
8.428077535E0,-9.644925594E-3,-6.318092346E-6,1.510715485E-2
8.436071919E0,-2.341747284E-3,3.835558891E-5,4.624366760E-2
8.444067305E0,-1.215410233E-2,-7.077455521E-3,5.101394653E-2
8.452093229E0,-3.037035465E-3,1.445242763E-2,5.575942993E-2
8.460089230E0,8.387565613E-3,-2.239465714E-3,4.613304138E-2
8.468085462E0,2.900004387E-3,2.620041370E-3,2.691745758E-2
8.476079617E0,2.628159523E-2,-2.121159434E-2,4.362964630E-2
8.484075387E0,3.540122509E-2,-2.036541700E-3,4.598236084E-2
8.492072003E0,3.733515739E-2,-4.421353340E-3,4.833412170E-2
8.500067004E0,4.435789585E-2,2.839952707E-3,4.592800140E-2
8.508094466E0,3.945630789E-2,5.373090506E-3,5.550003052E-2
8.516088929E0,4.426425695E-2,7.897198200E-3,6.508445740E-2
8.524080622E0,-1.218974590E-3,7.079839706E-4,5.311298370E-2
8.532080623E0,-8.304834366E-3,1.028612256E-2,6.988143921E-2
8.540075701E0,1.572930813E-2,1.742658019E-2,5.552387238E-2
8.548071394E0,1.086872816E-2,1.009529829E-2,3.875160217E-2
8.556066395E0,-5.946516991E-3,2.203243971E-2,2.916812897E-2
8.564092242E0,2.036726475E-2,-1.922398806E-3,2.677154541E-2
8.572088551E0,1.314014196E-2,2.952188253E-3,4.113483429E-2
8.580083936E0,-1.326322556E-3,-1.129993796E-2,6.986141205E-2
8.588081167E0,1.047921181E-2,-3.038704395E-2,4.590511322E-2
8.596075938E0,3.155827522E-2,-8.760213852E-3,5.065441132E-2
8.604069862E0,4.553902149E-2,3.365308046E-3,5.062484741E-2
8.612066709E0,7.383918762E-2,3.381669521E-3,4.100799561E-2
8.620092633E0,7.598394156E-2,3.683334589E-2,4.816532135E-2
8.628089557E0,6.623399258E-2,1.754638553E-2,3.377914429E-2
8.636084020E0,2.814179659E-2,2.220702171E-2,3.618812561E-2
8.644078790E0,1.200354099E-2,1.485767961E-2,5.060577393E-2
8.652075713E0,7.777929306E-3,2.194815874E-2,4.107666016E-2
8.660070176E0,-3.511607647E-3,7.393181324E-3,5.310344696E-2
8.668067638E0,-1.492577791E-2,9.641885757E-3,2.920818329E-2
8.676092332E0,4.686772823E-3,-4.806458950E-3,4.600620270E-2
8.684087102E0,-2.366679907E-2,-1.696446538E-2,3.645706177E-2
8.692083641E0,-1.390737295E-2,-2.644538879E-3,3.168392181E-2
8.700079104E0,5.226910114E-3,-5.151003599E-3,2.928352356E-2
8.708075720E0,1.464581490E-2,1.960158348E-3,1.250743866E-2
8.716070490E0,2.635604143E-2,4.253119230E-3,1.247882843E-2
8.724065567E0,2.133911848E-2,8.988261223E-3,2.203273773E-2
8.732092030E0,2.831888199E-2,-1.016804576E-2,3.398513794E-2
8.740087723E0,2.576309443E-2,-2.212819457E-2,5.791282654E-2
8.748085494E0,2.327001095E-2,-1.007783413E-2,5.551338196E-2
8.756079341E0,2.316468954E-2,-1.477229595E-2,4.592895508E-2
8.764073880E0,4.216825962E-2,4.361510277E-3,6.506919861E-2
8.772070727E0,1.333904266E-2,-4.665851593E-4,6.505870819E-2
8.780065805E0,1.556140184E-2,6.583154202E-3,4.109477997E-2
8.788093806E0,8.235096931E-3,1.370620728E-2,3.629112244E-2
8.796087960E0,-3.972947598E-3,4.123419523E-3,3.147983551E-2
8.804082423E0,1.248562336E-2,8.867442608E-3,3.863334656E-2
8.812079424E0,2.420514822E-2,-5.572110415E-3,3.142452240E-2
8.820074425E0,2.140629292E-2,1.350194216E-2,3.617286682E-2
8.828070810E0,1.888155937E-3,2.551367879E-2,4.092979431E-2
8.836065581E0,2.786535025E-2,-7.969141006E-4,4.329109192E-2
8.844088043E0,2.052110434E-2,-2.002322674E-2,6.721591949E-2
8.852087660E0,4.184430838E-2,1.099008322E-2,5.282592773E-2
8.860083045E0,4.399478436E-2,1.372128725E-3,5.280208588E-2
8.868079661E0,3.899061680E-2,-1.101523638E-3,5.038547516E-2
8.876074200E0,1.015871763E-2,1.084905863E-2,5.516433716E-2
8.884069278E0,2.456557751E-2,-1.155674458E-3,3.601169586E-2
8.892096279E0,2.940994501E-2,-1.073426008E-2,3.601646423E-2
8.900092280E0,1.748079062E-2,-1.554599404E-2,4.080867767E-2
8.908087743E0,2.001869678E-2,-1.279681921E-3,3.842449188E-2
8.916082744E0,1.770806313E-2,3.397673368E-3,3.842735291E-2
8.924077591E0,1.325666904E-2,-1.349529624E-2,1.690578461E-2
8.932073515E0,3.931343555E-3,6.689131260E-4,1.931571960E-2
8.940070130E0,1.610112190E-2,-6.609767675E-3,2.890777588E-2
8.948066131E0,1.618075371E-2,-4.169166088E-3,4.088687897E-2
8.956090825E0,-1.020926237E-2,3.119230270E-3,5.525207520E-2
8.964086518E0,1.830875874E-2,-1.591414213E-2,5.523681641E-2
8.972082750E0,1.791840792E-2,-1.831817627E-2,6.238269806E-2
8.980078520E0,3.194761276E-2,-6.309807301E-3,3.362274170E-2
8.988074521E0,1.984095573E-2,7.987707853E-3,4.318428040E-2
8.996070138E0,6.511390209E-2,1.981529593E-2,3.837108612E-2
9.004064600E0,3.634965420E-2,2.205893397E-2,1.920890808E-2
9.012090831E0,3.628450632E-2,1.702463627E-2,2.877044678E-2
9.020086447E0,1.726979017E-2,1.849830151E-4,4.793357849E-2
9.028083679E0,2.707785368E-2,-2.240687609E-3,2.401161194E-2
9.036077834E0,-1.495599747E-3,-1.186585426E-2,4.317760468E-2
9.044072989E0,-1.816612482E-2,-3.585740924E-2,6.233787537E-2
9.052068913E0,-3.013104200E-2,-1.675045490E-2,5.036640167E-2
9.060094837E0,-2.794289589E-2,1.196473837E-2,4.795265198E-2
9.068091453E0,-4.457533360E-3,1.908543706E-2,3.354263306E-2
9.076085916E0,4.367530346E-3,1.192960143E-2,3.347396851E-2
9.084078147E0,2.270191908E-2,9.469330311E-3,2.381992340E-2
9.092077840E0,3.622722626E-2,7.050007582E-3,2.134704590E-2
9.100073841E0,5.244255066E-2,-1.218062639E-2,4.523658752E-2
9.108070534E0,4.260653257E-2,-9.798109531E-3,4.042434692E-2
9.116064689E0,2.087879181E-2,-2.094507217E-4,6.195545197E-2
9.124090536E0,1.115703583E-2,2.293914557E-3,6.434154510E-2
9.132086230E0,1.336961985E-2,-2.316296101E-3,6.911945343E-2
9.140082231E0,1.055598259E-3,-9.391069412E-3,5.951499939E-2
9.148078463E0,3.902637959E-2,7.436662912E-3,5.709266663E-2
9.156072694E0,4.580670595E-2,-4.517614841E-3,2.832603455E-2
9.164068310E0,6.459635496E-2,1.218122244E-2,2.110767365E-2
9.172064003E0,6.928664446E-2,9.664684534E-3,1.869964600E-2
9.180090235E0,7.892298698E-2,-5.158782005E-5,-4.529953003E-4
9.188087467E0,5.776262283E-2,4.596740007E-3,6.758689880E-3
9.196081852E0,2.010262012E-2,1.168161631E-2,2.596855164E-2
9.204076930E0,2.317237854E-2,-4.574954510E-4,4.278373718E-2
9.212073239E0,6.944596767E-3,-5.937814713E-4,6.676959991E-2
9.220068086E0,-4.522496462E-2,-3.142476082E-3,6.202220917E-2
9.228095703E0,-4.493135214E-2,3.894209862E-3,6.683158875E-2
9.236090241E0,-1.858055592E-2,-1.067847013E-2,5.246067047E-2
9.244082242E0,-1.892882586E-2,5.990207195E-3,2.848339081E-2
9.252082243E0,-3.360509872E-4,-3.787130117E-3,2.124023438E-2
9.260076706E0,1.121205091E-2,-8.695960045E-3,1.401615143E-2
9.268074168E0,2.743887901E-2,8.457303047E-4,3.551292419E-2
9.276068092E0,3.428733349E-2,1.043146849E-2,3.787708282E-2
9.284093863E0,3.154212236E-2,1.764059067E-2,4.981708527E-2
9.292089633E0,4.321229458E-2,1.297432184E-2,5.218887329E-2
9.300085249E0,2.881783247E-2,1.003921032E-3,6.415653229E-2
9.308082557E0,4.319560528E-2,-6.221383810E-3,5.218505859E-2
9.316076635E0,2.187108994E-2,-2.057993412E-2,6.178188324E-2
9.324071482E0,1.728332043E-2,-2.545136213E-2,6.419181824E-2
9.332068098E0,2.711015940E-2,-3.989607096E-3,4.505825043E-2
9.340095099E0,2.967232466E-2,2.457112074E-2,3.309631348E-2
9.348091485E0,1.315271854E-2,-6.643593311E-3,1.875019073E-2
9.356085563E0,4.711389542E-2,-1.929879189E-3,-3.662109375E-4
9.364080333E0,5.014926195E-2,2.189227939E-2,2.841854095E-2
9.372076950E0,3.644466400E-2,7.400244474E-3,2.129173279E-2
9.380071719E0,-2.764803171E-2,4.840970039E-3,4.048919678E-2
9.388069335E0,-3.216713667E-2,2.363711596E-3,5.727100372E-2
9.396093644E0,-1.545113325E-2,4.745215178E-3,6.205558777E-2
9.404088722E0,5.927979946E-3,-2.374976873E-3,5.964851379E-2
9.412084954E0,1.739102602E-2,-9.522587061E-3,4.523658752E-2
9.420080032E0,2.395951748E-2,-1.661598682E-2,4.518318176E-2
9.428076648E0,2.326148748E-2,2.408614755E-2,4.751491547E-2
9.436071803E0,3.469932079E-2,-2.221763134E-3,3.788948059E-2
9.444067189E0,5.587828159E-2,-9.320557117E-3,2.349376678E-2
9.452094189E0,7.242476940E-2,7.334440947E-3,3.065204620E-2
9.460089267E0,4.609471560E-2,1.681494713E-2,2.586174011E-2
9.468085960E0,2.249407768E-2,1.192453504E-2,2.828407288E-2
9.476080422E0,-1.052236557E-2,2.370730042E-2,4.987049103E-2
9.484075731E0,-1.249271631E-2,6.869703531E-3,3.314685822E-2
9.492071809E0,-9.691953659E-3,1.641833782E-2,7.388496399E-2
9.500067733E0,-1.661378145E-2,-2.698302269E-3,7.151603699E-2
9.508094503E0,-1.170611382E-2,-2.665191889E-2,6.194972992E-2
9.516088428E0,-1.418519020E-2,-2.903366089E-2,5.715370178E-2
9.524083735E0,-1.441651583E-2,6.833225489E-3,3.558254242E-2
9.532079813E0,1.624089479E-2,-2.725809813E-3,4.511737823E-2
9.540075814E0,1.330566406E-2,1.399362087E-2,3.070068359E-2
9.548071815E0,3.180670738E-2,1.163843274E-2,3.782558441E-2
9.556066816E0,4.096126556E-2,2.040743828E-3,2.820968628E-2
9.564092048E0,6.224352121E-2,6.844997406E-3,3.536796570E-2
9.572088741E0,5.743128061E-2,1.645100117E-2,2.579021454E-2
9.580084665E0,6.943547726E-2,-1.222082973E-2,5.931472778E-2
9.588080974E0,4.796999693E-2,-2.177831531E-2,6.171703339E-2
9.596075436E0,4.328507185E-2,-1.708793640E-2,5.932903290E-2
9.604070898E0,2.915239334E-2,1.899808645E-3,5.455589294E-2
9.612067130E0,2.221220732E-2,1.657873392E-3,4.977989197E-2
9.620093285E0,-3.791332245E-3,-1.047283411E-2,3.543949127E-2
9.628089978E0,3.783285618E-3,1.090526581E-2,3.786373138E-2
9.636084056E0,6.589114666E-3,1.158297062E-3,3.789424896E-2
9.644078596E0,9.496808052E-3,1.062849164E-2,3.075504303E-2
9.652075520E0,-2.102422714E-2,-3.761559725E-3,2.362728119E-2
9.660071213E0,-1.581513882E-2,2.497312427E-2,4.521369934E-2
9.668067444E0,-8.106291294E-3,-1.096194983E-2,5.723190308E-2
9.676093368E0,4.036486149E-3,-2.281171083E-2,4.528141022E-2
9.684087215E0,8.883237839E-3,-2.274230123E-2,5.726051331E-2
9.692084447E0,8.820414543E-3,-2.269586921E-2,6.204509735E-2
9.700079217E0,1.593089104E-2,-1.560658216E-2,4.527473450E-2
9.708076141E0,1.120269299E-2,-8.526653051E-3,4.767131805E-2
9.716070296E0,2.323615551E-2,5.704730749E-3,4.288387299E-2
9.724065989E0,3.071230650E-2,5.573391914E-3,1.896381378E-2
9.732091837E0,9.462416172E-3,1.029661298E-2,2.377796173E-2
9.740088067E0,1.188313961E-2,-1.656532288E-3,2.617359161E-2
9.748084376E0,4.558086395E-3,1.277554035E-2,3.813457489E-2
9.756078839E0,1.613670588E-2,-1.482903957E-3,2.134323120E-2
9.764074224E0,3.001099825E-2,-1.093477011E-2,4.285049438E-2
9.772070610E0,2.703410387E-2,5.902737379E-3,3.322315216E-2
9.780065919E0,2.882015705E-2,-6.047397852E-3,3.077316284E-2
9.788093304E0,3.537839651E-2,2.032583952E-2,2.832412720E-2
9.796088075E0,3.713780642E-2,1.558351517E-2,3.066158295E-2
9.804083460E0,3.918969631E-2,3.571659327E-3,3.302288055E-2
9.812079537E0,6.286728382E-2,1.787945628E-2,4.017925262E-2
9.820074538E0,4.855805635E-2,1.310324669E-2,3.779029846E-2
9.828070847E0,4.869979620E-2,8.309423923E-3,4.977512360E-2
9.836065925E0,3.218626976E-2,1.057380438E-2,3.542709351E-2
9.844091464E0,2.063655853E-2,3.260880709E-3,4.982662201E-2
9.852086542E0,-2.920091152E-3,7.948130369E-3,5.464649200E-2
9.860082620E0,2.178788185E-3,7.880866528E-3,3.551864624E-2
9.868080083E0,2.341628075E-3,-1.775741577E-3,2.834796906E-2
9.876074007E0,7.274270058E-3,7.703721523E-3,1.878070831E-2
9.884068776E0,-6.804168224E-3,-6.700098515E-3,3.795909882E-2
9.892065085E0,-6.478846073E-3,-2.585962415E-2,4.038333893E-2
9.900091778E0,-1.517653465E-3,-2.105563879E-2,3.561115265E-2
9.908088087E0,-8.606076241E-3,-2.597826719E-2,3.561401367E-2
9.916082319E0,1.059508324E-2,-6.879597902E-3,4.279994965E-2
9.924077704E0,8.030653000E-3,1.338422298E-4,3.080654144E-2
9.932074628E0,2.703487873E-2,2.166196704E-2,3.797531128E-2
9.940069937E0,3.174424171E-2,4.927903414E-3,4.036235809E-2
9.948066553E0,1.722425222E-2,1.694312692E-2,5.232143402E-2
9.956091554E0,2.430796623E-2,-6.859779358E-3,5.231761932E-2
9.964083247E0,5.048584938E-2,7.520586252E-3,4.990959167E-2
9.972083171E0,5.509555340E-2,-1.398557425E-2,5.468273163E-2
9.980077403E0,5.027419329E-2,-1.403364539E-2,4.270648956E-2
9.988075250E0,1.678133011E-2,-4.470527172E-3,2.355480194E-2
9.996069636E0,4.099887609E-2,7.493644953E-3,2.836894989E-2
1.000406471E1,2.721172571E-2,1.923209429E-2,2.123069763E-2
1.001209118E1,1.525700092E-3,7.089018822E-3,2.846717834E-2
1.002008625E1,-1.199781895E-2,-1.162588596E-4,3.812026978E-2
1.002808387E1,-2.093821764E-2,4.645735025E-3,4.057121277E-2
1.003607772E1,-4.451215267E-2,4.627734423E-3,3.581714630E-2
1.004407303E1,-4.689860344E-2,1.428484917E-2,2.624320984E-2
1.005206995E1,-2.348828316E-2,7.156252861E-3,2.859115601E-2
1.006006534E1,-5.183219910E-3,2.560019493E-5,2.372646332E-2
1.006809218E1,-3.819286823E-3,-2.187371254E-3,1.166629791E-2
1.007608603E1,4.058188200E-2,5.183786154E-3,1.996994019E-3
1.008408142E1,5.634886026E-2,-2.811384201E-2,1.388549805E-2
1.009207826E1,6.031703949E-2,-1.603481174E-2,1.860332489E-2
1.010007303E1,6.445407867E-2,-8.817374706E-3,5.206298828E-2
1.010807034E1,5.943554640E-2,-2.078020573E-2,4.725360870E-2
1.011609496E1,4.015213251E-2,-3.949403763E-3,7.597541809E-2
1.012408973E1,4.005193710E-2,-6.244659424E-3,8.315181732E-2
1.013208657E1,-6.446242332E-4,-1.088157296E-2,6.639862061E-2
1.014008234E1,2.303278446E-2,-1.313015819E-2,6.159210205E-2
1.014807804E1,3.479164839E-2,-3.506660461E-3,5.678558350E-2
1.015607304E1,3.932595253E-2,1.086890697E-2,2.563762665E-2
1.016406850E1,5.128651857E-2,1.803222299E-2,2.563571930E-2
1.017209581E1,5.869311094E-2,2.037313581E-2,8.895874023E-3
1.018009027E1,4.730600119E-2,1.322045922E-2,6.554603577E-3
1.018808696E1,3.379487991E-2,2.521586418E-2,1.860618591E-2
1.019608112E1,-1.311886311E-2,-1.314812899E-2,4.502773285E-2
1.020407612E1,-3.609663248E-2,1.124083996E-3,7.863330841E-2
1.021207312E1,-3.293216228E-2,-3.730893135E-3,7.151794434E-2
1.022006789E1,-3.745639324E-2,3.290951252E-3,6.435489655E-2
1.022809589E1,-2.319341898E-2,5.469352007E-3,4.278850555E-2
1.023609028E1,-2.609825134E-2,-1.931548119E-3,3.076267242E-2
1.024408574E1,1.891314983E-3,2.768367529E-3,2.829742432E-2
1.025208143E1,3.590345383E-3,9.959459305E-3,2.583980560E-2
1.026007682E1,3.177708387E-2,1.011720300E-2,1.861381531E-2
1.026807405E1,4.564267397E-2,-1.362413168E-2,3.533363342E-2
1.027606813E1,4.030144215E-2,-1.342749596E-2,4.247379303E-2
1.028409090E1,4.703086615E-2,-3.667503595E-3,4.483222961E-2
1.029209028E1,2.283787727E-2,1.292109489E-3,4.481601715E-2
1.030008567E1,4.181993008E-2,3.764301538E-3,4.959201813E-2
1.030808136E1,3.199505806E-2,8.514553308E-3,3.280830383E-2
1.031607644E1,2.217978239E-2,6.074160337E-3,3.039073944E-2
1.032407183E1,1.253056526E-2,-2.017644048E-2,2.559852600E-2
1.033206914E1,7.808625698E-3,-3.393948078E-3,2.321243286E-2
1.034009460E1,1.256078482E-2,-1.289838552E-2,1.842308044E-2
1.034809098E1,1.019328833E-2,1.118424535E-2,-7.228851318E-4
1.035608545E1,4.388755560E-2,-2.707934380E-2,2.323627472E-2
1.036408022E1,4.653656483E-2,1.126369834E-2,4.720306396E-2
1.037207645E1,1.813524961E-2,1.366737485E-2,4.244518280E-2
1.038007245E1,1.831418276E-2,1.607403159E-2,4.006671906E-2
1.038806876E1,1.598888636E-2,1.846775413E-2,4.965114594E-2
1.039609406E1,1.117622852E-2,1.847308874E-2,5.443763733E-2
1.040408853E1,8.642792702E-3,1.847225428E-2,3.526973724E-2
1.041208545E1,2.038270235E-2,2.566465735E-2,4.961490631E-2
1.042008053E1,1.055151224E-2,-1.260417700E-2,4.959392548E-2
1.042807745E1,1.991283894E-2,6.719022989E-3,4.000282288E-2
1.043607161E1,3.429591656E-2,-2.429232001E-2,3.761482239E-2
1.044406638E1,2.491027117E-2,-9.884148836E-3,3.045082092E-2
1.045209315E1,5.399942398E-2,4.504173994E-3,2.569580078E-2
1.046008884E1,3.536534309E-2,-2.508461475E-4,2.335071564E-2
1.046808546E1,9.782791138E-3,1.896357536E-2,3.299903870E-2
1.047608046E1,3.381013870E-3,1.898407936E-2,3.785991669E-2
1.048407554E1,-1.515388489E-2,1.656156778E-2,5.467510223E-2
1.049207223E1,-9.998500347E-3,2.852174640E-2,4.752540588E-2
1.050006638E1,-1.700514555E-2,-4.951745272E-3,5.472660065E-2
1.050809469E1,-1.937448978E-2,2.348750830E-3,4.515457153E-2
1.051608885E1,-1.243424416E-2,7.272481918E-3,3.556156158E-2
1.052408146E1,1.344007254E-2,2.586364746E-3,4.270553589E-2
1.053208085E1,-1.525402069E-3,-2.359545231E-2,3.068447113E-2
1.054007616E1,3.380066156E-2,-2.584734559E-2,3.781890869E-2
1.054807216E1,4.279780388E-2,7.792413235E-3,1.861667633E-2
1.055606662E1,5.184555054E-2,2.224045992E-2,3.293704987E-2
1.056409308E1,4.898780584E-2,5.541026592E-3,3.528976440E-2
1.057208939E1,5.831611156E-2,-1.624584198E-3,2.569198608E-2
1.058008416E1,3.916823864E-2,7.897913456E-4,5.202960968E-2
1.058808116E1,4.648786783E-2,5.490779877E-3,4.725074768E-2
1.059607555E1,3.724122047E-2,-8.865892887E-3,4.249286652E-2
1.060407032E1,2.089995146E-2,1.269188523E-2,4.971408844E-2
1.061206694E1,2.137351036E-2,-3.273057938E-2,4.736518860E-2
1.062009317E1,1.463127136E-2,1.274693012E-2,4.979991913E-2
1.062808948E1,-6.428599358E-3,7.852911949E-4,3.547859192E-2
1.063608479E1,-1.067382097E-2,-8.780568838E-3,3.792381287E-2
1.064407956E1,8.978366852E-3,1.272022724E-2,1.641941071E-2
1.065207594E1,-5.131542683E-3,7.416903973E-4,3.799057007E-2
1.066007040E1,-2.577781677E-3,7.924854755E-3,2.603435516E-2
1.066806825E1,-4.921793938E-3,1.516816020E-2,2.125263214E-2
1.067609341E1,9.344935417E-3,1.280185580E-2,2.842712402E-2
1.068408456E1,3.072512150E-2,1.523411274E-2,2.601814270E-2
1.069208418E1,2.582949400E-2,5.722820759E-3,3.079986572E-2
1.070007902E1,2.089065313E-2,-1.089945436E-2,4.994583130E-2
1.070807556E1,3.996425867E-2,-8.371621370E-3,4.515361786E-2
1.071607072E1,4.002285004E-2,-1.068750024E-2,5.234527588E-2
1.072406572E1,2.572715282E-2,-1.107305288E-3,4.277515411E-2
1.073209226E1,2.119791508E-2,3.656089306E-3,3.561401367E-2
1.074008795E1,2.867007256E-2,2.280446887E-2,1.648712158E-2
1.074808449E1,1.200956106E-2,5.909621716E-3,1.888561249E-2
1.075607895E1,7.324278355E-3,1.784968376E-2,1.171207428E-2
1.076407403E1,5.014777184E-3,-1.081201434E-2,3.326988220E-2
1.077207072E1,-9.334921837E-3,1.225799322E-3,3.327369690E-2
1.078006611E1,1.467406750E-2,-3.449559212E-3,4.525470734E-2
1.078809342E1,2.190589905E-2,-1.789569855E-2,3.567886353E-2
1.079608757E1,4.112660885E-2,-1.315566897E-2,3.807830811E-2
1.080408273E1,2.680778503E-2,-3.681689501E-3,3.807830811E-2
1.081207904E1,1.985228062E-2,3.693369031E-2,2.851963043E-2
1.082007465E1,2.012336254E-2,3.446102142E-2,2.135944366E-2
1.082407319E1,2.512538433E-2,2.251043916E-2,4.771614075E-2
1.082608673E1,2.273118496E-2,2.011623979E-2,3.813934326E-2
1.082807065E1,1.315438747E-2,2.490463853E-2,4.053306580E-2
1.083606612E1,2.050328255E-2,-1.088413596E-2,5.491828918E-2
1.084409127E1,2.526283264E-2,-2.515152097E-2,6.449604034E-2
1.085208789E1,1.805502176E-2,-1.146316528E-3,5.013179779E-2
1.086008327E1,8.422255516E-3,-9.436011314E-4,2.379703522E-2
1.086807935E1,2.036356926E-2,1.457750797E-3,2.618789673E-2
1.087607404E1,4.902005196E-2,-2.723720670E-2,2.857685089E-2
1.088407004E1,3.712344170E-2,1.104310155E-2,3.576564789E-2
1.089206604E1,3.493303061E-2,1.812937856E-2,3.817558289E-2
1.090009158E1,3.514480591E-2,3.719931841E-2,4.058551788E-2
1.090808820E1,1.867884398E-2,8.454680443E-3,4.061222076E-2
1.091608305E1,-1.945054531E-2,-1.129418612E-3,3.344535828E-2
1.092407782E1,2.280473709E-3,1.087144017E-2,2.628040314E-2
1.093207466E1,2.156388760E-2,-2.025032043E-2,5.023574829E-2
1.094006951E1,1.690292358E-2,3.699511290E-3,4.545879364E-2
1.094806667E1,1.948338747E-2,-1.107007265E-3,4.068660736E-2
1.095609136E1,3.407406807E-2,6.052792072E-3,3.591823578E-2
1.096408667E1,3.668403625E-2,8.324474096E-3,4.551029205E-2
1.097208275E1,2.510815859E-2,1.529556513E-2,3.356838226E-2
1.098007875E1,1.561760902E-3,1.524654031E-2,2.641963959E-2
1.098807436E1,-2.898156643E-3,5.658477545E-3,2.405548096E-2
1.099606975E1,-1.955306530E-2,3.285616636E-3,3.124809265E-2
1.100406452E1,-1.714527607E-2,-3.821343184E-3,3.604030609E-2
1.101209137E1,-2.215373516E-2,-3.686755896E-3,3.123664856E-2
1.102008729E1,-1.301002502E-2,-5.927056074E-3,3.359699249E-2
1.102808398E1,2.700930834E-2,3.800481558E-3,3.354072571E-2
1.103607837E1,1.898270845E-2,6.347596645E-3,3.107357025E-2
1.104407291E1,2.762693167E-2,-5.457431078E-3,5.014801025E-2
1.105207037E1,4.362809658E-2,-2.216535807E-2,4.768562317E-2
1.106009537E1,5.723416805E-2,-1.009878516E-2,3.804302216E-2
1.106809222E1,6.640791893E-2,-2.882093191E-3,5.716133118E-2
1.107608676E1,3.752142191E-2,-4.681944847E-4,5.714797974E-2
1.108408176E1,2.328354120E-2,-5.160540342E-3,5.237388611E-2
1.109207845E1,3.545987606E-2,-2.663642168E-3,6.197357178E-2
1.110007353E1,-1.841187477E-4,-9.744167328E-3,6.200218201E-2
1.110807045E1,1.442122459E-2,2.146679163E-2,3.329753876E-2
1.111609530E1,4.101049900E-2,1.434126496E-2,2.853298187E-2
1.112409038E1,3.404688835E-2,2.523213625E-3,2.377128601E-2
1.113208669E1,2.719765902E-2,1.510083675E-4,3.816795349E-2
1.114008184E1,3.725886345E-2,1.442849636E-2,2.144908905E-2
1.114807931E1,3.063923120E-2,-2.458006144E-3,7.131576538E-3
1.115607315E1,1.226103306E-2,2.208977938E-3,3.592872620E-2
1.116406831E1,-8.660972118E-3,-2.695322037E-3,2.401065826E-2
1.117209446E1,-3.249645233E-3,-9.967327118E-3,4.082393646E-2
1.118008985E1,-2.190363407E-2,-5.322098732E-4,5.283641815E-2
1.118808731E1,-1.212775707E-2,-6.185770035E-4,5.045795441E-2
1.119608177E1,-1.209104061E-2,-3.176808357E-3,5.524349213E-2
1.120407693E1,-1.951467991E-2,2.305495739E-2,4.324626923E-2
1.121207324E1,-5.652904510E-3,3.743439913E-3,2.404022217E-2
1.122006854E1,3.475844860E-3,1.324260235E-2,4.075431824E-2
1.122809539E1,4.114675522E-2,-1.024603844E-3,3.351783752E-2
1.123609016E1,3.570520878E-2,-9.802877903E-4,2.627658844E-2
1.124408516E1,3.044986725E-2,-9.830296040E-4,4.538631439E-2
1.125208209E1,4.932326078E-2,1.104813814E-2,2.381610870E-2
1.126007724E1,3.733611107E-2,-1.051813364E-2,2.860260010E-2
1.126807378E1,3.267031908E-2,-8.041352034E-3,3.819370270E-2
1.127606770E1,2.089136839E-2,-2.019968629E-2,4.538631439E-2
1.128409440E1,1.390653849E-2,-1.304948330E-2,4.061508179E-2
1.129208701E1,9.316384792E-3,-1.783293486E-2,4.063320160E-2
1.130008548E1,1.176279783E-2,-1.093208790E-3,2.387809753E-2
1.130808271E1,2.626961470E-2,-1.061126590E-2,1.431655884E-2
1.131607625E1,5.518895388E-2,2.530330420E-2,1.433467865E-2
1.132407225E1,1.465576887E-2,1.803514361E-2,9.557723999E-3
1.133206794E1,1.003730297E-2,-1.154989004E-3,3.112030029E-2
1.134009417E1,-4.272699356E-3,3.597140312E-3,3.112316132E-2
1.134809079E1,1.252275705E-2,1.791843772E-2,4.309654236E-2
1.135608587E1,7.599532604E-3,1.068255305E-2,4.547595978E-2
1.136408118E1,2.166664600E-2,-8.598655462E-3,3.826141357E-2
1.137207633E1,1.646935940E-2,-1.472055912E-3,3.582763672E-2
1.138007225E1,4.003471136E-2,-3.018584847E-2,5.015945435E-2
1.138806887E1,1.810848713E-2,-2.064606547E-2,4.054546356E-2
1.139609387E1,4.174411297E-2,8.102059364E-4,2.854347229E-2
1.140409010E1,4.644924402E-2,-1.511931419E-3,4.050922394E-2
1.141208526E1,3.219491243E-2,5.713731050E-3,2.855014801E-2
1.142008064E1,2.764284611E-2,1.284798980E-2,4.532909393E-2
1.142807811E1,4.104077816E-3,8.081585169E-3,5.015659332E-2
1.143607295E1,-5.108892918E-3,1.522809267E-2,4.061126709E-2
1.144406742E1,-7.350862026E-3,1.282471418E-2,6.456756592E-2
1.145209380E1,-7.479310036E-3,1.992681623E-2,5.018711090E-2
1.146008949E1,-5.160570145E-4,-6.488353014E-3,3.579807281E-2
1.146808580E1,1.429140568E-3,-1.134827733E-2,5.490875244E-2
1.147608065E1,3.687322140E-2,1.012980938E-2,4.289150238E-2
1.148407565E1,1.481777430E-2,1.254385710E-2,2.129745483E-2
1.149207204E1,3.352844715E-2,3.015905619E-3,2.365303040E-2
1.150006711E1,2.841436863E-2,-1.381200552E-2,3.559207916E-2
1.150809542E1,4.007333517E-2,1.485183835E-2,2.119541168E-2
1.151608950E1,3.269189596E-2,1.715400815E-2,2.835655212E-2
1.152408427E1,4.462260008E-2,9.925931692E-3,4.989910126E-2
1.153208058E1,3.036057949E-2,-2.134621143E-3,4.751110077E-2
1.154007573E1,3.527021408E-2,-7.122904062E-3,4.990959167E-2
1.154807227E1,3.305649757E-2,-9.730219841E-3,5.710029602E-2
1.155606735E1,3.319758177E-2,1.646128297E-2,5.950260162E-2
1.156409235E1,2.626770735E-2,9.102135897E-3,3.557682037E-2
1.157208897E1,1.436412334E-2,-7.786929607E-3,1.642417908E-2
1.158008459E1,1.200771332E-2,1.720815897E-3,2.360820770E-2
1.158808120E1,9.658515453E-3,6.543844938E-3,9.248733521E-3
1.159607628E1,7.284343243E-3,-5.427658558E-3,2.600860596E-2
1.160407082E1,3.139173985E-2,-1.260522008E-2,1.884269714E-2
1.161206736E1,1.706808805E-2,6.479799747E-3,3.081417084E-2
1.162009259E1,1.231205463E-2,-7.673501968E-4,3.320980072E-2
1.162808920E1,1.711475849E-2,3.948092461E-3,2.602481842E-2
1.163608436E1,2.425140142E-2,6.303757429E-3,4.277896881E-2
1.164407628E1,7.466614246E-3,-8.149415255E-3,4.277324677E-2
1.165207505E1,2.171069384E-2,1.093503833E-2,4.275989532E-2
1.166007082E1,-2.262055874E-3,1.800224185E-2,3.796482086E-2
1.166806683E1,2.646911144E-2,-1.076006889E-2,3.078079224E-2
1.167609260E1,3.119170666E-2,8.365243673E-3,3.077316284E-2
1.168408806E1,1.446980238E-2,1.080179214E-2,2.598953247E-2
1.169208398E1,2.392125130E-2,-1.219898462E-3,4.512977600E-2
1.170007968E1,2.367931604E-2,-1.790410280E-2,2.356338501E-2
1.170807660E1,2.102130651E-2,-1.304408908E-2,2.354145050E-2
1.171607075E1,6.494879723E-3,-2.971348166E-2,3.550052643E-2
1.172406552E1,3.265374899E-2,-5.792409182E-3,3.308963776E-2
1.173209268E1,3.715258837E-2,-2.256473899E-2,2.827548981E-2
1.174008837E1,3.930193186E-2,-1.303058863E-2,2.585601807E-2
1.174808491E1,3.670388460E-2,6.102353334E-3,1.865482330E-2
1.175607968E1,2.698719501E-2,-1.005798578E-3,3.540325165E-2
1.176407391E1,4.125744104E-2,2.288430929E-2,3.778743744E-2
1.177207084E1,2.921074629E-2,3.702253103E-3,4.017353058E-2
1.178006592E1,2.216947079E-2,1.329162717E-2,4.497528076E-2
1.178809330E1,1.750487089E-2,2.759933472E-2,5.216693878E-2
1.179608799E1,2.730047703E-2,-3.609508276E-3,5.697250366E-2
1.180408315E1,3.946661949E-2,-1.090621948E-2,2.107238770E-2
1.181207907E1,3.495460749E-2,8.181482553E-3,3.067302704E-2
1.182007454E1,1.626455784E-2,-1.102828979E-2,4.747295380E-2
1.182807169E1,2.395391464E-3,-1.546382904E-3,4.751491547E-2
1.183606615E1,1.248556376E-2,1.263114810E-2,3.079509735E-2
1.184409146E1,9.610056877E-4,7.704019547E-3,2.364921570E-2
1.185208746E1,1.293718815E-3,1.957118511E-2,3.325271606E-2
1.186008339E1,-1.049584150E-2,5.164474249E-3,3.805541992E-2
1.186807977E1,-3.368556499E-3,1.241576672E-2,2.608299255E-2
1.187607477E1,-1.315093040E-2,7.661402225E-3,4.282474518E-2
1.188406962E1,1.279747486E-2,5.208164454E-3,4.039192200E-2
1.189206593E1,5.122721195E-3,-4.440367222E-3,2.597904205E-2
1.190009201E1,1.402699947E-2,1.477417350E-2,1.634311676E-2
1.190808832E1,4.193419218E-2,2.886205912E-3,2.584648132E-2
1.191608285E1,4.601150751E-2,-9.008347988E-3,3.536128998E-2
1.192407847E1,4.064166546E-2,-2.096790075E-2,3.530788422E-2
1.193207393E1,3.313452005E-2,-2.096533775E-2,2.809715271E-2
1.194006986E1,3.540998697E-2,2.927541733E-3,2.808380127E-2
1.194806616E1,1.868778467E-2,-1.151376963E-2,4.244995117E-2
1.195609170E1,2.583014965E-2,1.247808337E-2,6.399726868E-2
1.196408648E1,-7.775604725E-3,-6.580650806E-3,4.723262787E-2
1.197208340E1,1.126223803E-2,-4.067003727E-3,5.201435089E-2
1.198007817E1,2.533739805E-2,1.285621524E-2,2.565670013E-2
1.198807548E1,2.275341749E-2,8.171856403E-3,3.761482239E-2
1.199606932E1,4.407018423E-2,-8.539795876E-3,3.280735016E-2
1.201209140E1,7.517462969E-2,-3.670066595E-3,6.471633911E-3
1.202008687E1,4.928147793E-2,3.448814154E-3,-3.067016602E-3
1.202808410E1,4.274678230E-2,5.800068378E-3,1.375102997E-2
1.203607825E1,1.241481304E-2,3.286600113E-3,4.254913330E-2
1.204407294E1,5.883991718E-3,7.625818253E-4,2.345085144E-2
1.205206841E1,-1.751762629E-2,5.438029766E-4,2.109718323E-2
1.206006472E1,-5.141019821E-3,-2.114126086E-2,4.028320312E-2
1.206809233E1,-1.000863314E-2,2.667903900E-4,3.069400787E-2
1.207608680E1,-8.008122444E-3,-1.657524705E-2,1.628971100E-2
1.208408187E1,-3.690183163E-3,-1.180043817E-2,3.300666809E-2
1.209207795E1,1.737827063E-2,-1.186865568E-2,3.774738312E-2
1.210007357E1,4.580080509E-2,4.894495010E-3,1.617145538E-2
1.210806988E1,5.998218060E-2,-2.246558666E-3,2.333927155E-2
1.211609572E1,6.476688385E-2,1.222816110E-2,3.291988373E-2
1.212408996E1,4.103052616E-2,7.437825203E-3,4.490852356E-2
1.213208688E1,3.180527687E-2,2.718299627E-3,6.170368195E-2
1.214008188E1,3.955334425E-2,2.512633801E-4,4.020500183E-2
1.214807880E1,3.305846453E-2,1.453953981E-2,4.026508331E-2
1.215607365E1,1.942616701E-2,-3.567337990E-5,1.877689362E-2
1.216406842E1,1.051467657E-2,2.169251442E-3,2.361965179E-2
1.217209542E1,-8.085608482E-3,1.169818640E-2,1.887989044E-2
1.218009058E1,-2.935606241E-2,4.480451345E-3,6.933212280E-3
1.218808719E1,-4.879236221E-4,-1.223182678E-2,-2.346038818E-4
1.219608104E1,4.020845890E-2,-4.789450765E-2,1.174449921E-2
1.220407673E1,4.747164249E-2,-2.219736576E-3,1.415348053E-2
1.221207327E1,6.186068058E-2,2.923309803E-4,2.852439880E-2
1.222006873E1,4.282140732E-2,2.187851071E-2,4.290199280E-2
1.222809512E1,2.633881569E-2,1.462343335E-2,3.095340729E-2
1.223608997E1,2.194291353E-2,1.207417250E-2,4.534912109E-2
1.224408566E1,2.961343527E-2,1.423883438E-2,3.820323944E-2
1.225208189E1,1.567459106E-2,2.368161082E-2,3.345012665E-2
1.226007705E1,-7.844209671E-3,1.160469651E-2,1.672458649E-2
1.226807420E1,-2.187556028E-2,-1.947742701E-2,3.351688385E-2
1.227606874E1,-1.220911741E-2,-1.217666268E-2,4.071140289E-2
1.228409390E1,-1.709777117E-2,-1.201301813E-2,3.113174438E-2
1.229209059E1,1.371562481E-2,-2.137535810E-2,2.632236481E-2
1.230008559E1,3.007173538E-2,-1.627957821E-2,3.587245941E-2
1.230808198E1,3.930974007E-2,-8.711338043E-3,2.627944946E-2
1.231607636E1,6.559109688E-2,8.245706558E-3,1.909923553E-2
1.232407236E1,3.947889805E-2,1.799428463E-2,2.870368958E-2
1.233206867E1,5.432260036E-2,1.313716173E-2,4.071521759E-2
1.234009398E1,4.546374083E-2,2.260908484E-2,3.838348389E-2
1.234809175E1,1.026755571E-2,9.856820107E-4,5.041885376E-2
1.235608536E1,-9.482502937E-4,1.046529412E-2,6.006145477E-2
1.236407760E1,-9.638071060E-3,1.279869676E-2,6.492996216E-2
1.237207698E1,-2.113014460E-2,1.768434048E-2,8.413124084E-2
1.238007245E1,-6.607711315E-3,-1.582476497E-2,4.344367981E-2
1.238806875E1,-1.860225201E-2,-2.764704823E-2,4.105377197E-2
1.239609422E1,1.701420546E-2,-5.939960480E-3,1.948356628E-2
1.240408899E1,1.197755337E-2,-1.775899529E-2,9.890556335E-3
1.241208599E1,3.560638428E-2,-3.917211294E-2,1.225948334E-2
1.242008130E1,3.073900938E-2,-3.167033195E-3,2.662086487E-2
1.242807706E1,4.764348269E-2,2.806755900E-2,2.185058594E-2
1.243607153E1,3.597146273E-2,9.023666382E-3,4.582405090E-2
1.244406776E1,5.066668987E-2,1.614364982E-2,5.543041229E-2
1.245209399E1,2.705007792E-2,2.086406946E-2,5.066871643E-2
1.246009022E1,1.790702343E-2,1.128563285E-2,5.549716949E-2
1.246808592E1,2.552187443E-2,4.016637802E-3,5.074596405E-2
1.247608138E1,1.998543739E-3,3.873169422E-3,5.796146393E-2
1.248407576E1,1.189887524E-2,-1.047557592E-2,4.602050781E-2
1.249207238E1,-2.423822880E-3,-5.731105804E-3,2.926349640E-2
1.250006838E1,1.206487417E-2,-5.815893412E-3,1.730060577E-2
1.250809430E1,7.313370705E-3,-1.066461205E-2,5.426406860E-4
1.251608908E1,9.322166443E-5,3.696709871E-3,-9.037017822E-3
1.252408385E1,-5.006790161E-6,2.052929997E-2,-1.862144470E-2
1.253208046E1,2.384823561E-2,6.226927042E-3,5.315780640E-3
1.254007546E1,2.144342661E-2,8.856296539E-3,2.687072754E-2
1.254807270E1,7.139861584E-3,1.787781715E-3,5.321693420E-2
1.255606746E1,2.150899172E-2,-5.245745182E-3,4.125118256E-2
1.256409247E1,2.875983715E-2,-1.710543036E-2,6.041622162E-2
1.257208900E1,4.069924355E-2,-2.180662751E-2,5.562782288E-2
1.258008416E1,4.788821936E-2,-2.731263638E-3,4.844379425E-2
1.258808162E1,9.701550007E-3,1.956671476E-3,2.929687500E-2
1.259607585E1,5.127191544E-3,9.039610624E-3,2.213001251E-2
1.260407062E1,5.399405956E-3,-1.252907515E-2,2.215480804E-2
1.261206716E1,-1.121878624E-2,-2.969741821E-3,5.408287048E-3
1.262009370E1,-4.104256630E-3,1.380684972E-2,1.258468628E-2
1.262809055E1,-1.866054535E-2,3.059965372E-2,2.990722656E-3
1.263608470E1,-9.505212307E-3,1.999020576E-3,3.408145905E-2
1.264407947E1,-1.263910532E-2,7.004886866E-3,3.641510010E-2
1.265207617E1,1.286911964E-2,1.430201530E-2,4.591941833E-2
1.266007148E1,2.264320850E-3,-1.192051172E-2,5.061817169E-2
1.266806817E1,1.810234785E-2,-3.097978234E-2,3.138160706E-2
1.267609302E1,3.154116869E-2,2.620518208E-4,2.890682220E-2
1.268408533E1,6.660765409E-2,-6.716310978E-3,5.277729034E-2
1.269208386E1,6.127226353E-2,-1.138585806E-2,5.991458893E-2
1.270007956E1,6.554532051E-2,-1.135149598E-2,3.353214264E-2
1.270807587E1,3.428715467E-2,1.267594099E-2,4.792213440E-3
1.271607148E1,2.233487368E-2,-1.718789339E-3,1.676368713E-2
1.272406602E1,2.497613430E-2,1.023563743E-2,3.115081787E-2
1.273209248E1,2.753674984E-2,1.018750668E-2,2.158832550E-2
1.274008756E1,3.660917282E-3,5.312412977E-3,9.619712830E-3
1.274808502E1,3.823935986E-3,7.664531469E-3,3.357601166E-2
1.275607987E1,-2.016252279E-2,-9.071916342E-3,4.554271698E-2
1.276407457E1,-1.560938358E-2,-1.873075962E-3,3.594493866E-2
1.277207095E1,-3.288751841E-2,2.941370010E-3,3.589820862E-2
1.278006626E1,-1.689767838E-2,-1.364672184E-2,2.865123749E-2
1.278809341E1,-2.985113859E-2,1.296514273E-2,2.857112885E-2
1.279608757E1,-4.678726196E-3,1.133173704E-3,6.921768188E-3
1.280408326E1,4.206693172E-2,2.042123675E-2,2.118682861E-2
1.281207949E1,4.351311922E-2,6.203293800E-3,-4.415512085E-4
1.282007519E1,4.514157772E-2,1.340213418E-2,9.065628052E-3
1.282807150E1,5.194395781E-2,-9.884834290E-4,1.621246338E-2
1.283606596E1,3.289556503E-2,-3.479331732E-3,4.255485535E-2
1.284409119E1,3.313773870E-2,8.342891932E-3,6.651401520E-2
1.285208750E1,-2.497494221E-3,3.395080566E-3,6.653308868E-2
1.286008327E1,-3.347474337E-2,1.538327336E-2,7.373046875E-2
1.286808042E1,-4.081881046E-2,6.051540375E-3,8.330154419E-2
1.287607427E1,-5.210936069E-3,-2.235856652E-2,6.413173676E-2
1.288406943E1,1.442849636E-3,-1.241934299E-2,4.254817963E-2
1.289206658E1,4.633802176E-2,-2.064406872E-4,1.856136322E-2
1.290009250E1,4.595232010E-2,-2.471208572E-3,-6.227493286E-4
1.290808843E1,5.780583620E-2,1.437354088E-2,1.763343811E-3
1.291608258E1,5.572670698E-2,2.626881003E-2,-2.694129944E-2
1.292407766E1,4.191911221E-2,1.416367292E-2,-1.253032684E-2
1.293207435E1,9.263217449E-3,2.144008875E-3,-4.806518555E-4
1.294007005E1,-3.298550844E-2,9.228616953E-3,3.789997101E-2
1.294806597E1,-4.433888197E-2,1.805245876E-3,7.146549225E-2
1.295609243E1,-4.412293434E-2,-7.599592209E-4,5.232620239E-2
1.296408636E1,-3.496426344E-2,-5.650490522E-3,6.664943695E-2
1.297208267E1,-5.028420687E-2,3.894537687E-3,4.501247406E-2
1.298007836E1,-1.582348347E-2,-8.086860180E-4,3.051757812E-2
1.298807521E1,8.839368820E-3,-2.950608730E-3,1.840400696E-2
1.299606936E1,2.640110254E-2,4.439294338E-3,1.587104797E-2
1.300406452E1,4.899162054E-2,-1.687967777E-2,1.336383820E-2
1.301209221E1,6.023222208E-2,9.715467691E-3,1.809501648E-2
1.302008690E1,5.505740643E-2,-1.409405470E-2,2.524757385E-2
1.302808352E1,5.272656679E-2,5.030393600E-3,4.440498352E-2
1.303607867E1,6.046986580E-2,2.406388521E-2,4.445171356E-2
1.304407375E1,2.290803194E-2,1.198354363E-2,2.536201477E-2
1.305207006E1,4.586994648E-3,7.103681564E-3,2.782917023E-2
1.306006545E1,-2.084857225E-2,2.372533083E-2,3.508758545E-2
1.306809191E1,-2.966248989E-2,2.124577761E-3,2.797317505E-2
1.307608691E1,-3.642362356E-2,2.111881971E-3,3.279972076E-2
1.308407899E1,-4.361355305E-2,2.209424973E-3,1.604270935E-2
1.309207891E1,-1.502454281E-2,2.465724945E-3,2.561664581E-2
1.310007368E1,-8.568763733E-4,7.491797209E-3,4.059791565E-3
1.310807030E1,8.492887020E-3,1.481702924E-2,3.277397156E-2
1.311609530E1,2.988278866E-2,2.915632725E-2,1.360511780E-2
1.312409038E1,5.835592747E-3,1.241481304E-2,2.077865601E-2
1.313208722E1,2.979409695E-2,2.672600746E-2,3.274917603E-2
1.314008230E1,2.499842644E-2,2.710103989E-3,5.189990997E-2
1.314807930E1,3.485620022E-3,-2.072066069E-3,5.669116974E-2
1.315607369E1,-8.479893208E-3,-1.634672284E-2,5.908966064E-2
1.316406876E1,-3.767073154E-3,-1.626408100E-2,4.711437225E-2
1.317209500E1,-6.306529045E-3,-6.573647261E-3,6.147098541E-2
1.318009092E1,5.502700806E-3,-1.689225435E-3,3.512382507E-2
1.318808731E1,7.693290710E-3,-1.842159033E-2,3.750038147E-2
1.319608177E1,9.892404079E-3,7.087588310E-4,-8.249282837E-4
1.320407715E1,1.453417540E-2,1.518782973E-2,1.592445374E-2
1.321207369E1,2.508044243E-3,2.012470365E-2,3.953933716E-3
1.322006946E1,1.195740700E-2,2.267315984E-2,2.070713043E-2
1.322806570E1,-2.427041531E-3,-1.071900129E-3,5.423259735E-2
1.323609070E1,-1.922410727E-2,8.604228497E-3,5.183792114E-2
1.324408547E1,-3.142631054E-2,3.972023726E-3,4.224586487E-2
1.325208208E1,-1.743483543E-2,-1.255136728E-2,6.616306305E-2
1.326007708E1,1.164376736E-3,1.149603724E-2,6.372261047E-2
1.326807370E1,7.520914078E-3,3.077372909E-2,3.731632233E-2
1.327606824E1,3.077334166E-2,4.527091980E-3,3.246784210E-2
1.328409432E1,3.490024805E-2,2.295643091E-3,3.480815887E-2
1.329209155E1,3.446543217E-2,-1.675307751E-2,2.280235291E-2
1.330008516E1,3.425860405E-2,-9.572446346E-3,1.320648193E-2
1.330808293E1,4.154807329E-2,2.342909575E-3,1.081943512E-2
1.331607709E1,1.812493801E-2,1.903593540E-2,3.241157532E-2
1.332407186E1,1.390141249E-2,-5.015939474E-3,2.288246155E-2
1.333206878E1,9.715914726E-3,9.107202291E-3,2.532196045E-2
1.334009471E1,3.326535225E-3,1.608788967E-2,4.453945160E-2
1.334809102E1,-3.213942051E-3,1.599586010E-2,2.783584595E-2
1.335608579E1,-2.514362335E-3,-1.759469509E-2,5.902194977E-2
1.336408117E1,-2.345031500E-2,-5.527138710E-3,4.950428009E-2
1.337207710E1,-8.666872978E-3,-7.897913456E-3,4.475402832E-2
1.338007317E1,-3.486031294E-2,-3.075033426E-3,3.040313721E-2
1.338806941E1,-1.340025663E-2,1.850733161E-2,3.997325897E-2
1.339609371E1,-1.605808735E-2,2.096468210E-2,3.037452698E-2
1.340408633E1,-4.580974579E-3,6.730407476E-3,6.392478943E-3
1.341208548E1,1.649904251E-2,2.110460401E-2,-8.316040039E-4
1.342008056E1,1.631927490E-2,9.184300900E-3,1.547813416E-3
1.342807772E1,2.106952667E-2,-1.960992813E-4,1.352310181E-2
1.343607226E1,1.153010130E-2,1.175495982E-2,2.789020538E-2
1.344406787E1,2.858704329E-2,-4.998028278E-3,2.073478699E-2
1.345209410E1,-1.642417908E-2,-2.018213272E-4,4.951095581E-2
1.346008949E1,-3.276616335E-2,-9.741365910E-3,5.912590027E-2
1.346808634E1,-5.407893658E-2,-1.213860512E-2,6.154155731E-2
1.347608118E1,-4.208666086E-2,-1.217952371E-2,6.872463226E-2
1.348407526E1,-3.999465704E-2,-1.690065861E-2,3.518009186E-2
1.349207219E1,-2.128213644E-2,4.690855742E-3,2.077674866E-2
1.350006696E1,-1.232701540E-2,1.432013512E-2,1.832866669E-2
1.350809619E1,-3.473341465E-3,3.841799498E-2,-3.280639648E-3
1.351608980E1,2.996742725E-3,2.719104290E-3,8.634567261E-3
1.352408457E1,2.335429192E-3,-6.641983986E-3,1.337051392E-2
1.353208081E1,1.866436005E-2,3.093391657E-3,2.530860901E-2
1.354007681E1,3.285270929E-2,1.278343797E-2,2.769088745E-2
1.354807281E1,2.327704430E-2,2.476495504E-2,4.205703735E-2
1.355606704E1,2.351319790E-2,8.690059185E-4,4.686832428E-2
1.356409189E1,2.136355639E-2,-6.233125925E-3,6.125831604E-2
1.357208943E1,1.935905218E-2,-3.818958998E-3,5.650711060E-2
1.358008481E1,5.312323570E-3,-2.292042971E-2,5.653762817E-2
1.358808112E1,-2.059316635E-2,-6.129354239E-3,4.460716248E-2
1.359607504E1,-1.284641027E-2,3.432095051E-3,3.029155731E-2
1.360407074E1,-1.484590769E-2,3.356218338E-3,2.074813843E-2
1.361206766E1,-7.329225540E-3,1.050165296E-2,1.598834991E-2
1.362009351E1,-3.101015091E-2,2.476054430E-2,4.037857056E-3
1.362808920E1,-2.127760649E-2,1.054793596E-2,-5.518913269E-3
1.363608428E1,-3.081130981E-2,1.541528106E-2,8.852958679E-3
1.364407659E1,-1.908713579E-2,-1.136749983E-3,2.080917358E-2
1.365207567E1,-1.941555738E-2,-5.756646395E-3,3.036212921E-2
1.366007128E1,-5.404412746E-3,1.508533955E-3,4.230499268E-2
1.366806767E1,-1.304900646E-2,-7.517039776E-4,5.423927307E-2
1.367609313E1,-1.354068518E-2,4.129141569E-3,6.377506256E-2
1.368408821E1,2.470314503E-3,1.623630524E-2,4.934597015E-2
1.369208429E1,8.780002594E-3,-7.531732321E-3,3.490734100E-2
1.370008021E1,8.909106255E-4,-9.751319885E-3,2.766799927E-2
1.370807690E1,2.675831318E-2,-7.315725088E-3,2.283859253E-2
1.371607067E1,1.700174809E-2,-7.275432348E-3,2.521800995E-2
1.372406552E1,2.665936947E-3,-4.746198654E-3,1.325511932E-2
1.373209252E1,3.153681755E-4,-1.658746600E-2,4.199409485E-2
1.374008852E1,-2.591580153E-2,-4.444211721E-3,3.961467743E-2
1.374808483E1,-2.114063501E-2,1.484519243E-2,6.595611572E-2
1.375607937E1,-2.116918564E-3,7.850706577E-3,5.876922607E-2
1.376407437E1,-9.563148022E-3,1.042675972E-2,5.396366119E-2
1.377207045E1,2.113878727E-3,5.831271410E-3,2.521324158E-2
1.378006699E1,6.646811962E-3,1.320073009E-2,3.716754913E-2
1.378809376E1,-8.646845818E-4,1.578524709E-2,2.278041840E-2
1.379608761E1,2.538979053E-2,1.830551028E-2,6.018638611E-3
1.380408299E1,2.075719833E-2,1.596772671E-2,6.033897400E-3
1.381207961E1,2.033293247E-3,2.322930098E-2,1.325893402E-2
1.382007530E1,-1.899212599E-2,1.362651587E-2,1.569938660E-2
1.382807076E1,-1.845836639E-2,6.469011307E-3,2.293205261E-2
1.383606638E1,-3.231835365E-2,1.593619585E-3,3.733921051E-2
1.384409169E1,-3.205400705E-2,-1.047703624E-2,4.933166504E-2
1.385208769E1,-3.694677353E-2,1.337838173E-2,2.537536621E-2
1.386008308E1,-4.191380739E-2,-8.290052414E-3,3.253841400E-2
1.386807969E1,-3.528422117E-2,8.388549089E-3,2.290725708E-2
1.387607415E1,-1.431930065E-2,3.591835499E-3,4.200839996E-2
1.388406977E1,-1.272135973E-2,1.079943776E-2,2.757167816E-2
1.389206585E1,1.047199965E-2,1.091703773E-2,3.947925568E-2
1.390009200E1,-4.489839077E-3,2.535569668E-2,2.985095978E-2
1.390808916E1,3.326922655E-2,1.539260149E-3,2.980709076E-2
1.391608239E1,1.875036955E-2,6.408035755E-3,3.219032288E-2
1.392407785E1,1.866763830E-2,-5.564361811E-3,2.739429474E-2
1.393207531E1,1.413238049E-2,-8.284151554E-4,5.375194550E-2
1.394007016E1,7.295966148E-3,8.709073067E-3,3.941535950E-2
1.394806793E1,-1.875132322E-2,-9.811222553E-4,4.422569275E-2
1.395609170E1,7.509589195E-4,1.297205687E-3,2.509975433E-2
1.396408670E1,5.916059017E-3,1.307317615E-2,1.076030731E-2
1.397208332E1,1.838874817E-2,3.932246566E-2,1.559162140E-2
1.398007901E1,-1.455569267E-2,3.440269828E-2,3.239822388E-2
1.398807532E1,-3.102248907E-2,1.755502820E-2,3.002643585E-2
1.399606986E1,-5.951875448E-2,-1.643925905E-3,4.680633545E-2
1.400406494E1,-4.545199871E-2,7.966578007E-3,5.156898499E-2
1.401209163E1,-2.921307087E-2,5.593508482E-3,4.433917999E-2
1.402008732E1,-2.033662796E-2,7.975727320E-3,4.666996002E-2
1.402808432E1,2.766489983E-3,-1.358988881E-2,2.504539490E-2
1.403607848E1,1.878625154E-2,-4.044294357E-3,1.540088654E-2
1.404407348E1,3.010046482E-2,-1.604649425E-2,1.055240631E-2
1.405206956E1,2.021378279E-2,2.217933536E-2,3.338813782E-3
1.406006494E1,2.979034185E-2,5.386531353E-3,2.249145508E-2
1.406809287E1,5.979299545E-3,2.928256989E-2,3.447151184E-2
1.407608710E1,4.033863544E-3,1.728951931E-2,3.929996490E-2
1.408408156E1,-2.429634333E-2,2.882361412E-3,5.130577087E-2
1.409207818E1,-3.593260050E-2,2.917063236E-2,4.893970490E-2
1.410007326E1,-3.099882603E-2,5.196422338E-3,5.374050140E-2
1.410807072E1,-5.501616001E-2,-4.542201757E-3,3.696823120E-2
1.411609572E1,-3.622865677E-2,2.628237009E-3,2.496337891E-2
1.412408734E1,-4.142433405E-2,-1.908469200E-2,2.013206482E-2
1.413208703E1,-1.087009907E-2,-7.223516703E-3,1.049900055E-2
1.414008249E1,5.826354027E-4,1.664170623E-2,5.661010742E-3
1.414807880E1,-4.724621773E-3,2.268075943E-3,2.476787567E-2
1.415607349E1,1.155179739E-2,-1.679906249E-2,3.191089630E-2
1.416406888E1,8.716404438E-3,-1.499056816E-5,5.581378937E-2
1.417209503E1,1.800906658E-2,-9.679079056E-3,4.381370544E-2
1.418009042E1,2.502614260E-2,-7.417947054E-3,5.815982819E-2
1.418808773E1,1.056438684E-2,2.363997698E-2,4.617691040E-2
1.419608157E1,5.786418915E-3,1.632788777E-2,2.941322327E-2
1.420407688E1,-8.363246918E-3,-5.338907242E-3,3.182315826E-2
1.421207350E1,1.467168331E-3,4.051655531E-3,2.226257324E-2
1.422006865E1,-1.744341850E-2,1.112854481E-2,2.706909180E-2
1.422809596E1,-3.868156672E-2,1.585772634E-2,2.230548859E-2
1.423609020E1,-5.762374401E-2,-9.937286377E-4,2.471446991E-2
1.424408589E1,-3.602182865E-2,3.693521023E-3,1.753425598E-2
1.425208220E1,-2.179545164E-2,1.307398081E-3,1.273345947E-2
1.426007789E1,1.903295517E-3,6.105870008E-3,3.665447235E-2
1.426807358E1,-1.764792204E-2,-5.931884050E-3,3.182697296E-2
1.427606858E1,-6.078839302E-3,1.317593455E-2,3.418254852E-2
1.428409382E1,-1.128619909E-2,2.259451151E-2,1.977443695E-2
1.429209043E1,7.396638393E-3,-8.642137051E-3,3.169918060E-2
1.430008589E1,-1.448082924E-2,1.521125436E-2,3.406047821E-2
1.430808243E1,-5.354404449E-3,7.947981358E-4,3.162479401E-2
1.431607782E1,-8.125066757E-3,-1.634329557E-3,3.398227692E-2
1.432407228E1,-3.008949757E-2,-2.078479528E-2,3.873443604E-2
1.433206890E1,-1.892745495E-3,-4.074066877E-3,2.431869507E-2
1.434009451E1,-3.833210468E-2,3.115922213E-3,3.384876251E-2
1.434809136E1,-1.732999086E-2,-6.371796131E-3,3.141021729E-2
1.435608613E1,-8.315384388E-3,3.312855959E-3,4.572868347E-2
1.436407759E1,1.524835825E-2,1.053163409E-2,3.851318359E-2
1.437207690E1,1.502263546E-2,1.769688725E-2,2.412700653E-2
1.438007260E1,7.928073406E-3,1.990139484E-2,3.609943390E-2
1.438806898E1,1.281172037E-2,2.678680420E-2,3.609657288E-2
1.439609421E1,-2.283018827E-2,3.611654043E-2,2.892971039E-2
1.440408952E1,-1.549172401E-2,4.299911857E-2,3.372001648E-2
1.441208552E1,-3.723597527E-2,1.906019449E-2,3.130912781E-2
1.442008098E1,-4.466885328E-2,-9.554922581E-3,4.565620422E-2
1.442807722E1,-4.036539793E-2,-2.612206340E-2,4.801464081E-2
1.443607237E1,-2.189308405E-2,-1.870498061E-2,5.753898621E-2
1.444406745E1,-1.069390774E-2,-1.860085130E-2,5.507946014E-2
1.445209422E1,5.081826448E-2,5.374044180E-3,4.543781281E-2
1.446008960E1,3.114557266E-2,1.487782598E-2,1.187038422E-2
1.446808622E1,4.772025347E-2,3.624278307E-2,-7.306098938E-3
1.447608099E1,5.044484138E-2,1.691791415E-2,-4.889488220E-3
1.448407599E1,4.417341948E-2,2.142482996E-2,2.364158630E-3
1.449207261E1,4.770517349E-3,-5.188465118E-3,4.317092896E-2
1.450006799E1,-4.156076908E-2,-1.014298201E-2,4.569816589E-2
1.450809576E1,-8.577084541E-2,-3.162771463E-3,6.735324860E-2
1.451608930E1,-9.941387177E-2,-3.366619349E-3,5.543804169E-2
1.452408161E1,-9.453690052E-2,8.372664452E-3,4.586124420E-2
1.453208069E1,-6.412971020E-2,5.875468254E-3,2.185153961E-2
1.454007631E1,-1.968371868E-2,-1.275330782E-3,-6.971359253E-3
1.454807269E1,2.949589491E-2,-1.567712426E-2,-7.071495056E-3
1.455606769E1,4.056030512E-2,-1.809722185E-2,4.817008972E-3
1.456409362E1,4.981613159E-2,3.389775753E-3,1.196956635E-2
1.457208954E1,2.845591307E-2,8.101433516E-3,1.677131653E-2
1.458008523E1,3.385388851E-2,5.655348301E-3,2.400684357E-2
1.458808100E1,3.567099571E-3,-6.217151880E-3,5.760478973E-2
1.459607577E1,-9.837031364E-3,3.384888172E-3,6.008529663E-2
1.460407054E1,-2.565968037E-2,2.247473598E-2,5.298519135E-2
1.461206770E1,-2.972191572E-2,2.718666196E-2,4.346942902E-2
1.462009355E1,-2.419257164E-2,2.956292033E-2,1.959323883E-2
1.462808955E1,-1.407057047E-2,1.992863417E-2,1.006317139E-2
1.463608493E1,-1.113301516E-2,2.945727110E-2,5.331039429E-4
1.464407970E1,-1.757073402E-2,7.878363132E-3,-8.977890015E-3
1.465207570E1,-3.847324848E-2,3.050029278E-3,6.551742554E-4
1.466007201E1,-5.218088627E-2,1.018947363E-2,3.108024597E-3
1.466806778E1,-5.885106325E-2,-4.174232483E-3,1.273155212E-2
1.467609332E1,-7.296031713E-2,-1.858681440E-3,4.387569427E-2
1.468408771E1,-7.779133320E-2,-1.152905822E-2,4.865741730E-2
1.469208432E1,-3.050947189E-2,-6.762266159E-3,6.057262421E-2
1.470007979E1,-3.846436739E-2,-4.365324974E-3,5.092620850E-2
1.470807702E1,-3.472316265E-2,1.244390011E-2,4.125690460E-2
1.471607140E1,-4.778027534E-3,2.208667994E-2,2.439403534E-2
1.472406594E1,3.244191408E-2,2.452367544E-2,2.190399170E-2
1.473209325E1,4.358220100E-2,1.263952255E-2,3.380393982E-2
1.474008841E1,5.516880751E-2,1.751598716E-2,1.940727234E-2
1.474808525E1,3.602594137E-2,3.194913268E-2,4.095935822E-2
1.475607948E1,1.012378931E-2,2.709743381E-2,2.902412415E-2
1.476407456E1,-8.235037327E-3,7.909774780E-3,4.345893860E-2
1.477207110E1,-3.616613150E-2,-1.366859674E-2,6.028938293E-2
1.478006595E1,-6.412404776E-2,-4.714637995E-2,6.275558472E-2
1.478809295E1,-5.875366926E-2,-1.850032806E-2,5.322742462E-2
1.479608864E1,-6.562697887E-2,-1.376050711E-2,3.649330139E-2
1.480408380E1,-5.618137121E-2,7.735043764E-3,1.014328003E-2
1.481207980E1,-2.055406570E-2,2.433487773E-2,-4.253387451E-3
1.482007518E1,3.430485725E-2,1.698571444E-2,-1.864337921E-2
1.482807172E1,4.611748457E-2,4.084622860E-2,-1.387214661E-2
1.483606619E1,1.267385483E-2,2.642014623E-2,-9.078979492E-3
1.484408872E1,3.306865692E-3,2.631202340E-2,-1.881599426E-3
1.485208803E1,-1.063996553E-2,-4.571676254E-5,4.125118256E-2
1.486008380E1,-4.370391369E-2,-4.828065634E-3,7.720565796E-2
1.486808065E1,-3.854089975E-2,-1.921993494E-2,8.202743530E-2
1.487607396E1,-5.988097191E-2,-9.737551212E-3,7.007026672E-2
1.488406996E1,-6.479483843E-2,-4.956454039E-3,5.569362640E-2
1.489209358E1,-4.854130745E-2,-7.279902697E-3,2.978324890E-3
1.490009181E1,-2.764189243E-2,7.148116827E-3,-1.866340637E-3
1.490808873E1,-1.889163256E-2,2.878388762E-2,-9.119987488E-3
1.491608373E1,-1.487916708E-2,4.940062761E-3,-6.791114807E-3
1.492407827E1,-1.799261570E-2,2.187564969E-2,-1.642608643E-2
1.493207512E1,5.168318748E-4,1.727527380E-2,2.822875977E-4
1.494006997E1,2.447843552E-3,6.106793880E-4,2.179241180E-2
1.494806720E1,-2.675652504E-3,-1.691728830E-3,4.570770264E-2
1.495609243E1,1.742005348E-3,-6.479889154E-3,5.285739899E-2
1.496408720E1,1.212120056E-3,3.038585186E-3,6.477832794E-2
1.497208351E1,-6.485641003E-3,-4.235774279E-3,6.472873688E-2
1.498007882E1,7.574021816E-3,1.723459363E-2,4.794025421E-2
1.498807520E1,-1.192605495E-2,1.230508089E-2,3.353786469E-2
1.499607020E1,-1.233863831E-2,1.710715890E-2,4.068470001E-2
1.500406497E1,-1.272469759E-2,7.472187281E-3,1.670551300E-2
1.501209174E1,-1.302021742E-2,2.702921629E-3,1.189136505E-2
1.502008775E1,-1.569300890E-2,1.705661416E-2,1.665496826E-2
1.502808405E1,6.982684135E-4,-1.649940014E-2,1.183223724E-2
1.503607828E1,7.604837418E-3,-2.216041088E-3,9.409904480E-3
1.504407336E1,7.464051247E-3,-2.150571346E-2,1.657485962E-2
1.505206929E1,1.464879513E-2,-2.511769533E-3,3.093433380E-2
1.506006529E1,2.920448780E-3,2.135068178E-3,3.095149994E-2
1.506809237E1,1.286792755E-2,-4.521012306E-4,3.337097168E-2
1.507608744E1,6.104528904E-3,1.614758372E-2,3.340244293E-2
1.508407891E1,-1.726382971E-2,1.840737462E-2,4.781436920E-2
1.509207768E1,-1.907044649E-2,1.120448112E-2,4.547214508E-2
1.510007422E1,-8.886635303E-3,1.354137063E-2,4.312992096E-2
1.510806991E1,-3.466624022E-2,6.255000830E-3,3.120517731E-2
1.511609576E1,-3.649574518E-2,1.373678446E-3,2.406883240E-2
1.512409060E1,-4.784440994E-2,-5.909591913E-3,2.890872955E-2
1.513208745E1,-3.077107668E-2,-1.080462337E-2,2.175140381E-2
1.514008199E1,-4.251295328E-2,8.319884539E-3,2.416419983E-2
1.514807953E1,-4.475229979E-2,-1.569649577E-2,2.896404266E-2
1.515607391E1,-3.748607635E-2,8.200556040E-3,2.178764343E-2
1.516406845E1,-1.591086388E-2,1.298606396E-2,2.412796021E-4
1.517206507E1,-1.597720385E-2,-1.573961973E-2,2.657222748E-2
1.518009146E1,-1.127165556E-2,-8.482038975E-3,5.290412903E-2
1.518808807E1,-1.127904654E-2,1.783680916E-2,5.050849915E-2
1.519608192E1,5.407929420E-3,1.532110572E-2,1.697826385E-2
1.520407769E1,6.495118141E-4,5.627691746E-3,1.697731018E-2
1.521207423E1,5.412876606E-3,3.206849098E-3,2.655029297E-2
1.522006931E1,-2.567201853E-2,3.161400557E-3,3.852272034E-2
1.522809515E1,-3.507882357E-2,1.268056035E-2,4.571914673E-2
1.523609092E1,-2.800923586E-2,5.420833826E-3,3.612995148E-2
1.524408592E1,-3.298121691E-2,5.482077599E-3,2.893257141E-2
1.525208200E1,-3.093248606E-2,-1.360446215E-2,3.129863739E-2
1.526007708E1,-3.363382816E-2,-1.345798373E-2,2.648830414E-2
1.526807362E1,-2.417629957E-2,-3.838628531E-3,2.647876740E-2
1.527606870E1,-2.202749252E-2,9.508728981E-4,1.448535919E-2
1.528409454E1,-8.646249771E-4,3.320246935E-3,1.445007324E-2
1.529209031E1,-3.575205803E-3,5.663871765E-3,1.202678680E-2
1.530008624E1,-1.574093103E-2,8.463561535E-4,4.073810577E-2
1.530808324E1,3.363370895E-3,1.763635874E-2,2.158164978E-2
1.531607732E1,3.296077251E-3,3.217846155E-3,2.157306671E-2
1.532407209E1,9.585022926E-4,5.616992712E-3,2.875995636E-2
1.533206878E1,3.620088100E-3,5.568504333E-3,2.399444580E-2
1.534009486E1,-5.594611168E-3,5.581736565E-3,4.318141937E-2
1.534809155E1,-1.226234436E-2,1.276960969E-2,3.843784332E-2
1.535608594E1,-1.897513866E-2,5.502551794E-3,3.608417511E-2
1.536408071E1,-2.091628313E-2,2.930274606E-2,4.090785980E-2
1.537207763E1,-3.955942392E-2,5.252331495E-3,2.179622650E-2
1.538007279E1,-3.929114342E-2,2.433386445E-2,1.463413239E-2
1.538806971E1,-7.264965773E-2,2.803027630E-3,2.901458740E-2
1.539609425E1,-7.522177696E-2,-1.936882734E-3,1.942348480E-2
1.540408879E1,-6.855928898E-2,2.925604582E-3,2.416801453E-2
1.541208594E1,-6.697100401E-2,1.498788595E-2,1.930999756E-2
1.542008133E1,-3.692245483E-2,1.270440221E-2,2.640151978E-2
1.542807795E1,-2.380710840E-2,3.321498632E-3,2.390193939E-2
1.543607241E1,5.993664265E-3,1.311671734E-2,9.427070618E-3
1.544406841E1,3.107887506E-2,-1.029819250E-3,2.608299255E-2
1.545209464E1,5.417293310E-2,-1.290842891E-2,4.037666321E-2
1.546009003E1,3.940594196E-2,-7.921397686E-3,4.513645172E-2
1.546808749E1,2.979940176E-2,8.863151073E-3,4.753017426E-2
1.547608072E1,1.110589504E-2,1.379281282E-2,6.912326813E-2
1.548407649E1,4.511415958E-3,-3.972351551E-4,5.242252350E-2
1.549207241E1,-2.123832703E-2,2.063512802E-3,4.768943787E-2
1.550006788E1,-2.312612534E-2,6.919652224E-3,1.900577545E-2
1.550809557E1,-2.021193504E-2,1.182234287E-2,1.187419891E-2
1.551608934E1,-1.026690006E-2,1.438251138E-2,2.149009705E-2
1.552408480E1,-2.428770065E-2,1.934716105E-2,-7.204055786E-3
1.553208019E1,-2.644705772E-2,-9.272515774E-3,2.398490906E-3
1.554007642E1,-4.062104225E-2,1.001703739E-2,1.439094543E-2
1.554807304E1,-2.615338564E-2,1.250469685E-2,1.679801941E-2
1.555606781E1,-3.818577528E-2,1.728877425E-2,3.834056854E-2
1.556409065E1,-3.839534521E-2,3.005117178E-3,3.114223480E-2
1.557208973E1,-3.632271290E-2,3.031313419E-3,5.026817322E-2
1.558008481E1,-3.915625811E-2,-1.373365521E-2,3.825664520E-2
1.558808173E1,-2.525502443E-2,-1.776158810E-3,2.385044098E-2
1.559607612E1,-1.688659191E-3,6.966590881E-4,2.860736847E-2
1.560407127E1,-1.643550396E-2,1.033300161E-2,3.336429596E-2
1.561209804E1,-1.415365934E-2,-1.102739573E-2,3.096771240E-2
1.562009335E1,5.227327347E-5,8.256614208E-3,3.814029694E-2
1.562809028E1,-7.124960423E-3,1.179486513E-3,3.575134277E-2
1.563608443E1,-4.606008530E-3,5.971908569E-3,4.055118561E-2
1.564407928E1,-2.598643303E-2,1.231580973E-3,3.099060059E-2
1.565207612E1,-3.059172630E-2,6.032437086E-3,4.058456421E-2
1.566007128E1,-3.286242485E-2,1.322597265E-3,3.102111816E-2
1.566806905E1,-3.276449442E-2,6.186455488E-3,3.821563721E-2
1.567609282E1,-3.033727407E-2,-3.211796284E-3,2.385997772E-2
1.568408851E1,-3.760772943E-2,-1.027712226E-2,2.625083923E-2
1.569208444E1,-3.541713953E-2,4.208624363E-3,2.384281158E-2
1.570008075E1,-1.427823305E-2,1.390147209E-2,7.051467896E-3
1.570807644E1,6.984770298E-3,1.635846496E-2,4.633903503E-3
1.571607067E1,1.875782013E-2,2.837395668E-2,2.137756348E-2
1.572406659E1,3.311824799E-2,3.323903680E-2,3.335094452E-2
1.572809621E1,1.190203428E-2,1.898169518E-2,1.662540436E-2
1.573007960E1,9.507834911E-3,1.179909706E-2,2.859592438E-2
1.573209344E1,7.113635540E-3,7.010668516E-3,2.141380310E-2
1.574008875E1,-1.165270805E-2,1.171290874E-2,3.820419312E-2
1.574808514E1,-2.320635319E-2,-2.597302198E-3,4.782104492E-2
1.575607929E1,-5.392289162E-2,1.174476743E-2,4.067325592E-2
1.576407491E1,-2.005153894E-2,-1.769661903E-4,5.028343201E-2
1.577207068E1,-3.180187941E-2,2.244263887E-3,2.396774292E-2
1.578006691E1,-4.131519794E-2,2.200424671E-3,1.918315887E-2
1.578809376E1,-3.421092033E-2,2.218395472E-3,1.199436188E-2
1.579608814E1,-2.944689989E-2,6.943464279E-3,1.907348633E-5
1.580408022E1,-2.953284979E-2,-2.561002970E-3,1.677322388E-2
1.581207922E1,-2.010434866E-2,-7.288545370E-3,1.197433472E-2
1.582007561E1,-3.932309151E-2,2.149578929E-2,2.394104004E-2
1.582807245E1,-2.758699656E-2,1.206129789E-2,4.307937622E-2
1.583606630E1,-3.723561764E-2,1.215982437E-2,5.265331268E-2
1.584409153E1,-3.272908926E-2,7.459104061E-3,5.502605438E-2
1.585208761E1,-1.816451550E-3,-4.487603903E-3,6.219100952E-2
1.586008384E1,-1.164633036E-2,1.238206029E-2,3.822994232E-2
1.586807961E1,1.435738802E-2,1.007860899E-2,3.580951691E-2
1.587607523E1,1.184403896E-2,2.974927425E-3,1.425361633E-2
1.588406977E1,-9.804189205E-3,5.965828896E-4,2.274513245E-3
1.589206638E1,-1.217752695E-2,1.738098264E-2,9.459495544E-3
1.590009161E1,-4.075968266E-2,1.268881559E-2,9.476661682E-3
1.590808877E1,-3.334569931E-2,-1.359060407E-2,1.668167114E-2
1.591608300E1,-2.585768700E-2,-4.005521536E-3,2.628612518E-2
1.592407862E1,-2.819114923E-2,1.516136527E-2,3.826332092E-2
1.593207492E1,-1.372992992E-2,-1.594862342E-2,3.587818146E-2
1.594007031E1,-2.560114861E-2,5.633115768E-3,3.828239441E-2
1.594806731E1,-3.749078512E-2,2.476450801E-2,2.871227264E-2
1.595609185E1,-3.740328550E-2,3.660607338E-2,3.350353241E-2
1.596408731E1,-8.667051792E-3,2.690324187E-2,2.631664276E-2
1.597208324E1,-2.072441578E-2,1.013961434E-2,2.391433716E-2
1.598007924E1,-1.840877533E-2,5.386948586E-3,1.672649384E-2
1.598807562E1,7.812559605E-3,5.405217409E-3,2.351760864E-3
1.599606978E1,-1.371192932E-2,1.737979054E-2,1.432418823E-2
1.600406509E1,-1.361691952E-2,-8.917421103E-3,1.912307739E-2
1.601209163E1,-1.594793797E-2,-4.018545151E-3,2.392005920E-2
1.602008755E1,-2.310532331E-2,-2.299138904E-2,2.871799469E-2
