"Time (s)","Linear Acceleration x (m/s^2)","Linear Acceleration y (m/s^2)","Linear Acceleration z (m/s^2)"
1.553751700E-2,1.665508747E-2,-3.297424316E-2,1.516790390E-1
2.353220200E-2,-2.623895407E-1,9.769201279E-3,2.317409515E-1
3.152757900E-2,-4.597150385E-1,5.940389633E-2,2.667999268E-1
3.955557200E-2,-5.066218376E-1,7.074427605E-2,2.084388733E-1
4.754941100E-2,-4.443139732E-1,5.040717125E-2,1.596794128E-1
5.554540300E-2,-2.735545337E-1,3.370165825E-2,9.977722168E-2
6.354085800E-2,-8.695757389E-2,1.132512093E-2,1.374053955E-2
7.153592700E-2,-1.525861025E-2,1.605367661E-2,-2.650356293E-2
7.953345800E-2,-2.329438925E-2,-4.038095474E-3,-3.520393372E-2
8.752752700E-2,-3.731828928E-2,-5.992174149E-2,-3.917980194E-2
9.555428900E-2,-8.484089375E-2,-1.125481129E-1,1.848316193E-2
1.035491270E-1,-1.312200427E-1,-1.713607311E-1,6.969070435E-2
1.115450440E-1,-1.584319472E-1,-1.716821194E-1,1.275463104E-1
1.195416520E-1,-1.879272163E-1,-1.584641933E-1,1.701145172E-1
1.275364900E-1,-2.191411555E-1,-1.394243240E-1,1.758737564E-1
1.355321750E-1,-2.225485146E-1,-7.121181488E-2,1.535053253E-1
1.435274750E-1,-1.994370520E-1,-5.005764961E-2,9.765720367E-2
1.515533140E-1,-1.341415346E-1,-1.872897148E-2,1.586627960E-2
1.595508450E-1,-5.683961511E-2,3.941917419E-2,-7.964229584E-2
1.675440690E-1,1.465678215E-3,6.402683258E-2,-1.678619385E-1
1.755410610E-1,2.030485868E-2,1.529901028E-1,-2.496910095E-1
1.835358230E-1,5.494356155E-4,2.178248167E-1,-3.164625168E-1
1.915317390E-1,-3.298121691E-2,2.306967974E-1,-2.622509003E-1
1.995588080E-1,-9.681490064E-2,2.152837515E-1,-2.036409378E-1
2.075532620E-1,-1.550586820E-1,2.149037123E-1,-2.668123245E-1
2.155495620E-1,-1.924293041E-1,2.861913443E-1,-2.680692673E-1
2.235443240E-1,-1.706691384E-1,3.207597733E-1,-2.653236389E-1
2.315393930E-1,-1.042447388E-1,3.863770962E-1,-2.542247772E-1
2.395366170E-1,-4.842489958E-2,3.442361355E-1,-2.320003510E-1
2.475314550E-1,-3.965914249E-3,2.488338947E-1,-2.114763260E-1
2.555267560E-1,-1.908916235E-2,1.496022940E-1,-1.717987061E-1
2.635526710E-1,-6.254932284E-2,4.478883743E-2,-1.394662857E-1
2.715482800E-1,-1.163674295E-1,-4.806268215E-2,-1.258020401E-1
2.795451960E-1,-9.809079766E-2,-9.493470192E-2,-1.326551437E-1
2.875396490E-1,-7.811155915E-2,-1.463654041E-1,-1.545820236E-1
2.955363350E-1,-9.061273932E-2,-1.579921246E-1,-1.542463303E-1
3.035307880E-1,-1.334544569E-1,-1.354246140E-1,-1.787509918E-1
3.115260890E-1,-1.863273829E-1,-1.020845175E-1,-7.034397125E-2
3.195538500E-1,-2.751670480E-1,-8.465623856E-2,3.827095032E-2
3.275483050E-1,-3.160608709E-1,-1.216614246E-1,1.781749725E-1
3.355439120E-1,-3.613931537E-1,-1.918207407E-1,2.439622879E-1
3.435389820E-1,-3.693306446E-1,-2.449274063E-1,2.834720612E-1
3.515352830E-1,-3.328078687E-1,-2.928984165E-1,1.578588486E-1
3.595319670E-1,-2.661960125E-1,-2.900624275E-1,9.940910339E-2
3.675263450E-1,-1.628825068E-1,-2.775142193E-1,-6.671619415E-2
3.755519520E-1,-4.746700823E-2,-3.129279613E-1,-1.585845947E-1
3.835481760E-1,1.716186106E-2,-3.434455395E-1,-2.743015289E-1
3.915433220E-1,3.746066988E-2,-3.332519531E-1,-2.702198029E-1
3.995411610E-1,1.686349511E-3,-3.058185577E-1,-4.622783661E-1
4.075352300E-1,-1.298892498E-2,-2.275485992E-1,-5.296487808E-1
4.155306070E-1,2.252919972E-2,-1.490921974E-1,-5.849466324E-1
4.235565240E-1,1.510485560E-1,-1.017425060E-1,-6.210231781E-1
4.315522080E-1,2.358586043E-1,-6.145691872E-2,-6.258802414E-1
4.395487390E-1,2.750058174E-1,-2.998852730E-2,-5.227594376E-1
4.475429620E-1,2.428947836E-1,-2.444005013E-2,-2.638683319E-1
4.555394940E-1,1.236926913E-1,-2.150201797E-2,-3.808803558E-1
4.635345630E-1,-1.908615232E-2,-5.199122429E-2,-4.308061600E-1
4.715297090E-1,-1.360738575E-1,-9.863114357E-2,-5.236644745E-1
4.795268550E-1,-1.936566532E-1,-1.709282398E-1,-5.756120682E-1
4.875520790E-1,-1.013616472E-1,-2.186875343E-1,-5.866298676E-1
4.955483800E-1,2.185182273E-2,-2.724468708E-1,-6.953935623E-1
5.035426030E-1,1.283005029E-1,-3.267748356E-1,-8.274812698E-1
5.115385190E-1,1.974968612E-1,-3.238422871E-1,-9.348993301E-1
5.195348180E-1,2.616506517E-1,-2.856922150E-1,-1.123115540E0
5.275292730E-1,3.442161679E-1,-2.479150295E-1,-1.322617531E0
5.355560340E-1,4.059833586E-1,-2.062897682E-1,-1.356371880E0
5.435508730E-1,4.166867435E-1,-1.414725780E-1,-1.336839676E0
5.515467880E-1,3.862725198E-1,-9.111905098E-2,-1.165656090E0
5.595440890E-1,3.051068485E-1,-1.271696091E-1,-9.792966843E-1
5.675384670E-1,2.519886196E-1,-1.750948429E-1,-7.010316849E-1
5.755345360E-1,1.949211210E-1,-2.811510563E-1,-4.962635040E-1
5.835296060E-1,1.580423564E-1,-4.068994522E-1,-3.864803314E-1
5.915554440E-1,1.230233088E-1,-5.311703682E-1,-3.214759827E-1
5.995520520E-1,8.653685451E-2,-6.493766308E-1,-3.898439407E-1
6.075465060E-1,6.664550304E-2,-6.491940022E-1,-4.599123001E-1
6.155421140E-1,8.920714259E-3,-6.479375362E-1,-5.699396133E-1
6.235375680E-1,-1.458014548E-2,-5.238633156E-1,-6.529588699E-1
6.315329450E-1,-1.512011886E-2,-3.824863434E-1,-6.036977768E-1
6.395300920E-1,-7.351112366E-2,-2.360146046E-1,-2.881917953E-1
6.475550070E-1,-1.848055720E-1,-1.966583729E-1,6.060886383E-2
6.555510000E-1,-4.201131165E-1,-2.717592716E-1,3.708171844E-1
6.635463770E-1,-6.781887412E-1,-4.679775238E-1,6.354360580E-1
6.715427550E-1,-9.626843929E-1,-6.766436100E-1,8.237152100E-1
6.795392850E-1,-1.232926369E0,-9.304759502E-1,9.936456680E-1
6.875328940E-1,-1.370299935E0,-1.048568487E0,1.034852028E0
6.955291160E-1,-1.392768383E0,-1.114419222E0,1.025313377E0
7.035541090E-1,-1.257138252E0,-1.068927765E0,8.975477219E-1
7.115506410E-1,-9.752109647E-1,-9.064972401E-1,5.728244781E-1
7.195470170E-1,-6.461942196E-1,-5.821421146E-1,2.003936768E-1
7.275420870E-1,-4.060777426E-1,-2.234358788E-1,-3.464698792E-2
7.355376950E-1,-2.977689505E-1,2.144284248E-1,-5.350399017E-2
7.435325340E-1,-2.473984361E-1,5.138807297E-1,5.417728424E-2
7.515284490E-1,-3.010753989E-1,6.903603077E-1,2.664308548E-1
7.575410590E-1,-4.223743081E-1,6.979165077E-1,5.437841415E-1
7.595531340E-1,-4.223743081E-1,6.979165077E-1,5.437841415E-1
7.675502800E-1,-5.306064487E-1,6.677408218E-1,6.999301910E-1
7.755468890E-1,-7.078037262E-1,6.104638577E-1,7.974357605E-1
7.835414200E-1,-7.985967398E-1,5.409977436E-1,7.526512146E-1
7.915367200E-1,-8.567318916E-1,5.309708118E-1,5.272912979E-1
7.995342510E-1,-7.835258245E-1,5.823643208E-1,3.510560989E-1
8.075278590E-1,-6.168830395E-1,6.783211231E-1,1.736602783E-1
8.155545440E-1,-4.916288853E-1,7.709426880E-1,7.398891449E-2
8.235499210E-1,-4.279793501E-1,7.139592171E-1,9.830474854E-2
8.315452980E-1,-3.335165977E-1,5.256130695E-1,1.537103653E-1
8.395428290E-1,-3.029152155E-1,2.941079140E-1,2.935199738E-1
8.475364370E-1,-3.567322493E-1,7.402420044E-3,5.663690567E-1
8.555326600E-1,-4.499735832E-1,-2.720491886E-1,6.490163803E-1
8.635280380E-1,-5.189070702E-1,-4.059827328E-1,5.916900635E-1
8.715544920E-1,-6.132444143E-1,-5.389664173E-1,3.801040649E-1
8.795511000E-1,-7.078037262E-1,-5.548110008E-1,2.657785416E-1
8.875456310E-1,-7.430298328E-1,-6.575284004E-1,3.255004883E-1
8.955421620E-1,-6.513133049E-1,-8.404951096E-1,4.486246109E-1
9.035366160E-1,-4.640834332E-1,-1.083035469E0,5.337486267E-1
9.115319930E-1,-1.699423790E-1,-1.245384693E0,4.196596146E-1
9.195292170E-1,4.692828655E-2,-1.289121628E0,3.266897202E-1
9.275535930E-1,1.882413626E-1,-1.150822163E0,4.695224762E-2
9.355498940E-1,2.360134125E-1,-1.008428574E0,-1.317214966E-1
9.435449640E-1,3.878314495E-1,-9.091491699E-1,-2.726745605E-2
9.515408790E-1,6.887239218E-1,-8.519849777E-1,5.740165710E-2
9.595372570E-1,8.423657417E-1,-7.554569244E-1,1.027793884E-1
9.675313260E-1,8.186046481E-1,-5.762557983E-1,-1.773548126E-2
9.755280110E-1,6.218280792E-1,-3.580937386E-1,-1.024532318E-1
9.835537720E-1,4.507104158E-1,-1.861290932E-1,-1.559009552E-1
9.915492270E-1,5.574685335E-1,-1.381158829E-1,-1.785030365E-1
9.975300670E-1,8.846660256E-1,-1.571865082E-1,-3.211374283E-1
9.995432960E-1,8.846660256E-1,-1.571865082E-1,-3.211374283E-1
1.007540289E0,1.080151200E0,-1.124892235E-1,-4.762430191E-1
1.015536205E0,1.202092648E0,-2.760648727E-2,-6.295509338E-1
1.023530735E0,1.236155272E0,9.179210663E-2,-8.263511658E-1
1.031527267E0,1.103271008E0,2.225656509E-1,-9.987502098E-1
1.039554413E0,9.044808149E-1,2.647738457E-1,-9.739623070E-1
1.047548482E0,7.310265303E-1,1.873989105E-1,-8.193817139E-1
1.055546090E0,7.012938857E-1,6.048965454E-2,-6.981840134E-1
1.063539929E0,6.875298619E-1,-6.533050537E-2,-4.455680847E-1
1.071535844E0,7.483611703E-1,-1.802768707E-1,-4.326972961E-1
1.079531837E0,9.012670517E-1,-4.280157089E-1,1.657600403E-1
1.087526599E0,1.032808065E0,-6.342248917E-1,1.043268204E0
1.095553438E0,8.033314943E-1,-8.252282143E-1,1.259472847E0
1.103548508E0,1.536387205E-1,-1.020387650E0,1.421848297E0
1.111544192E0,-1.376039982E-1,-1.120385170E0,9.825115204E-1
1.119541339E0,-5.879638195E-1,-9.645352364E-1,5.314550400E-1
1.127535485E0,-1.108025074E0,-7.241077423E-1,5.897789001E-1
1.135531555E0,-1.893607855E0,-3.561749458E-1,7.074289322E-1
1.143526239E0,-2.501649380E0,1.015558243E-1,6.836261749E-1
1.151552386E0,-2.630107880E0,2.280321121E-1,1.159520149E0
1.159549302E0,-2.092948437E0,1.798305511E-1,1.421561241E0
1.167543755E0,-8.318995237E-1,-1.628103256E-1,1.645175934E0
1.175540056E0,5.068763494E-1,-4.968991280E-1,1.084757805E0
1.183535125E0,1.310360789E0,-6.850886345E-1,7.826766968E-1
1.191529656E0,1.798341274E0,-7.042207718E-1,3.571977615E-1
1.199558187E0,1.877223253E0,-3.819026947E-1,-8.284373283E-1
1.207552103E0,1.783561945E0,-1.171350479E-1,-1.475335121E0
1.215548095E0,1.608822703E0,-6.885194778E-2,-1.711852074E0
1.223543473E0,1.342319012E0,-2.745757103E-1,-2.011249065E0
1.231538850E0,8.360086083E-1,-7.284851074E-1,-1.682460308E0
1.237551383E0,3.460267186E-1,-1.312324524E0,-9.865918159E-1
1.239532996E0,2.813832760E-1,-1.312324524E0,-9.865918159E-1
1.247530451E0,-9.206247330E-2,-1.457470417E0,-8.372530937E-1
1.255526520E0,-6.468517780E-1,-1.511338711E0,-2.384953499E-1
1.263552282E0,-9.574196339E-1,-1.545188427E0,2.175626755E-1
1.271547428E0,-1.189678550E0,-1.671486855E0,6.860980988E-1
1.279544652E0,-1.208469510E0,-1.822812557E0,1.196706772E0
1.287538797E0,-1.294757605E0,-1.679908752E0,1.157361984E0
1.295535329E0,-1.388853669E0,-1.309004307E0,9.631471634E-1
1.303530168E0,-1.483667493E0,-9.143505096E-1,1.061284065E0
1.311556237E0,-1.525682688E0,-6.167225838E-1,1.461179733E0
1.319553153E0,-1.493099928E0,-6.120533943E-1,2.018623352E0
1.327547299E0,-1.198765039E0,-7.071714401E-1,1.557957649E0
1.335543984E0,-6.428161860E-1,-7.658882141E-1,1.358684540E0
1.343538361E0,-3.592610359E-1,-9.138031006E-1,1.696258545E0
1.351534354E0,-8.847495317E-1,-7.410869598E-1,1.189468384E0
1.359530654E0,-1.306100845E0,-2.793574333E-1,6.999559402E-1
1.367525493E0,-1.357096076E0,-8.131504059E-3,1.680986404E0
1.375552254E0,-1.400120854E0,1.898927689E-1,1.195618629E0
1.383546632E0,-1.202751756E0,4.540004730E-1,-4.243364334E-1
1.391542394E0,-2.994098663E-1,6.703772545E-1,-1.844954014E0
1.399539617E0,6.178986430E-1,6.087241173E-1,-1.254429340E0
1.407533456E0,8.848540783E-1,6.046347618E-1,-1.259967804E0
1.415530371E0,-1.132603884E-1,5.958499908E-1,-1.272307873E0
1.423555518E0,-1.258818269E0,1.225452423E-1,-8.767433167E-1
1.431551202E0,-1.749724746E0,-3.507847786E-1,-1.636996269E-1
1.439547811E0,-1.786867619E0,-5.205864906E-1,4.456224442E-1
1.447541726E0,-1.858204126E0,-3.883490562E-1,6.341142654E-1
1.455538873E0,-2.023638487E0,-1.180319786E-1,5.393209457E-1
1.463533096E0,-2.249093533E0,3.384356499E-1,2.714109421E-1
1.471529012E0,-2.215599298E0,8.199834824E-1,2.355575562E-4
1.477540083E0,-1.916815996E0,1.126961231E0,-1.816916466E-1
1.479553620E0,-1.916815996E0,1.126961231E0,-1.816916466E-1
1.487550920E0,-1.577738523E0,1.229926348E0,-3.674159050E-1
1.495547451E0,-1.167835712E0,1.197615385E0,-9.048652649E-2
1.503542212E0,-9.177019596E-1,1.322187185E0,-9.159393311E-1
1.511536975E0,-1.326896429E0,1.750271082E0,-1.969020367E0
1.519533659E0,-2.177386045E0,2.216537237E0,-2.086505413E0
1.527528960E0,-2.647111654E0,2.377632141E0,-1.684155941E0
1.535554876E0,-2.505549192E0,2.282392502E0,-1.369704723E0
1.543549868E0,-2.088744879E0,2.071399450E0,-9.879617691E-1
1.551546169E0,-1.491654873E0,1.865194082E0,-5.574779510E-1
1.559543161E0,-5.887248516E-1,1.755268097E0,-7.141261101E-1
1.567536692E0,1.056873798E-1,1.677224636E0,-9.216327667E-1
1.575532684E0,6.288044453E-1,1.656240940E0,-1.230769634E0
1.583528062E0,9.299783707E-1,1.624329567E0,-1.281873703E0
1.591554438E0,1.167725563E0,1.561962128E0,-1.149726391E0
1.599551662E0,1.489201784E0,1.496132612E0,-1.109120846E0
1.607545886E0,1.710988998E0,1.356926680E0,-1.076135635E0
1.615542493E0,1.962507486E0,1.098394871E0,-8.810009956E-1
1.623536563E0,2.114769936E0,7.374434471E-1,-5.474414825E-1
1.631532248E0,2.241205454E0,4.442920685E-1,-2.264990807E-1
1.639529548E0,2.387974262E0,1.667995453E-1,-1.173295975E-1
1.647554079E0,2.452090740E0,2.125978470E-2,1.445436478E-2
1.655550149E0,2.404520988E0,-1.621828079E-1,2.885265350E-1
1.663545833E0,2.330749989E0,-4.235086441E-1,6.112756729E-1
1.671540288E0,2.221582174E0,-6.981110573E-1,7.356162071E-1
1.679537434E0,1.989779234E0,-1.038684845E0,9.241414070E-1
1.687532811E0,1.762149930E0,-1.292035580E0,1.062686920E0
1.695528881E0,1.481531501E0,-1.486988544E0,1.116214752E0
1.703554335E0,1.325568318E0,-1.550951004E0,1.059025288E0
1.711550020E0,1.260403514E0,-1.528648853E0,9.651970863E-1
1.719543627E0,1.182743192E0,-1.385239124E0,9.523887634E-1
1.727540236E0,1.093289137E0,-1.268887520E0,8.550300598E-1
1.735537151E0,9.552724361E-1,-1.127951622E0,6.189327240E-1
1.743531836E0,8.368105888E-1,-9.966697693E-1,4.160337448E-1
1.751527598E0,7.485337257E-1,-8.720946312E-1,3.083910942E-1
1.759554898E0,6.642215252E-1,-7.371578217E-1,9.422588348E-2
1.767549122E0,5.936236382E-1,-6.284575462E-1,-2.213921547E-1
1.775546268E0,5.325739384E-1,-4.224047661E-1,-4.393935204E-1
1.783540184E0,5.561933517E-1,-2.314567566E-1,-5.721650124E-1
1.791536407E0,6.404764652E-1,-1.038932800E-2,-6.661515236E-1
1.799534015E0,7.412145138E-1,2.046966553E-1,-7.607846260E-1
1.807527161E0,8.034412861E-1,4.389142990E-1,-8.159236908E-1
1.815553385E0,7.600195408E-1,5.199389458E-1,-6.545662880E-1
1.823549378E0,7.960096598E-1,5.279092789E-1,-4.202046394E-1
1.831544139E0,8.542528152E-1,5.085949898E-1,-1.771783829E-1
1.839541286E0,7.840098143E-1,4.498648643E-1,2.061228752E-1
1.847535201E0,4.297611713E-1,2.782888412E-1,5.594267845E-1
1.855531732E0,-1.803183556E-2,1.400351524E-1,7.083048820E-1
1.863527186E0,-2.386693954E-1,1.794338226E-3,9.582905769E-1
1.871553025E0,-3.325726986E-1,-2.123651505E-1,1.022527695E0
1.879550171E0,-2.940976620E-1,-4.595241547E-1,9.491944313E-1
1.887544702E0,-1.672246456E-1,-6.283183098E-1,7.780451775E-1
1.895540618E0,-9.648585320E-2,-9.017243385E-1,5.904293060E-1
1.903535764E0,-9.338879585E-2,-1.000777721E0,-8.001093864E-1
1.911530834E0,6.749738455E-1,-1.344824791E0,-1.724393845E0
1.919527442E0,8.382389545E-1,-2.880706310E0,2.824597836E0
1.927552973E0,-1.269927263E0,-3.181864262E0,3.941266537E0
1.935548658E0,-3.071730852E0,-2.797078609E0,3.590031624E0
1.943543958E0,-3.655762196E0,-2.101486683E0,2.292049408E0
1.951539643E0,-2.005428553E0,-1.575423717E0,1.345037937E0
1.959540636E0,-1.239957809E-1,-9.114356041E-1,1.000130177E0
1.967530166E0,3.059864044E-2,-4.646587372E-1,7.242689133E-1
1.975526390E0,-6.094267368E-1,-2.497863770E-2,2.436013222E-1
1.983551921E0,-1.243178129E0,9.772157669E-2,-9.829235077E-2
1.991547990E0,-9.818775654E-1,-3.043174744E-2,-3.178501129E-1
1.999544906E0,-2.402181625E-1,-2.679777145E-2,-6.212897301E-1
2.007539360E0,2.197656631E-1,3.108191490E-1,-9.186024666E-1
2.015535584E0,2.496979237E-1,6.783752441E-1,-1.185841084E0
2.023530960E0,2.197263241E-1,1.016277790E0,-1.320302963E0
2.031525800E0,1.502537727E-1,1.212678432E0,-1.476007938E0
2.039553176E0,4.636263847E-2,1.261001587E0,-1.551952839E0
2.047548169E0,-1.447241306E-1,1.213958263E0,-1.601601124E0
2.055543931E0,-2.587778568E-1,1.159730911E0,-1.716498852E0
2.063538693E0,-3.298211098E-1,1.152235508E0,-1.883185863E0
2.071535301E0,-3.284606934E-1,1.147391796E0,-2.106851578E0
2.079531601E0,-4.640424252E-1,1.193849564E0,-2.327470303E0
2.087525748E0,-6.165058613E-1,1.263812542E0,-2.297643661E0
2.095551894E0,-7.458734512E-1,1.296337128E0,-2.224190712E0
2.103547887E0,-7.789959908E-1,1.141857624E0,-1.995634556E0
2.111542956E0,-7.998635769E-1,9.197053909E-1,-1.735119820E0
2.119539795E0,-8.213837147E-1,5.570716858E-1,-1.286363125E0
2.127534326E0,-9.157540798E-1,2.778625488E-1,-9.647088051E-1
2.135530934E0,-1.078555107E0,-6.480026245E-2,-4.979162216E-1
2.143525388E0,-1.234079838E0,-3.333721161E-1,-6.758832932E-2
2.151551534E0,-1.210324764E0,-3.442125320E-1,-1.367067337E0
2.159548450E0,-2.381987572E-1,-7.937126160E-1,-3.341097832E-1
2.167542904E0,-2.755465508E-1,-1.937530041E0,2.822422504E0
2.175538897E0,-2.164258480E0,-2.660917759E0,5.080770969E0
2.183533966E0,-3.752205372E0,-2.400238991E0,4.408370495E0
2.191529651E0,-3.874761581E0,-1.872199059E0,3.051436901E0
2.199556336E0,-2.270299911E0,-1.203394890E0,1.971987247E0
2.207551098E0,-8.874127865E-1,-6.141204834E-1,1.991829395E0
2.215547398E0,-5.345127583E-1,-3.658342361E-2,1.698701859E0
2.223679470E0,-1.182785749E0,2.224245071E-1,1.326217175E0
2.231675482E0,-1.869328499E0,1.622252464E-1,4.758343697E-1
2.239672648E0,-1.584789276E0,-9.035396576E-2,-1.041479111E-1
2.247666814E0,-8.061161041E-1,-1.976971626E-1,-3.945183754E-1
2.255693365E0,-1.108691692E-1,-6.453037262E-3,-6.211590767E-1
2.263688454E0,1.471059322E-1,3.184332848E-1,-8.539209366E-1
2.271683850E0,2.566919327E-1,6.526317596E-1,-1.164693832E0
2.279681016E0,3.311579227E-1,8.777003288E-1,-1.378357410E0
2.287675182E0,4.343726635E-1,9.873704910E-1,-1.462731838E0
2.295671809E0,4.809784889E-1,1.034588814E0,-1.486499786E0
2.303666360E0,5.159158707E-1,1.055149078E0,-1.600634098E0
2.311662372E0,5.177509785E-1,1.058124542E0,-1.661600113E0
2.319688538E0,4.706060886E-1,1.052843094E0,-1.689094067E0
2.327683857E0,3.401362896E-1,1.027163029E0,-1.691435814E0
2.335679331E0,9.490394592E-2,1.010447979E0,-1.666632652E0
2.343674959E0,-1.268484592E-1,9.547405243E-1,-1.643692493E0
2.351671048E0,-3.267083168E-1,8.694219589E-1,-1.534693241E0
2.359667676E0,-4.133491516E-1,8.024663925E-1,-1.392900944E0
2.367661765E0,-4.781138897E-1,7.059879303E-1,-1.200062275E0
2.375688238E0,-5.548520088E-1,6.254110336E-1,-1.036124229E0
2.383684327E0,-5.736656189E-1,4.454622269E-1,-7.439484596E-1
2.391679032E0,-6.522660255E-1,1.404933929E-1,-4.637675285E-1
2.399675120E0,-7.452316284E-1,-2.027401924E-1,-2.734427452E-1
2.407670517E0,-8.198225498E-1,-6.045031548E-1,-2.098627090E-1
2.415666837E0,-3.959982395E-1,-4.781637192E-1,-3.214856625E0
2.423662772E0,8.178824186E-1,-1.708246231E0,3.376789093E-1
2.431687784E0,-2.377104759E-1,-2.732298374E0,2.701635361E0
2.439682565E0,-2.465392113E0,-2.942722797E0,4.106451988E0
2.447679423E0,-4.026566982E0,-2.529281616E0,3.518728256E0
2.455675205E0,-3.518326759E0,-2.001459599E0,2.004997730E0
2.463670524E0,-1.324440479E0,-1.307904243E0,9.691629410E-1
2.471665998E0,4.578924179E-2,-5.415511131E-1,7.128381729E-1
2.479691857E0,-5.310416222E-2,2.900314331E-2,6.423578262E-1
2.487687869E0,-1.114617348E0,3.274807930E-1,3.375525475E-1
2.495684420E0,-1.603894711E0,2.417087555E-1,6.518411636E-2
2.503678585E0,-1.102789402E0,1.598501205E-2,-7.591295242E-2
2.511674059E0,-2.704148293E-1,5.729246140E-2,-1.070785522E-2
2.519669456E0,2.284481525E-1,4.082374573E-1,-7.271289825E-3
2.527666314E0,2.854442596E-1,8.029146194E-1,-3.570270538E-2
2.535693403E0,3.150343895E-1,9.733586311E-1,-1.144504547E-2
2.543687569E0,3.351712227E-1,1.030675411E0,-3.178834915E-2
2.551683350E0,3.379151821E-1,9.421801567E-1,-2.136507034E-1
2.559680593E0,2.600569725E-1,9.380989075E-1,-4.921231270E-1
2.567674451E0,2.275900841E-1,1.039425850E0,-7.270097733E-1
2.575669847E0,2.200632095E-1,1.126316547E0,-9.426851273E-1
2.583665552E0,1.604089737E-1,1.224608421E0,-1.102959156E0
2.591692333E0,8.846330643E-2,1.251270294E0,-1.236330509E0
2.599686730E0,9.335517883E-3,1.256183624E0,-1.603904724E0
2.607683049E0,4.373741150E-2,1.255252361E0,-1.758192062E0
2.615679755E0,9.237265587E-2,1.223886013E0,-1.724919796E0
2.623674151E0,1.404068470E-1,1.082534790E0,-1.760805607E0
2.631670163E0,1.492769718E-1,9.131002426E-1,-1.594964981E0
2.639667483E0,7.005405426E-2,7.388052940E-1,-1.383879185E0
2.647691803E0,-6.924414635E-2,5.634608269E-1,-1.183542252E0
2.655687430E0,-2.873344421E-1,3.477101326E-1,-8.389072418E-1
2.663682904E0,-5.163469315E-1,1.141772270E-1,-5.014629364E-1
2.671678300E0,-6.349871159E-1,-8.539724350E-2,-3.077979088E-1
2.677690232E0,-7.093327045E-1,-2.621870041E-1,-1.915893555E-1
2.679673928E0,-7.117269039E-1,-2.957057953E-1,-1.939835548E-1
2.687669632E0,-5.090742111E-1,-5.328178406E-2,-2.799552917E0
2.695665721E0,5.846021175E-1,-9.987192154E-1,3.069462776E-1
2.703691579E0,-2.797353268E-1,-1.889848709E0,2.298084736E0
2.711687207E0,-2.105172157E0,-2.140450478E0,3.735743523E0
2.719685065E0,-3.483698368E0,-1.670504093E0,3.054120064E0
2.727678000E0,-3.250739813E0,-1.286540985E0,2.211528301E0
2.735674627E0,-1.452048779E0,-6.668848991E-1,8.437447548E-1
2.743669409E0,-1.500885487E-1,-1.620426178E-1,6.760811806E-1
2.751664574E0,3.048450947E-1,1.041455269E-1,1.490211964E0
2.759690972E0,-1.624374390E-1,3.927340508E-1,1.574598312E0
2.767687369E0,-6.387913227E-1,6.829400063E-1,1.079415321E0
2.775682688E0,-5.967402458E-1,7.659435272E-1,4.275426865E-1
2.783678162E0,-1.691660881E-1,7.878465652E-1,6.758403778E-2
2.791674097E0,3.253440857E-1,8.872141838E-1,4.770593643E-1
2.799671032E0,5.355551243E-1,1.070927620E0,7.073588371E-1
2.807664967E0,6.017501354E-1,1.044902325E0,8.385553360E-1
2.815692056E0,5.869300365E-1,8.962078094E-1,6.435303688E-1
2.823686530E0,5.782504082E-1,7.476315498E-1,5.290474892E-1
2.831682157E0,5.397861004E-1,7.012224197E-1,3.838362694E-1
2.839677323E0,4.621822834E-1,7.716460228E-1,3.191003799E-1
2.847673950E0,4.058841467E-1,7.907705307E-1,4.287137985E-1
2.855669578E0,5.018374920E-1,7.158136368E-1,2.920298576E-1
2.863664667E0,5.747979879E-1,5.726909637E-1,2.599372864E-1
2.871690833E0,5.443121195E-1,3.645844460E-1,6.318359375E-1
2.879687845E0,2.912930250E-1,1.202774048E-1,1.218747139E0
2.887682549E0,-2.107501030E-1,-9.836721420E-2,9.363775253E-1
2.895678331E0,-5.595057011E-1,-2.750821114E-1,4.307403564E-1
2.903674266E0,-6.076819897E-1,-3.596439362E-1,4.285292625E-1
2.911669124E0,-5.963695049E-1,-2.252192497E-1,5.221943855E-1
2.919665752E0,-5.664622784E-1,-2.005195618E-2,4.611020088E-1
2.927690995E0,-5.364472866E-1,1.778221130E-1,2.809762955E-1
2.935687314E0,-5.973122120E-1,1.624140739E-1,1.212482452E-1
2.943681403E0,-6.069860458E-1,-7.505130768E-2,1.448540688E-1
2.951677492E0,-5.612862110E-1,-3.847317696E-1,1.005568504E-1
2.959674427E0,-4.947986603E-1,-6.217412949E-1,-5.419683456E-2
2.967669516E0,-4.727349281E-1,-7.147798538E-1,-3.009109497E-1
2.975665528E0,-3.285968304E-1,-7.001218796E-1,-3.391213417E-1
2.983690386E0,-7.055330276E-2,-6.908493042E-1,-3.329291344E-1
2.991686091E0,1.427860260E-1,-6.715922356E-1,-4.213042259E-1
2.999681257E0,3.175830841E-1,-7.190699577E-1,-3.794836998E-1
3.007677499E0,5.113688707E-1,-9.581212997E-1,-9.284019470E-4
3.015673511E0,6.161986589E-1,-1.294657707E0,-3.857975006E-1
3.023668677E0,1.021728039E0,-1.822534561E0,1.350598335E-1
3.031664921E0,9.523478746E-1,-1.906705856E0,5.474834442E-1
3.039692318E0,-6.122308969E-1,-1.143131733E0,-8.058452606E-1
3.047685637E0,-1.561812282E0,-6.319379807E-1,-3.858952522E-1
3.055681957E0,-9.104415178E-1,-6.553931236E-1,2.041788101E-1
3.063677585E0,8.737266660E-1,-1.103417397E0,7.781596184E-1
3.071673058E0,1.527540445E0,-1.095435143E0,3.039402962E-1
3.079668147E0,1.161035538E0,-6.903839111E-1,-8.570051193E-2
3.087664082E0,6.688470840E-1,-3.511095047E-1,-2.084941864E-1
3.095690248E0,8.007973433E-1,-1.494083405E-1,-2.230329514E-1
3.103685952E0,9.838950038E-1,-4.494953156E-2,3.595700264E-1
3.111682041E0,7.453814149E-1,2.892756462E-1,4.269504547E-1
3.119678053E0,3.107639551E-1,7.408323288E-1,7.317719460E-1
3.127672450E0,-1.488697529E-2,1.125014782E0,9.065489769E-1
3.135669462E0,-1.894649267E-1,1.463507175E0,7.147059441E-1
3.143663936E0,-1.599730253E-1,1.780121565E0,7.049217224E-1
3.151690024E0,-2.814090252E-2,1.905506134E0,7.292060852E-1
3.159685421E0,-6.750357151E-2,2.010225058E0,9.078397751E-1
3.167680819E0,-2.307256460E-1,1.954678774E0,1.089388847E0
3.175677754E0,-5.640879869E-1,1.759195328E0,1.219802856E0
3.183672843E0,-7.770510912E-1,1.453487635E0,1.064574242E0
3.191668316E0,-7.733538151E-1,1.248763800E0,5.591497421E-1
3.199665482E0,-7.166213989E-1,1.331949949E0,-3.682026863E-1
3.207689802E0,-8.352905512E-1,1.541272879E0,-1.071945667E0
3.215687045E0,-9.600421190E-1,1.716936111E0,-1.540934563E0
3.223681826E0,-9.299436808E-1,1.646751165E0,-1.739087105E0
3.231676684E0,-6.155478954E-1,1.442271948E0,-1.845509529E0
3.239672696E0,-1.701533794E-1,1.058406115E0,-1.754403114E0
3.247668708E0,1.147589684E-1,6.430082321E-1,-1.641934872E0
3.255694259E0,2.401462793E-1,1.684961319E-1,-1.525988579E0
3.263690501E0,2.022886276E-1,-1.558556557E-1,-1.204240322E0
3.271685667E0,-6.361246109E-2,-6.032104492E-1,-6.040358543E-1
3.279682295E0,-4.582161903E-1,-1.140354633E0,-9.891796112E-2
3.287676076E0,-7.426004410E-1,-1.658585072E0,4.901599884E-2
3.295673011E0,-1.012365580E0,-2.129109859E0,-3.246598244E-1
3.303667792E0,-1.254392147E0,-2.316168308E0,-6.957826614E-1
3.311694267E0,-1.497871399E0,-2.242344379E0,-1.170295715E0
3.319688817E0,-1.715951204E0,-1.756571293E0,-2.192811966E0
3.327685368E0,-1.878582239E0,-1.222879887E0,-2.662396908E0
3.335681995E0,-1.819721460E0,-8.990716934E-1,-2.770763874E0
3.343676469E0,-1.406911612E0,-9.562826157E-1,-2.631369591E0
3.351672558E0,-6.195201874E-1,-1.298588753E0,-2.176211834E0
3.359669108E0,1.735417843E-1,-1.667510509E0,-1.879831791E0
3.367663351E0,1.024435639E0,-2.152720451E0,-1.252624512E0
3.375690132E0,1.402517080E0,-2.417299271E0,-1.845245361E0
3.383685529E0,1.177495003E0,-2.601735592E0,-1.450922489E0
3.391680541E0,6.550278664E-1,-2.586704731E0,-7.643470764E-1
3.399675707E0,3.627104759E-1,-2.395021915E0,-1.260514259E-1
3.407672565E0,1.394000053E-1,-1.918457031E0,3.772397041E-1
3.415667962E0,-2.526478767E-1,-1.740273476E0,2.356335640E0
3.423693589E0,-1.767206192E-1,-1.383764744E0,9.080104828E-1
3.431689293E0,4.821826220E-1,-9.010372162E-1,8.060216904E-2
3.439685844E0,1.393898249E0,-5.825953484E-1,-7.431521416E-1
3.447680703E0,2.297281981E0,-3.479609489E-1,-2.379315853E0
3.455677638E0,2.865840912E0,-3.973989487E-1,-3.353466511E0
3.463671804E0,3.483357430E0,-9.451169968E-1,-2.998178482E0
3.471667508E0,3.790222168E0,-1.752279758E0,-1.946149349E0
3.479664982E0,3.279840708E0,-2.386029720E0,-6.310763359E-1
3.487689378E0,2.146949291E0,-2.913962841E0,1.004561424E0
3.495686314E0,1.070234418E0,-3.223654747E0,2.899606228E0
3.503680402E0,-1.411148310E-1,-3.440536499E0,4.070065975E0
3.511675568E0,-7.287974358E-1,-3.683421135E0,5.488967896E0
3.519670965E0,-5.449972153E-1,-3.951452255E0,5.560884476E0
3.527667285E0,-1.355013371E0,-3.100448132E0,2.185935497E0
3.535663835E0,-1.838688374E0,-1.776454449E0,5.513496399E-1
3.543689386E0,-1.273279190E0,-7.738766670E-1,4.428215027E-1
3.551684475E0,-6.608787775E-1,-3.560824394E-1,7.743577957E-1
3.559682102E0,5.030250549E-2,-3.814387321E-1,1.034816265E0
3.567676268E0,6.033089161E-1,-8.999800682E-1,1.066684246E0
3.575671895E0,7.633917332E-1,-1.431524277E0,1.319872856E0
3.583667985E0,3.778526783E-1,-1.789177418E0,1.933927059E0
3.591693151E0,-2.523509264E-1,-1.826090336E0,2.679133892E0
3.599688317E0,-8.745369911E-1,-1.710930347E0,3.367774010E0
3.607684021E0,-1.156136632E0,-1.477750301E0,3.472501278E0
3.615680649E0,-1.106364012E0,-1.213680267E0,3.224091530E0
3.623676276E0,-9.521842003E-1,-7.170538902E-1,2.421723843E0
3.631671134E0,-1.092912197E0,-8.827924728E-2,1.214039326E0
3.637682759E0,-1.446182728E0,7.190194130E-1,3.023452759E-1
3.639665608E0,-1.446182728E0,7.190194130E-1,3.023452759E-1
3.647693620E0,-1.697923422E0,1.181379795E0,-1.364493370E-1
3.655689247E0,-1.738012552E0,1.328902721E0,2.968077660E-1
3.663684336E0,-1.617638111E0,1.113823414E0,1.781547070E0
3.671679502E0,-1.325620890E0,9.722204208E-1,1.358088017E0
3.679675745E0,-9.403107166E-1,5.670037270E-1,1.666470051E0
3.687670834E0,-6.623439193E-1,3.362493515E-1,1.744674206E0
3.695667846E0,-8.794422746E-1,6.237702370E-1,1.446160793E0
3.703693319E0,-1.408641100E0,1.114798069E0,1.308655739E0
3.711688485E0,-1.639339566E0,1.546771526E0,7.443223000E-1
3.719685960E0,-1.410806656E0,2.100334883E0,-2.051839828E-1
3.727679895E0,-9.688883424E-1,2.462488890E0,-4.937882423E-1
3.735676138E0,-6.225851774E-1,2.898901224E0,-6.313319206E-1
3.743671227E0,-7.427664995E-1,3.318051577E0,-3.309612274E-1
3.751666931E0,-1.321700573E0,3.500942230E0,5.562782288E-2
3.759692174E0,-1.795802593E0,3.478783607E0,2.289009094E-1
3.767688570E0,-1.830292702E0,3.318608284E0,2.843570709E-1
3.775684813E0,-1.605990648E0,3.115862370E0,4.711256027E-1
3.783679902E0,-1.438969612E0,3.122898102E0,1.643257141E-1
3.791675991E0,-1.465257883E0,3.438386440E0,-2.047500610E-1
3.799672618E0,-1.515688539E0,3.950800419E0,-5.214252472E-1
3.807666169E0,-1.409058809E0,4.408910751E0,-7.825522423E-1
3.815693566E0,-1.189447641E0,4.898128033E0,-7.071886063E-1
3.823688578E0,-9.341564775E-1,5.216139317E0,-5.498771667E-1
3.831684282E0,-7.515978813E-1,5.527204037E0,-4.861125946E-1
3.839678525E0,-7.807259560E-1,5.586092472E0,4.605293274E-2
3.847674844E0,-8.682062626E-1,5.379587173E0,5.320968628E-1
3.855671395E0,-8.690205812E-1,4.964493275E0,8.744010925E-1
3.863666562E0,-7.560830712E-1,4.480835438E0,1.127097130E0
3.871691805E0,-4.939521849E-1,3.834260464E0,1.233561516E0
3.875689887E0,-3.481395841E-1,3.538264513E0,1.171504021E0
3.877673583E0,-1.566034555E-1,3.291661739E0,1.058976173E0
3.879686509E0,-1.063252091E-1,3.222229958E0,1.030245781E0
3.887683829E0,1.709968150E-1,2.807005405E0,9.293041229E-1
3.895680148E0,6.432765722E-1,2.287018299E0,7.111721039E-1
3.903674314E0,1.100254774E0,1.789280176E0,4.996681213E-1
3.911670326E0,1.773501992E0,1.210994005E0,3.014059067E-1
3.919665415E0,2.333419800E0,6.273648739E-1,4.554367065E-2
3.927692196E0,2.953534842E0,1.919937134E-2,-1.236572266E-1
3.935687901E0,3.508722544E0,-5.331859589E-1,-4.635210037E-1
3.943683913E0,3.922255993E0,-9.809546471E-1,-6.231737137E-1
3.951679617E0,4.394444942E0,-1.411123037E0,-1.159005642E0
3.959676552E0,4.676303864E0,-1.676857233E0,-1.462754726E0
3.967670333E0,4.941800117E0,-1.925380230E0,-1.797307014E0
3.975667038E0,4.982276440E0,-2.032597780E0,-2.071708202E0
3.983692588E0,5.042210579E0,-2.088626623E0,-2.379666328E0
3.991687678E0,5.047670364E0,-2.097186089E0,-2.692459583E0
3.999682690E0,5.011513710E0,-2.097621679E0,-2.768030643E0
4.007678779E0,5.126656055E0,-2.206916332E0,-2.610398293E0
4.015675022E0,5.209188461E0,-2.387919188E0,-2.363578796E0
4.023670188E0,5.136221409E0,-2.680036545E0,-2.256121159E0
4.031665584E0,4.744371891E0,-2.998449802E0,-2.304578304E0
4.039693904E0,4.142545700E0,-3.277393341E0,-2.239536762E0
4.047687455E0,3.230475426E0,-3.625322342E0,-1.875864029E0
4.055683159E0,2.387560844E0,-3.938797712E0,-1.625380993E0
4.063678555E0,1.381933689E0,-4.284993172E0,-1.451384544E0
4.071674260E0,5.712723732E-1,-4.558727264E0,-1.342946529E0
4.079669964E0,-2.313728333E-1,-4.765343666E0,-1.379176617E0
4.087665668E0,-8.404515982E-1,-4.807022095E0,-1.431331158E0
4.095692988E0,-1.223238468E0,-4.745670319E0,-1.549560070E0
4.103687462E0,-1.453703165E0,-4.455860138E0,-1.748385906E0
4.111683243E0,-1.615592241E0,-4.094408989E0,-1.731740952E0
4.115679864E0,-1.683592677E0,-3.828043461E0,-1.644896984E0
4.117694944E0,-1.755418777E0,-3.574257851E0,-1.489273548E0
4.119677101E0,-1.755418777E0,-3.574257851E0,-1.489273548E0
4.127674344E0,-1.834542751E0,-3.173948765E0,-1.247839928E0
4.135671511E0,-1.942195654E0,-2.837041378E0,-1.225628376E0
4.143665677E0,-2.218553305E0,-2.500249863E0,-1.119274616E0
4.151691843E0,-2.412594080E0,-2.213397980E0,-9.518508911E-1
4.159686701E0,-2.592953682E0,-1.961304188E0,-5.147380829E-1
4.167682713E0,-2.705119610E0,-1.686298370E0,8.321762085E-3
4.175678109E0,-2.784970522E0,-1.246360779E0,1.430091858E-1
4.183673814E0,-2.825298309E0,-6.902856827E-1,7.990074158E-2
4.191670364E0,-2.819438219E0,-1.906037331E-1,2.568264008E-1
4.199667299E0,-2.738506556E0,3.448677063E-1,4.056177139E-1
4.207691388E0,-2.649431944E0,6.934623718E-1,4.536619186E-1
4.215687400E0,-2.482134819E0,9.123511314E-1,8.178796768E-1
4.223682720E0,-2.399767160E0,1.001486778E0,8.618803024E-1
4.231678732E0,-2.445859909E0,1.030240059E0,8.409099579E-1
4.239673513E0,-2.534570217E0,1.153648138E0,8.879699707E-1
4.247669294E0,-2.615463257E0,1.401822567E0,7.400255203E-1
4.255665845E0,-2.670103550E0,1.845766544E0,5.113086700E-1
4.263691472E0,-2.578934193E0,2.275219917E0,4.874982834E-1
4.271687178E0,-2.378822803E0,2.584896326E0,6.424217224E-1
4.279684113E0,-2.077901363E0,2.835148811E0,1.006937027E0
4.287678279E0,-1.771741867E0,2.978399277E0,1.151960373E0
4.295674906E0,-1.440822363E0,3.078438282E0,1.245382309E0
4.303669380E0,-1.090676069E0,3.110989094E0,1.309144020E0
4.311665084E0,-6.764109731E-1,3.088539362E0,1.322483063E0
4.319690634E0,-2.922974229E-1,3.023577690E0,1.199782372E0
4.327686570E0,3.754702210E-2,2.932611227E0,9.945602417E-1
4.335682582E0,3.661655188E-1,2.886603117E0,8.044805527E-1
4.343677670E0,6.440480351E-1,2.774312019E0,5.999641418E-1
4.351673990E0,8.556869030E-1,2.646623611E0,3.623476028E-1
4.357685384E0,1.058342576E0,2.562037468E0,-8.057022095E-2
4.359667310E0,1.075102091E0,2.564431667E0,-1.236658096E-1
4.367665168E0,1.151978493E0,2.425638437E0,-3.859653473E-1
4.375691872E0,1.225579858E0,2.287705183E0,-8.018007278E-1
4.383687346E0,1.392425537E0,2.121859074E0,-1.093112946E0
4.391682435E0,1.743484735E0,1.827616096E0,-1.086924553E0
4.399677216E0,2.171442509E0,1.494542718E0,-1.413058281E0
4.407673537E0,2.648056746E0,1.217249513E0,-1.628505707E0
4.415669857E0,2.995854378E0,9.835625887E-1,-1.524982929E0
4.423664869E0,3.127420902E0,9.004451036E-1,-1.567640305E0
4.431690804E0,3.019334316E0,8.615053892E-1,-1.319002151E0
4.439687431E0,2.869225979E0,7.664988041E-1,-1.041222572E0
4.447682212E0,2.738636017E0,5.576276779E-1,-9.003248215E-1
4.455678763E0,2.758627415E0,2.762508392E-1,-6.788845062E-1
4.463673544E0,3.004139423E0,-5.857753754E-2,-5.831594467E-1
4.471668633E0,3.364863634E0,-3.880240917E-1,-5.820741653E-1
4.479695107E0,3.696048260E0,-6.448359489E-1,-6.468744278E-1
4.487690888E0,4.013450623E0,-9.057965279E-1,-7.502145767E-1
4.495686900E0,4.233721256E0,-1.085938454E0,-8.740768433E-1
4.503682296E0,4.405022144E0,-1.265517712E0,-8.757400513E-1
4.511677693E0,4.448123932E0,-1.481815815E0,-6.727848053E-1
4.519674321E0,4.397199631E0,-1.744059563E0,-3.931169510E-1
4.527668486E0,4.289850712E0,-2.064783335E0,-2.259092331E-1
4.535695498E0,4.032693386E0,-2.373300314E0,-1.277446747E-2
4.543690281E0,3.785773754E0,-2.763908148E0,2.588939667E-2
4.551686600E0,3.637584686E0,-3.141386509E0,4.453468323E-2
4.559681766E0,3.612217903E0,-3.329249859E0,-2.928352356E-2
4.567677394E0,3.619473457E0,-3.550321579E0,-6.600093842E-2
4.575673790E0,3.602551937E0,-3.616038561E0,-1.455163956E-1
4.583668802E0,3.476516962E0,-3.585393667E0,-3.381071091E-1
4.591694968E0,3.258963585E0,-3.542606831E0,-4.731683731E-1
4.599688596E0,2.823797464E0,-3.470280170E0,-5.696678162E-1
4.607686146E0,2.534592867E0,-3.476739645E0,-6.134290695E-1
4.615682466E0,2.344217539E0,-3.512564421E0,-8.130025864E-1
4.623677170E0,2.210091114E0,-3.610416412E0,-1.045906067E0
4.631672028E0,2.084748983E0,-3.628406286E0,-1.201661110E0
4.639667963E0,1.908573151E0,-3.593313932E0,-1.397593021E0
4.647694437E0,1.541182995E0,-3.475142002E0,-1.535030842E0
4.655690218E0,1.169348478E0,-3.325383902E0,-1.604958057E0
4.663685922E0,6.821763515E-1,-3.095575094E0,-1.730079651E0
4.671681627E0,2.908492982E-1,-2.812496185E0,-1.784195900E0
4.679677562E0,-1.303754747E-1,-2.458857536E0,-1.622867584E0
4.687672729E0,-4.859306812E-1,-2.108262062E0,-1.328144550E0
4.695668356E0,-8.696264625E-1,-1.739274502E0,-9.990396500E-1
4.703694599E0,-1.351010323E0,-1.374342203E0,-6.837596893E-1
4.711690226E0,-1.767056942E0,-1.013614893E0,-5.071554184E-1
4.719685392E0,-2.211688519E0,-6.773848534E-1,-2.842884064E-1
4.727681097E0,-2.513776302E0,-3.262453079E-1,-1.791009903E-1
4.735677339E0,-2.806536198E0,1.151375771E-1,-1.770219803E-1
4.743672813E0,-2.882353306E0,6.546142101E-1,-1.916437149E-1
4.751667902E0,-2.885924101E0,1.154728174E0,-1.611127853E-1
4.759695914E0,-2.810337782E0,1.687181711E0,-7.665824890E-2
4.767690080E0,-2.586745024E0,2.079246998E0,4.990100861E-2
4.775685707E0,-2.353348494E0,2.412746429E0,1.116056442E-1
4.783680873E0,-2.044818401E0,2.662333250E0,1.501379013E-1
4.791676500E0,-1.737934709E0,2.752195597E0,4.122714996E-1
4.799672589E0,-1.452914715E0,2.761639595E0,6.835422516E-1
4.807667678E0,-1.258545518E0,2.714673042E0,7.505388260E-1
4.823689549E0,-8.958001137E-1,2.385380030E0,7.934980392E-1
4.831685561E0,-7.256400585E-1,2.256019592E0,6.854696274E-1
4.839679343E0,-5.002051592E-1,2.121584892E0,8.352546692E-1
4.847676586E0,-3.046426773E-1,1.974986196E0,1.057197571E0
4.855672367E0,4.360723495E-2,1.714693785E0,8.250274658E-1
4.863668071E0,4.881573915E-1,1.449184895E0,5.402603149E-1
4.871693314E0,1.174816847E0,1.198365688E0,1.135450363E0
4.879689557E0,1.548328519E0,1.043653250E0,1.869902611E0
4.887684646E0,1.309039593E0,9.722106457E-1,1.420723915E0
4.895680965E0,9.775241613E-1,8.508393764E-1,1.531532288E0
4.903676977E0,1.115086317E0,5.112957954E-1,1.701736450E0
4.911672682E0,1.421124935E0,1.584231853E-1,1.168624878E0
4.919668771E0,1.787954688E0,-1.132898331E-1,1.252068520E0
4.927694244E0,2.198950052E0,-3.243992329E-1,1.107653618E0
4.935689410E0,2.586469650E0,-4.902517796E-1,8.899917603E-1
4.943685422E0,2.735671759E0,-5.871772766E-1,4.814043045E-1
4.951680511E0,2.685723305E0,-6.829292774E-1,-8.888530731E-2
4.959675601E0,2.472183704E0,-7.673194408E-1,-3.971862793E-1
4.967672228E0,2.246314049E0,-8.868987560E-1,-6.691522598E-1
4.975667856E0,2.086593151E0,-1.068424463E0,-7.637815475E-1
4.983692868E0,1.993785501E0,-1.227925062E0,-6.779813766E-1
4.991689187E0,1.853583574E0,-1.450561762E0,-5.505495071E-1
4.999686353E0,1.683864117E0,-1.626211166E0,-3.965291977E-1
5.007680288E0,1.456212044E0,-1.778381109E0,-1.979618073E-1
5.015676531E0,1.240234256E0,-1.775114536E0,-1.930961609E-1
5.023672236E0,1.010753512E0,-1.761600733E0,-1.122274399E-1
5.031668017E0,8.529964685E-1,-1.742717981E0,-1.330966949E-1
5.039693490E0,8.166742325E-1,-1.689152479E0,-1.960277557E-1
5.047689272E0,8.109864593E-1,-1.655451775E0,-3.079328537E-1
5.055685591E0,8.501213789E-1,-1.570596218E0,-4.202461243E-1
5.063680065E0,8.998606205E-1,-1.475813389E0,-4.371347427E-1
5.071676000E0,8.912649155E-1,-1.317542315E0,-5.807666779E-1
5.077687086E0,9.431986809E-1,-1.150733471E0,-6.473445892E-1
5.079669858E0,9.431986809E-1,-1.150733471E0,-6.473445892E-1
5.087667101E0,9.417305589E-1,-1.039872408E0,-5.658683777E-1
5.095693345E0,9.468159676E-1,-9.572501183E-1,-3.711814880E-1
5.103689280E0,8.767340779E-1,-9.944295883E-1,-1.603612900E-1
5.111684446E0,6.911533475E-1,-1.037507057E0,8.484840393E-3
5.119679535E0,3.746455312E-1,-1.219042778E0,1.683797836E-1
5.127675547E0,9.748089314E-2,-1.345430851E0,2.040996552E-1
5.135671251E0,-5.650377274E-2,-1.368957996E0,1.044273376E-1
5.143666955E0,-2.054701447E-1,-1.200462341E0,2.132511139E-2
5.151693044E0,-2.691234946E-1,-1.018865585E0,-1.349906921E-1
5.159689441E0,-2.848567367E-1,-8.047647476E-1,-2.208547592E-1
5.167684453E0,-1.254683137E-1,-6.880826950E-1,-2.655096054E-1
5.175680465E0,7.260560989E-2,-6.986479759E-1,5.696678162E-2
5.183675246E0,2.465239763E-1,-6.731209755E-1,3.118553162E-1
5.191671027E0,2.984771729E-1,-6.919398308E-1,6.537046432E-1
5.199666655E0,1.770474911E-1,-7.378926277E-1,1.059976578E0
5.207692590E0,-7.555425167E-2,-8.145065308E-1,1.448759079E0
5.215689217E0,-4.284924269E-1,-9.381394386E-1,1.827648163E0
5.223684614E0,-6.390497684E-1,-9.330391884E-1,2.191170692E0
5.231680011E0,-6.629803181E-1,-8.878583908E-1,2.473722458E0
5.239677254E0,-4.008346200E-1,-7.882218361E-1,2.778432846E0
5.247670728E0,-7.499831915E-2,-6.682128906E-1,2.978190422E0
5.255668586E0,3.372424841E-1,-5.834298134E-1,3.111168861E0
5.263693214E0,7.169933915E-1,-5.130405426E-1,3.136566162E0
5.271688302E0,9.571844339E-1,-4.739212990E-1,3.174253464E0
5.279684314E0,1.245946884E0,-3.991622925E-1,3.327190399E0
5.287680096E0,1.477761984E0,-3.950181007E-1,3.357863426E0
5.295676108E0,1.715832949E0,-3.487401009E-1,3.237614632E0
5.303670889E0,1.855326533E0,-2.552323341E-1,3.055150032E0
5.311696978E0,1.939683437E0,-1.032691002E-1,2.770586967E0
5.319690913E0,1.977086425E0,7.367372513E-2,2.726333618E0
5.327688464E0,2.031592369E0,1.396422386E-1,2.728776932E0
5.335684783E0,2.065788984E0,2.295241356E-1,2.766368866E0
5.343680103E0,2.111623526E0,2.717814445E-1,2.743515968E0
5.351675192E0,2.220137119E0,2.282156944E-1,2.748987198E0
5.359670281E0,2.344929934E0,1.571192741E-1,2.681660652E0
5.367666293E0,2.408889771E0,1.369247437E-1,2.553421974E0
5.375693460E0,2.444473267E0,2.140033245E-1,2.400707245E0
5.383687933E0,2.381024599E0,3.626108170E-1,2.142457962E0
5.391684253E0,2.308439255E0,5.310690403E-1,1.858149529E0
5.399681111E0,2.235733032E0,7.002527714E-1,1.617232323E0
5.407675277E0,2.135534048E0,7.966811657E-1,1.317030907E0
5.415670751E0,1.895663023E0,8.997771740E-1,1.137230873E0
5.423697147E0,1.627662659E0,9.280686378E-1,1.053827286E0
5.431692621E0,1.360165954E0,9.148976803E-1,1.042816162E0
5.439687940E0,1.154567480E0,9.417490959E-1,1.056366920E0
5.447684645E0,9.888141155E-1,9.705770016E-1,1.022786140E0
5.455680041E0,8.314091563E-1,1.025436401E0,8.392162323E-1
5.463674823E0,7.211315036E-1,1.076534748E0,6.282291412E-1
5.471670527E0,5.851090550E-1,1.188274622E0,3.921298981E-1
5.479697539E0,4.015128314E-1,1.223398805E0,1.731853485E-1
5.487692628E0,1.490613520E-1,1.238107681E0,-2.223682404E-2
5.495688640E0,-7.665178180E-2,1.194071531E0,-2.705497742E-1
5.503683190E0,-3.323213160E-1,1.138770223E0,-3.628416061E-1
5.511679742E0,-5.033842921E-1,1.087837577E0,-4.640483856E-1
5.519674523E0,-5.912184715E-1,1.012620807E0,-5.497760773E-1
5.527670920E0,-5.877576470E-1,1.005841732E0,-6.485052109E-1
5.535697393E0,-5.787544250E-1,9.768351316E-1,-6.460714340E-1
5.543692713E0,-6.670947671E-1,9.365473986E-1,-7.009057999E-1
5.551687879E0,-8.285798430E-1,8.466764688E-1,-7.989206314E-1
5.559681429E0,-9.801874757E-1,7.434866428E-1,-8.996963501E-1
5.567678980E0,-1.153083205E0,6.116423607E-1,-9.198513031E-1
5.575674915E0,-1.374041557E0,4.995231628E-1,-1.082100868E0
5.583670389E0,-1.599342227E0,3.737750053E-1,-1.245184898E0
5.591696785E0,-1.787724733E0,2.225565910E-1,-1.380335808E0
5.599693105E0,-1.878694773E0,1.240494251E-1,-1.389501572E0
5.607687271E0,-1.880384445E0,-4.038727283E-2,-1.318389893E0
5.615683667E0,-1.883407354E0,-2.165315151E-1,-1.174394608E0
5.623678141E0,-1.914419889E0,-3.890415430E-1,-1.166048050E0
5.631674999E0,-1.999528885E0,-5.105441809E-1,-1.192906380E0
5.639669242E0,-2.106181145E0,-5.462243557E-1,-1.140360832E0
5.647696255E0,-2.183308840E0,-5.057374239E-1,-9.608402252E-1
5.655692652E0,-2.279826880E0,-4.702949524E-1,-8.196592331E-1
5.663687125E0,-2.407105923E0,-4.258925915E-1,-8.484153748E-1
5.671683060E0,-2.484262466E0,-3.943454027E-1,-1.080180168E0
5.679680611E0,-2.539697886E0,-3.773621321E-1,-1.464280128E0
5.687674546E0,-2.536651611E0,-3.294205666E-1,-1.670567989E0
5.695670481E0,-2.436224461E0,-3.424862623E-1,-1.809700966E0
5.703696339E0,-2.318548679E0,-3.926836252E-1,-1.797789574E0
5.711691736E0,-2.142651796E0,-4.842675924E-1,-1.727895737E0
5.719686286E0,-1.986698866E0,-6.152201891E-1,-1.484971046E0
5.727683144E0,-1.865857840E0,-7.148027420E-1,-1.308486938E0
5.735679464E0,-1.760676742E0,-8.051115274E-1,-1.203308105E0
5.743674015E0,-1.749190331E0,-8.832452297E-1,-1.348997116E0
5.751670027E0,-1.764262199E0,-9.389209747E-1,-1.379411697E0
5.759696731E0,-1.826566219E0,-9.865118265E-1,-1.452996254E0
5.767691512E0,-1.865327120E0,-1.030258775E0,-1.412189484E0
5.775688217E0,-1.945991755E0,-1.055471301E0,-1.266799927E0
5.783682691E0,-2.053850174E0,-1.071799278E0,-1.079197884E0
5.791678703E0,-2.156817913E0,-1.101387739E0,-8.445272446E-1
5.797689789E0,-2.252916574E0,-1.159713626E0,-5.458288193E-1
5.799673407E0,-2.267281771E0,-1.176473022E0,-5.338582993E-1
5.807670343E0,-2.345686436E0,-1.195292592E0,-4.421367645E-1
5.815696585E0,-2.310719967E0,-1.212153912E0,-3.413171768E-1
5.823691059E0,-2.204702616E0,-1.133305311E0,-3.839187622E-1
5.831687302E0,-2.052681923E0,-1.024568319E0,-3.971385956E-1
5.839683621E0,-1.820852280E0,-9.698907137E-1,-3.446874619E-1
5.847679018E0,-1.532092452E0,-9.080063105E-1,-4.035196304E-1
5.855674415E0,-1.156825781E0,-8.690576553E-1,-7.316675186E-1
5.863668965E0,-8.747499585E-1,-8.192861080E-1,-1.058847427E0
5.871695977E0,-5.686347485E-1,-7.571480274E-1,-1.273088455E0
5.879691143E0,-4.061503410E-1,-7.157981396E-1,-1.250692368E0
5.887686847E0,-3.790902495E-1,-6.786671877E-1,-1.293788910E0
5.895682782E0,-5.776150823E-1,-7.040836811E-1,-1.222870827E0
5.903678179E0,-8.139370084E-1,-8.134200573E-1,-1.018593788E0
5.911673576E0,-9.002235532E-1,-9.291355610E-1,-6.228294373E-1
5.919669972E0,-9.229723215E-1,-9.889988899E-1,-2.549400330E-1
5.927695216E0,-9.379634261E-1,-1.079771280E0,6.436157227E-2
5.935691536E0,-1.012374043E0,-1.122683525E0,2.779235840E-1
5.943686009E0,-1.084500194E0,-1.180382967E0,4.287204742E-1
5.951682560E0,-1.031897545E0,-1.232064247E0,5.644016266E-1
5.959677649E0,-9.474029541E-1,-1.161653757E0,3.875131607E-1
5.967673969E0,-7.343286872E-1,-1.001002550E0,1.859369278E-1
5.975670673E0,-3.786323369E-1,-7.695744038E-1,7.714557648E-2
5.983695223E0,7.724601030E-2,-5.434446335E-1,1.811981201E-2
5.991690389E0,6.108990312E-1,-4.047324657E-1,5.367841721E-1
5.999687324E0,9.934986830E-1,-3.125307560E-1,6.682014465E-1
6.007682644E0,1.120127201E0,-3.010995388E-1,1.001406670E0
6.015678348E0,9.829536676E-1,-3.177452087E-1,1.140664101E0
6.023673130E0,6.034657359E-1,-3.131587505E-1,8.757362366E-1
6.031669218E0,1.805181503E-1,-2.917428017E-1,7.242336273E-1
6.047690396E0,3.145911098E-1,-4.779438972E-1,1.877511978E0
6.055687024E0,7.429502010E-1,-5.400757790E-1,2.543900490E0
6.063682114E0,1.304112673E0,-5.817525387E-1,2.917243958E0
6.071677280E0,1.607901335E0,-2.903358936E-1,3.377962112E0
6.079674522E0,1.314391017E0,7.015548944E-1,-6.930093765E-1
6.087668688E0,9.968134165E-1,1.359945178E0,-6.697292328E-1
6.095696008E0,1.515324831E0,1.554763317E0,-1.020808220E0
6.103691097E0,2.131753922E0,1.664911985E0,-8.219985962E-1
6.111686186E0,2.037501335E0,1.469331026E0,-8.049697876E-1
6.119681890E0,1.082870960E0,1.144032717E0,-8.692951202E-1
6.127676979E0,-1.506867111E-1,7.988400459E-1,-9.192495346E-1
6.135672683E0,-1.052868366E0,6.081936359E-1,-7.547273636E-1
6.143668465E0,-1.779498339E0,5.457646847E-1,-6.109170914E-1
6.151694861E0,-1.957401752E0,6.159170866E-1,-6.006269455E-1
6.159691566E0,-1.624804020E0,6.818615198E-1,-4.894065857E-1
6.167685962E0,-8.693540692E-1,6.449862719E-1,-3.158178329E-1
6.175682590E0,-3.013564348E-1,5.304946899E-1,-2.306652069E-1
6.183677140E0,3.449058533E-2,3.988550901E-1,-3.079233170E-1
6.191672768E0,5.182152987E-2,3.343023062E-1,-3.513059616E-1
6.199670011E0,-1.606281400E-1,2.473294735E-1,-5.188121796E-1
6.207694716E0,-4.741640091E-1,1.509270668E-1,-5.663003922E-1
6.215690728E0,-6.305093169E-1,5.436015129E-2,-4.700508118E-1
6.223685817E0,-5.161347389E-1,-4.292726517E-2,-3.474159241E-1
6.231681444E0,-2.772204280E-1,-6.227111816E-2,-2.364492416E-1
6.239675995E0,-2.827942371E-2,-4.192447662E-2,-1.917591095E-1
6.247672237E0,1.592288017E-1,-4.456186295E-2,-2.013387680E-1
6.255669172E0,3.772177696E-1,-1.079988480E-2,-2.820901871E-1
6.263694184E0,5.661755800E-1,2.312827110E-2,-3.001661301E-1
6.271689812E0,7.204517722E-1,4.505467415E-2,-2.989606857E-1
6.277671667E0,8.574322462E-1,7.862186432E-2,-3.120965958E-1
6.279684055E0,8.574322462E-1,7.862186432E-2,-3.120965958E-1
6.287681605E0,9.367295504E-1,8.817934990E-2,-3.178024292E-1
6.295677233E0,1.038216591E0,1.304287910E-1,-2.514533997E-1
6.303673245E0,1.088254452E0,1.359720230E-1,-2.162084579E-1
6.311668103E0,1.069213033E0,1.480572224E-1,-1.642732620E-1
6.319693576E0,9.459975958E-1,1.381261349E-1,-1.124448776E-1
6.327689588E0,7.555100918E-1,1.206083298E-1,-1.039075851E-1
6.335686294E0,4.961331487E-1,1.173009872E-1,-1.171550751E-1
6.343681383E0,3.070368767E-1,1.186549664E-1,-5.885887146E-2
6.351676779E0,1.236134768E-1,8.208918571E-2,8.817672729E-3
6.359672791E0,1.899582148E-2,6.526160240E-2,1.657867432E-2
6.367698572E0,-6.586319208E-2,5.914664268E-2,1.926517487E-2
6.375694661E0,-7.338410616E-2,8.506631851E-2,4.817104340E-2
6.383690058E0,-5.386304855E-2,1.284294128E-1,9.631061554E-2
6.391685070E0,2.896547318E-3,2.126008272E-1,7.755470276E-2
6.399680544E0,6.720936298E-2,2.650114298E-1,1.450767517E-1
6.407676786E0,1.440389156E-1,2.779718637E-1,1.718616486E-1
6.415673106E0,2.314023972E-1,2.746418715E-1,2.415018082E-1
6.423698349E0,2.658349276E-1,2.554267645E-1,3.036842346E-1
6.431694361E0,2.034676075E-1,2.138465643E-1,2.147274017E-1
6.439690373E0,1.701009274E-1,1.983517408E-1,1.493778229E-1
6.447685231E0,1.257880926E-1,1.711593866E-1,1.052589417E-1
6.455681243E0,9.400808811E-2,2.295163870E-1,9.658908844E-2
6.463676640E0,4.226648808E-2,2.873613834E-1,9.003162384E-2
6.471671421E0,-2.104675770E-2,3.346335888E-1,9.520149231E-2
6.479697896E0,-5.601608753E-2,3.642666340E-1,9.306144714E-2
6.487694138E0,-6.308853626E-2,3.502354622E-1,1.124620438E-1
6.495689227E0,4.047989845E-2,2.812952995E-1,1.393089294E-1
6.503685239E0,1.182571650E-1,2.152167559E-1,1.329650879E-1
6.511680713E0,1.423696280E-1,1.429233551E-1,1.101903915E-1
6.527671814E0,4.365372658E-2,7.692420483E-2,3.398132324E-2
6.535698826E0,-3.715538979E-2,8.270108700E-2,4.013252258E-2
6.543693684E0,-1.140297651E-1,1.014504433E-1,3.912258148E-2
6.551689311E0,-1.216429472E-1,7.559752464E-2,1.125326157E-1
6.559684785E0,-8.083701134E-2,2.661859989E-2,9.774208069E-2
6.567680720E0,1.685023308E-2,-2.152931690E-2,1.433286667E-1
6.575677117E0,1.447411776E-1,-2.865481377E-2,1.271286011E-1
6.583671821E0,2.837817669E-1,4.779434204E-2,6.100463867E-2
6.591697372E0,3.893990517E-1,9.969592094E-2,3.097152710E-2
6.599694384E0,4.868605137E-1,1.363359690E-1,4.399776459E-2
6.607689089E0,5.743402243E-1,1.335445642E-1,2.096652985E-2
6.615684793E0,5.741407871E-1,1.013042927E-1,9.677886963E-3
6.623680498E0,4.594461918E-1,6.908166409E-2,3.875637054E-2
6.631676817E0,2.948374748E-1,4.216122627E-2,5.770874023E-2
6.639671906E0,8.846473694E-2,3.268873692E-2,1.478347778E-1
6.647697841E0,-4.846048355E-2,1.439034939E-2,1.728448868E-1
6.655693853E0,-8.781492710E-2,8.731603622E-3,2.336702347E-1
6.663689481E0,-5.642771721E-2,-1.357364655E-2,2.707204819E-1
6.671684647E0,3.072977066E-3,7.041096687E-3,2.123546600E-1
6.679680966E0,2.345228195E-2,4.193770885E-2,1.256532669E-1
6.687675748E0,5.357849598E-2,8.632385731E-2,1.049041748E-2
6.695672375E0,5.717134476E-2,1.117018461E-1,-5.194473267E-2
6.703697541E0,-2.457690239E-2,1.064966917E-1,-9.283351898E-2
6.711692630E0,-1.021910906E-1,3.036856651E-2,-1.385612488E-1
6.719688103E0,-1.848354340E-1,-2.808368206E-2,-7.904434204E-2
6.727684423E0,-2.042055130E-1,-8.628261089E-2,-2.851486206E-3
6.735680127E0,-2.675354481E-1,-9.151029587E-2,6.472587585E-3
6.743675216E0,-2.607222795E-1,-2.475988865E-2,-7.900238037E-3
6.751671152E0,-1.798285246E-1,3.475296497E-2,-3.392982483E-2
6.757683469E0,2.656161785E-2,1.109336615E-1,-5.709171295E-2
6.759695549E0,2.656161785E-2,1.109336615E-1,-5.709171295E-2
6.767694023E0,1.105287075E-1,1.393702030E-1,-7.508182526E-2
6.775688727E0,1.911836863E-1,1.104342937E-1,-9.531688690E-2
6.783684431E0,1.532810926E-1,6.736326218E-2,-7.494926453E-2
6.791680136E0,1.127457619E-1,3.402805328E-2,-1.891708374E-2
6.799674917E0,3.844535351E-2,8.618831635E-4,-3.017044067E-2
6.807671006E0,-2.618074417E-3,-4.173481464E-2,-4.407119751E-2
6.815697095E0,3.683173656E-2,-4.817306995E-2,1.728057861E-3
6.823693414E0,9.603953362E-2,-2.104878426E-3,5.938625336E-2
6.831689119E0,1.404668093E-1,7.680296898E-3,3.562736511E-2
6.839685746E0,1.081594229E-1,1.483762264E-2,2.381038666E-2
6.847679912E0,9.099948406E-2,1.935899258E-2,-2.523422241E-3
6.855675693E0,6.783509254E-2,2.628684044E-2,-4.098415375E-2
6.863670398E0,3.294587135E-3,3.811693192E-2,-2.219200134E-2
6.871697179E0,-4.121875763E-2,3.803610802E-2,2.043724060E-2
6.879692268E0,-7.892882824E-2,2.124714851E-2,8.467578888E-2
6.887688358E0,-1.277025938E-1,-1.719963551E-2,1.179676056E-1
6.895684370E0,-1.116729975E-1,-1.273465157E-2,1.395492554E-1
6.903679459E0,-9.076857567E-2,-1.429319382E-3,1.470098495E-1
6.911674778E0,1.206970215E-2,-4.797220230E-3,1.259317398E-1
6.919672021E0,1.615631580E-1,2.504086494E-2,9.538555145E-2
6.927696649E0,2.606998682E-1,5.236399174E-2,4.328250885E-2
6.935693353E0,2.985513210E-1,4.580092430E-2,-2.338314056E-2
6.943687826E0,2.975181341E-1,4.612994194E-2,-6.551742554E-3
6.951682915E0,1.837748289E-1,5.341815948E-2,-6.428337097E-2
6.959678543E0,6.002306938E-2,5.381059647E-2,-6.715965271E-2
6.967674555E0,-1.167163849E-1,5.483067036E-2,-4.386425018E-2
6.975671182E0,-2.008342743E-1,1.580810547E-2,-6.299972534E-3
6.983696733E0,-1.604043245E-1,-6.299018860E-3,6.480789185E-2
6.991692206E0,-4.707658291E-2,-5.236518383E-2,1.025743484E-1
6.995689751E0,4.464030266E-3,-4.624426365E-2,1.189613342E-1
6.997673138E0,5.953061581E-2,-3.906166553E-2,9.741401672E-2
6.999686064E0,5.953061581E-2,-4.385006428E-2,9.741401672E-2
7.007683230E0,1.052126884E-1,1.952064037E-2,6.362819672E-2
7.015679550E0,1.314667463E-1,9.223961830E-2,2.265262604E-2
7.023674948E0,1.319856644E-1,1.193275452E-1,-1.843070984E-2
7.031670960E0,8.810317516E-2,1.298048496E-1,-5.484199524E-2
7.039695972E0,2.885520458E-2,1.022567749E-1,-4.111003876E-2
7.047692599E0,-2.221751213E-2,3.335595131E-3,-1.066303253E-2
7.055688611E0,-8.738136292E-2,-7.582163811E-2,6.295967102E-2
7.063683392E0,-1.342725754E-1,-1.047521830E-1,1.055669785E-1
7.071678789E0,-1.401892900E-1,-8.590376377E-2,9.815883636E-2
7.079674801E0,-8.889579773E-2,-1.434624195E-2,1.054735184E-1
7.087669813E0,2.226567268E-2,1.894319057E-2,1.179027557E-1
7.095696979E0,1.097927094E-1,4.747164249E-2,4.681873322E-2
7.103692299E0,1.819158792E-1,6.903362274E-2,4.650115967E-3
7.111687772E0,1.872793436E-1,2.603876591E-2,1.274299622E-2
7.119682553E0,1.508426666E-1,-4.937052727E-3,3.913879395E-3
7.127679181E0,1.140724421E-1,-1.665437222E-2,-3.843307495E-4
7.135674885E0,5.732226372E-2,-6.612420082E-3,5.021286011E-2
7.143669359E0,6.339585781E-2,3.715157509E-3,6.487083435E-2
7.151696371E0,3.575360775E-2,2.125620842E-3,8.914279938E-2
7.159692999E0,8.188796043E-2,2.695918083E-3,1.110382080E-1
7.167687550E0,1.151989698E-1,1.021552086E-2,9.469890594E-2
7.175684485E0,1.091412306E-1,3.164291382E-2,7.123756409E-2
7.183679266E0,1.025699377E-1,2.886128426E-2,4.779720306E-2
7.191674355E0,4.095208645E-2,2.134883404E-2,1.957893372E-2
7.199669444E0,-3.225326538E-2,4.258728027E-2,2.243709564E-2
7.207696533E0,-4.748761654E-2,6.154811382E-2,6.116104126E-2
7.215692545E0,-4.060041904E-2,5.654346943E-2,8.543682098E-2
7.223687249E0,-1.398646832E-2,4.670464993E-2,8.568286896E-2
7.231683261E0,1.811861992E-3,2.716994286E-2,6.419754028E-2
7.239676812E0,-5.540835857E-2,6.024527550E-2,2.337837219E-2
7.247673824E0,-7.346439362E-2,5.977702141E-2,1.116561890E-2
7.255670451E0,-1.201585531E-1,4.737055302E-2,1.091766357E-2
7.263695694E0,-1.338620186E-1,4.449546337E-2,7.058906555E-2
7.271690783E0,-9.617924690E-2,6.534457207E-2,7.293891907E-2
7.279686718E0,-4.338634014E-2,7.862913609E-2,1.137523651E-1
7.287682422E0,-2.087962627E-2,7.973742485E-2,5.179691315E-2
7.295679434E0,5.513906479E-3,5.447912216E-2,1.869392395E-2
7.303674140E0,5.577635765E-2,4.626011848E-2,-9.555816650E-3
7.311669844E0,1.019672155E-1,3.822588921E-2,-1.632022858E-2
7.319697240E0,1.227428913E-1,-3.261923790E-3,5.527496338E-3
7.327690868E0,1.039084196E-1,5.757808685E-3,2.966022491E-2
7.335687803E0,1.290333271E-1,-1.135957241E-2,1.015911102E-1
7.343682815E0,1.565926075E-1,4.825472832E-3,1.064376831E-1
7.351678827E0,1.357002258E-1,-1.725697517E-2,1.113729477E-1
7.359673378E0,1.406780481E-1,-3.224575520E-2,1.091775894E-1
7.367669390E0,6.902503967E-2,-3.791499138E-2,9.975147247E-2
7.375696709E0,6.210243702E-2,-4.853284359E-2,1.142272949E-1
7.383690875E0,5.262970924E-2,-7.362973690E-2,7.842445374E-2
7.391687195E0,1.885581017E-2,-4.837918282E-2,7.860183716E-2
7.399683207E0,-3.750920296E-3,-3.973901272E-2,9.089469910E-2
7.407678065E0,-3.274202347E-3,-1.904571056E-2,7.459735870E-2
7.415674615E0,8.929371834E-3,-5.098116398E-2,4.398059845E-2
7.423669474E0,4.545652866E-2,-9.488141537E-2,7.316684723E-2
7.431695332E0,4.856431484E-2,-1.965569258E-1,1.286182404E-1
7.439691268E0,-2.867460251E-2,-2.963107824E-1,1.817846298E-1
7.447686665E0,-2.085777521E-1,-3.738887310E-1,1.515846252E-1
7.455682369E0,-4.348191023E-1,-4.442319870E-1,7.887840271E-2
7.463677766E0,-5.417132378E-1,-5.019893646E-1,2.578325272E-1
7.471674393E0,-5.144869685E-1,-5.766968727E-1,4.440269470E-1
7.479698482E0,-4.199471474E-1,-6.213355064E-1,5.944318771E-1
7.487695340E0,-3.789387941E-1,-6.513811350E-1,7.114057541E-1
7.495691044E0,-3.641229868E-1,-7.010211945E-1,7.611579895E-1
7.503686441E0,-3.560985327E-1,-7.102954388E-1,6.690893173E-1
7.511682453E0,-3.099107742E-1,-6.668630838E-1,6.001825333E-1
7.519677311E0,-2.272669077E-1,-6.186767817E-1,5.734691620E-1
7.527673246E0,-1.495664120E-1,-5.772336721E-1,4.239454269E-1
7.535700028E0,-7.264316082E-2,-5.182363987E-1,3.289480209E-1
7.543695424E0,-8.708012104E-2,-4.991021156E-1,2.884292603E-1
7.551690898E0,-1.559612751E-1,-5.356607437E-1,1.659402847E-1
7.559687833E0,-2.781996727E-1,-5.857700109E-1,-1.134872437E-4
7.567681383E0,-4.642463923E-1,-6.138492823E-1,-2.263422012E-1
7.575678627E0,-5.916723013E-1,-6.197921038E-1,-2.015171051E-1
7.583673716E0,-6.258148551E-1,-5.600689650E-1,-3.682699203E-1
7.591699267E0,-5.516926050E-1,-4.743252993E-1,-5.202198029E-1
7.599694355E0,-5.310972929E-1,-3.958923817E-1,-7.480897903E-1
7.607690675E0,-5.264968276E-1,-3.604847193E-1,-8.899726868E-1
7.615686380E0,-5.438134074E-1,-3.725451231E-1,-9.148883820E-1
7.623681776E0,-6.188479066E-1,-5.263037682E-1,-8.516483307E-1
7.631676865E0,-7.639602423E-1,-6.698174477E-1,-7.841119766E-1
7.639673185E0,-9.444628358E-1,-7.503997087E-1,-7.626924515E-1
7.647699351E0,-1.076450706E0,-7.949101925E-1,-8.449287415E-1
7.655694978E0,-1.109746218E0,-8.301165104E-1,-8.991661072E-1
7.663690452E0,-1.085592866E0,-8.093742132E-1,-1.045222282E0
7.671686156E0,-1.068064451E0,-7.385023832E-1,-1.158793449E0
7.679681245E0,-1.095824480E0,-6.598355770E-1,-1.386090279E0
7.687677180E0,-1.221373558E0,-5.028599501E-1,-1.626692772E0
7.695672961E0,-1.377495766E0,-3.800325394E-1,-1.760768414E0
7.703698819E0,-1.559404492E0,-2.545099258E-1,-1.746816635E0
7.711694756E0,-1.682615399E0,-1.795090437E-1,-1.620066643E0
7.719688691E0,-1.818427086E0,-7.869720459E-2,-1.382516861E0
7.727686472E0,-1.884225845E0,-4.567682743E-2,-1.280508995E0
7.735682484E0,-1.863527060E0,3.981530666E-2,-1.337769508E0
7.743676650E0,-1.721544743E0,1.070013046E-1,-1.513481140E0
7.751673046E0,-1.485819697E0,1.104141474E-1,-1.606723785E0
7.759698905E0,-1.208273292E0,1.981914043E-2,-1.816692352E0
7.767695147E0,-1.088241935E0,-1.232111454E-2,-2.083893299E0
7.775690313E0,-1.194410443E0,1.225216389E-1,-2.185705185E0
7.783685941E0,-1.426718473E0,4.596046805E-1,-2.140980244E0
7.791680799E0,-1.616293073E0,7.683945894E-1,-1.970865726E0
7.799678657E0,-1.683766484E0,1.107425928E0,-1.624807358E0
7.807672823E0,-1.568543196E0,1.287305117E0,-1.289530754E0
7.815700143E0,-1.283267260E0,1.405522108E0,-1.015421867E0
7.823694616E0,-9.521735311E-1,1.365915060E0,-1.061164856E0
7.831690090E0,-6.494823694E-1,1.276428342E0,-1.015078545E0
7.839685102E0,-3.188636005E-1,1.073441505E0,-9.109458923E-1
7.847681114E0,-1.461195499E-1,9.093439579E-1,-1.033843994E0
7.855677204E0,-8.937920630E-2,8.611330390E-1,-1.177879333E0
7.863672523E0,-1.454188377E-1,1.057006240E0,-1.225606918E0
7.871698766E0,-2.384924740E-1,1.238462687E0,-1.124309540E0
7.879695317E0,-1.984590888E-1,1.391280413E0,-7.469930649E-1
7.895685494E0,3.702506423E-3,1.284430504E0,-3.579521179E-2
7.903680891E0,1.418616027E-1,1.151916981E0,2.881145477E-2
7.911676672E0,2.945883572E-1,9.924073219E-1,1.520938873E-1
7.919672300E0,3.964668810E-1,9.109818935E-1,9.722709656E-2
7.927697619E0,4.879333675E-1,8.901900053E-1,8.940982819E-2
7.935695093E0,6.038290262E-1,9.461857080E-1,-1.246232986E-1
7.943689336E0,7.232100368E-1,9.540243149E-1,-2.118358612E-1
7.951684656E0,8.318220973E-1,9.280971289E-1,-5.833148956E-1
7.957696972E0,8.931235075E-1,8.867116570E-1,-9.698839188E-1
7.959679129E0,9.098829031E-1,8.867116570E-1,-9.698839188E-1
7.967676372E0,1.013535857E0,8.579910994E-1,-1.014799118E0
7.975672692E0,1.159699798E0,8.345504403E-1,-1.065129280E0
7.983698243E0,1.236500144E0,8.408346176E-1,-9.486942291E-1
7.991694024E0,1.238698363E0,8.356384635E-1,-7.880201340E-1
7.999688729E0,1.188891292E0,7.747908235E-1,-6.957759857E-1
8.007684741E0,1.094268322E0,6.951212883E-1,-5.859680176E-1
8.015681676E0,9.514862299E-1,5.832905769E-1,-5.540828705E-1
8.023676765E0,8.458037376E-1,4.032214880E-1,-2.989015579E-1
8.031672238E0,7.598302960E-1,1.205979586E-1,6.550788879E-3
8.039699327E0,7.555425167E-1,-1.516842842E-1,2.684297562E-1
8.047693493E0,6.814396381E-1,-4.338889122E-1,3.553056717E-1
8.055689736E0,6.200504899E-1,-5.687727928E-1,4.183607101E-1
8.063684902E0,5.985138416E-1,-5.690495968E-1,4.148855209E-1
8.071680529E0,6.246268749E-1,-4.481098652E-1,3.331670761E-1
8.079675695E0,6.507483125E-1,-3.280129433E-1,2.355041504E-1
8.087672245E0,7.205957770E-1,-2.244770527E-1,9.586811066E-2
8.095698719E0,7.514276505E-1,-2.254843712E-1,8.687210083E-2
8.103693270E0,7.694377303E-1,-3.598141670E-1,1.997013092E-1
8.111688974E0,6.753534675E-1,-6.218702793E-1,3.844909668E-1
8.119686447E0,5.412423015E-1,-8.921222687E-1,8.425769806E-1
8.127679768E0,2.909549475E-1,-1.109689474E0,1.281041145E0
8.135676396E0,8.600330353E-2,-1.188398361E0,1.498187065E0
8.143671715E0,-5.796229839E-2,-1.182188272E0,1.476851463E0
8.151697650E0,1.282349229E-2,-1.125221014E0,1.369967461E0
8.159693047E0,2.359540015E-1,-9.505662918E-1,1.146244049E0
8.167688982E0,5.840172172E-1,-8.035471439E-1,9.087657928E-1
8.175685609E0,8.557035327E-1,-6.280074120E-1,7.201013565E-1
8.183680698E0,1.101475477E0,-5.249671936E-1,6.231555939E-1
8.191676095E0,1.254988194E0,-4.699082375E-1,8.218126297E-1
8.199700184E0,1.241998196E0,-4.611940384E-1,1.299386978E0
8.207697427E0,1.166793227E0,-4.429593086E-1,1.458908081E0
8.215694362E0,1.087574482E0,-4.233267307E-1,1.747557640E0
8.223689143E0,9.934179187E-1,-4.629149437E-1,1.899059296E0
8.231683847E0,9.922460318E-1,-5.067343712E-1,2.016236305E0
8.239680783E0,9.610520005E-1,-5.338437557E-1,1.849621773E0
8.247675564E0,9.219170809E-1,-5.524084568E-1,1.519473076E0
8.255672191E0,8.808906078E-1,-5.107970238E-1,1.244335175E0
8.263697820E0,9.061797261E-1,-4.896793365E-1,9.073390961E-1
8.271693139E0,9.907339215E-1,-4.960012436E-1,7.528381348E-1
8.279689228E0,1.211482048E0,-5.327014923E-1,7.779121399E-1
8.287684625E0,1.320387840E0,-5.355496407E-1,7.040414810E-1
8.295680637E0,1.344796062E0,-4.801712036E-1,6.217298508E-1
8.303675034E0,1.309139967E0,-4.281687737E-1,6.218194962E-1
8.311702122E0,1.267853856E0,-3.481254578E-1,6.730785370E-1
8.319696365E0,1.230078697E0,-2.726287842E-1,5.726890564E-1
8.327693608E0,1.253599286E0,-2.850489616E-1,5.965270996E-1
8.335689312E0,1.229367614E0,-3.513207436E-1,6.089277267E-1
8.343684094E0,1.114346981E0,-4.536852837E-1,8.509922028E-1
8.351679106E0,9.837074280E-1,-6.138873100E-1,1.139542580E0
8.359676118E0,8.132081628E-1,-6.917395592E-1,1.069694519E0
8.367701899E0,6.973122954E-1,-6.972436905E-1,9.550123215E-1
8.375698219E0,6.321920156E-1,-6.640038490E-1,8.263521194E-1
8.383692692E0,6.004976630E-1,-6.161565781E-1,6.448297501E-1
8.391689012E0,4.530302286E-1,-6.786875725E-1,9.152259827E-1
8.399683563E0,6.094400883E-1,-7.065052986E-1,1.145486832E0
8.407680422E0,8.359643221E-1,-7.471175194E-1,1.417646408E0
8.415676203E0,1.375779748E0,-1.525435448E0,4.796499252E0
8.423671215E0,1.991035938E0,-2.334156990E0,5.232359886E0
8.431697688E0,1.910542250E0,-2.626999855E0,3.645182610E0
8.437677774E0,1.194305062E0,-2.023724556E0,1.850262642E0
8.439691008E0,1.194305062E0,-2.023724556E0,1.850262642E0
8.447688559E0,7.271613479E-1,-1.517799854E0,1.388874054E0
8.455684494E0,5.666051507E-1,-7.700915337E-1,3.176460266E-1
8.463679044E0,7.852174044E-1,-1.842694283E-1,-1.651668549E-2
8.471675287E0,9.373268485E-1,3.246617317E-1,-1.705894470E-1
8.479700914E0,7.994660139E-1,6.513481140E-1,-8.842267990E-1
8.487696311E0,5.221686363E-1,9.074487686E-1,-1.878512859E0
8.495692554E0,-1.099470854E-1,1.491228819E0,-4.106537342E0
8.503687720E0,-6.593663692E-1,1.416164875E0,-1.810470581E0
8.511683732E0,-1.233529210E0,1.281355858E0,-1.869167805E0
8.519680359E0,-1.387408972E0,8.318023682E-1,-9.816155434E-1
8.527675140E0,-1.250431418E0,2.137451172E-1,-6.098580360E-1
8.535701923E0,-7.830319405E-1,-3.162574768E-1,-4.147863388E-1
8.543696935E0,-2.660779953E-1,-7.089672089E-1,-6.593990326E-2
8.551692408E0,1.682925224E-1,-9.956078529E-1,2.271966934E-1
8.559687189E0,2.240456343E-1,-9.085183144E-1,-1.851778030E-1
8.567683201E0,2.009583712E-1,-7.549123764E-1,-4.176764488E-1
8.575680367E0,2.888499498E-1,-7.559962273E-1,-5.602397919E-1
8.583674225E0,3.719293475E-1,-8.159418106E-1,-7.450079918E-1
8.591701622E0,1.314858198E-1,-8.502974510E-1,-1.042602539E0
8.599697403E0,-3.126051426E-1,-8.545970917E-1,-9.975576401E-1
8.607692185E0,-8.085147142E-1,-9.394855499E-1,-7.077674866E-1
8.615688197E0,-1.010414362E0,-9.978361130E-1,-3.650069237E-1
8.623682978E0,-8.601629734E-1,-1.094543934E0,-2.832603455E-2
8.631678682E0,-4.638878107E-1,-1.146793365E0,3.391313553E-1
8.639674310E0,-1.333245039E-1,-1.039120674E0,6.229038239E-1
8.647701168E0,1.714031696E-1,-7.416329384E-1,5.180711746E-1
8.655697487E0,6.235249639E-1,-7.230525017E-1,8.198776245E-1
8.663691884E0,8.302817345E-1,-1.003445148E0,3.098521233E0
8.671687896E0,-4.005368948E-1,-5.227999687E-1,2.619442940E0
8.679681217E0,-2.267345428E0,2.579050064E-1,2.194023132E0
8.687678460E0,-2.481053114E0,3.170084953E-1,1.302660942E0
8.695674702E0,-1.504663110E0,3.279814720E-1,-2.222299576E-1
8.703701561E0,2.876478434E-1,3.350906372E-1,-9.807901382E-1
8.711696573E0,1.365575314E0,4.664988518E-1,-9.712257385E-1
8.719691738E0,1.351707578E0,6.225609779E-1,-4.663591385E-1
8.727687443E0,-6.201601028E-2,8.354525566E-1,-2.041015625E-1
8.735684070E0,-1.247243762E0,9.423646927E-1,4.649124146E-1
8.743679159E0,-1.994906187E0,5.687098503E-1,8.551959991E-1
8.751674556E0,-1.879551888E0,-1.087255478E-1,6.227111816E-1
8.759701875E0,-9.881490469E-1,-6.783347130E-1,7.509431839E-1
8.767696734E0,-2.425763607E-1,-8.039126396E-1,1.171632767E0
8.775692053E0,-1.408343315E-1,-5.927243233E-1,1.295308113E0
8.783687219E0,-4.282096624E-1,-1.983327866E-1,9.666156769E-1
8.791682539E0,-4.932954311E-1,1.109600067E-1,5.581855774E-1
8.799678320E0,-2.946941853E-1,3.080663681E-1,3.628320694E-1
8.807673948E0,-1.096754074E-1,3.511433601E-1,5.428075790E-1
8.815701038E0,-1.522965431E-1,4.335780144E-1,1.399679184E-1
8.823695511E0,-4.721779823E-1,6.043186188E-1,-3.796405792E-1
8.831691831E0,-7.365815639E-1,7.103900909E-1,-6.224055290E-1
8.839688535E0,-9.401826859E-1,7.540841103E-1,-9.399023056E-1
8.847683239E0,-8.472039700E-1,6.807765961E-1,-1.041008472E0
8.855679021E0,-4.716308117E-1,5.572075844E-1,-1.056052685E0
8.863674110E0,-1.033875942E-1,4.716181755E-1,-8.154144287E-1
8.871700276E0,5.414557457E-2,4.270100594E-1,-5.385117531E-1
8.879695288E0,1.826472282E-1,4.560489655E-1,-4.642367363E-1
8.887691915E0,3.521037102E-1,4.626612663E-1,-4.811692238E-1
8.895688004E0,5.963467360E-1,4.375495911E-1,-5.333857536E-1
8.903682477E0,7.558219433E-1,3.926858902E-1,-5.848126411E-1
8.911677874E0,7.443492413E-1,4.014253616E-1,-6.160988808E-1
8.919672040E0,4.429597855E-1,4.495768547E-1,-7.673649788E-1
8.927699975E0,2.877023220E-1,4.151978493E-1,-7.182369232E-1
8.935695987E0,3.027479649E-1,4.090576172E-1,-6.492242813E-1
8.943690538E0,6.713097095E-1,3.586521149E-1,-5.259704590E-1
8.951686551E0,1.261761308E0,3.694167137E-1,-4.881381989E-1
8.959682563E0,1.632922888E0,4.958305359E-1,-5.117058754E-1
8.967677882E0,1.693453789E0,6.110138893E-1,-4.212350845E-1
8.975674279E0,1.591313362E0,7.897582054E-1,-3.545260429E-1
8.983700368E0,1.573616028E0,8.555870056E-1,-4.833173752E-2
8.991695149E0,1.603621721E0,8.954391479E-1,6.823778152E-2
8.999691546E0,1.459464431E0,8.615865707E-1,1.887331009E-1
9.007686558E0,1.033825159E0,7.811889648E-1,3.641881943E-1
9.015682954E0,4.431948662E-1,5.593485832E-1,7.186613083E-1
9.023677966E0,1.744213104E-1,3.181376457E-1,9.115948677E-1
9.031673055E0,2.430200577E-1,-7.640361786E-2,1.163023949E0
9.039699529E0,3.497989178E-1,-3.233628273E-1,6.760549545E-1
9.047695926E0,7.655377388E-1,1.087069511E-1,-3.421725750E0
9.055690938E0,1.582483292E0,-1.082857132E0,9.420957565E-1
9.063686334E0,1.420636415E0,-2.231733322E0,3.231660366E0
9.071682346E0,7.352948189E-2,-2.913502693E0,4.568349361E0
9.079678974E0,-1.283449411E0,-2.972922325E0,4.804978848E0
9.087673216E0,-2.005986214E0,-2.811319351E0,2.686442375E0
9.095700537E0,-1.657001019E0,-2.453050137E0,1.321809769E0
9.103695395E0,-8.403258324E-1,-1.990396023E0,1.199063301E0
9.111690792E0,-1.047594547E-1,-1.110262871E0,1.122112751E0
9.119686112E0,6.270551682E-2,-4.365448952E-1,5.333938599E-1
9.127681893E0,-5.269432068E-2,1.973104477E-1,-2.142167091E-1
9.135677905E0,-1.784949303E-1,5.989575386E-1,-1.030023098E0
9.143672994E0,-1.367714405E-1,8.401541710E-1,-1.939653397E0
9.151698852E0,3.163769245E-1,8.887472153E-1,-2.387084484E0
9.157680015E0,9.027856588E-1,8.266477585E-1,-2.034473419E0
9.159693018E0,9.027856588E-1,8.266477585E-1,-2.034473419E0
9.167690799E0,1.188178658E0,8.427238464E-1,-1.607700348E0
9.175686273E0,1.060246468E0,9.217557907E-1,-1.439182281E0
9.183682285E0,5.437802076E-1,1.068440914E0,-1.333923817E0
9.191677681E0,6.256866455E-2,1.077388287E0,-1.149614811E0
9.199672463E0,-9.986901283E-2,9.669570923E-1,-7.062468529E-1
9.207698859E0,-8.431005478E-2,7.873282433E-1,-3.310813904E-1
9.215695487E0,-5.185675621E-2,6.984958649E-1,-2.801432610E-1
9.223690577E0,-1.595966816E-1,6.012949944E-1,-2.642006874E-1
9.231686050E0,-3.193492889E-1,5.553870201E-1,-4.552397728E-1
9.239682370E0,-2.522590160E-1,5.821328163E-1,-2.517560959E0
9.247677151E0,9.431699514E-1,4.315090179E-2,-2.144446850E0
9.255673086E0,1.657848001E0,-1.500147820E0,2.827982903E-1
9.263699252E0,2.552843094E-1,-3.116786480E0,4.178265095E0
9.271694341E0,-1.645701647E0,-3.213787556E0,4.106142044E0
9.279689507E0,-2.574475765E0,-2.789691448E0,2.553688526E0
9.287685519E0,-1.437695265E0,-2.120222569E0,5.059185028E-1
9.295681839E0,9.134006500E-2,-1.600236416E0,3.282656670E-1
9.303677158E0,8.988641500E-1,-8.456792831E-1,6.776452065E-1
9.311672632E0,5.671308041E-1,-1.338510513E-1,3.534774780E-1
9.319699952E0,-2.994523048E-1,3.215351105E-1,-7.718496323E-1
9.327694502E0,-6.361861229E-1,4.614081383E-1,-1.564330101E0
9.335690822E0,-2.533965111E-1,5.224852562E-1,-2.000171185E0
9.343686757E0,4.775935411E-1,6.073455811E-1,-1.612453938E0
9.351681846E0,9.158301353E-1,7.505578995E-1,-1.041073799E0
9.359676396E0,8.939142227E-1,9.385261536E-1,-6.590142250E-1
9.367703179E0,5.095430613E-1,9.694437981E-1,-3.751344681E-1
9.375700037E0,1.045417786E-2,7.840867043E-1,-8.246231079E-2
9.383694895E0,-3.291680813E-1,5.638475418E-1,2.460899353E-1
9.391689676E0,-4.803192616E-1,4.837989807E-1,3.054351807E-1
9.399683765E0,-5.827443600E-1,4.935932159E-1,3.571519852E-1
9.407680777E0,-6.277010441E-1,5.733690262E-1,2.981090546E-1
9.415677328E0,-7.587242126E-1,6.557264328E-1,1.769347191E-1
9.423703493E0,-9.194042683E-1,5.898756981E-1,2.359142303E-1
9.431698582E0,-1.148257017E0,5.170726776E-1,-5.852494240E-1
9.439693671E0,-3.039281368E-1,6.512207985E-1,-3.895828724E0
9.447689991E0,1.115347862E0,-8.213458061E-1,-4.664840698E-1
9.455686388E0,1.756041050E-1,-2.817620277E0,4.476495266E0
9.463680861E0,-2.085973263E0,-3.012883663E0,3.601686478E0
9.471676566E0,-3.474024534E0,-2.263514996E0,3.609412193E0
9.479703654E0,-2.215016127E0,-1.242824554E0,-2.846431732E-2
9.487698667E0,-3.242802620E-2,-7.595438957E-1,-2.011833191E-1
9.495694140E0,1.677640676E0,-5.070137978E-1,-1.827096939E-2
9.503688922E0,1.715386868E0,-1.426920891E-1,8.621740341E-2
9.511685473E0,2.944531441E-1,3.542532921E-1,-6.669564247E-1
9.519680562E0,-7.623937130E-1,6.057410240E-1,-1.880856991E0
9.527675728E0,-7.641894817E-1,6.760387421E-1,-2.180041313E0
9.535703047E0,3.406093121E-1,7.704410553E-1,-1.922645092E0
9.543697829E0,1.114148617E0,8.829460144E-1,-1.248243332E0
9.551694148E0,1.217972159E0,1.023563385E0,-6.412587166E-1
9.559689930E0,7.173589468E-1,1.114312172E0,-4.990143776E-1
9.567685557E0,-6.671905518E-3,9.627509117E-1,-1.652669907E-1
9.575681338E0,-3.615808487E-1,6.164960861E-1,8.871793747E-2
9.583676350E0,-3.371193409E-1,3.731307983E-1,2.528119087E-1
9.591702516E0,-1.623153687E-1,2.873420715E-1,2.157731056E-1
9.599697067E0,-1.310966015E-1,4.383325577E-1,2.443313599E-3
9.607694002E0,-2.696151733E-1,6.465644836E-1,-3.009495735E-1
9.615689937E0,-4.494819641E-1,7.614536285E-1,-4.670109749E-1
9.623684487E0,-4.731817245E-1,7.629427910E-1,-8.873491287E-1
9.631679807E0,-1.372642517E-1,6.675863266E-1,-2.179943562E0
9.637692740E0,1.086189508E0,2.149000168E-1,-3.710685253E0
9.639674589E0,1.086189508E0,2.149000168E-1,-3.710685253E0
9.647702063E0,2.000882864E0,-1.623278141E0,-7.851915359E-1
9.655698690E0,7.413988113E-1,-3.119422913E0,3.143229008E0
9.663693702E0,-2.024893999E0,-3.205059528E0,4.364277840E0
9.671689176E0,-3.314478636E0,-2.396793842E0,2.386672497E0
9.679683880E0,-2.307130814E0,-1.495546341E0,2.109837532E-1
9.687680507E0,-9.262847900E-2,-8.096594810E-1,-4.821915627E-1
9.695677443E0,1.080103278E0,-4.115710258E-1,-2.225623131E-1
9.703702147E0,8.565346003E-1,4.690742493E-2,4.194831848E-2
9.711697851E0,-2.713649273E-1,3.118638992E-1,-5.671811104E-1
9.719694171E0,-6.907224655E-1,3.771572113E-1,-1.328461647E0
9.727688029E0,-3.517110348E-1,3.248381615E-1,-1.524878502E0
9.735685887E0,3.034229279E-1,3.739466667E-1,-1.317175865E0
9.743680053E0,7.845414877E-1,5.169386864E-1,-8.410882950E-1
9.751675450E0,8.986985683E-1,5.825953484E-1,-3.033270836E-1
9.759702154E0,7.523263693E-1,6.226320267E-1,-9.046173096E-2
9.767696705E0,4.111588001E-1,6.583571434E-1,-3.778457642E-2
9.775693948E0,5.168032646E-2,6.895370483E-1,-1.075506210E-2
9.783688345E0,-2.499930859E-1,7.782201767E-1,2.815046310E-1
9.791684742E0,-3.286218643E-1,8.290085793E-1,5.451221466E-1
9.799680754E0,-3.002879620E-1,8.794841766E-1,7.022681236E-1
9.807675227E0,-1.938843727E-1,8.607277870E-1,7.885251045E-1
9.815701932E0,-1.486294270E-1,6.548871994E-1,8.584856987E-1
9.823697020E0,-2.295894623E-1,5.182290077E-1,-1.335284233E0
9.831692802E0,5.180177689E-1,3.685922623E-1,-2.319485664E0
9.839688198E0,1.350882292E0,-1.090018272E0,3.880600929E-1
9.847684518E0,-5.470013618E-2,-2.861341476E0,4.773641586E0
9.855680530E0,-2.765613794E0,-2.471156597E0,3.346656322E0
9.863676157E0,-3.526576042E0,-1.469897270E0,1.295218945E0
9.871702016E0,-2.187227488E0,-4.039330482E-1,-7.431664467E-1
9.877682640E0,6.520583630E-1,2.457895279E-1,-8.357458115E-1
9.879695566E0,8.699307442E-1,3.176155090E-1,-8.979949951E-1
9.887692809E0,1.424222946E0,5.680909157E-1,-8.363761902E-1
9.895688898E0,9.210667610E-1,9.715609550E-1,-1.337060928E-1
9.903683910E0,-1.822345257E-1,1.184580326E0,-8.412547112E-1
9.911679691E0,-2.110548019E-1,1.042803288E0,-1.817139626E0
9.919674473E0,8.037809134E-1,5.354380608E-1,-1.222443104E0
9.927700870E0,1.331249952E0,4.982352257E-1,-2.331922054E0
9.935697574E0,1.162655830E0,4.981536865E-1,-1.060953140E0
9.943692586E0,7.283476591E-1,4.434862137E-1,-2.356200218E-1
9.951688368E0,6.295394897E-1,1.707248688E-1,3.845105171E-1
9.959684918E0,4.255241156E-1,-2.519226074E-2,3.543753624E-1
9.967679161E0,9.026217461E-2,-1.599874496E-1,9.717593193E-1
9.975676404E0,-3.675706387E-1,-8.893299103E-2,9.183416367E-1
9.983701877E0,-5.243330002E-1,-2.573060989E-2,1.117447376E0
9.991696966E0,-4.728035927E-1,7.134771347E-2,1.245725155E0
9.999692132E0,-4.021506310E-1,-1.292228699E-2,1.383426666E0
1.000768814E1,-3.800909519E-1,1.991939545E-2,-8.152408600E-1
1.001568416E1,6.831673384E-1,-2.296757698E-1,-1.444440842E0
1.002367948E1,7.661007643E-1,-9.599752426E-1,-6.656584740E-1
1.003167495E1,-1.602463245E0,-1.702199936E0,2.163353443E0
1.003970265E1,-3.692464352E0,-1.505601406E0,1.874335289E0
1.004769713E1,-3.661678553E0,-1.062319756E0,-2.034950256E-2
1.005569283E1,-1.662051439E0,-5.884089470E-1,-1.109851360E0
1.006368792E1,-5.984544754E-3,-1.427950859E-1,-1.434771061E0
1.007168301E1,6.475697756E-1,4.422283173E-1,-1.110962391E0
1.007967895E1,6.202937365E-1,7.508387566E-1,-1.262229919E0
1.008767442E1,6.742111444E-1,7.816600800E-1,-1.885716915E0
1.009570120E1,8.638573885E-1,5.145373344E-1,-1.738196373E0
1.010369652E1,1.009961843E0,1.958932877E-1,-1.056751728E0
1.011169161E1,1.056394219E0,-9.092664719E-2,-2.240467072E-2
1.011968670E1,9.151606560E-1,-1.362018585E-1,3.794298172E-1
1.012768340E1,7.184174061E-1,-8.638811111E-2,4.438586235E-1
1.013567934E1,3.365437984E-1,-7.397699356E-2,3.799662590E-1
1.014367473E1,1.237511635E-2,-2.973461151E-2,3.952412605E-1
1.015170121E1,-2.066509724E-1,5.688285828E-2,3.815078735E-1
1.015969599E1,-2.469396591E-1,2.332382202E-1,2.106218338E-1
1.016769146E1,-2.525849342E-1,4.365701675E-1,-3.085136414E-4
1.017568840E1,-2.674622536E-1,6.749787331E-1,-2.618780136E-1
1.018368279E1,-1.758348942E-1,9.870038033E-1,-6.110639572E-1
1.019167850E1,1.574978828E-1,1.241052628E0,-8.485388756E-1
1.019967582E1,5.497815609E-1,1.305193424E0,-1.153367043E0
1.020770037E1,9.458873272E-1,1.170371056E0,-1.734132290E0
1.021569730E1,1.215740681E0,1.138085365E0,-4.582321167E0
1.022369186E1,2.017019272E0,-3.072285652E-1,-1.085466862E0
1.023168725E1,8.597596884E-1,-1.976332664E0,2.690176010E0
1.023968296E1,-1.515908003E0,-2.415362835E0,4.186985970E0
1.024767835E1,-3.190580130E0,-1.926115513E0,2.523552418E0
1.025567429E1,-2.725889444E0,-1.271060944E0,5.536551476E-1
1.026370053E1,-4.132416248E-1,-8.502879143E-1,2.560396194E-1
1.027169554E1,1.274397731E0,-6.493601799E-1,6.814236641E-1
1.027969248E1,7.904444933E-1,3.377103806E-2,3.679804802E-1
1.028768703E1,-4.373354912E-1,2.126264572E-1,5.717735291E-1
1.029568335E1,-6.913466454E-1,1.665940285E-1,-4.991974831E-1
1.030367867E1,-1.351366043E-1,-8.026361465E-2,-2.717537880E-1
1.031167437E1,4.091715813E-1,-1.001577377E-1,-2.614355087E-1
1.031969938E1,5.651593208E-1,1.046247482E-1,-3.897047043E-2
1.032769632E1,3.194200993E-1,3.448758125E-1,2.520380020E-1
1.033569195E1,1.248087883E-1,4.204406738E-1,2.634654045E-1
1.034368734E1,-2.808785439E-2,3.516960144E-1,1.479058266E-1
1.035168251E1,-9.530210495E-2,2.883796692E-1,1.252741814E-1
1.035769390E1,-1.008036137E-1,4.413595200E-1,-5.174684525E-2
1.035967691E1,-1.008036137E-1,4.413595200E-1,-5.174684525E-2
1.036770461E1,-1.044843197E-1,5.938701630E-1,-6.014204025E-2
1.037570070E1,-6.084346771E-2,7.348399162E-1,-2.790832520E-2
1.038369579E1,2.346181870E-2,7.356638908E-1,1.819705963E-1
1.039169142E1,1.026241779E-1,6.349391937E-1,2.983164787E-1
1.039968681E1,1.333246231E-1,5.813975334E-1,-2.696528435E-1
1.040768313E1,4.388017654E-1,8.172349930E-1,-2.555124283E0
1.041567861E1,1.841323972E0,2.872996330E-1,-1.090805531E0
1.042370477E1,1.730495691E0,-1.172966957E0,1.958458900E0
1.043169986E1,-6.608312130E-1,-1.716120243E0,2.346264362E0
1.043969703E1,-3.087191582E0,-1.196504116E0,1.352873325E0
1.044769088E1,-3.262178898E0,-6.208629608E-1,2.080564499E-1
1.045568667E1,-1.392118454E0,-2.155570984E-1,-5.179409981E-1
1.046368291E1,8.397226334E-1,-1.625628471E-1,4.693841934E-2
1.047167800E1,1.481731296E0,2.629346848E-1,-7.599053383E-1
1.047967347E1,2.085797787E-1,5.561861992E-1,-5.196156502E-1
1.048769987E1,-6.338520050E-1,5.624337196E-1,-1.122735023E0
1.049569565E1,-4.847550392E-1,2.506551743E-1,-8.434329033E-1
1.050369043E1,1.514260769E-1,2.409982681E-2,-3.496422768E-1
1.051168729E1,8.336229324E-1,-2.642412186E-1,4.374065399E-1
1.051968330E1,6.445797682E-1,3.252449036E-1,-5.435972214E-1
1.052767785E1,2.750520706E-1,5.421571732E-1,-2.300882339E-2
1.053570425E1,-3.870344162E-2,4.861564636E-1,3.700103760E-1
1.054369880E1,5.826449394E-2,1.684999466E-1,5.042071342E-1
1.055169481E1,1.104068756E-2,-8.615636826E-2,7.551317215E-1
1.055969044E1,-2.576279640E-1,6.632757187E-2,4.934267998E-1
1.056768676E1,-4.894189835E-1,1.097621918E-1,6.723890305E-1
1.057568246E1,-5.695452690E-1,9.180974960E-2,9.755520821E-1
1.058367817E1,-6.169211864E-1,-7.325363159E-2,1.160948753E0
1.059170349E1,-9.040827751E-1,-1.125044823E-1,6.838169098E-1
1.059768442E1,-9.973337650E-1,5.360317230E-2,-7.527647018E-1
1.059969789E1,-9.374787807E-1,-1.463413239E-3,-6.953039169E-1
1.060769544E1,-3.445634842E-1,-5.558571815E-1,4.348316193E-1
1.061569145E1,-7.100105286E-3,-1.286166668E0,1.252439022E0
1.062368600E1,-5.238554478E-1,-1.545650482E0,1.145245552E0
1.063168162E1,-1.269491673E0,-4.748072624E-1,3.729724884E-1
1.063967741E1,-8.010740280E-1,3.031620979E-1,-4.812474251E-1
1.064770319E1,8.881351948E-1,4.480099678E-1,-1.092823029E0
1.065569928E1,2.359190464E0,4.844393730E-1,-1.724408150E0
1.066369467E1,2.672161579E0,2.405619621E-1,-1.786183834E0
1.067169153E1,1.499923944E0,8.815765381E-2,-6.106028557E-1
1.067968693E1,2.055389881E-1,2.066378593E-1,-1.548090935E0
1.068768148E1,-4.549691677E-1,7.955741882E-2,-7.437362671E-1
1.069567811E1,-1.614418030E-1,-1.604843140E-2,-1.927862167E-1
1.070370366E1,4.159719944E-1,-1.616644859E-1,3.970222473E-1
1.071169905E1,4.207034111E-1,-1.938662529E-1,7.814044952E-1
1.071969445E1,1.112556458E-2,-1.482677460E-1,8.192634583E-1
1.072768985E1,-4.392948151E-1,-8.117008209E-2,9.652628899E-1
1.073568701E1,-6.377580166E-1,-3.812313080E-3,9.345688820E-1
1.074368149E1,-3.449771404E-1,3.125939369E-1,-8.017635345E-2
1.075167758E1,1.622679234E-1,5.202012062E-1,-1.731815338E-1
1.075970436E1,-3.177785873E-2,4.085416794E-1,1.123382092E0
1.076769875E1,-8.844420910E-1,6.948947906E-1,-5.272474289E-1
1.077569538E1,-9.589519501E-1,7.511310577E-1,-1.740497589E0
1.078369055E1,-5.421476364E-1,3.538703918E-1,-3.939666748E-1
1.079168564E1,-4.044675827E-1,-3.872680664E-2,-4.485411644E-1
1.079968103E1,-1.210166693E0,-1.012425423E-1,-2.160373688E0
1.080767758E1,-8.101174831E-1,-9.694972038E-1,4.069991112E-1
1.081570413E1,-4.184870720E-1,-1.725831985E0,8.848533630E-1
1.082369884E1,-5.309565067E-1,-1.888399601E0,1.789541245E0
1.083169462E1,-1.018360615E0,-1.225376606E0,7.292613983E-1
1.083767578E1,-1.004896164E-1,-5.511698723E-1,-1.895523071E-1
1.083968840E1,8.625817299E-2,-4.769492149E-1,-3.451752663E-1
1.084768564E1,1.010381103E0,-2.377238274E-1,-4.520468712E-1
1.085568196E1,1.544105053E0,4.826259613E-2,-8.456635475E-1
1.086367736E1,9.986249208E-1,4.247579575E-1,-8.255472183E-1
1.087170299E1,1.486396790E-1,6.734991074E-1,-1.195968151E0
1.087969831E1,-2.283585072E-1,5.905685425E-1,-7.268481255E-1
1.088769370E1,-5.745911598E-2,4.799742699E-1,-2.989044189E-1
1.089568979E1,2.072670460E-1,3.914103508E-1,3.137130737E-1
1.090368580E1,1.269326210E-1,4.945688248E-1,4.810142517E-1
1.091168120E1,-1.135463715E-1,6.538276672E-1,5.515890121E-1
1.091967814E1,-3.618741035E-1,7.106962204E-1,6.146278381E-1
1.092770330E1,-4.959247112E-1,7.385201454E-1,6.270604134E-1
1.093569908E1,-3.759307861E-1,8.511009216E-1,4.931812286E-1
1.094369448E1,-8.507871628E-2,9.908671379E-1,2.931184769E-1
1.095168980E1,1.419177055E-1,1.009049416E0,9.461450577E-2
1.095968558E1,1.249334812E-1,9.735679626E-1,-3.251986504E-1
1.096768098E1,2.163414955E-1,1.423962593E0,-4.889910698E0
1.097567722E1,1.209672928E0,3.298258781E-1,3.458662033E-1
1.098370277E1,8.251405954E-1,-6.731848717E-1,1.889779091E0
1.099169848E1,-9.275813103E-1,-1.267362595E0,2.800645828E0
1.099969580E1,-2.225111008E0,-1.116126537E0,1.287515163E0
1.100768965E1,-1.808333397E0,-8.573794365E-1,2.329349518E-2
1.101568567E1,-2.487070560E-1,-5.854926109E-1,-3.819470406E-1
1.102368106E1,6.745684147E-1,-3.131217957E-1,3.697643280E-1
1.103167700E1,7.029495239E-1,2.232995033E-1,4.772748947E-1
1.103970170E1,1.395256519E-1,4.387216568E-1,-1.665072441E-1
1.104769764E1,-1.527624130E-1,3.503761292E-1,-6.510252953E-1
1.105569365E1,-1.219773293E-1,1.860666275E-2,-5.196247101E-1
1.106368905E1,1.824212074E-2,-1.140031815E-1,-3.066096306E-1
1.107168537E1,1.281325817E-1,-5.622386932E-2,-3.429055214E-1
1.107967922E1,3.227162361E-2,1.226153374E-1,-4.786477089E-1
1.108767624E1,-3.618764877E-2,1.843867302E-1,-4.829230309E-1
1.109570294E1,-1.571996212E-1,1.554169655E-1,-4.279179573E-1
1.110369841E1,-2.470674515E-1,1.389222145E-1,-2.871627808E-1
1.111169373E1,-2.671701908E-1,1.015024185E-1,-2.160949707E-1
1.111968890E1,-2.698616982E-1,7.168388367E-2,-1.477212906E-1
1.112768514E1,-2.458381653E-1,8.510017395E-2,-6.559753418E-2
1.113568146E1,-2.386572361E-1,1.246762276E-1,9.450674057E-2
1.114367594E1,-2.122471333E-1,1.492552757E-1,1.503486633E-1
1.115170210E1,-1.704273224E-1,1.850638390E-1,2.147297859E-1
1.115969934E1,-1.192634106E-1,2.294030190E-1,2.495365143E-1
1.116769351E1,-1.432325840E-1,2.510237694E-1,1.403989792E-1
1.117568991E1,-2.234115601E-1,2.703084946E-1,-2.761654854E-1
1.118368461E1,-3.573184013E-1,3.398442268E-1,-8.706202507E-1
1.119168062E1,-3.397827148E-1,-8.639526367E-2,1.640467644E-1
1.119967571E1,-1.723186970E-1,-5.230307579E-1,1.297183037E0
1.120770219E1,-1.625936031E-1,-6.110215187E-1,1.069500923E0
1.121569820E1,-3.932874203E-1,-3.168764114E-1,4.330968857E-1
1.122369360E1,-4.484000206E-1,-7.657432556E-2,5.019135475E-1
1.123168930E1,-3.435797691E-1,1.818299294E-1,-4.148483276E-4
1.123968539E1,-2.786896229E-1,2.976107597E-1,1.818223000E-1
1.124767986E1,-4.599471092E-1,4.201011658E-1,3.474402428E-1
1.125567618E1,-7.778573036E-1,4.903936386E-1,-2.555899620E-1
1.126370204E1,-1.159760237E0,5.005168915E-1,-4.091176987E-1
1.127169767E1,-1.352884293E0,5.493125916E-1,-4.759712219E-1
1.127969276E1,-1.365939140E0,5.896716118E-1,-4.833669662E-1
1.128768884E1,-1.310098886E0,7.054243088E-1,-4.110851288E-1
1.129568509E1,-1.284010410E0,7.875871658E-1,-4.965696335E-1
1.130368018E1,-1.265892506E0,8.049907684E-1,-3.985037804E-1
1.131170573E1,-1.238723993E0,6.921606064E-1,-2.946128845E-1
1.131969997E1,-1.090332270E0,4.807839394E-1,-1.464323997E-1
1.132769721E1,-9.522845745E-1,3.560533524E-1,-1.808462143E-1
1.133569353E1,-8.119938374E-1,2.393054962E-1,-1.555690765E-1
1.134368855E1,-6.723914146E-1,1.908311844E-1,-1.280932426E-1
1.135168456E1,-4.758248329E-1,1.246438026E-1,-1.198043823E-1
1.135967942E1,-1.950185299E-1,1.220850945E-1,-2.278327942E-3
1.136770612E1,-2.947664261E-2,1.166763306E-1,8.071660995E-2
1.137570213E1,-3.765821457E-2,1.465835571E-1,2.437734604E-2
1.138369761E1,-1.348092556E-1,6.258583069E-2,8.755445480E-2
1.139169293E1,-1.222801208E-1,-2.513885498E-3,1.723747253E-1
1.139968932E1,2.249789238E-2,-1.537504196E-1,2.423563004E-1
1.140768410E1,1.928653717E-1,-2.981171608E-1,3.300032616E-1
1.141568042E1,2.795784473E-1,-4.776701927E-1,3.390550613E-1
1.142370590E1,3.172256947E-1,-5.838432312E-1,2.956652641E-1
1.143170168E1,2.518002987E-1,-6.847605705E-1,1.557955742E-1
1.143969669E1,2.211277485E-1,-8.181762695E-1,1.743421555E-1
1.144769332E1,3.109633923E-1,-8.608555794E-1,9.566497803E-2
1.145568841E1,4.382021427E-1,-8.875303268E-1,-8.019161224E-2
1.146368357E1,6.143851280E-1,-8.190007210E-1,-2.359833717E-1
1.147167920E1,7.032921314E-1,-7.169632912E-1,-3.136944771E-1
1.147970698E1,8.009154797E-1,-6.192288399E-1,-3.941960335E-1
1.148770138E1,8.644242287E-1,-5.573153496E-1,-4.033250809E-1
1.149569801E1,9.199848175E-1,-5.679082870E-1,-3.559875488E-1
1.150369256E1,9.154753685E-1,-5.955967903E-1,-2.125535011E-1
1.151168849E1,8.235919476E-1,-6.422848701E-1,-1.531434059E-1
1.151968327E1,6.825127602E-1,-7.191967964E-1,-1.868443489E-1
1.152767936E1,6.115860939E-1,-8.282699585E-1,-2.440519333E-1
1.153570637E1,7.519102097E-1,-9.226012230E-1,-2.938685417E-1
1.154370085E1,1.030277729E0,-9.342145920E-1,-2.607941628E-1
1.155169686E1,1.370314121E0,-8.290157318E-1,-1.919536591E-1
1.155767748E1,1.628357649E0,-7.098255157E-1,-2.107906342E-1
1.155969072E1,1.628357649E0,-7.098255157E-1,-2.107906342E-1
1.156768827E1,1.689231038E0,-6.357517242E-1,-2.297983170E-1
1.157568374E1,1.774281383E0,-6.079182625E-1,-1.641449928E-1
1.158367914E1,1.805138111E0,-6.313896179E-1,-4.926652908E-1
1.159170554E1,1.180307150E0,-5.415101051E-1,-6.520724297E-1
1.159970062E1,1.560596585E0,-1.350049019E0,3.873920441E-1
1.160769664E1,2.897538662E0,-1.758901596E0,4.015402794E-1
1.161569303E1,3.873694897E0,-1.944009304E0,3.514227867E-1
1.162368874E1,3.591592550E0,-1.633461952E0,-3.358259201E-1
1.163168344E1,2.501869202E0,-1.149426937E0,-1.083960533E0
1.163968007E1,1.617604971E0,-1.077873707E0,-6.223978996E-1
1.164770593E1,1.694867611E0,-1.445407867E0,-1.609153748E-1
1.165570202E1,2.624706984E0,-1.791695118E0,1.006956577E0
1.166369641E1,2.358129025E0,-1.399142265E0,8.665561676E-2
1.167169150E1,1.128396392E0,-7.134270668E-1,-2.540397644E-1
1.167968728E1,2.737644911E-1,-1.454095840E-1,-5.548763275E-1
1.168768322E1,-1.492719650E-1,1.222515106E-2,-1.864871979E-1
1.169567892E1,4.059624672E-2,-2.675714493E-1,2.763094902E-1
1.170370540E1,2.788602114E-1,-4.304656982E-1,6.876087189E-1
1.171169995E1,-1.330950260E-1,-3.284668922E-1,6.560964584E-1
1.171969750E1,-8.606343269E-1,-7.773733139E-2,4.490466118E-1
1.172769190E1,-1.537275553E0,1.164617538E-1,3.311080933E-1
1.173568798E1,-1.666886091E0,2.024922371E-1,3.218626976E-1
1.174368400E1,-1.338285923E0,2.005891800E-1,3.849024773E-1
1.175167870E1,-9.833035469E-1,2.629117966E-1,5.062365532E-1
1.175970464E1,-8.651876450E-1,3.766160011E-1,4.688320160E-1
1.176770057E1,-9.841935635E-1,5.354781151E-1,4.226469994E-1
1.177569697E1,-1.194424629E0,6.273279190E-1,4.867868423E-1
1.178369206E1,-1.449476242E0,5.532512665E-1,6.025328636E-1
1.179168715E1,-1.442780256E0,3.640060425E-1,7.823777199E-1
1.179769908E1,-1.304814100E0,1.991739273E-1,9.492645264E-1
1.179968131E1,-1.304814100E0,1.991739273E-1,9.492645264E-1
1.180767917E1,-1.207968712E0,1.626653671E-1,9.405035973E-1
1.181570526E1,-1.203089237E0,2.823433876E-1,8.516941071E-1
1.182370066E1,-1.230045557E0,3.898806572E-1,7.477464676E-1
1.183169674E1,-1.232345819E0,4.442691803E-1,7.654075623E-1
1.183969091E1,-1.221117496E0,4.296245575E-1,8.140463829E-1
1.184768692E1,-1.214098930E0,4.083714485E-1,7.283639908E-1
1.185568255E1,-1.279946566E0,3.880343437E-1,6.613941193E-1
1.186367825E1,-1.419416666E0,3.618149757E-1,5.988764763E-1
1.187170450E1,-1.485001802E0,3.343472481E-1,5.715036392E-1
1.187970112E1,-1.468190908E0,3.295803070E-1,4.999041557E-1
1.188769468E1,-1.348371267E0,3.713765144E-1,4.219813347E-1
1.189569223E1,-1.231022358E0,4.571576118E-1,3.495030403E-1
1.190368701E1,-1.121498823E0,5.217680931E-1,1.797814369E-1
1.191168271E1,-9.466788769E-1,5.321421623E-1,1.905250549E-2
1.191967749E1,-7.090511322E-1,5.172986984E-1,-2.177305222E-1
1.192770427E1,-4.480609894E-1,5.091066360E-1,-4.216971397E-1
1.193570029E1,-1.686789989E-1,5.614652634E-1,-6.301975250E-1
1.194369599E1,9.673428535E-2,7.058606148E-1,-9.597902298E-1
1.195169100E1,2.106313705E-1,8.656630516E-1,-1.165458202E0
1.195968824E1,3.268809319E-1,1.022052765E0,-1.300523281E0
1.196768218E1,3.951387405E-1,1.121865273E0,-1.410073280E0
1.197567812E1,4.742677212E-1,1.265384674E0,-1.489059448E0
1.198370459E1,4.069254398E-1,1.385927200E0,-1.572914600E0
1.199169937E1,3.165373802E-1,1.487359524E0,-1.474126339E0
1.199969538E1,2.338950634E-1,1.569238186E0,-1.439780235E0
1.200769086E1,2.220818996E-1,1.588778019E0,-1.345770836E0
1.201568710E1,2.559726238E-1,1.567829132E0,-1.261760235E0
1.202368196E1,2.890954018E-1,1.571545601E0,-1.151803017E0
1.203167758E1,3.261389732E-1,1.583452702E0,-9.964976311E-1
1.203970283E1,1.868369579E-1,1.457663059E0,-4.966239929E-1
1.204769984E1,-9.749650955E-3,1.362007141E0,-2.875008583E-1
1.205569554E1,-2.491443157E-1,1.168566227E0,-7.436180115E-2
1.206369094E1,-2.930874825E-1,9.975924492E-1,3.843164444E-2
1.207168695E1,-3.216576576E-1,6.543598175E-1,1.875128746E-1
1.207968227E1,-2.825086117E-1,2.344884872E-1,3.480772972E-1
1.208767890E1,-2.756569386E-1,-1.805725098E-1,4.032301903E-1
1.209570476E1,-1.792716980E-1,-3.737945557E-1,-2.287412643E0
1.210369985E1,1.872897148E-1,-1.277591705E0,1.375946999E-1
1.211169501E1,-6.124746799E-1,-2.280789852E0,1.683547974E0
1.211969187E1,-2.140094280E0,-2.666917801E0,4.138597965E0
1.212768642E1,-3.288195610E0,-2.085369110E0,4.080604076E0
1.213568243E1,-3.531435251E0,-1.181108475E0,2.346326828E0
1.214367783E1,-2.595053434E0,-5.725927353E-1,7.314782143E-1
1.215170369E1,-9.903922081E-1,7.575511932E-3,-4.941082001E-2
1.215969939E1,2.282142639E-3,3.449673653E-1,3.713750839E-2
1.216769510E1,2.692410946E-1,7.183756828E-1,1.305885315E-1
1.217569049E1,-1.333608627E-1,1.063167095E0,-2.545309067E-2
1.218368612E1,-4.871382713E-1,1.127943516E0,-2.442331314E-1
1.219168160E1,-4.405498505E-1,1.024919510E0,-3.844118118E-1
1.219967845E1,-1.201455593E-1,8.023452759E-1,-3.573775291E-1
1.220770285E1,2.202045918E-1,6.544861794E-1,-3.342790604E-1
1.221570032E1,4.044110775E-1,6.403441429E-1,-3.910350800E-1
1.222369511E1,4.972038269E-1,6.353297234E-1,-3.496046066E-1
1.223168989E1,5.582547188E-1,6.783652306E-1,-3.925328255E-1
1.223968590E1,5.147433281E-1,7.000832558E-1,-4.402356148E-1
1.224768191E1,3.220605850E-1,7.239508629E-1,-5.085825920E-1
1.225567831E1,9.653973579E-2,7.150650024E-1,-5.349440575E-1
1.226370378E1,-2.565002441E-2,6.706027985E-1,-5.763235092E-1
1.227169864E1,1.258428097E-1,6.044573784E-1,-6.080527306E-1
1.227969311E1,3.569097519E-1,4.100928307E-1,-6.478428841E-1
1.228769036E1,5.458834171E-1,1.364207268E-1,-6.256546974E-1
1.229568698E1,7.093224525E-1,-2.796697617E-2,-2.509058475E0
1.230368107E1,1.176612616E0,-9.366374016E-1,-5.001692772E-1
1.231167716E1,6.531620026E-1,-1.847349644E0,6.079001427E-1
1.231970271E1,-9.065840244E-1,-2.267623901E0,2.394141674E0
1.232769903E1,-2.294925213E0,-1.873083115E0,2.169154167E0
1.233569535E1,-2.414275646E0,-1.339420319E0,1.245841026E0
1.234369036E1,-1.243170023E0,-8.774428368E-1,1.862831116E-1
1.235168584E1,-1.562666893E-1,-5.023188591E-1,-1.830711365E-1
1.235968300E1,3.263521194E-1,-1.420054436E-1,-4.685163498E-2
1.236767717E1,-8.159399033E-3,1.524782181E-1,-7.547092438E-2
1.237570426E1,-4.393746853E-1,3.231062889E-1,-2.724390030E-1
1.238369881E1,-4.576783180E-1,3.625640869E-1,-5.331602097E-1
1.239169413E1,-1.451022625E-1,3.455200195E-1,-5.544123650E-1
1.239968953E1,2.709095478E-1,3.610358238E-1,-4.536261559E-1
1.240768531E1,4.247035980E-1,5.045237541E-1,-3.155984879E-1
1.241568216E1,4.603462219E-1,6.536068916E-1,-2.136230469E-1
1.242367733E1,4.126017094E-1,7.968158722E-1,-1.936869621E-1
1.243170342E1,2.713749409E-1,8.661150932E-1,-1.744232178E-1
1.243969982E1,5.787086487E-2,8.050117493E-1,-3.646421432E-2
1.244769421E1,-1.209726334E-1,7.434563637E-1,1.125836372E-1
1.245569084E1,-1.877183914E-1,6.061692238E-1,2.946157455E-1
1.246368562E1,-1.512699127E-1,4.615297318E-1,4.319458008E-1
1.247168140E1,-7.385540009E-2,4.226808548E-1,5.774688721E-2
1.247970718E1,1.539309025E-1,4.705195427E-1,-1.173320770E0
1.248770289E1,8.013520241E-1,4.320507050E-1,-2.320683479E0
1.249569952E1,1.367856979E0,-6.089582443E-1,-2.216267586E-1
1.250369376E1,6.081962585E-2,-1.671995163E0,2.571841240E0
1.251169000E1,-1.878062725E0,-1.693724155E0,2.107919693E0
1.251770109E1,-3.057645798E0,-1.072110653E0,1.672451019E0
1.251968394E1,-3.040886402E0,-9.859194756E-1,1.524009705E0
1.252768087E1,-2.301142216E0,-6.346735954E-1,3.554916382E-1
1.253570819E1,-3.889980316E-1,-2.511062622E-1,-6.551733017E-1
1.254370297E1,6.380395889E-1,-5.027627945E-2,-4.198474884E-1
1.255169837E1,5.975604057E-1,4.108905792E-2,-1.981096268E-1
1.255969315E1,-3.384811878E-1,7.933473587E-2,-3.641648293E-1
1.256769009E1,-8.651764393E-1,-2.084875107E-2,-5.288624763E-1
1.257568579E1,-6.583528519E-1,-1.678934097E-1,-4.973711967E-1
1.258368119E1,-8.692169189E-2,-1.909179688E-1,-3.161406517E-1
1.259170651E1,4.098038673E-1,1.120042801E-2,7.370948792E-3
1.259970313E1,5.521745682E-1,2.533426285E-1,1.193966866E-1
1.260769853E1,5.065214634E-1,4.326405525E-1,2.068915367E-1
1.261569454E1,4.035532475E-1,5.185914040E-1,2.025642395E-1
1.262368956E1,1.967091560E-1,5.270476341E-1,1.996088028E-1
1.263168464E1,4.474973679E-2,5.837545395E-1,2.270984650E-1
1.263967973E1,-1.651048660E-2,6.420502663E-1,2.715854645E-1
1.264770682E1,1.056971550E-1,7.058858871E-1,2.804026604E-1
1.265570291E1,2.097709179E-1,7.069096565E-1,2.278919220E-1
1.266369885E1,2.356047630E-1,7.149348259E-1,-2.036342621E-1
1.267169363E1,3.287794590E-1,7.245464325E-1,-8.735685349E-1
1.267969118E1,9.179463387E-1,7.784452438E-1,-3.237793922E0
1.268768565E1,1.821614623E0,-3.675241470E-1,-6.722378731E-1
1.269568143E1,7.749049664E-1,-1.279472828E0,1.364862442E0
1.270370691E1,-1.346065283E0,-1.460214615E0,2.416050434E0
1.271170230E1,-2.768357277E0,-1.020874023E0,1.600499630E0
1.271969739E1,-1.957432747E0,-6.795649529E-1,2.273373604E-1
1.272769310E1,1.408038139E-1,-4.169492722E-1,-6.324987411E-1
1.273568972E1,1.286573887E0,-1.209936142E-1,-4.708404541E-1
1.274368489E1,1.166376948E0,1.629734039E-1,-1.538252831E-1
1.275168029E1,7.064604759E-2,3.895616531E-1,-1.106505394E-1
1.275769199E1,-4.983747005E-1,3.003735542E-1,-1.625885963E-1
1.275970491E1,-4.983747005E-1,3.003735542E-1,-1.625885963E-1
1.276770177E1,-3.431546688E-1,4.974937439E-2,-7.600545883E-2
1.277569817E1,6.103062630E-2,-5.189800262E-2,6.510543823E-2
1.278369295E1,2.644634247E-1,6.111574173E-2,3.062767982E-1
1.279168889E1,1.590497494E-1,3.116250038E-1,4.060802460E-1
1.279968436E1,7.497143745E-2,3.975558281E-1,5.067863464E-1
1.280768006E1,-7.344985008E-2,4.153623581E-1,4.396357536E-1
1.281570746E1,-1.997394562E-1,3.922438622E-1,3.443126678E-1
1.282370186E1,-2.415659428E-1,4.227576256E-1,1.365580559E-1
1.283169733E1,-9.644079208E-2,5.151672363E-1,-8.864021301E-2
1.283969396E1,1.349685192E-1,5.955576897E-1,-1.960530281E-1
1.284768843E1,3.912475109E-1,7.491483688E-1,-7.659912109E-1
1.285568537E1,6.718161106E-1,8.575253487E-1,-1.310660839E0
1.286368038E1,1.115095139E0,7.947816849E-1,-1.608644485E0
1.287170654E1,1.578193903E0,7.374668121E-1,-3.794291496E0
1.287970133E1,2.499267340E0,-1.747770309E-1,-1.815181255E0
1.288769742E1,1.783335209E0,-1.295520782E0,-1.445975304E-1
1.289569343E1,-3.618249893E-1,-1.848248482E0,1.867175579E0
1.290368882E1,-2.604508162E0,-1.539153576E0,1.406708241E0
1.291168453E1,-2.880743980E0,-1.188997269E0,2.581129074E-1
1.291968046E1,-1.337760925E0,-9.487719536E-1,-1.796679497E-1
1.292770571E1,1.243202686E-1,-6.117186546E-1,8.311080933E-2
1.293570180E1,1.935672760E-1,-2.326951027E-1,3.152680397E-1
1.294369742E1,-4.981131554E-1,1.313881874E-1,1.980257034E-1
1.295169251E1,-8.317506313E-1,2.276759148E-1,-3.002834320E-2
1.295968737E1,-5.605974197E-1,1.307954788E-1,4.971027374E-3
1.296768400E1,-1.592938900E-1,5.324792862E-2,1.193156242E-1
1.297568024E1,5.285382271E-2,1.731300354E-1,1.481995583E-1
1.298370579E1,4.419279099E-2,3.152976036E-1,1.936602592E-1
1.299170057E1,5.949258804E-2,4.352555275E-1,2.088789940E-1
1.299969543E1,8.411169052E-2,5.010662079E-1,2.156019211E-1
1.300769329E1,8.278727531E-2,5.101418495E-1,1.947817802E-1
1.301568899E1,1.639552116E-1,5.108885765E-1,1.639046669E-1
1.302368377E1,3.777453899E-1,5.336956978E-1,7.163190842E-2
1.303167948E1,5.499465466E-1,5.450644493E-1,-2.473826408E-1
1.303970495E1,8.134329319E-1,6.809740067E-1,-9.111676216E-1
1.304770127E1,1.134541750E0,6.584558487E-1,-1.031896591E0
1.305569736E1,1.728356719E0,-7.547235489E-2,-8.816943169E-1
1.306369176E1,1.887084723E0,-1.331053734E0,6.487026215E-1
1.307168808E1,-2.790074348E-1,-1.196166992E0,4.422760010E-2
1.307968501E1,-2.130427599E0,-8.857126236E-1,2.003095627E0
1.308767895E1,-1.983811617E0,-7.521352768E-1,1.561484337E0
1.309570604E1,-8.048295975E-3,-7.047147751E-1,7.783498764E-1
1.310370105E1,1.045197368E0,-4.150986671E-1,2.363200188E-1
1.311169675E1,6.299278736E-1,5.015563965E-2,-1.629261971E-1
1.311969154E1,-6.042320728E-1,3.445153236E-1,-1.511716843E-1
1.312768824E1,-9.802274704E-1,3.187537193E-1,-3.798484802E-2
1.313568333E1,-4.231109619E-1,1.860017776E-1,-1.280436516E-1
1.314367934E1,1.256239414E-1,1.811904907E-1,-1.994781494E-1
1.315170581E1,2.202441692E-1,3.222393990E-1,-6.568336487E-2
1.315970213E1,5.832672119E-2,5.016322136E-1,1.963334084E-1
1.316769692E1,-5.880522728E-2,5.647649765E-1,4.774079323E-1
1.317569231E1,-7.498240471E-2,4.997868538E-1,7.296257019E-1
1.318368771E1,-1.848773956E-1,4.343767166E-1,7.321968079E-1
1.319168334E1,-3.759636879E-1,3.697447777E-1,6.105356216E-1
1.319967842E1,-5.006904602E-1,3.268561363E-1,4.586896896E-1
1.320770551E1,-4.335684776E-1,2.725214958E-1,4.314727783E-1
1.321570183E1,-2.194125652E-1,2.238383293E-1,3.378696442E-1
1.322369662E1,-4.907941818E-2,2.841978073E-1,-4.395484924E-3
1.323169178E1,2.332422733E-1,4.704794884E-1,-6.769199371E-1
1.323968587E1,9.441819191E-1,2.465591431E-1,-1.509152889E0
1.324768319E1,1.534607768E0,-6.663236618E-1,8.563423157E-2
1.325567974E1,6.401326656E-1,-1.442979813E0,-4.730911255E-1
1.326370437E1,-1.616137028E0,-1.256124973E0,8.249073029E-1
1.327170015E1,-2.377537966E0,-6.448173523E-1,1.501862526E0
1.327969585E1,-1.017554522E0,-5.475597382E-1,7.321896553E-1
1.328769187E1,8.753347397E-1,-4.039111137E-1,-1.256246567E-1
1.329568757E1,1.302688956E0,-9.288930893E-2,-6.042761803E-1
1.330368358E1,2.549593449E-1,2.250976562E-1,-7.335529327E-1
1.331167890E1,-7.877864838E-1,2.856750488E-1,-5.912947655E-1
1.331970599E1,-6.879782677E-1,1.762413979E-1,-5.886340141E-1
1.332770046E1,7.201600075E-2,1.422457695E-1,-7.240486145E-1
1.333569648E1,4.980723858E-1,2.629537582E-1,-6.279549599E-1
1.334369095E1,4.627707005E-1,5.251736641E-1,-4.921569824E-1
1.335168735E1,3.047368526E-1,7.344942093E-1,-2.619981766E-1
1.335968236E1,2.900857925E-1,7.195158005E-1,5.726528168E-2
1.336767845E1,2.991454601E-1,6.260552406E-1,1.125483513E-1
1.337570492E1,1.997141838E-1,5.547504425E-1,8.951330185E-2
1.338369993E1,-3.763866425E-2,4.884872437E-1,7.955837250E-2
1.339169594E1,-1.586713791E-1,4.311380386E-1,6.727457047E-2
1.339969288E1,-1.181101799E-1,2.986879349E-1,1.452450752E-1
1.340768705E1,-5.160570145E-3,1.617779732E-1,5.415582657E-2
1.341568306E1,2.461671829E-3,1.179137230E-1,-2.000060081E-1
1.342370922E1,-6.832599640E-3,8.500766754E-2,-5.641522408E-1
1.343170408E1,1.479299068E-1,9.732770920E-2,-2.124975681E0
1.343969971E1,1.140542507E0,-8.095083237E-1,-9.071421623E-1
1.344769549E1,4.895036221E-1,-2.185536385E0,2.719569206E-1
1.345569173E1,-1.530662775E0,-2.406451225E0,2.127339363E0
1.346368690E1,-3.015522242E0,-1.403285980E0,2.252886295E0
1.347168345E1,-2.301171541E0,-7.832875252E-1,1.359185219E0
1.347769369E1,3.533196449E-2,-3.030133247E-1,-2.586035728E-1
1.347970692E1,3.533196449E-2,-3.030133247E-1,-2.586035728E-1
1.348770447E1,8.956294060E-1,2.733373642E-2,-5.366849899E-1
1.349570049E1,8.627862930E-1,3.558192253E-1,-3.766756058E-1
1.350369558E1,-5.627465248E-2,5.457191467E-1,-2.147383690E-1
1.351169151E1,-4.516127110E-1,5.410470963E-1,-3.781957626E-1
1.351968660E1,-1.401314735E-1,4.308934212E-1,-5.501179695E-1
1.352768269E1,2.898821831E-1,3.287138939E-1,-4.642710686E-1
1.353570939E1,5.395495892E-1,3.713841438E-1,-3.749485016E-1
1.354370425E1,4.940958023E-1,4.851450920E-1,-2.821130753E-1
1.355170019E1,4.373428822E-1,5.592808723E-1,-1.942930222E-1
1.355969628E1,4.135770798E-1,5.379858017E-1,-1.125993729E-1
1.356769137E1,3.309409618E-1,5.118021965E-1,-2.199316025E-2
1.357568738E1,9.460806847E-2,4.904441833E-1,-5.704784393E-2
1.358368239E1,-6.863999367E-2,4.696764946E-1,-1.687006950E-1
1.359170832E1,-1.441688538E-1,4.376363754E-1,-2.025241852E-1
1.359970341E1,-1.067419052E-1,3.825941086E-1,-2.463631630E-1
1.360769966E1,-1.315066814E-1,4.232168198E-1,-5.386691093E-1
1.361569513E1,-2.192032337E-1,5.031785965E-1,-6.310825348E-1
1.362369076E1,-2.860529423E-1,4.871015549E-1,-5.414295197E-1
1.363168685E1,-3.693938255E-1,3.477354050E-1,-6.938061714E-1
1.363968317E1,-3.382396698E-2,2.503533363E-1,-2.135308743E0
1.364770872E1,-1.088049412E-1,-4.766402245E-1,4.231967926E-1
1.365570465E1,-1.718329668E0,-8.508577347E-1,1.970375538E0
1.366369912E1,-2.915477037E0,-6.105108261E-1,1.994746685E0
1.367169552E1,-3.175094843E0,-7.432651520E-2,1.514872074E0
1.367969061E1,-2.476572037E0,1.967172623E-1,7.474036217E-1
1.368768632E1,-1.386296988E0,3.816666603E-1,3.286585808E-1
1.369568317E1,-9.788715839E-1,5.940117836E-1,3.378510475E-1
1.370370872E1,-1.199780464E0,7.225999832E-1,1.403012276E-1
1.371170358E1,-1.574448347E0,6.839914322E-1,2.249264717E-1
1.371570082E1,-1.568155289E0,6.314764023E-1,-1.090369225E-1
1.371768513E1,-1.376619339E0,6.266880035E-1,-2.670540810E-1
1.371969767E1,-1.376619339E0,6.266880035E-1,-2.670540810E-1
1.372769461E1,-9.112851620E-1,6.463055611E-1,-2.783036232E-1
1.373569100E1,-7.704145908E-1,7.794947624E-1,-3.710870743E-1
1.374368694E1,-8.965446949E-1,8.675565720E-1,-4.190273285E-1
1.375168149E1,-9.413781166E-1,8.096246719E-1,-4.395775795E-1
1.375970789E1,-8.112652302E-1,6.857099533E-1,-2.986736298E-1
1.376770336E1,-5.623824596E-1,4.858460426E-1,-1.664566994E-1
1.377569999E1,-4.908881187E-1,4.093327522E-1,-1.404566765E-1
1.378369446E1,-5.798077583E-1,4.273838997E-1,-1.130113602E-1
1.379168986E1,-6.379637718E-1,3.983235359E-1,-9.782552719E-2
1.379968764E1,-5.475413799E-1,3.216767311E-1,-3.038787842E-1
1.380768096E1,-3.674535751E-1,7.220506668E-2,-4.051833153E-1
1.381570836E1,6.240844727E-2,-1.579947472E-1,-1.122608185E-1
1.382370375E1,4.222228527E-1,-3.279237747E-1,-9.856557846E-2
1.383169853E1,5.422234535E-1,-4.261760712E-1,-5.245208740E-2
1.383969416E1,4.778544903E-1,-4.749093056E-1,-1.022162437E-1
1.384769048E1,5.065524578E-1,-5.659174919E-1,-1.257200241E-1
1.385568618E1,6.873502731E-1,-6.000289917E-1,-1.341886520E-1
1.386368096E1,8.558547497E-1,-5.671334267E-1,-1.055846214E-1
1.387170713E1,8.848183155E-1,-4.974861145E-1,-1.255183220E-1
1.387970407E1,7.981464863E-1,-4.332084656E-1,-1.912975311E-1
1.388769916E1,6.916813850E-1,-4.389514923E-1,-2.942924500E-1
1.389569455E1,6.461582184E-1,-4.666514397E-1,-4.405303001E-1
1.390368995E1,6.459441185E-1,-5.564513206E-1,-4.148068428E-1
1.391168573E1,6.556282043E-1,-5.982971191E-1,-3.451323509E-1
1.391968082E1,6.203103065E-1,-6.473002434E-1,-4.157652855E-1
1.392770698E1,6.375861168E-1,-6.483259201E-1,-3.970856667E-1
1.393570354E1,6.935236454E-1,-6.284031868E-1,-3.970918655E-1
1.394369870E1,7.809426785E-1,-5.761194229E-1,-4.114055634E-1
1.395169433E1,7.972979546E-1,-4.803347588E-1,-3.662242889E-1
1.395770603E1,7.103464603E-1,-3.419556618E-1,-2.017016411E-1
1.395968880E1,7.103464603E-1,-3.419556618E-1,-2.017016411E-1
1.396768574E1,6.378672123E-1,-3.408069611E-1,-3.511571884E-2
1.397568183E1,5.563743114E-1,-3.932442665E-1,1.393651962E-2
1.398370707E1,4.960005283E-1,-4.842195511E-1,9.629821777E-2
1.399170331E1,4.676246643E-1,-5.657014847E-1,1.444535255E-1
1.399969809E1,5.229592323E-1,-5.472607613E-1,1.430544853E-1
1.400769388E1,6.059653759E-1,-5.528049469E-1,2.038741112E-1
1.401569042E1,7.295479774E-1,-5.165023804E-1,1.451668739E-1
1.402368490E1,9.514827728E-1,-5.904960632E-1,1.391634941E-1
1.403168122E1,1.139452457E0,-6.537780762E-1,3.588962555E-2
1.403970831E1,1.305405140E0,-7.383799553E-1,-1.482152939E-2
1.404770286E1,1.414210320E0,-7.488570213E-1,4.048824310E-3
1.405569910E1,1.501394749E0,-7.307543755E-1,-2.253150940E-2
1.406369334E1,1.485824823E0,-6.314849854E-1,-9.196138382E-2
1.407168966E1,1.399734497E0,-5.329275131E-1,-1.177792549E-1
1.407968468E1,1.298117399E0,-4.345736504E-1,-8.128881454E-2
1.408768069E1,1.271188974E0,-3.829679489E-1,-5.447340012E-2
1.409570785E1,1.272615314E0,-4.155778885E-1,-7.529687881E-2
1.410370264E1,1.268625855E0,-4.718766212E-1,-6.424999237E-2
1.411169865E1,1.266129732E0,-5.202484131E-1,-8.562088013E-2
1.411969589E1,1.188582420E0,-5.463805199E-1,1.869201660E-3
1.412768975E1,1.127420664E0,-5.895123482E-1,8.984375000E-2
1.413568607E1,1.030284047E0,-6.186718941E-1,1.708431244E-1
1.414368108E1,9.128607512E-1,-6.651358604E-1,1.995983124E-1
1.415170732E1,7.816700935E-1,-7.845120430E-1,3.173503876E-1
1.415970210E1,8.736327887E-1,-9.874372482E-1,5.156588554E-1
1.416769804E1,8.914625645E-1,-1.004538059E0,4.712047577E-1
1.417569413E1,6.874718666E-1,-7.672643661E-1,3.091983795E-1
1.418368922E1,4.510276318E-1,-4.694170952E-1,2.835693359E-1
1.419168515E1,1.995568275E-1,-1.255841255E-1,1.381173134E-1
1.419967870E1,-5.034637451E-2,8.009147644E-2,5.816173553E-2
1.420770702E1,-2.145154476E-1,1.285214424E-1,5.580949783E-2
1.421570334E1,-4.862921238E-1,1.809725761E-1,1.042914391E-1
1.422369751E1,-7.025563717E-1,2.348318100E-1,1.795444489E-1
1.423169291E1,-1.004190922E0,2.253699303E-1,2.573566437E-1
1.423968869E1,-1.182291269E0,2.659950256E-1,1.895642281E-1
1.424768501E1,-1.314392805E0,3.012194633E-1,1.673245430E-1
1.425568094E1,-1.301371336E0,3.466529846E-1,7.406044006E-2
1.426370618E1,-1.116968155E0,3.810825348E-1,-4.388523102E-2
1.427170227E1,-6.785912514E-1,3.244190216E-1,1.117329597E-1
1.427969944E1,-4.381103516E-1,3.538827896E-1,-3.197383881E-2
1.428769299E1,-3.696374893E-1,3.405265808E-1,-2.145814896E-2
1.429569000E1,-3.408164978E-1,2.596473694E-1,5.993556976E-2
1.430368440E1,-2.608213425E-1,1.685233116E-1,5.489349365E-2
1.431168041E1,-9.808325768E-2,1.249179840E-1,1.003522873E-1
1.431970635E1,3.137469292E-2,8.168029785E-2,1.175761223E-1
1.432770267E1,2.073585987E-1,9.534740448E-2,1.231307983E-1
1.433569776E1,3.330931664E-1,1.147732735E-1,1.358795166E-1
1.434369369E1,3.548467159E-1,1.150393486E-1,1.985173225E-1
1.435168916E1,3.210027218E-1,1.290025711E-1,1.549940109E-1
1.435968633E1,2.455670834E-1,1.545996666E-1,4.139757156E-2
1.436767957E1,2.166869640E-1,2.304916382E-1,1.111364365E-2
1.437570697E1,2.002689838E-1,2.897133827E-1,2.328252792E-2
1.438370183E1,2.408461571E-1,3.588161469E-1,5.857372284E-2
1.439169753E1,2.344288826E-1,3.711500168E-1,1.049718857E-1
1.439969231E1,1.452655792E-1,4.005227089E-1,2.124509811E-1
1.440768863E1,3.701996803E-2,3.999085426E-1,3.777751923E-1
1.441568495E1,-3.301548958E-2,3.518142700E-1,4.503278732E-1
1.442370989E1,-6.063795090E-2,2.723808289E-1,5.236353874E-1
1.443170613E1,-1.113801003E-1,2.631731033E-1,3.933043480E-1
1.443970037E1,-2.224118710E-1,2.235693932E-1,1.648187637E-1
1.444769815E1,-3.770596981E-1,2.126631737E-1,1.798033714E-1
1.445569332E1,-4.584305286E-1,2.527551651E-1,2.498784065E-1
1.446368841E1,-5.043742657E-1,4.096035957E-1,2.352366447E-1
1.447168442E1,-5.015187263E-1,5.536327362E-1,2.693681717E-1
1.447970990E1,-4.310925007E-1,6.104025841E-1,1.353077888E-1
1.448770599E1,-3.998911381E-1,6.162443161E-1,-8.123064041E-2
1.449570200E1,-3.963465691E-1,5.946688652E-1,-2.925348282E-1
1.450369701E1,-4.772372246E-1,5.606112480E-1,-4.643859863E-1
1.451169271E1,-5.014655590E-1,5.400886536E-1,-5.492773056E-1
1.451968911E1,-5.781655312E-1,4.889464378E-1,-5.549459457E-1
1.452768358E1,-5.545775890E-1,4.423170090E-1,-5.133843422E-1
1.453571067E1,-4.963004589E-1,3.595089912E-1,-5.686135292E-1
1.454370599E1,-3.795979023E-1,2.940196991E-1,-5.868711472E-1
1.455170146E1,-3.799929619E-1,3.155598640E-1,-6.472215652E-1
1.455969648E1,-4.936544895E-1,3.182535172E-1,-6.633701324E-1
1.456769218E1,-5.918481350E-1,3.184309006E-1,-6.924171448E-1
1.457568858E1,-6.224234104E-1,2.752599716E-1,-7.193746567E-1
1.458368367E1,-6.111142635E-1,2.152881622E-1,-7.869067192E-1
1.459170983E1,-6.150453091E-1,1.819419861E-1,-8.682370186E-1
1.459970646E1,-6.957609653E-1,1.748681068E-1,-8.723921776E-1
1.460770178E1,-7.397143841E-1,1.068806648E-1,-8.069930077E-1
1.461569687E1,-7.689886093E-1,2.790975571E-2,-8.353319168E-1
1.462369227E1,-7.536146641E-1,-3.042936325E-2,-7.514934540E-1
1.463168805E1,-7.599110603E-1,-1.345539093E-2,-6.713747978E-1
1.463968368E1,-8.535089493E-1,8.081626892E-2,-5.693845749E-1
1.464770984E1,-8.714022636E-1,1.418452263E-1,-5.535464287E-1
1.465570616E1,-8.466105461E-1,1.484360695E-1,-6.137557030E-1
1.467169672E1,-6.829109192E-1,5.953598022E-2,-4.798521996E-1
1.467770750E1,-5.737626553E-1,-6.290626526E-2,-3.671178818E-1
1.467969089E1,-5.737626553E-1,-6.290626526E-2,-3.671178818E-1
1.468768752E1,-5.607023239E-1,-1.046876907E-1,-3.019003868E-1
1.469568414E1,-5.865554810E-1,-1.469774246E-1,-3.702816963E-1
1.470370908E1,-5.313527584E-1,-9.459161758E-2,-7.605648041E-1
1.471170502E1,-5.969171524E-1,-7.644414902E-2,-7.232770920E-1
1.471970049E1,-5.736310482E-1,-6.411600113E-2,-3.524670601E-1
1.472769650E1,-4.759557247E-1,-1.815271378E-2,-1.365089417E-1
1.473569305E1,-4.488289356E-1,-7.534980774E-3,4.650878906E-2
1.474368822E1,-4.355010986E-1,8.233070374E-3,1.252307892E-1
1.475168384E1,-4.098620415E-1,-2.547597885E-2,-3.419289589E-1
1.475971155E1,-2.326567173E-1,-1.678209305E-1,1.361398697E-1
1.476770548E1,-5.601911545E-1,-3.179807663E-1,4.175105095E-1
1.477570204E1,-1.045613766E0,-5.517573357E-1,8.725662231E-1
1.478369597E1,-1.123449564E0,-8.204593658E-1,9.611859322E-1
1.479169167E1,-1.068248987E0,-9.410572052E-1,9.590616226E-1
1.479968699E1,-9.906468391E-1,-8.656930923E-1,9.880433083E-1
1.480768362E1,-7.941074371E-1,-5.726852417E-1,8.810057640E-1
1.481571071E1,-4.805097580E-1,-3.134584427E-1,7.650423050E-1
1.482370495E1,-7.062530518E-2,-1.975564957E-1,6.424388885E-1
1.483170089E1,2.391378880E-1,-1.788311005E-1,4.936180115E-1
1.483969698E1,4.057943821E-1,-2.057423592E-1,3.834881783E-1
1.484769145E1,5.710859299E-1,-1.821203232E-1,2.576069832E-1
1.485568862E1,7.121698856E-1,-1.249485016E-1,3.221397400E-1
1.486368309E1,8.844225407E-1,-1.043944359E-1,5.108060837E-1
1.487170964E1,9.148807526E-1,-1.399292946E-1,6.089544296E-1
1.487970442E1,8.289787769E-1,-2.004232407E-1,5.718345642E-1
1.488770005E1,7.968425751E-1,-2.186508179E-1,5.789980888E-1
1.489569606E1,8.569259644E-1,-2.093353271E-1,5.952720642E-1
1.490369184E1,1.001565337E0,-1.413669586E-1,6.108675003E-1
1.491168747E1,1.093405485E0,-5.757904053E-2,6.017365456E-1
1.491968102E1,1.176284194E0,6.394147873E-2,5.460333824E-1
1.492770903E1,1.160863280E0,9.668922424E-2,5.492081642E-1
1.493570543E1,1.048069119E0,1.697874069E-1,5.133471489E-1
1.494370021E1,8.255692720E-1,2.107520103E-1,5.559663773E-1
1.495169622E1,6.625535488E-1,2.735881805E-1,6.431627274E-1
1.495969100E1,7.219015360E-1,2.899079323E-1,1.001160622E0
1.496768694E1,9.244756699E-1,3.146014214E-1,1.343985558E0
1.497568364E1,1.112707615E0,4.659585953E-1,1.299930096E0
1.498370889E1,1.418579221E0,7.359795570E-1,1.052468777E0
1.499170459E1,1.670038462E0,9.049744606E-1,9.145083427E-1
1.499970122E1,1.732542038E0,9.412565231E-1,8.268427849E-1
1.500769623E1,1.482311487E0,8.343005180E-1,9.361352921E-1
1.501569255E1,1.151587844E0,6.719856262E-1,1.161864758E0
1.502368703E1,8.482965231E-1,5.030021667E-1,1.588831902E0
1.503168311E1,6.744787693E-1,4.143810272E-1,1.834681034E0
1.503970828E1,5.160535574E-1,3.545188904E-1,1.953898907E0
1.504770498E1,3.484972715E-1,4.053001404E-1,1.849391460E0
1.505570030E1,4.826235771E-2,4.904489517E-1,1.723754406E0
1.506369516E1,-3.007657528E-1,5.828490257E-1,1.467913151E0
1.507169110E1,-5.530116558E-1,6.457691193E-1,1.176834583E0
1.507968780E1,-6.910510063E-1,6.028666496E-1,9.706535339E-1
1.508768197E1,-6.074903011E-1,4.780707359E-1,8.923702240E-1
1.509570867E1,-4.910714626E-1,2.551865578E-1,7.934217453E-1
1.510370384E1,-4.117677212E-1,4.512596130E-2,7.884702682E-1
1.511169954E1,-3.624508381E-1,-7.365036011E-2,5.842609406E-1
1.511969455E1,-4.603147507E-1,-1.200613976E-1,3.701286316E-1
1.512769087E1,-5.697348118E-1,-8.911085129E-2,1.921553612E-1
1.513568758E1,-6.481940746E-1,3.459930420E-3,-1.806263924E-1
1.514368228E1,-6.522078514E-1,5.595922470E-2,-4.431552887E-1
1.515170845E1,-5.351579189E-1,9.717178345E-2,-7.531309128E-1
1.515970262E1,-3.604338169E-1,1.192302704E-1,-1.094626904E0
1.516769932E1,-2.025425434E-1,1.366648674E-1,-1.333547115E0
1.517569502E1,7.186841965E-2,9.689283371E-2,-1.512930870E0
1.518369096E1,2.692153454E-1,8.127450943E-2,-1.695053101E0
1.519168674E1,2.861871719E-1,1.351375580E-1,-1.859612465E0
1.519968175E1,2.079248428E-2,1.873431206E-1,-1.760231495E0
1.520770799E1,-2.873828411E-1,1.146645546E-1,-1.485527039E0
1.521570455E1,-5.424087048E-1,-1.262474060E-1,-1.418694973E0
1.522369940E1,-5.480272770E-1,-3.830137253E-1,-1.492328644E0
1.523169449E1,-4.349186420E-1,-5.753211975E-1,-1.797629833E0
1.523969235E1,-3.829805851E-1,-6.580672264E-1,-2.168132305E0
1.524768682E1,-3.881719112E-1,-6.890578270E-1,-2.725754261E0
1.525568284E1,-3.915994167E-1,-8.223338127E-1,-2.987001419E0
1.526370808E1,-3.893203735E-1,-1.008548737E0,-3.089130878E0
1.527170317E1,-2.412307262E-1,-1.244755745E0,-3.046387672E0
1.527969941E1,-6.085634232E-2,-1.487635136E0,-2.763124466E0
1.528769458E1,3.554773331E-2,-1.718318939E0,-2.177587986E0
1.529569113E1,-6.831479073E-2,-1.950496674E0,-1.640188694E0
1.530368591E1,-2.178595066E-1,-2.097000599E0,-1.197787285E0
1.531168138E1,-3.849203587E-1,-2.131018162E0,-6.552934647E-1
1.531970878E1,-5.504341125E-1,-2.033688545E0,-6.380510330E-1
1.532770379E1,-1.034741640E0,-1.617190361E0,-7.170524597E-1
1.533569926E1,-1.441637039E0,-1.232259274E0,-3.696737289E-1
1.534369435E1,-1.534265518E0,-1.012173653E0,-3.424596786E-1
1.535169060E1,-1.251914024E0,-8.907418251E-1,-2.412753105E-1
1.535968546E1,-8.869838715E-1,-7.501997948E-1,-3.650197983E-1
1.536771224E1,-4.552483559E-1,-6.934208870E-1,-3.734135628E-1
1.537570763E1,-1.039090157E-1,-6.597347260E-1,-2.911314964E-1
1.538370334E1,2.367160320E-1,-5.382485390E-1,-1.783294678E-1
1.539169866E1,3.667700291E-1,-3.983182907E-1,-7.863903046E-2
1.539771067E1,4.948556423E-1,-9.826946259E-2,-3.581914902E-1
1.539969259E1,4.948556423E-1,-9.826946259E-2,-3.581914902E-1
1.540768953E1,6.510931253E-1,-4.630088806E-4,1.671071053E-1
1.541568700E1,6.556483507E-1,1.712179184E-2,3.790740967E-1
1.542368124E1,6.922111511E-1,2.712726593E-3,5.828576088E-1
1.543170703E1,8.476101160E-1,1.602172852E-3,4.838070869E-1
1.543970250E1,1.085556865E0,8.717107773E-2,3.865017891E-1
1.544769851E1,1.302202702E0,3.060574532E-1,1.906080246E-1
1.545569383E1,1.326164484E0,5.342507362E-1,9.911060333E-3
1.546368961E1,1.251648903E0,7.796831131E-1,-5.553293228E-2
1.547168586E1,1.189651728E0,8.610153198E-1,-2.046666145E-1
1.547971271E1,1.213178754E0,6.696138382E-1,-1.845836639E-1
1.548770626E1,1.415443540E0,2.282061577E-1,-3.176116943E-2
1.549570343E1,1.509151936E0,-1.487607956E-1,7.692861557E-2
1.550369883E1,1.388607979E0,-4.138131142E-1,2.826976776E-1
1.551169453E1,1.213728189E0,-5.383810997E-1,7.519283295E-1
1.551968939E1,8.035484552E-1,-5.848069191E-1,1.416167736E0
1.552768509E1,1.283230782E-1,-4.880361557E-1,1.334205151E0
1.553571180E1,-5.600422621E-1,-4.998960495E-1,1.440245628E0
1.554370666E1,-7.761682272E-1,-5.738654137E-1,1.059627533E0
1.555170290E1,-4.981329441E-1,-7.576828003E-1,7.710547447E-1
1.555969991E1,-3.955993652E-1,-8.860964775E-1,5.668830872E-1
1.556168168E1,-4.177455902E-1,-9.346537590E-1,6.016168594E-1
1.556369615E1,-5.111196041E-1,-9.466247559E-1,6.303472519E-1
1.556571069E1,-6.212527752E-1,-9.657783508E-1,6.327414513E-1
1.556769431E1,-6.930789948E-1,-9.801435471E-1,6.471066475E-1
1.557569070E1,-1.139389753E0,-1.042012215E0,9.318027496E-1
1.558368541E1,-1.244445086E0,-1.152267456E0,1.570979595E0
1.559171157E1,-1.089632630E0,-1.175525188E0,2.104948997E0
1.559970636E1,-8.603420258E-1,-1.136142254E0,2.820640564E0
1.560770268E1,-7.885479927E-1,-9.345369339E-1,3.016366005E0
1.561569869E1,-8.973441124E-1,-7.736358643E-1,3.468010902E0
1.562369385E1,-8.981180191E-1,-6.282019615E-1,3.392137051E0
1.563168979E1,-7.512409687E-1,-4.702000618E-1,2.958407879E0
1.563568672E1,-6.638431549E-1,-4.053554535E-1,2.671886444E0
1.563770095E1,-6.470837593E-1,-1.587524414E-1,2.382187843E0
1.563968342E1,-6.470837593E-1,-1.587524414E-1,2.382187843E0
1.564771112E1,-6.560564041E-1,-2.817153931E-2,2.165174484E0
1.565570652E1,-8.483943939E-1,2.114706039E-1,1.858051300E0
1.566370245E1,-1.099972963E0,4.012160301E-1,1.695006847E0
1.567169762E1,-1.256420851E0,4.694161415E-1,1.700582027E0
1.567969301E1,-1.092594147E0,2.616305351E-1,1.945785046E0
1.568768864E1,-7.588963509E-1,7.061815262E-2,1.819413662E0
1.569568535E1,-4.348630905E-1,-8.826923370E-2,1.974388599E0
1.570371121E1,-4.215941429E-1,-1.389198303E-1,1.784049511E0
1.571170683E1,-6.394989491E-1,-1.815319061E-3,1.488357544E0
1.571970346E1,-7.873241901E-1,1.511774063E-1,1.078741550E0
1.572769832E1,-8.094840050E-1,2.220544815E-1,9.321494102E-1
1.573569402E1,-6.301786900E-1,2.147698402E-1,9.479718208E-1
1.574368934E1,-3.283457756E-1,1.994719505E-1,8.969125748E-1
1.575168543E1,1.710486412E-2,2.244195938E-1,8.941836357E-1
1.575971067E1,2.058837414E-1,2.951893806E-1,7.131009102E-1
1.576770692E1,4.240033627E-1,3.427991867E-1,5.579566956E-1
1.577570301E1,6.485373974E-1,4.199404716E-1,3.117170334E-1
