"Time (s)","Gyroscope x (rad/s)","Gyroscope y (rad/s)","Gyroscope z (rad/s)"
7.358621000E-3,3.543018550E-2,-3.640756905E-1,1.771509200E-1
9.466315000E-3,3.543018550E-2,-3.640756905E-1,1.771509200E-1
1.144808600E-2,3.543018550E-2,-3.640756905E-1,1.771509200E-1
1.346231900E-2,3.543018550E-2,-3.640756905E-1,1.771509200E-1
1.544693500E-2,3.543018550E-2,-3.640756905E-1,1.771509200E-1
1.746132200E-2,3.543018550E-2,-3.640756905E-1,1.771509200E-1
1.944378500E-2,3.543018550E-2,-3.640756905E-1,1.771509200E-1
2.145801700E-2,3.543018550E-2,-3.640756905E-1,1.771509200E-1
2.344171100E-2,3.543018550E-2,-3.640756905E-1,1.771509200E-1
2.545617500E-2,3.543018550E-2,-3.640756905E-1,1.771509200E-1
2.744009900E-2,3.543018550E-2,-3.640756905E-1,1.771509200E-1
2.945525500E-2,3.543018550E-2,-3.640756905E-1,1.771509200E-1
3.143764100E-2,3.543018550E-2,-3.640756905E-1,1.771509200E-1
3.345241200E-2,3.543018550E-2,-3.640756905E-1,1.771509200E-1
3.546533700E-2,3.543018550E-2,-3.640756905E-1,1.771509200E-1
3.744964500E-2,3.543018550E-2,-3.640756905E-1,1.771509200E-1
3.946357100E-2,3.543018550E-2,-3.640756905E-1,1.771509200E-1
4.144626500E-2,3.543018550E-2,-3.640756905E-1,1.771509200E-1
4.346195800E-2,3.543018550E-2,-3.640756905E-1,1.771509200E-1
4.544449900E-2,3.543018550E-2,-3.640756905E-1,1.771509200E-1
4.745888500E-2,3.543018550E-2,-3.640756905E-1,1.771509200E-1
4.944350200E-2,3.543018550E-2,-3.640756905E-1,1.771509200E-1
5.145773400E-2,3.543018550E-2,-3.640756905E-1,1.771509200E-1
5.344019800E-2,3.543018550E-2,-3.640756905E-1,1.771509200E-1
5.545519900E-2,3.543018550E-2,-3.640756905E-1,1.771509200E-1
5.743858600E-2,3.543018550E-2,-3.640756905E-1,1.771509200E-1
5.945251100E-2,3.543018550E-2,-3.640756905E-1,1.771509200E-1
6.143674200E-2,3.543018550E-2,-3.640756905E-1,1.771509200E-1
6.345028300E-2,3.543018550E-2,-3.640756905E-1,1.771509200E-1
6.546420700E-2,3.543018550E-2,-3.640756905E-1,1.771509200E-1
6.744813200E-2,3.543018550E-2,-3.640756905E-1,1.771509200E-1
6.946259600E-2,3.543018550E-2,-3.640756905E-1,1.771509200E-1
7.144605800E-2,4.214970022E-2,-3.536909819E-1,3.341432810E-1
7.346013700E-2,4.153883830E-2,-3.628539443E-1,3.365867436E-1
7.544390800E-2,3.787364438E-2,-3.836233616E-1,3.433062732E-1
7.745683200E-2,3.115412779E-2,-4.056145251E-1,3.488040566E-1
7.944106500E-2,2.871066704E-2,-4.135557711E-1,3.512475193E-1
8.145583600E-2,2.443460934E-2,-4.343251884E-1,3.561344445E-1
8.343960700E-2,1.893682219E-2,-4.544837475E-1,3.579670191E-1
8.545337800E-2,1.771509275E-2,-4.624249935E-1,3.585779071E-1
8.743653400E-2,1.160643995E-2,-4.770857692E-1,3.604104817E-1
8.945253500E-2,6.108652335E-3,-4.911356568E-1,3.591887653E-1
9.143522900E-2,3.665191587E-3,-4.966334403E-1,3.573561609E-1
9.344846100E-2,-1.832595794E-3,-5.076290369E-1,3.555235863E-1
9.546423200E-2,-1.038470957E-2,-5.149593949E-1,3.555235863E-1
9.744692600E-2,-1.282817032E-2,-5.167919993E-1,3.561344445E-1
9.946054300E-2,-1.832595654E-2,-5.216789246E-1,3.549126983E-1
1.014448520E-1,-2.199114859E-2,-5.259549618E-1,3.543018401E-1
1.034589310E-1,-2.687807009E-2,-5.326744914E-1,3.567453027E-1
1.054423170E-1,-3.726277873E-2,-5.375614166E-1,3.567453027E-1
1.074568570E-1,-3.848451003E-2,-5.424483418E-1,3.579670191E-1
1.094411670E-1,-4.642575979E-2,-5.503895879E-1,3.610213697E-1
1.114549370E-1,-5.009094998E-2,-5.595525503E-1,3.616322279E-1
1.134380930E-1,-5.070181563E-2,-5.644394755E-1,3.628539443E-1
1.154519410E-1,-5.314527452E-2,-5.705481172E-1,3.677408695E-1
1.174675580E-1,-5.986479297E-2,-5.736024380E-1,3.695734739E-1
1.194504060E-1,-5.803219974E-2,-5.729916096E-1,3.732386529E-1
1.214635610E-1,-6.108652428E-2,-5.742133260E-1,3.769038618E-1
1.234485630E-1,-6.536258012E-2,-5.638286471E-1,3.805690408E-1
1.254621030E-1,-6.536258012E-2,-5.607742667E-1,3.817907870E-1
1.274448740E-1,-6.841690838E-2,-5.510004759E-1,3.872885704E-1
1.294607990E-1,-6.841690838E-2,-5.418374538E-1,3.885102868E-1
1.314438780E-1,-7.086037099E-2,-5.357288122E-1,3.909537494E-1
1.334580320E-1,-6.963863969E-2,-5.247332454E-1,3.964515328E-1
1.354424190E-1,-6.902777404E-2,-5.192354321E-1,3.964515328E-1
1.374559590E-1,-6.780604273E-2,-5.119050741E-1,4.031710625E-1
1.394396530E-1,-6.658431143E-2,-5.009095073E-1,4.037819207E-1
1.414535010E-1,-6.658431143E-2,-4.972442985E-1,4.062253833E-1
1.434371180E-1,-6.414084882E-2,-4.923573732E-1,4.068362415E-1
1.454507350E-1,-6.352998316E-2,-4.874704778E-1,4.105014503E-1
1.474645830E-1,-6.352998316E-2,-4.862487316E-1,4.105014503E-1
1.494494300E-1,-6.108652428E-2,-4.825835526E-1,4.111123085E-1
1.514642780E-1,-6.169738993E-2,-4.819726646E-1,4.129449129E-1
1.534469730E-1,-5.925392732E-2,-4.807509482E-1,4.141666293E-1
1.554580500E-1,-5.864306539E-2,-4.795292318E-1,4.141666293E-1
1.574439760E-1,-5.619960278E-2,-4.825835526E-1,4.159992337E-1
1.594592850E-1,-5.864306539E-2,-4.819726646E-1,4.159992337E-1
1.614421320E-1,-5.864306539E-2,-4.856378734E-1,4.135557711E-1
1.634562110E-1,-5.619960278E-2,-4.874704778E-1,4.135557711E-1
1.654399830E-1,-5.558873713E-2,-4.893030524E-1,4.117231667E-1
1.674544450E-1,-5.314527452E-2,-4.929682612E-1,4.098905921E-1
1.694393700E-1,-5.436700583E-2,-4.960225821E-1,4.080579877E-1
1.714519110E-1,-5.558873713E-2,-4.978551865E-1,4.043927789E-1
1.734663730E-1,-5.253441259E-2,-5.051855445E-1,4.019493461E-1
1.754498370E-1,-5.375614017E-2,-5.051855445E-1,4.025602043E-1
1.774642990E-1,-5.009094998E-2,-5.131267905E-1,4.001167417E-1
1.794473780E-1,-5.009094998E-2,-5.186246037E-1,3.995058835E-1
1.814621490E-1,-5.131268129E-2,-5.241223574E-1,4.037819207E-1
1.834454580E-1,-5.070181563E-2,-5.326744914E-1,4.025602043E-1
1.854599220E-1,-5.192354694E-2,-5.400048494E-1,4.050036669E-1
1.874436160E-1,-5.192354694E-2,-5.455026627E-1,4.068362415E-1
1.894586940E-1,-5.009094998E-2,-5.564982295E-1,4.074471295E-1
1.914402340E-1,-4.825835302E-2,-5.693264008E-1,4.129449129E-1
1.934550060E-1,-4.825835302E-2,-5.742133260E-1,4.129449129E-1
1.954387760E-1,-4.581489414E-2,-5.882632136E-1,4.141666293E-1
1.974537780E-1,-4.581489414E-2,-5.962044597E-1,4.184426963E-1
1.994371630E-1,-4.398229718E-2,-6.084218025E-1,4.184426963E-1
2.014504730E-1,-3.787364438E-2,-6.230825782E-1,4.184426963E-1
2.034654750E-1,-3.420845419E-2,-6.291912198E-1,4.178318381E-1
2.054480150E-1,-2.871066704E-2,-6.414085031E-1,4.184426963E-1
2.074640170E-1,-2.687807009E-2,-6.481280327E-1,4.153883755E-1
2.094480190E-1,-2.626720630E-2,-6.517932415E-1,4.123340547E-1
2.114608660E-1,-2.076941915E-2,-6.597344875E-1,4.043927789E-1
2.134442520E-1,-1.710422710E-2,-6.640105247E-1,3.995058835E-1
2.154594080E-1,-1.893682219E-2,-6.664539576E-1,3.964515328E-1
2.174415630E-1,-1.710422710E-2,-6.676757336E-1,3.854559660E-1
2.194565650E-1,-1.404990070E-2,-6.688974500E-1,3.781255782E-1
2.214399520E-1,-1.527163107E-2,-6.676757336E-1,3.738495409E-1
2.234541070E-1,-1.343903504E-2,-6.615670323E-1,3.646865487E-1
2.254384930E-1,-1.221730467E-2,-6.554583907E-1,3.604104817E-1
2.274520330E-1,-9.773843922E-3,-6.499606371E-1,3.524692357E-1
2.294671120E-1,-1.038470957E-2,-6.334672570E-1,3.439171314E-1
2.314492670E-1,-9.162978269E-3,-6.243042946E-1,3.426954150E-1
2.334636530E-1,-1.160643995E-2,-5.992587805E-1,3.353650272E-1
2.354471170E-1,-1.343903504E-2,-5.736024380E-1,3.310889602E-1
2.374618110E-1,-1.404990070E-2,-5.589417219E-1,3.292563558E-1
2.394451970E-1,-1.404990070E-2,-5.259549618E-1,3.249803185E-1
2.414593520E-1,-1.404990070E-2,-4.917465150E-1,3.219259977E-1
2.434428160E-1,-1.466076635E-2,-4.728097022E-1,3.231477141E-1
2.454575090E-1,-2.015855350E-2,-4.337143302E-1,3.213151097E-1
2.474409730E-1,-1.954768784E-2,-3.933972120E-1,3.213151097E-1
2.494566670E-1,-2.199114859E-2,-3.738495409E-1,3.219259977E-1
2.514388220E-1,-2.565634064E-2,-3.341432810E-1,3.225368559E-1
2.534532860E-1,-3.237585723E-2,-2.907718420E-1,3.219259977E-1
2.554363630E-1,-3.298672289E-2,-2.718350291E-1,3.237585723E-1
2.574505190E-1,-3.665191308E-2,-2.333505303E-1,3.194825351E-1
2.594646750E-1,-4.520402849E-2,-1.948660165E-1,3.200933933E-1
2.614480610E-1,-4.581489414E-2,-1.771509200E-1,3.188716471E-1
2.634625240E-1,-5.131268129E-2,-1.417207420E-1,3.182607889E-1
2.654456030E-1,-5.497787148E-2,-1.240056455E-1,3.164281845E-1
2.674603730E-1,-6.230825558E-2,-9.346238524E-2,3.115412891E-1
2.694449140E-1,-6.780604273E-2,-6.719517708E-2,3.078760803E-1
2.714581470E-1,-6.841690838E-2,-5.497787148E-2,3.060434759E-1
2.734422250E-1,-7.513642311E-2,-3.298672289E-2,3.036000133E-1
2.754553800E-1,-8.246681094E-2,-1.466076635E-2,2.981022298E-1
2.774400750E-1,-8.429940045E-2,-7.941247895E-3,2.932153046E-1
2.794545370E-1,-9.346238524E-2,4.886921961E-3,2.895501256E-1
2.814366930E-1,-9.834930301E-2,1.099557430E-2,2.846632004E-1
2.834517710E-1,-1.014036313E-1,1.466076635E-2,2.822197378E-1
2.854655420E-1,-1.069014147E-1,1.893682219E-2,2.785545588E-1
2.874493140E-1,-1.105666086E-1,1.832595654E-2,2.742784917E-1
2.894646990E-1,-1.130100712E-1,1.893682219E-2,2.761110961E-1
2.914471630E-1,-1.178969890E-1,1.710422710E-2,2.748893499E-1
2.934616260E-1,-1.221730486E-1,1.343903504E-2,2.712241709E-1
2.954459350E-1,-1.227839142E-1,1.038470957E-2,2.700024247E-1
2.974597830E-1,-1.258382350E-1,4.276056774E-3,2.675589919E-1
2.994427850E-1,-1.258382350E-1,3.665191587E-3,2.663372457E-1
3.014566320E-1,-1.270599663E-1,-4.886921961E-3,2.645046413E-1
3.034406340E-1,-1.301143020E-1,-1.527163107E-2,2.645046413E-1
3.054544820E-1,-1.307251602E-1,-2.076941915E-2,2.638937831E-1
3.074387910E-1,-1.331686229E-1,-2.932153270E-2,2.614503205E-1
3.094533320E-1,-1.350012124E-1,-3.787364438E-2,2.602286041E-1
3.114366400E-1,-1.356120855E-1,-4.276056588E-2,2.602286041E-1
3.134507960E-1,-1.362229437E-1,-4.886921868E-2,2.596177161E-1
3.154616440E-1,-1.380555481E-1,-5.558873713E-2,2.614503205E-1
3.174477220E-1,-1.398881376E-1,-5.864306539E-2,2.602286041E-1
3.194631090E-1,-1.398881376E-1,-6.230825558E-2,2.626720667E-1
3.214459570E-1,-1.404990107E-1,-6.597344577E-2,2.645046413E-1
3.234603430E-1,-1.374446750E-1,-6.658431143E-2,2.657263875E-1
3.254443450E-1,-1.356120855E-1,-6.414084882E-2,2.675589919E-1
3.274579620E-1,-1.356120855E-1,-6.108652428E-2,2.687807083E-1
3.294425780E-1,-1.319468915E-1,-5.803219974E-2,2.712241709E-1
3.314557340E-1,-1.307251602E-1,-4.886921868E-2,2.700024247E-1
3.334398130E-1,-1.319468915E-1,-4.276056588E-2,2.700024247E-1
3.354545830E-1,-1.295034289E-1,-3.481931984E-2,2.700024247E-1
3.374378930E-1,-1.301143020E-1,-2.015855350E-2,2.706133127E-1
3.394515100E-1,-1.282816976E-1,-9.773843922E-3,2.718350291E-1
3.414659730E-1,-1.264491081E-1,4.276056774E-3,2.712241709E-1
3.434493600E-1,-1.264491081E-1,2.260201424E-2,2.736676335E-1
3.454641300E-1,-1.252273768E-1,3.420845419E-2,2.706133127E-1
3.474469010E-1,-1.246165112E-1,5.314527452E-2,2.724458873E-1
3.494622110E-1,-1.233947799E-1,7.574728876E-2,2.712241709E-1
3.514449810E-1,-1.240056455E-1,8.857546002E-2,2.712241709E-1
3.534588290E-1,-1.252273768E-1,1.130100712E-1,2.736676335E-1
3.554419080E-1,-1.264491081E-1,1.392772794E-1,2.755002379E-1
3.574567550E-1,-1.240056455E-1,1.508837193E-1,2.767219543E-1
3.594406800E-1,-1.264491081E-1,1.802052408E-1,2.779437006E-1
3.614539900E-1,-1.252273768E-1,1.948660165E-1,2.779437006E-1
3.634385300E-1,-1.264491081E-1,2.205223590E-1,2.809980214E-1
3.654529930E-1,-1.282816976E-1,2.467895597E-1,2.791654170E-1
3.674360710E-1,-1.252273768E-1,2.596177161E-1,2.785545588E-1
3.694521500E-1,-1.282816976E-1,2.840523422E-1,2.809980214E-1
3.714647670E-1,-1.313360333E-1,3.060434759E-1,2.791654170E-1
3.734484610E-1,-1.313360333E-1,3.170390725E-1,2.785545588E-1
3.754626170E-1,-1.350012124E-1,3.329215646E-1,2.761110961E-1
3.774462340E-1,-1.362229437E-1,3.488040566E-1,2.742784917E-1
3.794600810E-1,-1.380555481E-1,3.549126983E-1,2.718350291E-1
3.814441600E-1,-1.411098689E-1,3.659082949E-1,2.663372457E-1
3.834577010E-1,-1.423316002E-1,3.707951903E-1,2.632829249E-1
3.854413940E-1,-1.423316002E-1,3.756821156E-1,2.620611787E-1
3.874554730E-1,-1.453859210E-1,3.817907870E-1,2.602286041E-1
3.894401670E-1,-1.472185254E-1,3.817907870E-1,2.553416789E-1
3.914540140E-1,-1.472185254E-1,3.811798990E-1,2.535090744E-1
3.934376320E-1,-1.533271819E-1,3.775147200E-1,2.492330223E-1
3.954508630E-1,-1.557706445E-1,3.738495409E-1,2.437352389E-1
3.974647880E-1,-1.594358236E-1,3.677408695E-1,2.431243658E-1
3.994494060E-1,-1.606575549E-1,3.573561609E-1,2.376265824E-1
4.014635610E-1,-1.637118906E-1,3.518583775E-1,2.376265824E-1
4.034469470E-1,-1.667662114E-1,3.359758854E-1,2.345722616E-1
4.054610260E-1,-1.673770845E-1,3.225368559E-1,2.333505303E-1
4.074450270E-1,-1.692096740E-1,3.158173263E-1,2.290744632E-1
4.094598750E-1,-1.710422635E-1,2.981022298E-1,2.272418737E-1
4.114425700E-1,-1.747074574E-1,2.791654170E-1,2.229658216E-1
4.134564940E-1,-1.765400618E-1,2.681698501E-1,2.223549485E-1
4.154411110E-1,-1.759291887E-1,2.467895597E-1,2.180788964E-1
4.174548820E-1,-1.753183305E-1,2.260201424E-1,2.186897546E-1
4.194383450E-1,-1.759291887E-1,2.162462920E-1,2.174680233E-1
4.214525010E-1,-1.734857261E-1,1.942551434E-1,2.168571651E-1
4.234663480E-1,-1.692096740E-1,1.734857261E-1,2.150245607E-1
4.254502730E-1,-1.692096740E-1,1.637118906E-1,2.125810981E-1
4.274644290E-1,-1.655444801E-1,1.423316002E-1,2.095267773E-1
4.294484300E-1,-1.631010175E-1,1.350012124E-1,2.058615834E-1
4.314626630E-1,-1.582140923E-1,1.191187203E-1,2.052507252E-1
4.334456650E-1,-1.569923609E-1,1.044579595E-1,2.028072625E-1
4.354595120E-1,-1.545489132E-1,9.651670605E-2,2.015855312E-1
4.374450520E-1,-1.502728462E-1,8.613199741E-2,2.009746730E-1
4.394583620E-1,-1.466076523E-1,7.819075137E-2,1.991420686E-1
4.414408250E-1,-1.435533315E-1,7.574728876E-2,2.009746730E-1
4.434555190E-1,-1.404990107E-1,7.024950534E-2,2.003637999E-1
4.454392890E-1,-1.386664063E-1,6.902777404E-2,2.009746730E-1
4.474533680E-1,-1.362229437E-1,6.841690838E-2,1.985312104E-1
4.494377550E-1,-1.350012124E-1,6.963863969E-2,2.015855312E-1
4.514521400E-1,-1.319468915E-1,7.024950534E-2,2.052507252E-1
4.534648350E-1,-1.276708394E-1,7.330382615E-2,2.058615834E-1
4.554496830E-1,-1.264491081E-1,7.819075137E-2,2.089159191E-1
4.574629910E-1,-1.258382350E-1,8.063421398E-2,2.076941878E-1
4.594463780E-1,-1.240056455E-1,8.552113175E-2,2.150245607E-1
4.614608420E-1,-1.215621829E-1,9.346238524E-2,2.180788964E-1
4.634442270E-1,-1.178969890E-1,9.834930301E-2,2.205223590E-1
4.654589980E-1,-1.185078546E-1,1.056796908E-1,2.241875380E-1
4.674423850E-1,-1.160643995E-1,1.136209369E-1,2.302961946E-1
4.694570780E-1,-1.136209369E-1,1.178969890E-1,2.327396572E-1
4.714398500E-1,-1.117883399E-1,1.258382350E-1,2.345722616E-1
4.734540820E-1,-1.111774743E-1,1.331686229E-1,2.394591719E-1
4.754380070E-1,-1.099557430E-1,1.356120855E-1,2.412917763E-1
4.774516240E-1,-1.075122803E-1,1.411098689E-1,2.443460971E-1
4.794663170E-1,-1.038470939E-1,1.484402567E-1,2.480112910E-1
4.814503190E-1,-1.014036313E-1,1.496619880E-1,2.528982162E-1
4.834644750E-1,-9.957103431E-2,1.496619880E-1,2.565633953E-1
4.854481680E-1,-9.957103431E-2,1.527163088E-1,2.590068579E-1
4.874617860E-1,-9.590584040E-2,1.551597714E-1,2.565633953E-1
4.894460950E-1,-9.651670605E-2,1.539380401E-1,2.620611787E-1
4.914599430E-1,-9.468411654E-2,1.533271819E-1,2.638937831E-1
4.934436370E-1,-9.468411654E-2,1.496619880E-1,2.651155293E-1
4.954584080E-1,-9.468411654E-2,1.466076523E-1,2.693915665E-1
4.974411010E-1,-9.224065393E-2,1.435533315E-1,2.712241709E-1
4.994555650E-1,-9.468411654E-2,1.356120855E-1,2.730567753E-1
5.014384120E-1,-9.407325089E-2,1.264491081E-1,2.773328125E-1
5.034534910E-1,-9.224065393E-2,1.203404516E-1,2.797762752E-1
5.054365700E-1,-9.101892263E-2,1.081231460E-1,2.871066630E-1
5.074510330E-1,-8.979719132E-2,9.224065393E-2,2.883284092E-1
5.094658040E-1,-9.162978828E-2,8.368854225E-2,2.883284092E-1
5.114488060E-1,-8.857546002E-2,6.780604273E-2,2.938261926E-1
5.134635760E-1,-8.735372871E-2,4.703662544E-2,2.968805134E-1
5.154461170E-1,-8.613199741E-2,3.970624134E-2,2.974913716E-1
5.174608880E-1,-8.491026610E-2,1.954768784E-2,2.999348342E-1
5.194448120E-1,-8.552113175E-2,0.000000000E0,2.999348342E-1
5.214578140E-1,-8.246681094E-2,-1.221730467E-2,3.005456924E-1
5.234420470E-1,-8.124507964E-2,-3.481931984E-2,3.005456924E-1
5.254562780E-1,-8.124507964E-2,-4.886921868E-2,3.011565804E-1
5.274398960E-1,-7.819075137E-2,-7.086037099E-2,3.005456924E-1
5.294552810E-1,-7.391469181E-2,-9.712757170E-2,2.981022298E-1
5.314378220E-1,-7.086037099E-2,-1.105666086E-1,2.981022298E-1
5.334519010E-1,-7.147123665E-2,-1.356120855E-1,2.938261926E-1
5.354669790E-1,-6.841690838E-2,-1.618792862E-1,2.919935882E-1
5.374500580E-1,-6.780604273E-2,-1.747074574E-1,2.919935882E-1
5.394639060E-1,-6.719517708E-2,-1.979203373E-1,2.919935882E-1
5.414473680E-1,-6.352998316E-2,-2.229658216E-1,2.889392674E-1
5.434624470E-1,-6.230825558E-2,-2.364048511E-1,2.871066630E-1
5.454448340E-1,-5.864306539E-2,-2.571742535E-1,2.864958048E-1
5.474592960E-1,-5.619960278E-2,-2.791654170E-1,2.834414840E-1
5.494433750E-1,-5.436700583E-2,-2.883284092E-1,2.858849466E-1
5.514569160E-1,-5.009094998E-2,-3.078760803E-1,2.846632004E-1
5.534411480E-1,-4.764748737E-2,-3.262020350E-1,2.828305960E-1
5.554547650E-1,-4.031710699E-2,-3.316998184E-1,2.809980214E-1
5.574387660E-1,-3.726277873E-2,-3.463605940E-1,2.791654170E-1
5.594534600E-1,-3.543018550E-2,-3.524692357E-1,2.773328125E-1
5.614362320E-1,-3.298672289E-2,-3.616322279E-1,2.755002379E-1
5.634507710E-1,-2.748893574E-2,-3.695734739E-1,2.761110961E-1
5.654646190E-1,-2.565634064E-2,-3.738495409E-1,2.742784917E-1
5.674486210E-1,-2.443460934E-2,-3.762930036E-1,2.730567753E-1
5.694636990E-1,-1.893682219E-2,-3.781255782E-1,2.712241709E-1
5.714470090E-1,-2.076941915E-2,-3.781255782E-1,2.712241709E-1
5.734603190E-1,-1.893682219E-2,-3.781255782E-1,2.718350291E-1
5.754455500E-1,-1.527163107E-2,-3.738495409E-1,2.718350291E-1
5.774584750E-1,-1.221730467E-2,-3.744603992E-1,2.730567753E-1
5.794418620E-1,-1.282817032E-2,-3.695734739E-1,2.706133127E-1
5.814556320E-1,-1.160643995E-2,-3.646865487E-1,2.712241709E-1
5.834397110E-1,-1.160643995E-2,-3.634648323E-1,2.724458873E-1
5.854540970E-1,-1.221730467E-2,-3.555235863E-1,2.712241709E-1
5.874369450E-1,-1.099557430E-2,-3.518583775E-1,2.718350291E-1
5.894529470E-1,-1.099557430E-2,-3.433062732E-1,2.712241709E-1
5.914357170E-1,-1.282817032E-2,-3.353650272E-1,2.700024247E-1
5.934492580E-1,-1.038470957E-2,-3.323107064E-1,2.681698501E-1
5.954636440E-1,-1.160643995E-2,-3.225368559E-1,2.687807083E-1
5.974470300E-1,-1.221730467E-2,-3.133738637E-1,2.669481039E-1
5.994621090E-1,-1.282817032E-2,-3.090978265E-1,2.657263875E-1
6.014439570E-1,-1.404990070E-2,-3.011565804E-1,2.663372457E-1
6.034594200E-1,-1.343903504E-2,-2.913827300E-1,2.638937831E-1
6.054428060E-1,-1.527163107E-2,-2.889392674E-1,2.645046413E-1
6.074571930E-1,-1.649336144E-2,-2.858849466E-1,2.620611787E-1
6.094415010E-1,-2.015855350E-2,-2.803871334E-1,2.638937831E-1
6.114551190E-1,-1.954768784E-2,-2.785545588E-1,2.620611787E-1
6.134381970E-1,-2.138028294E-2,-2.755002379E-1,2.608394623E-1
6.154538140E-1,-2.260201424E-2,-2.761110961E-1,2.583959997E-1
6.174366620E-1,-2.443460934E-2,-2.767219543E-1,2.602286041E-1
6.194508170E-1,-2.809980139E-2,-2.785545588E-1,2.614503205E-1
6.214652040E-1,-2.993239649E-2,-2.791654170E-1,2.571742535E-1
6.234488980E-1,-3.115412779E-2,-2.834414840E-1,2.596177161E-1
6.254627450E-1,-3.420845419E-2,-2.883284092E-1,2.565633953E-1
6.274461320E-1,-3.420845419E-2,-2.907718420E-1,2.590068579E-1
6.294609800E-1,-3.787364438E-2,-2.981022298E-1,2.577851415E-1
6.314449040E-1,-3.481931984E-2,-3.066543639E-1,2.590068579E-1
6.334579060E-1,-3.726277873E-2,-3.066543639E-1,2.590068579E-1
6.354409080E-1,-3.665191308E-2,-3.170390725E-1,2.571742535E-1
6.374550630E-1,-3.298672289E-2,-3.243694305E-1,2.583959997E-1
6.394397570E-1,-3.176499158E-2,-3.298672438E-1,2.565633953E-1
6.414539120E-1,-3.054326214E-2,-3.371976018E-1,2.571742535E-1
6.434376060E-1,-2.626720630E-2,-3.457497358E-1,2.559525371E-1
6.454511470E-1,-3.054326214E-2,-3.481931984E-1,2.522873580E-1
6.474658400E-1,-2.809980139E-2,-3.573561609E-1,2.528982162E-1
6.494501500E-1,-2.993239649E-2,-3.652974069E-1,2.547308207E-1
6.514637670E-1,-2.871066704E-2,-3.695734739E-1,2.541199327E-1
6.534473840E-1,-2.871066704E-2,-3.762930036E-1,2.541199327E-1
6.554612320E-1,-2.871066704E-2,-3.787364662E-1,2.516764700E-1
6.574452340E-1,-2.626720630E-2,-3.897320330E-1,2.547308207E-1
6.594590810E-1,-2.748893574E-2,-3.982841372E-1,2.571742535E-1
6.614422370E-1,-2.748893574E-2,-4.025602043E-1,2.565633953E-1
6.634573160E-1,-2.687807009E-2,-4.098905921E-1,2.590068579E-1
6.654400090E-1,-2.626720630E-2,-4.214970171E-1,2.596177161E-1
6.674541650E-1,-2.687807009E-2,-4.251621962E-1,2.620611787E-1
6.694394740E-1,-2.565634064E-2,-4.337143302E-1,2.651155293E-1
6.714527060E-1,-2.443460934E-2,-4.428772926E-1,2.663372457E-1
6.734670930E-1,-2.260201424E-2,-4.453207552E-1,2.681698501E-1
6.754498630E-1,-2.321287990E-2,-4.550946057E-1,2.687807083E-1
6.774650190E-1,-2.015855350E-2,-4.642575979E-1,2.724458873E-1
6.794483290E-1,-2.199114859E-2,-4.703662395E-1,2.730567753E-1
6.814618680E-1,-2.076941915E-2,-4.789183438E-1,2.761110961E-1
6.834459470E-1,-2.260201424E-2,-4.923573732E-1,2.755002379E-1
6.854601030E-1,-2.199114859E-2,-4.960225821E-1,2.779437006E-1
6.874437190E-1,-1.771509275E-2,-5.076290369E-1,2.828305960E-1
6.894591060E-1,-2.260201424E-2,-5.149593949E-1,2.816088796E-1
6.914415700E-1,-2.138028294E-2,-5.277875662E-1,2.852740586E-1
6.934554940E-1,-2.321287990E-2,-5.430592299E-1,2.871066630E-1
6.954394190E-1,-2.565634064E-2,-5.491678715E-1,2.901609838E-1
6.974536510E-1,-2.748893574E-2,-5.632177591E-1,2.938261926E-1
6.994375760E-1,-3.054326214E-2,-5.809328556E-1,2.974913716E-1
7.014515010E-1,-3.237585723E-2,-5.882632136E-1,2.987131178E-1
7.034655790E-1,-3.543018550E-2,-6.108652353E-1,3.005456924E-1
7.054487350E-1,-3.909537569E-2,-6.285803318E-1,3.036000133E-1
7.074637370E-1,-3.909537569E-2,-6.383541822E-1,3.036000133E-1
7.094474300E-1,-4.092797264E-2,-6.633996367E-1,3.060434759E-1
7.114606630E-1,-4.214970022E-2,-6.872233748E-1,3.103195429E-1
7.134443570E-1,-4.276056588E-2,-6.982190013E-1,3.103195429E-1
7.154582040E-1,-4.337143153E-2,-7.226535678E-1,3.090978265E-1
7.174422060E-1,-4.153883830E-2,-7.348709106E-1,3.090978265E-1
7.194566700E-1,-3.726277873E-2,-7.562511563E-1,3.066543639E-1
7.214403630E-1,-3.420845419E-2,-7.812966704E-1,3.017674387E-1
7.234545960E-1,-3.298672289E-2,-7.922922373E-1,2.999348342E-1
7.254379810E-1,-3.115412779E-2,-8.142833710E-1,2.968805134E-1
7.274521370E-1,-2.871066704E-2,-8.301658630E-1,2.907718420E-1
7.294675240E-1,-2.809980139E-2,-8.399397135E-1,2.877175212E-1
7.314502940E-1,-2.687807009E-2,-8.558222055E-1,2.809980214E-1
7.334640650E-1,-2.321287990E-2,-8.698720932E-1,2.718350291E-1
7.354484520E-1,-2.015855350E-2,-8.784242272E-1,2.706133127E-1
7.374619910E-1,-1.771509275E-2,-8.888089061E-1,2.626720667E-1
7.394459160E-1,-1.404990070E-2,-8.985827565E-1,2.559525371E-1
7.414603800E-1,-1.282817032E-2,-9.028588533E-1,2.516764700E-1
7.434443810E-1,-8.552113548E-3,-9.083566070E-1,2.400700450E-1
7.454576140E-1,-6.108652335E-3,-9.120218158E-1,2.351831198E-1
7.474419220E-1,-3.665191587E-3,-9.138544202E-1,2.351831198E-1
7.494560780E-1,6.108652451E-4,-9.126327038E-1,2.284636050E-1
7.514395420E-1,3.665191587E-3,-9.114109278E-1,2.247984111E-1
7.534533120E-1,7.330383174E-3,-9.065240026E-1,2.193006277E-1
7.554367760E-1,1.160643995E-2,-9.016370773E-1,2.150245607E-1
7.574515470E-1,1.527163107E-2,-8.973610401E-1,2.107485086E-1
7.594659320E-1,1.771509275E-2,-8.930850029E-1,2.083050460E-1
7.614483960E-1,1.832595654E-2,-8.796459436E-1,2.046398520E-1
7.634640900E-1,1.954768784E-2,-8.710938692E-1,2.028072625E-1
7.654469380E-1,2.138028294E-2,-8.527678847E-1,1.997529417E-1
7.674607860E-1,2.199114859E-2,-8.326093554E-1,1.973094791E-1
7.694457110E-1,2.199114859E-2,-8.203920126E-1,1.954768747E-1
7.714588660E-1,2.260201424E-2,-7.959573865E-1,1.948660165E-1
7.734426370E-1,2.260201424E-2,-7.690793276E-1,1.942551434E-1
7.754573300E-1,2.321287990E-2,-7.562511563E-1,1.948660165E-1
7.774404860E-1,2.321287990E-2,-7.305948138E-1,1.942551434E-1
7.794539500E-1,2.199114859E-2,-7.018841505E-1,1.918116808E-1
7.814376430E-1,2.321287990E-2,-6.908885837E-1,1.930334121E-1
7.834524140E-1,2.076941915E-2,-6.646214128E-1,1.924225539E-1
7.854657240E-1,2.260201424E-2,-6.554583907E-1,1.936442852E-1
7.874499560E-1,2.076941915E-2,-6.328563690E-1,1.954768747E-1
7.894650340E-1,1.832595654E-2,-6.169738770E-1,1.966986060E-1
7.914474980E-1,1.771509275E-2,-6.078109145E-1,1.960877478E-1
7.934619610E-1,1.466076635E-2,-5.955936313E-1,2.021963894E-1
7.954450390E-1,1.282817032E-2,-5.900958180E-1,2.015855312E-1
7.974591950E-1,1.160643995E-2,-5.876523852E-1,2.034181207E-1
7.994438120E-1,1.099557430E-2,-5.876523852E-1,2.076941878E-1
8.014571210E-1,1.221730467E-2,-5.907067060E-1,2.052507252E-1
8.034414300E-1,1.771509275E-2,-5.919284225E-1,2.101376504E-1
8.054555090E-1,1.893682219E-2,-5.986479521E-1,2.076941878E-1
8.074386650E-1,2.382374369E-2,-6.041457057E-1,2.064724565E-1
8.094539740E-1,2.626720630E-2,-6.096435189E-1,2.052507252E-1
8.114368220E-1,2.687807009E-2,-6.157521605E-1,2.021963894E-1
8.134502850E-1,2.382374369E-2,-6.236934066E-1,2.009746730E-1
8.154656710E-1,2.748893574E-2,-6.273586154E-1,1.979203373E-1
8.174488270E-1,2.687807009E-2,-6.346889734E-1,1.973094791E-1
8.194626750E-1,2.565634064E-2,-6.395758986E-1,1.954768747E-1
8.214472140E-1,2.748893574E-2,-6.469063163E-1,1.948660165E-1
8.234605240E-1,2.932153270E-2,-6.560692787E-1,1.936442852E-1
8.254438340E-1,2.993239649E-2,-6.615670323E-1,1.948660165E-1
8.274586040E-1,3.176499158E-2,-6.676757336E-1,1.960877478E-1
8.294429140E-1,2.993239649E-2,-6.750060916E-1,1.973094791E-1
8.314561460E-1,2.932153270E-2,-6.792821288E-1,1.966986060E-1
8.334398400E-1,3.237585723E-2,-6.866125464E-1,1.997529417E-1
8.354539960E-1,3.054326214E-2,-6.853908300E-1,2.021963894E-1
8.374386890E-1,2.748893574E-2,-6.866125464E-1,2.015855312E-1
8.394519220E-1,2.871066704E-2,-6.853908300E-1,2.058615834E-1
8.414657700E-1,2.504547499E-2,-6.805039048E-1,2.070833147E-1
8.434497710E-1,2.504547499E-2,-6.762278080E-1,2.089159191E-1
8.454638500E-1,2.748893574E-2,-6.701191664E-1,2.125810981E-1
8.474476210E-1,2.626720630E-2,-6.566801667E-1,2.131919712E-1
8.494632370E-1,2.504547499E-2,-6.511823535E-1,2.156354338E-1
8.514457010E-1,2.382374369E-2,-6.383541822E-1,2.186897546E-1
8.534598570E-1,2.504547499E-2,-6.322455406E-1,2.229658216E-1
8.554435500E-1,2.199114859E-2,-6.163630486E-1,2.247984111E-1
8.574571680E-1,1.893682219E-2,-6.004805565E-1,2.296853364E-1
8.594410920E-1,1.649336144E-2,-5.937610269E-1,2.284636050E-1
8.614547090E-1,1.771509275E-2,-5.803219676E-1,2.339613885E-1
8.634383260E-1,1.710422710E-2,-5.656611919E-1,2.370157093E-1
8.654528660E-1,1.466076635E-2,-5.607742667E-1,2.394591719E-1
8.674670220E-1,1.160643995E-2,-5.479460955E-1,2.437352389E-1
8.694509470E-1,8.552113548E-3,-5.387831330E-1,2.480112910E-1
8.714657940E-1,6.108652335E-3,-5.320636034E-1,2.498438805E-1
8.734491810E-1,1.832595794E-3,-5.241223574E-1,2.535090744E-1
8.754623360E-1,-3.665191587E-3,-5.174028873E-1,2.565633953E-1
8.774457220E-1,-6.108652335E-3,-5.167919993E-1,2.571742535E-1
8.794605700E-1,-1.160643995E-2,-5.119050741E-1,2.620611787E-1
8.814439570E-1,-1.466076635E-2,-5.119050741E-1,2.651155293E-1
8.834586500E-1,-1.832595654E-2,-5.125159621E-1,2.663372457E-1
8.854420370E-1,-2.443460934E-2,-5.149593949E-1,2.687807083E-1
8.874561920E-1,-2.504547499E-2,-5.192354321E-1,2.700024247E-1
8.894408090E-1,-2.443460934E-2,-5.265658498E-1,2.712241709E-1
8.914537340E-1,-2.748893574E-2,-5.326744914E-1,2.748893499E-1
8.934371200E-1,-2.687807009E-2,-5.387831330E-1,2.736676335E-1
8.954519680E-1,-2.687807009E-2,-5.510004759E-1,2.736676335E-1
8.974660470E-1,-2.626720630E-2,-5.626068711E-1,2.724458873E-1
8.994498170E-1,-2.565634064E-2,-5.687155724E-1,2.748893499E-1
9.014632810E-1,-2.504547499E-2,-5.839871764E-1,2.687807083E-1
9.034475900E-1,-2.504547499E-2,-5.943718553E-1,2.657263875E-1
9.054605910E-1,-2.321287990E-2,-6.004805565E-1,2.663372457E-1
9.074452090E-1,-2.260201424E-2,-6.151412725E-1,2.669481039E-1
9.094602110E-1,-2.015855350E-2,-6.346889734E-1,2.700024247E-1
9.114427500E-1,-1.893682219E-2,-6.420193911E-1,2.700024247E-1
9.134565980E-1,-1.282817032E-2,-6.688974500E-1,2.700024247E-1
9.154402920E-1,-1.160643995E-2,-6.823364496E-1,2.693915665E-1
9.174549860E-1,-8.552113548E-3,-7.110471725E-1,2.736676335E-1
9.194384490E-1,-6.108652335E-3,-7.397578359E-1,2.748893499E-1
9.214522200E-1,-4.276056774E-3,-7.501425147E-1,2.748893499E-1
9.234672990E-1,-1.221730490E-3,-7.788531780E-1,2.803871334E-1
9.254503780E-1,0.000000000E0,-8.045095205E-1,2.816088796E-1
9.274646090E-1,1.221730490E-3,-8.142833710E-1,2.828305960E-1
9.294497650E-1,1.832595794E-3,-8.381071091E-1,2.864958048E-1
9.314629980E-1,3.054326167E-3,-8.588765264E-1,2.877175212E-1
9.334466910E-1,6.108652335E-3,-8.680394888E-1,2.889392674E-1
9.354609240E-1,7.941247895E-3,-8.857545853E-1,2.919935882E-1
9.374440030E-1,9.773843922E-3,-9.059131742E-1,2.950479090E-1
9.394580810E-1,1.099557430E-2,-9.132435322E-1,2.974913716E-1
9.414414680E-1,1.466076635E-2,-9.346238375E-1,2.962696552E-1
9.434563150E-1,1.588249579E-2,-9.529497623E-1,3.017674387E-1
9.454393170E-1,1.527163107E-2,-9.627236128E-1,3.005456924E-1
9.474535490E-1,1.710422710E-2,-9.841039181E-1,3.029891551E-1
9.494380890E-1,1.649336144E-2,-9.957103729E-1,3.017674387E-1
9.514516290E-1,1.649336144E-2,-1.020144939E0,3.048217595E-1
9.534660930E-1,1.649336144E-2,-1.043357849E0,3.072652221E-1
9.554497860E-1,1.527163107E-2,-1.057407737E0,3.090978265E-1
9.574630190E-1,1.527163107E-2,-1.086118460E0,3.121521473E-1
9.594476360E-1,1.160643995E-2,-1.113607287E0,3.145956099E-1
9.614612530E-1,9.162978269E-3,-1.131322384E0,3.164281845E-1
9.634449470E-1,9.162978269E-3,-1.160033107E0,3.176499307E-1
9.654587180E-1,1.466076635E-2,-1.193630695E0,3.133738637E-1
9.674427960E-1,1.893682219E-2,-1.208291411E0,3.121521473E-1
9.694574910E-1,3.420845419E-2,-1.238834739E0,3.145956099E-1
9.714403380E-1,4.886921868E-2,-1.265101910E0,3.121521473E-1
9.734548010E-1,5.497787148E-2,-1.279762745E0,3.097086847E-1
9.754384960E-1,6.169738993E-2,-1.300532103E0,3.072652221E-1
9.774526500E-1,6.658431143E-2,-1.326188445E0,3.005456924E-1
9.794667290E-1,6.902777404E-2,-1.340238333E0,2.987131178E-1
9.814505010E-1,7.330382615E-2,-1.361618638E0,2.962696552E-1
9.834643480E-1,7.391469181E-2,-1.373835921E0,2.938261926E-1
9.854479650E-1,7.819075137E-2,-1.395216227E0,2.944370508E-1
9.874625060E-1,8.002334833E-2,-1.415985584E0,2.926044464E-1
9.894471220E-1,8.368854225E-2,-1.423926830E0,2.950479090E-1
9.914603550E-1,8.552113175E-2,-1.437976837E0,2.950479090E-1
9.934443560E-1,8.857546002E-2,-1.453248382E0,3.005456924E-1
9.954568960E-1,8.979719132E-2,-1.457524419E0,3.042109013E-1
9.974415140E-1,9.040805697E-2,-1.469130874E0,3.090978265E-1
9.994563610E-1,8.979719132E-2,-1.472796082E0,3.176499307E-1
1.001438747E0,8.918632567E-2,-1.473407030E0,3.213151097E-1
1.003453596E0,8.796459436E-2,-1.474017859E0,3.298672438E-1
1.005437289E0,8.735372871E-2,-1.469741821E0,3.341432810E-1
1.007450829E0,8.674286306E-2,-1.469130874E0,3.390302062E-1
1.009467139E0,8.246681094E-2,-1.459967971E0,3.457497358E-1
1.011449832E0,8.368854225E-2,-1.455691934E0,3.494149148E-1
1.013463450E0,8.185594529E-2,-1.445918083E0,3.555235863E-1
1.015447375E0,7.635815442E-2,-1.430035591E0,3.579670191E-1
1.017460991E0,7.269296050E-2,-1.422705173E0,3.591887653E-1
1.019444609E0,6.841690838E-2,-1.404379249E0,3.555235863E-1
1.021458456E0,6.414084882E-2,-1.382998943E0,3.561344445E-1
1.023442535E0,5.803219974E-2,-1.372003317E0,3.573561609E-1
1.025456998E0,5.375614017E-2,-1.352455616E0,3.585779071E-1
1.027440384E0,4.581489414E-2,-1.331686258E0,3.597996235E-1
1.029455463E0,4.337143153E-2,-1.322523236E0,3.573561609E-1
1.031438465E0,3.359758854E-2,-1.307251573E0,3.573561609E-1
1.033452081E0,2.443460934E-2,-1.291980028E0,3.585779071E-1
1.035466468E0,2.199114859E-2,-1.284038782E0,3.579670191E-1
1.037449316E0,1.160643995E-2,-1.269988894E0,3.573561609E-1
1.039464625E0,1.832595794E-3,-1.254106402E0,3.591887653E-1
1.041448011E0,-3.665191587E-3,-1.245554209E0,3.591887653E-1
1.043461552E0,-1.527163107E-2,-1.226617455E0,3.573561609E-1
1.045445860E0,-2.138028294E-2,-1.216843605E0,3.591887653E-1
1.047459786E0,-3.298672289E-2,-1.202182770E0,3.567453027E-1
1.049444633E0,-4.276056588E-2,-1.182635069E0,3.579670191E-1
1.051458173E0,-4.459316283E-2,-1.176526427E0,3.579670191E-1
1.053441252E0,-5.742133409E-2,-1.163087368E0,3.585779071E-1
1.055456330E0,-6.291911751E-2,-1.152702689E0,3.549126983E-1
1.057439178E0,-6.658431143E-2,-1.147815824E0,3.536909819E-1
1.059453334E0,-7.330382615E-2,-1.144761443E0,3.512475193E-1
1.061436720E0,-7.880161703E-2,-1.141096234E0,3.457497358E-1
1.063451106E0,-8.185594529E-2,-1.141096234E0,3.433062732E-1
1.065465647E0,-8.552113175E-2,-1.142318010E0,3.329215646E-1
1.067448955E0,-9.040805697E-2,-1.145983219E0,3.243694305E-1
1.069464034E0,-9.468411654E-2,-1.147815824E0,3.219259977E-1
1.071446883E0,-9.957103431E-2,-1.156367898E0,3.145956099E-1
1.073461576E0,-9.834930301E-2,-1.171028733E0,3.066543639E-1
1.075444424E0,-1.014036313E-1,-1.180802464E0,3.029891551E-1
1.077459502E0,-1.044579595E-1,-1.199739337E0,2.962696552E-1
1.079442581E0,-1.075122803E-1,-1.210734963E0,2.932153046E-1
1.081455429E0,-1.075122803E-1,-1.233947754E0,2.883284092E-1
1.083440045E0,-1.075122803E-1,-1.257160664E0,2.809980214E-1
1.085454201E0,-1.105666086E-1,-1.270599723E0,2.797762752E-1
1.087437896E0,-1.099557430E-1,-1.296256065E0,2.736676335E-1
1.089453358E0,-1.099557430E-1,-1.320690632E0,2.675589919E-1
1.091435514E0,-1.099557430E-1,-1.332907915E0,2.651155293E-1
1.093450208E0,-1.087340117E-1,-1.357953429E0,2.632829249E-1
1.095464671E0,-1.081231460E-1,-1.379333735E0,2.602286041E-1
1.097447827E0,-1.075122803E-1,-1.388496757E0,2.565633953E-1
1.099461598E0,-1.056796908E-1,-1.410487890E0,2.559525371E-1
1.101445599E0,-1.044579595E-1,-1.431257248E0,2.528982162E-1
1.103459524E0,-1.020144969E-1,-1.442252874E0,2.541199327E-1
1.105443756E0,-1.001819000E-1,-1.458746195E0,2.535090744E-1
1.107457604E0,-9.285151958E-2,-1.477072120E0,2.510656118E-1
1.109441606E0,-8.857546002E-2,-1.482569933E0,2.504547536E-1
1.111455838E0,-8.307767659E-2,-1.498452425E0,2.498438805E-1
1.113438532E0,-7.635815442E-2,-1.504561067E0,2.516764700E-1
1.115452457E0,-6.658431143E-2,-1.513113260E0,2.492330223E-1
1.117467150E0,-5.619960278E-2,-1.519832730E0,2.541199327E-1
1.119450614E0,-5.192354694E-2,-1.525330544E0,2.492330223E-1
1.121465616E0,-4.214970022E-2,-1.528384805E0,2.492330223E-1
1.123449309E0,-3.237585723E-2,-1.527163148E0,2.492330223E-1
1.125462850E0,-2.504547499E-2,-1.526552200E0,2.474004179E-1
1.127446544E0,-1.649336144E-2,-1.517389297E0,2.425135076E-1
1.129461622E0,-7.330383174E-3,-1.505782843E0,2.394591719E-1
1.131445393E0,-4.276056774E-3,-1.497230768E0,2.382374406E-1
1.133458317E0,7.941247895E-3,-1.477683067E0,2.302961946E-1
1.135442550E0,1.588249579E-2,-1.452637553E0,2.272418737E-1
1.137456475E0,2.015855350E-2,-1.440420270E0,2.241875380E-1
1.139439245E0,2.748893574E-2,-1.406822681E0,2.174680233E-1
1.141454324E0,3.237585723E-2,-1.389718413E0,2.138028294E-1
1.143438249E0,3.970624134E-2,-1.354899168E0,2.089159191E-1
1.145451558E0,4.459316283E-2,-1.319468975E0,2.015855312E-1
1.147466329E0,4.886921868E-2,-1.301142931E0,1.991420686E-1
1.149450870E0,5.436700583E-2,-1.260825872E0,1.936442852E-1
1.151463871E0,6.047565863E-2,-1.223563075E0,1.875356287E-1
1.153446950E0,6.414084882E-2,-1.200961113E0,1.838704348E-1
1.155461336E0,6.658431143E-2,-1.156978726E0,1.783726513E-1
1.157445107E0,7.086037099E-2,-1.114218235E0,1.789835095E-1
1.159459262E0,7.208210230E-2,-1.091005325E0,1.759291887E-1
1.161442033E0,7.696902007E-2,-1.046412110E0,1.722639948E-1
1.163457112E0,7.880161703E-2,-1.003040791E0,1.673770845E-1
1.165441344E0,7.880161703E-2,-9.786061049E-1,1.667662114E-1
1.167455499E0,8.185594529E-2,-9.334021211E-1,1.661553532E-1
1.169439194E0,8.185594529E-2,-8.869763613E-1,1.643227488E-1
1.171453119E0,8.429940045E-2,-8.655960560E-1,1.631010175E-1
1.173467273E0,8.552113175E-2,-8.191702962E-1,1.606575549E-1
1.175451275E0,8.246681094E-2,-7.947356701E-1,1.588249654E-1
1.177465047E0,8.246681094E-2,-7.476990819E-1,1.557706445E-1
1.179448125E0,8.246681094E-2,-7.018841505E-1,1.521054506E-1
1.181462896E0,8.307767659E-2,-6.835582256E-1,1.508837193E-1
1.183446359E0,8.124507964E-2,-6.371324658E-1,1.447750628E-1
1.185460514E0,8.124507964E-2,-5.943718553E-1,1.429424733E-1
1.187444132E0,7.635815442E-2,-5.729916096E-1,1.362229437E-1
1.189458979E0,7.574728876E-2,-5.357288122E-1,1.288925707E-1
1.191442365E0,7.452555746E-2,-5.002986193E-1,1.246165112E-1
1.193455521E0,7.391469181E-2,-4.801400900E-1,1.215621829E-1
1.195438984E0,7.147123665E-2,-4.502076805E-1,1.148426682E-1
1.197453447E0,7.024950534E-2,-4.178318381E-1,1.081231460E-1
1.199437372E0,7.024950534E-2,-4.068362415E-1,1.044579595E-1
1.201451604E0,7.024950534E-2,-3.824016452E-1,1.001819000E-1
1.203465452E0,7.024950534E-2,-3.579670191E-1,9.407325089E-2
1.205449377E0,7.086037099E-2,-3.457497358E-1,8.918632567E-2
1.207462686E0,7.391469181E-2,-3.274237812E-1,8.246681094E-2
1.209448150E0,7.513642311E-2,-3.182607889E-1,7.941248268E-2
1.211461075E0,7.635815442E-2,-3.005456924E-1,7.452555746E-2
1.213445153E0,7.757988572E-2,-2.809980214E-1,6.658431143E-2
1.215460232E0,8.063421398E-2,-2.742784917E-1,6.414084882E-2
1.217443540E0,8.063421398E-2,-2.602286041E-1,5.619960278E-2
1.219456773E0,8.124507964E-2,-2.449569702E-1,4.825835302E-2
1.221440852E0,8.185594529E-2,-2.388483137E-1,4.886921868E-2
1.223454622E0,8.246681094E-2,-2.254092693E-1,4.031710699E-2
1.225438932E0,8.246681094E-2,-2.144137025E-1,3.481931984E-2
1.227452780E0,8.491026610E-2,-2.119702399E-1,3.359758854E-2
1.229467858E0,8.429940045E-2,-2.034181207E-1,2.687807009E-2
1.231451014E0,8.429940045E-2,-1.942551434E-1,2.076941915E-2
1.233464170E0,8.552113175E-2,-1.905899495E-1,1.954768784E-2
1.235447555E0,8.552113175E-2,-1.826487035E-1,1.221730467E-2
1.237463942E0,8.613199741E-2,-1.765400618E-1,6.108652335E-3
1.239446097E0,8.735372871E-2,-1.734857261E-1,3.665191587E-3
1.241459330E0,8.735372871E-2,-1.685988009E-1,6.108652451E-4
1.243443562E0,8.429940045E-2,-1.655444801E-1,-1.832595794E-3
1.245458410E0,8.613199741E-2,-1.588249654E-1,-7.941247895E-3
1.247442412E0,8.491026610E-2,-1.527163088E-1,-1.160643995E-2
1.249458106E0,8.429940045E-2,-1.502728462E-1,-1.649336144E-2
1.251439645E0,8.307767659E-2,-1.472185254E-1,-1.954768784E-2
1.253454032E0,8.185594529E-2,-1.398881376E-1,-2.260201424E-2
1.255437419E0,8.063421398E-2,-1.398881376E-1,-2.626720630E-2
1.257451881E0,8.002334833E-2,-1.362229437E-1,-2.626720630E-2
1.259465499E0,7.941248268E-2,-1.319468915E-1,-3.237585723E-2
1.261449424E0,7.819075137E-2,-1.319468915E-1,-3.115412779E-2
1.263463578E0,7.513642311E-2,-1.264491081E-1,-3.298672289E-2
1.265447042E0,7.452555746E-2,-1.258382350E-1,-3.237585723E-2
1.267460890E0,7.208210230E-2,-1.221730486E-1,-3.604105115E-2
1.269446045E0,6.963863969E-2,-1.209513173E-1,-3.787364438E-2
1.271458739E0,6.719517708E-2,-1.166752651E-1,-3.787364438E-2
1.273443586E0,6.597344577E-2,-1.191187203E-1,-3.909537569E-2
1.275456512E0,6.475171447E-2,-1.148426682E-1,-3.543018550E-2
1.277440206E0,6.169738993E-2,-1.130100712E-1,-3.787364438E-2
1.279455284E0,6.047565863E-2,-1.111774743E-1,-3.665191308E-2
1.281437824E0,5.864306539E-2,-1.105666086E-1,-3.787364438E-2
1.283452903E0,5.681046844E-2,-1.099557430E-1,-3.787364438E-2
1.285466443E0,5.497787148E-2,-1.081231460E-1,-3.970624134E-2
1.287450752E0,5.192354694E-2,-1.075122803E-1,-4.092797264E-2
1.289465524E0,5.253441259E-2,-1.062905490E-1,-4.398229718E-2
1.291449140E0,4.642575979E-2,-1.026253626E-1,-4.276056588E-2
1.293462450E0,4.520402849E-2,-9.957103431E-2,-4.276056588E-2
1.295446374E0,4.398229718E-2,-1.001819000E-1,-4.337143153E-2
1.297460222E0,3.848451003E-2,-9.896016866E-2,-4.581489414E-2
1.299444224E0,3.726277873E-2,-9.651670605E-2,-4.703662544E-2
1.301458148E0,3.543018550E-2,-9.773843735E-2,-4.825835302E-2
1.303440919E0,3.359758854E-2,-9.529497474E-2,-4.642575979E-2
1.305455690E0,3.176499158E-2,-9.651670605E-2,-4.764748737E-2
1.307439307E0,3.115412779E-2,-9.651670605E-2,-5.070181563E-2
1.309454078E0,2.748893574E-2,-9.773843735E-2,-5.192354694E-2
1.311437772E0,2.687807009E-2,-9.896016866E-2,-4.948008433E-2
1.313451927E0,2.626720630E-2,-1.001819000E-1,-5.436700583E-2
1.315465545E0,2.321287990E-2,-1.026253626E-1,-5.681046844E-2
1.317449777E0,2.443460934E-2,-1.026253626E-1,-5.497787148E-2
1.319463317E0,2.138028294E-2,-1.069014147E-1,-5.681046844E-2
1.321446088E0,2.138028294E-2,-1.123992056E-1,-5.925392732E-2
1.323461243E0,2.076941915E-2,-1.117883399E-1,-5.925392732E-2
1.325444937E0,2.321287990E-2,-1.172861308E-1,-6.230825558E-2
1.327459016E0,2.260201424E-2,-1.197295859E-1,-6.169738993E-2
1.329444017E0,1.954768784E-2,-1.227839142E-1,-6.475171447E-2
1.331457173E0,2.138028294E-2,-1.270599663E-1,-6.475171447E-2
1.333440560E0,2.076941915E-2,-1.270599663E-1,-6.414084882E-2
1.335454791E0,2.199114859E-2,-1.295034289E-1,-6.536258012E-2
1.337438793E0,2.015855350E-2,-1.295034289E-1,-6.780604273E-2
1.339452642E0,2.199114859E-2,-1.313360333E-1,-6.841690838E-2
1.341466412E0,1.893682219E-2,-1.295034289E-1,-6.963863969E-2
1.343450722E0,1.893682219E-2,-1.301143020E-1,-6.902777404E-2
1.345463954E0,1.588249579E-2,-1.276708394E-1,-6.780604273E-2
1.347447032E0,1.832595654E-2,-1.264491081E-1,-6.658431143E-2
1.349462727E0,1.588249579E-2,-1.227839142E-1,-6.963863969E-2
1.351445881E0,1.649336144E-2,-1.209513173E-1,-6.963863969E-2
1.353459730E0,1.527163107E-2,-1.117883399E-1,-6.658431143E-2
1.355443039E0,1.404990070E-2,-1.081231460E-1,-6.719517708E-2
1.357457194E0,1.466076635E-2,-1.050688252E-1,-6.475171447E-2
1.359441504E0,1.099557430E-2,-9.285151958E-2,-6.597344577E-2
1.361455967E0,9.773843922E-3,-8.491026610E-2,-6.352998316E-2
1.363438815E0,1.099557430E-2,-7.819075137E-2,-6.291911751E-2
1.365452970E0,8.552113548E-3,-6.597344577E-2,-6.047565863E-2
1.367467434E0,6.719517522E-3,-5.436700583E-2,-5.803219974E-2
1.369451743E0,7.330383174E-3,-5.070181563E-2,-5.681046844E-2
1.371465591E0,5.497787148E-3,-3.665191308E-2,-5.192354694E-2
1.373448593E0,4.886921961E-3,-3.237585723E-2,-5.009094998E-2
1.375464286E0,3.054326167E-3,-1.954768784E-2,-4.581489414E-2
1.377447057E0,1.832595794E-3,-7.330383174E-3,-3.970624134E-2
1.379460981E0,0.000000000E0,-4.276056774E-3,-3.420845419E-2
1.381444907E0,3.054326167E-3,1.099557430E-2,-3.115412779E-2
1.383458524E0,-1.221730490E-3,2.076941915E-2,-2.382374369E-2
1.385442140E0,0.000000000E0,2.626720630E-2,-2.076941915E-2
1.387456373E0,-6.108652451E-4,3.787364438E-2,-1.466076635E-2
1.389440683E0,-6.108652451E-4,4.764748737E-2,-7.330383174E-3
1.391454530E0,-1.221730490E-3,5.253441259E-2,-4.276056774E-3
1.393438147E0,0.000000000E0,6.169738993E-2,1.832595794E-3
1.395451380E0,1.832595794E-3,7.208210230E-2,6.108652451E-4
1.397467073E0,2.443460980E-3,7.757988572E-2,4.276056774E-3
1.399450460E0,2.443460980E-3,8.613199741E-2,9.162978269E-3
1.401463770E0,6.108652335E-3,9.162978828E-2,1.282817032E-2
1.403448078E0,4.276056774E-3,9.468411654E-2,1.649336144E-2
1.405462157E0,7.330383174E-3,9.712757170E-2,1.832595654E-2
1.407446466E0,9.773843922E-3,9.896016866E-2,1.954768784E-2
1.409460083E0,1.160643995E-2,9.834930301E-2,2.260201424E-2
1.411443393E0,1.404990070E-2,9.468411654E-2,2.748893574E-2
1.413457010E0,1.527163107E-2,9.590584040E-2,2.626720630E-2
1.415442165E0,2.015855350E-2,9.285151958E-2,2.748893574E-2
1.417455475E0,2.199114859E-2,9.101892263E-2,2.687807009E-2
1.419438861E0,2.260201424E-2,8.857546002E-2,2.809980139E-2
1.421452401E0,2.382374369E-2,8.979719132E-2,2.565634064E-2
1.423467711E0,2.565634064E-2,9.101892263E-2,1.954768784E-2
1.425450558E0,2.626720630E-2,9.407325089E-2,1.893682219E-2
1.427465637E0,2.993239649E-2,9.590584040E-2,1.282817032E-2
1.429449254E0,3.176499158E-2,9.957103431E-2,7.941247895E-3
1.431462871E0,3.420845419E-2,1.014036313E-1,2.443460980E-3
1.433445873E0,3.359758854E-2,1.032362282E-1,-2.443460980E-3
1.435460335E0,3.665191308E-2,1.056796908E-1,-1.160643995E-2
1.437443722E0,3.909537569E-2,1.032362282E-1,-1.343903504E-2
1.439458493E0,4.031710699E-2,1.007927656E-1,-2.260201424E-2
1.441441956E0,3.970624134E-2,1.026253626E-1,-2.687807009E-2
1.443456112E0,4.398229718E-2,9.773843735E-2,-3.481931984E-2
1.445440037E0,4.520402849E-2,9.834930301E-2,-4.459316283E-2
1.447454268E0,4.398229718E-2,9.773843735E-2,-5.009094998E-2
1.449439117E0,4.642575979E-2,9.224065393E-2,-5.558873713E-2
1.451452042E0,4.948008433E-2,8.979719132E-2,-6.475171447E-2
1.453465581E0,4.886921868E-2,8.857546002E-2,-6.780604273E-2
1.455450275E0,4.948008433E-2,8.796459436E-2,-7.452555746E-2
1.457463739E0,5.314527452E-2,8.368854225E-2,-7.880161703E-2
1.459448125E0,5.558873713E-2,8.307767659E-2,-8.185594529E-2
1.461461050E0,5.925392732E-2,7.941248268E-2,-8.613199741E-2
1.463445666E0,5.986479297E-2,7.757988572E-2,-8.796459436E-2
1.465460130E0,6.169738993E-2,7.635815442E-2,-9.101892263E-2
1.467443132E0,6.169738993E-2,7.391469181E-2,-9.285151958E-2
1.469457671E0,6.352998316E-2,7.513642311E-2,-9.712757170E-2
1.471441365E0,6.536258012E-2,6.963863969E-2,-9.590584040E-2
1.473455137E0,7.147123665E-2,6.475171447E-2,-9.407325089E-2
1.475439138E0,6.902777404E-2,6.475171447E-2,-9.590584040E-2
1.477453909E0,6.963863969E-2,6.108652428E-2,-9.712757170E-2
1.479436372E0,7.391469181E-2,5.619960278E-2,-9.468411654E-2
1.481450220E0,7.208210230E-2,5.742133409E-2,-9.407325089E-2
1.483464760E0,7.696902007E-2,5.436700583E-2,-9.529497474E-2
1.485448454E0,8.002334833E-2,5.131268129E-2,-9.407325089E-2
1.487462301E0,8.185594529E-2,5.131268129E-2,-9.407325089E-2
1.489446842E0,8.307767659E-2,4.886921868E-2,-9.101892263E-2
1.491460074E0,8.735372871E-2,4.948008433E-2,-8.918632567E-2
1.493443845E0,8.918632567E-2,4.886921868E-2,-8.735372871E-2
1.495458232E0,9.224065393E-2,4.642575979E-2,-8.429940045E-2
1.497441617E0,9.468411654E-2,4.520402849E-2,-8.491026610E-2
1.499456158E0,9.468411654E-2,4.581489414E-2,-8.368854225E-2
1.501439775E0,9.651670605E-2,4.214970022E-2,-8.124507964E-2
1.503454314E0,9.651670605E-2,3.787364438E-2,-7.880161703E-2
1.505437393E0,1.007927656E-1,3.665191308E-2,-7.452555746E-2
1.507451472E0,1.020144969E-1,2.932153270E-2,-7.024950534E-2
1.509466627E0,1.032362282E-1,2.626720630E-2,-6.841690838E-2
1.511449398E0,1.050688252E-1,1.832595654E-2,-6.414084882E-2
1.513463785E0,1.069014147E-1,1.282817032E-2,-6.352998316E-2
1.515446632E0,1.123992056E-1,6.719517522E-3,-6.108652428E-2
1.517460788E0,1.123992056E-1,-1.221730490E-3,-5.558873713E-2
1.519445943E0,1.166752651E-1,-9.773843922E-3,-5.375614017E-2
1.521459868E0,1.154535338E-1,-1.527163107E-2,-5.253441259E-2
1.523443178E0,1.185078546E-1,-2.321287990E-2,-4.825835302E-2
1.525457409E0,1.203404516E-1,-3.237585723E-2,-4.459316283E-2
1.527440719E0,1.197295859E-1,-3.787364438E-2,-4.214970022E-2
1.529456490E0,1.203404516E-1,-4.764748737E-2,-4.337143153E-2
1.531438953E0,1.203404516E-1,-5.925392732E-2,-4.092797264E-2
1.533453109E0,1.221730486E-1,-6.230825558E-2,-3.970624134E-2
1.535467495E0,1.221730486E-1,-7.452555746E-2,-3.665191308E-2
1.537451496E0,1.240056455E-1,-8.246681094E-2,-3.543018550E-2
1.539464806E0,1.240056455E-1,-9.407325089E-2,-3.481931984E-2
1.541447807E0,1.221730486E-1,-1.069014147E-1,-3.420845419E-2
1.543462040E0,1.227839142E-1,-1.123992056E-1,-3.420845419E-2
1.545446273E0,1.227839142E-1,-1.295034289E-1,-3.481931984E-2
1.547460504E0,1.185078546E-1,-1.398881376E-1,-3.298672289E-2
1.549445430E0,1.203404516E-1,-1.453859210E-1,-3.176499158E-2
1.551458047E0,1.197295859E-1,-1.576032341E-1,-3.359758854E-2
1.553441125E0,1.160643995E-1,-1.655444801E-1,-3.543018550E-2
1.555456204E0,1.166752651E-1,-1.740965992E-1,-3.481931984E-2
1.557440129E0,1.148426682E-1,-1.820378453E-1,-3.359758854E-2
1.559454053E0,1.130100712E-1,-1.918116808E-1,-3.359758854E-2
1.561436747E0,1.123992056E-1,-1.954768747E-1,-3.359758854E-2
1.563451826E0,1.099557430E-1,-2.028072625E-1,-3.420845419E-2
1.565465443E0,1.075122803E-1,-2.125810981E-1,-3.420845419E-2
1.567449137E0,1.044579595E-1,-2.131919712E-1,-3.481931984E-2
1.569464446E0,1.032362282E-1,-2.229658216E-1,-3.359758854E-2
1.571447525E0,1.032362282E-1,-2.272418737E-1,-3.543018550E-2
1.573461142E0,1.014036313E-1,-2.321287990E-1,-3.420845419E-2
1.575445143E0,9.590584040E-2,-2.370157093E-1,-3.665191308E-2
1.577459299E0,9.407325089E-2,-2.431243658E-1,-3.665191308E-2
1.579442916E0,9.224065393E-2,-2.480112910E-1,-3.604105115E-2
1.581456533E0,9.040805697E-2,-2.528982162E-1,-3.787364438E-2
1.583440458E0,8.918632567E-2,-2.577851415E-1,-3.665191308E-2
1.585454998E0,8.613199741E-2,-2.638937831E-1,-4.153883830E-2
1.587438614E0,8.185594529E-2,-2.700024247E-1,-4.337143153E-2
1.589453386E0,8.002334833E-2,-2.736676335E-1,-4.276056588E-2
1.591467234E0,8.002334833E-2,-2.803871334E-1,-4.276056588E-2
1.593449773E0,7.819075137E-2,-2.871066630E-1,-4.459316283E-2
1.595464237E0,7.574728876E-2,-2.895501256E-1,-4.703662544E-2
1.597447007E0,7.513642311E-2,-2.944370508E-1,-4.642575979E-2
1.599462394E0,7.513642311E-2,-2.974913716E-1,-5.131268129E-2
1.601446934E0,7.635815442E-2,-3.023782969E-1,-5.009094998E-2
1.603460243E0,7.330382615E-2,-3.036000133E-1,-5.253441259E-2
1.605443630E0,7.269296050E-2,-3.072652221E-1,-5.314527452E-2
1.607457708E0,7.086037099E-2,-3.066543639E-1,-5.436700583E-2
1.609443248E0,7.086037099E-2,-3.078760803E-1,-5.803219974E-2
1.611455942E0,7.086037099E-2,-3.090978265E-1,-5.925392732E-2
1.613439252E0,6.597344577E-2,-3.060434759E-1,-5.864306539E-2
1.615454099E0,6.658431143E-2,-3.072652221E-1,-6.291911751E-2
1.617437716E0,6.719517708E-2,-3.054326177E-1,-6.352998316E-2
1.619450949E0,6.780604273E-2,-3.023782969E-1,-6.719517708E-2
1.621465489E0,6.719517708E-2,-3.054326177E-1,-6.780604273E-2
1.623449183E0,6.597344577E-2,-3.042109013E-1,-6.902777404E-2
1.625463261E0,6.536258012E-2,-3.011565804E-1,-6.902777404E-2
1.627447263E0,6.719517708E-2,-3.029891551E-1,-7.269296050E-2
1.629462111E0,6.291911751E-2,-3.011565804E-1,-7.452555746E-2
1.631445189E0,6.352998316E-2,-2.974913716E-1,-7.330382615E-2
1.633459268E0,6.169738993E-2,-2.968805134E-1,-7.574728876E-2
1.635441808E0,5.803219974E-2,-2.926044464E-1,-7.452555746E-2
1.637457425E0,5.558873713E-2,-2.858849466E-1,-7.452555746E-2
1.639440888E0,5.375614017E-2,-2.834414840E-1,-7.696902007E-2
1.641453737E0,4.948008433E-2,-2.767219543E-1,-7.330382615E-2
1.643437814E0,4.825835302E-2,-2.681698501E-1,-7.391469181E-2
1.645452201E0,4.459316283E-2,-2.645046413E-1,-7.330382615E-2
1.647467357E0,4.520402849E-2,-2.547308207E-1,-7.024950534E-2
1.649450666E0,4.153883830E-2,-2.461786866E-1,-6.658431143E-2
1.651464514E0,3.970624134E-2,-2.419026345E-1,-6.902777404E-2
1.653447976E0,3.543018550E-2,-2.284636050E-1,-6.536258012E-2
1.655462748E0,3.237585723E-2,-2.174680233E-1,-5.986479297E-2
1.657446134E0,2.687807009E-2,-2.089159191E-1,-6.108652428E-2
1.659459674E0,2.321287990E-2,-1.954768747E-1,-5.742133409E-2
1.661443676E0,1.954768784E-2,-1.826487035E-1,-5.558873713E-2
1.663457216E0,1.771509275E-2,-1.759291887E-1,-5.314527452E-2
1.665441217E0,1.404990070E-2,-1.612684280E-1,-5.009094998E-2
1.667455911E0,1.099557430E-2,-1.508837193E-1,-4.886921868E-2
1.669439606E0,6.108652335E-3,-1.337794960E-1,-4.337143153E-2
1.671453222E0,1.832595794E-3,-1.136209369E-1,-3.970624134E-2
1.673467070E0,1.832595794E-3,-1.081231460E-1,-3.787364438E-2
1.675451072E0,-3.054326167E-3,-8.796459436E-2,-3.665191308E-2
1.677464919E0,-7.941247895E-3,-6.963863969E-2,-3.665191308E-2
1.679449152E0,-6.719517522E-3,-5.925392732E-2,-3.176499158E-2
1.681463307E0,-9.773843922E-3,-4.153883830E-2,-3.115412779E-2
1.683447001E0,-1.160643995E-2,-1.954768784E-2,-2.871066704E-2
1.685460850E0,-1.588249579E-2,-1.282817032E-2,-2.687807009E-2
1.687444543E0,-1.527163107E-2,6.719517522E-3,-2.443460934E-2
1.689459929E0,-1.893682219E-2,2.565634064E-2,-2.138028294E-2
1.691441778E0,-2.015855350E-2,3.420845419E-2,-2.443460934E-2
1.693456625E0,-2.138028294E-2,5.436700583E-2,-2.076941915E-2
1.695440550E0,-2.321287990E-2,6.780604273E-2,-1.954768784E-2
1.697454706E0,-2.321287990E-2,7.513642311E-2,-1.954768784E-2
1.699436938E0,-2.321287990E-2,9.101892263E-2,-1.954768784E-2
1.701452247E0,-2.382374369E-2,9.773843735E-2,-2.138028294E-2
1.703465788E0,-2.443460934E-2,1.087340117E-1,-2.199114859E-2
1.705450096E0,-2.321287990E-2,1.160643995E-1,-2.321287990E-2
1.707463714E0,-2.260201424E-2,1.233947799E-1,-2.260201424E-2
1.709447946E0,-2.260201424E-2,1.295034289E-1,-2.504547499E-2
1.711461871E0,-2.321287990E-2,1.380555481E-1,-2.687807009E-2
1.713446180E0,-2.260201424E-2,1.380555481E-1,-2.809980139E-2
1.715459027E0,-2.382374369E-2,1.441642046E-1,-3.115412779E-2
1.717443953E0,-2.076941915E-2,1.472185254E-1,-3.237585723E-2
1.719457570E0,-2.199114859E-2,1.484402567E-1,-3.481931984E-2
1.721440648E0,-2.138028294E-2,1.490511149E-1,-3.848451003E-2
1.723455419E0,-2.382374369E-2,1.508837193E-1,-4.214970022E-2
1.725438729E0,-2.260201424E-2,1.490511149E-1,-4.092797264E-2
1.727452961E0,-2.260201424E-2,1.478293836E-1,-4.398229718E-2
1.729468655E0,-2.076941915E-2,1.459967941E-1,-4.825835302E-2
1.731450811E0,-2.199114859E-2,1.435533315E-1,-5.070181563E-2
1.733465273E0,-2.015855350E-2,1.392772794E-1,-5.131268129E-2
1.735449814E0,-2.138028294E-2,1.362229437E-1,-5.314527452E-2
1.737462815E0,-2.076941915E-2,1.325577646E-1,-5.375614017E-2
1.739446201E0,-1.893682219E-2,1.240056455E-1,-5.375614017E-2
1.741460973E0,-1.893682219E-2,1.209513173E-1,-5.497787148E-2
1.743444589E0,-1.893682219E-2,1.130100712E-1,-5.742133409E-2
1.745458514E0,-1.649336144E-2,1.056796908E-1,-5.803219974E-2
1.747442516E0,-1.771509275E-2,1.014036313E-1,-5.742133409E-2
1.749457902E0,-1.588249579E-2,9.040805697E-2,-6.108652428E-2
1.751440058E0,-1.588249579E-2,8.307767659E-2,-5.986479297E-2
1.753454444E0,-1.588249579E-2,8.124507964E-2,-6.108652428E-2
1.755437214E0,-1.710422710E-2,7.147123665E-2,-6.108652428E-2
1.757451370E0,-1.527163107E-2,5.925392732E-2,-5.986479297E-2
1.759466218E0,-1.588249579E-2,5.681046844E-2,-6.108652428E-2
1.761449604E0,-1.466076635E-2,4.642575979E-2,-6.291911751E-2
1.763464298E0,-1.466076635E-2,4.153883830E-2,-6.414084882E-2
1.765447146E0,-1.343903504E-2,3.420845419E-2,-6.475171447E-2
1.767461609E0,-1.527163107E-2,2.626720630E-2,-6.475171447E-2
1.769445919E0,-1.343903504E-2,1.954768784E-2,-6.475171447E-2
1.771459458E0,-1.466076635E-2,1.160643995E-2,-6.597344577E-2
1.773443076E0,-1.649336144E-2,1.221730490E-3,-6.597344577E-2
1.775457924E0,-1.588249579E-2,-3.054326167E-3,-6.536258012E-2
1.777441617E0,-1.710422710E-2,-1.343903504E-2,-6.536258012E-2
1.779454465E0,-1.832595654E-2,-2.382374369E-2,-6.414084882E-2
1.781438852E0,-1.649336144E-2,-2.626720630E-2,-6.414084882E-2
1.783452622E0,-1.649336144E-2,-3.604105115E-2,-6.536258012E-2
1.785467701E0,-1.771509275E-2,-4.153883830E-2,-6.291911751E-2
1.787450471E0,-1.588249579E-2,-4.642575979E-2,-6.414084882E-2
1.789465935E0,-1.710422710E-2,-5.436700583E-2,-6.230825558E-2
1.791448937E0,-1.527163107E-2,-5.864306539E-2,-6.047565863E-2
1.793462476E0,-1.404990070E-2,-6.230825558E-2,-5.986479297E-2
1.795445863E0,-1.221730467E-2,-6.475171447E-2,-5.925392732E-2
1.797461019E0,-1.404990070E-2,-6.780604273E-2,-5.619960278E-2
1.799444943E0,-1.099557430E-2,-7.024950534E-2,-5.375614017E-2
1.801457253E0,-1.099557430E-2,-6.963863969E-2,-5.436700583E-2
1.803441947E0,-9.773843922E-3,-6.658431143E-2,-5.497787148E-2
1.805455486E0,-1.038470957E-2,-6.658431143E-2,-5.192354694E-2
1.807440104E0,-9.162978269E-3,-6.414084882E-2,-4.886921868E-2
1.809455106E0,-1.160643995E-2,-6.108652428E-2,-4.642575979E-2
1.811437953E0,-1.160643995E-2,-5.803219974E-2,-5.009094998E-2
1.813451801E0,-1.038470957E-2,-5.192354694E-2,-4.886921868E-2
1.815466264E0,-1.099557430E-2,-5.131268129E-2,-4.764748737E-2
1.817449881E0,-1.038470957E-2,-4.398229718E-2,-4.703662544E-2
1.819463729E0,-9.773843922E-3,-3.909537569E-2,-4.520402849E-2
1.821447192E0,-8.552113548E-3,-3.665191308E-2,-4.459316283E-2
1.823461040E0,-1.343903504E-2,-2.626720630E-2,-4.642575979E-2
1.825444965E0,-1.038470957E-2,-2.199114859E-2,-5.009094998E-2
1.827459735E0,-9.773843922E-3,-1.893682219E-2,-4.703662544E-2
1.829444353E0,-9.773843922E-3,-8.552113548E-3,-4.764748737E-2
1.831457662E0,-1.282817032E-2,-2.443460980E-3,-4.886921868E-2
1.833440740E0,-1.282817032E-2,6.108652335E-3,-5.192354694E-2
1.835455204E0,-1.160643995E-2,1.893682219E-2,-5.131268129E-2
1.837437975E0,-1.343903504E-2,2.504547499E-2,-5.803219974E-2
1.839453284E0,-1.527163107E-2,3.481931984E-2,-5.925392732E-2
1.841466824E0,-1.771509275E-2,4.581489414E-2,-6.108652428E-2
1.843450287E0,-1.466076635E-2,5.070181563E-2,-5.986479297E-2
1.845465058E0,-1.893682219E-2,5.925392732E-2,-6.780604273E-2
1.847448368E0,-1.954768784E-2,6.780604273E-2,-6.902777404E-2
1.849463138E0,-2.199114859E-2,7.269296050E-2,-6.841690838E-2
1.851445909E0,-2.199114859E-2,8.063421398E-2,-7.208210230E-2
1.853459834E0,-2.199114859E-2,8.735372871E-2,-7.269296050E-2
1.855444758E0,-2.321287990E-2,9.040805697E-2,-7.452555746E-2
1.857457991E0,-2.504547499E-2,9.834930301E-2,-7.819075137E-2
1.859441301E0,-2.565634064E-2,9.957103431E-2,-7.574728876E-2
1.861456071E0,-2.748893574E-2,1.056796908E-1,-8.124507964E-2
1.863439458E0,-2.748893574E-2,1.087340117E-1,-8.002334833E-2
1.865453306E0,-2.809980139E-2,1.123992056E-1,-8.063421398E-2
1.867467537E0,-2.871066704E-2,1.136209369E-1,-8.246681094E-2
1.869451847E0,-3.115412779E-2,1.191187203E-1,-8.429940045E-2
1.871465079E0,-3.054326214E-2,1.191187203E-1,-8.246681094E-2
1.873449389E0,-3.054326214E-2,1.172861308E-1,-8.429940045E-2
1.875462852E0,-3.115412779E-2,1.178969890E-1,-8.552113175E-2
1.877447545E0,-3.176499158E-2,1.160643995E-1,-8.491026610E-2
1.879461086E0,-3.481931984E-2,1.142318025E-1,-8.552113175E-2
1.881444473E0,-3.543018550E-2,1.130100712E-1,-8.552113175E-2
1.883459166E0,-3.481931984E-2,1.069014147E-1,-8.552113175E-2
1.885442937E0,-3.665191308E-2,1.062905490E-1,-8.552113175E-2
1.887457939E0,-3.604105115E-2,1.014036313E-1,-8.735372871E-2
1.889441632E0,-3.665191308E-2,1.007927656E-1,-8.613199741E-2
1.891455250E0,-3.787364438E-2,9.407325089E-2,-8.307767659E-2
1.893439175E0,-3.848451003E-2,9.285151958E-2,-8.246681094E-2
1.895453330E0,-3.298672289E-2,8.674286306E-2,-7.880161703E-2
1.897466870E0,-3.359758854E-2,7.880161703E-2,-8.002334833E-2
1.899450871E0,-3.359758854E-2,7.819075137E-2,-8.063421398E-2
1.901465027E0,-3.115412779E-2,7.391469181E-2,-7.757988572E-2
1.903447568E0,-2.993239649E-2,6.719517708E-2,-7.635815442E-2
1.905462338E0,-3.054326214E-2,6.475171447E-2,-7.635815442E-2
1.907445955E0,-3.359758854E-2,6.047565863E-2,-7.391469181E-2
1.909460726E0,-2.993239649E-2,5.619960278E-2,-7.147123665E-2
1.911443266E0,-2.932153270E-2,5.375614017E-2,-7.086037099E-2
1.913458345E0,-2.932153270E-2,4.948008433E-2,-6.780604273E-2
1.915441116E0,-2.993239649E-2,4.398229718E-2,-7.024950534E-2
1.917455194E0,-3.054326214E-2,4.337143153E-2,-6.902777404E-2
1.919439196E0,-2.809980139E-2,3.787364438E-2,-6.352998316E-2
1.921454044E0,-2.993239649E-2,3.726277873E-2,-6.291911751E-2
1.923437430E0,-2.932153270E-2,3.481931984E-2,-5.925392732E-2
1.925450663E0,-2.993239649E-2,3.115412779E-2,-5.619960278E-2
1.927465664E0,-2.809980139E-2,3.115412779E-2,-5.558873713E-2
1.929450358E0,-2.871066704E-2,2.748893574E-2,-5.131268129E-2
1.931463283E0,-2.809980139E-2,2.626720630E-2,-4.764748737E-2
1.933446669E0,-2.748893574E-2,2.748893574E-2,-4.581489414E-2
1.935461747E0,-2.748893574E-2,2.626720630E-2,-4.092797264E-2
1.937444749E0,-2.626720630E-2,2.748893574E-2,-3.726277873E-2
1.939458981E0,-2.748893574E-2,2.748893574E-2,-3.665191308E-2
1.941442368E0,-2.871066704E-2,2.809980139E-2,-3.115412779E-2
1.943456447E0,-2.565634064E-2,2.626720630E-2,-2.809980139E-2
1.945439909E0,-2.871066704E-2,2.687807009E-2,-2.504547499E-2
1.947454681E0,-2.687807009E-2,2.565634064E-2,-2.076941915E-2
1.949439606E0,-2.871066704E-2,2.504547499E-2,-1.832595654E-2
1.951451837E0,-2.932153270E-2,2.504547499E-2,-1.832595654E-2
1.953466378E0,-2.748893574E-2,2.138028294E-2,-1.343903504E-2
1.955449148E0,-2.809980139E-2,1.588249579E-2,-1.160643995E-2
1.957463612E0,-2.993239649E-2,1.404990070E-2,-9.773843922E-3
1.959448152E0,-3.237585723E-2,9.162978269E-3,-7.330383174E-3
1.961462076E0,-2.932153270E-2,3.054326167E-3,-5.497787148E-3
1.963446001E0,-3.298672289E-2,-6.108652451E-4,-5.497787148E-3
1.965459849E0,-3.665191308E-2,-5.497787148E-3,-1.832595794E-3
1.967443312E0,-3.787364438E-2,-1.038470957E-2,0.000000000E0
1.969459237E0,-3.665191308E-2,-1.649336144E-2,3.054326167E-3
1.971442008E0,-3.848451003E-2,-2.443460934E-2,6.108652335E-3
1.973455240E0,-4.031710699E-2,-2.687807009E-2,5.497787148E-3
1.975439319E0,-4.153883830E-2,-3.237585723E-2,9.773843922E-3
1.977453475E0,-4.031710699E-2,-3.970624134E-2,9.773843922E-3
1.979467860E0,-4.153883830E-2,-3.970624134E-2,1.038470957E-2
1.981451632E0,-4.276056588E-2,-4.703662544E-2,1.282817032E-2
1.983464787E0,-4.276056588E-2,-5.192354694E-2,1.160643995E-2
1.985448558E0,-4.276056588E-2,-5.864306539E-2,1.343903504E-2
1.987462944E0,-4.153883830E-2,-6.597344577E-2,1.404990070E-2
1.989447330E0,-4.276056588E-2,-7.147123665E-2,1.282817032E-2
1.991461101E0,-4.459316283E-2,-7.330382615E-2,1.343903504E-2
1.993444257E0,-4.398229718E-2,-7.941248268E-2,1.343903504E-2
1.995459027E0,-4.459316283E-2,-7.941248268E-2,1.221730467E-2
1.997442106E0,-4.398229718E-2,-8.307767659E-2,1.160643995E-2
1.999457108E0,-4.337143153E-2,-8.674286306E-2,9.773843922E-3
2.001439032E0,-4.092797264E-2,-8.613199741E-2,7.941247895E-3
2.003454342E0,-3.848451003E-2,-8.491026610E-2,9.773843922E-3
2.005438112E0,-3.970624134E-2,-7.880161703E-2,7.330383174E-3
2.007452576E0,-4.092797264E-2,-7.757988572E-2,5.497787148E-3
2.009467347E0,-4.153883830E-2,-6.963863969E-2,2.443460980E-3
2.011451271E0,-4.459316283E-2,-6.230825558E-2,2.443460980E-3
2.013464196E0,-4.459316283E-2,-5.925392732E-2,1.221730490E-3
2.015448506E0,-4.581489414E-2,-4.581489414E-2,1.221730490E-3
2.017461738E0,-4.764748737E-2,-3.604105115E-2,-1.221730490E-3
2.019446047E0,-4.581489414E-2,-3.115412779E-2,6.108652451E-4
2.021459665E0,-4.886921868E-2,-2.015855350E-2,-3.665191587E-3
2.023443050E0,-4.642575979E-2,-1.527163107E-2,-1.832595794E-3
2.025457437E0,-4.948008433E-2,-1.832595794E-3,0.000000000E0
2.027440208E0,-4.642575979E-2,1.160643995E-2,1.221730490E-3
2.029456517E0,-4.764748737E-2,1.588249579E-2,-6.108652451E-4
2.031439596E0,-4.886921868E-2,3.176499158E-2,-6.108652451E-4
2.033453751E0,-4.886921868E-2,4.948008433E-2,-1.832595794E-3
2.035466753E0,-5.070181563E-2,5.375614017E-2,1.832595794E-3
2.037451293E0,-5.192354694E-2,7.086037099E-2,1.832595794E-3
2.039465217E0,-5.253441259E-2,9.101892263E-2,1.221730490E-3
2.041448527E0,-5.314527452E-2,9.712757170E-2,1.221730490E-3
2.043462760E0,-5.314527452E-2,1.136209369E-1,6.108652451E-4
2.045446684E0,-5.131268129E-2,1.270599663E-1,3.665191587E-3
2.047460840E0,-5.131268129E-2,1.331686229E-1,2.443460980E-3
2.049445149E0,-5.253441259E-2,1.435533315E-1,1.221730490E-3
2.051459073E0,-5.558873713E-2,1.551597714E-1,3.054326167E-3
2.053441845E0,-5.375614017E-2,1.612684280E-1,2.443460980E-3
2.055456616E0,-5.375614017E-2,1.698205322E-1,1.832595794E-3
2.057440540E0,-5.436700583E-2,1.710422635E-1,1.221730490E-3
2.059453850E0,-5.497787148E-2,1.765400618E-1,3.054326167E-3
2.061468006E0,-5.314527452E-2,1.795943826E-1,4.276056774E-3
2.063452007E0,-5.497787148E-2,1.789835095E-1,4.276056774E-3
2.065465855E0,-5.681046844E-2,1.814269722E-1,3.665191587E-3
2.067449856E0,-5.681046844E-2,1.789835095E-1,6.108652335E-3
2.069464550E0,-5.803219974E-2,1.789835095E-1,6.108652335E-3
2.071447398E0,-5.864306539E-2,1.753183305E-1,5.497787148E-3
2.073461553E0,-5.864306539E-2,1.685988009E-1,7.330383174E-3
2.075444632E0,-5.742133409E-2,1.655444801E-1,6.108652335E-3
2.077460019E0,-5.681046844E-2,1.569923609E-1,6.108652335E-3
2.079443635E0,-5.681046844E-2,1.502728462E-1,7.941247895E-3
2.081456637E0,-5.864306539E-2,1.447750628E-1,4.886921961E-3
2.083441562E0,-5.925392732E-2,1.337794960E-1,7.941247895E-3
2.085455102E0,-5.497787148E-2,1.215621829E-1,6.108652335E-3
2.087438104E0,-5.436700583E-2,1.148426682E-1,8.552113548E-3
2.089454182E0,-5.436700583E-2,1.032362282E-1,7.941247895E-3
2.091436876E0,-5.375614017E-2,9.590584040E-2,7.330383174E-3
2.093451032E0,-5.253441259E-2,8.124507964E-2,4.886921961E-3
2.095465263E0,-5.253441259E-2,6.780604273E-2,6.108652335E-3
2.097449189E0,-5.192354694E-2,6.169738993E-2,6.719517522E-3
2.099462498E0,-5.253441259E-2,4.825835302E-2,6.108652335E-3
2.101446192E0,-5.009094998E-2,3.115412779E-2,4.886921961E-3
2.103460347E0,-5.070181563E-2,2.748893574E-2,1.832595794E-3
2.105444349E0,-5.131268129E-2,1.221730467E-2,3.054326167E-3
2.107458427E0,-5.070181563E-2,-6.108652451E-4,4.276056774E-3
2.109442737E0,-4.948008433E-2,-8.552113548E-3,2.443460980E-3
2.111456354E0,-5.131268129E-2,-1.954768784E-2,4.886921961E-3
2.113439125E0,-5.070181563E-2,-3.298672289E-2,3.665191587E-3
2.115450511E0,-4.886921868E-2,-3.848451003E-2,6.108652335E-3
2.117467435E0,-4.703662544E-2,-4.764748737E-2,1.832595794E-3
2.119452591E0,-4.642575979E-2,-5.375614017E-2,4.886921961E-3
2.121465824E0,-4.459316283E-2,-5.864306539E-2,6.719517522E-3
2.123449517E0,-4.214970022E-2,-6.414084882E-2,7.941247895E-3
2.125463442E0,-4.092797264E-2,-6.780604273E-2,8.552113548E-3
2.127447983E0,-4.214970022E-2,-6.658431143E-2,8.552113548E-3
2.129463138E0,-4.092797264E-2,-6.658431143E-2,1.160643995E-2
2.131445832E0,-4.214970022E-2,-6.658431143E-2,9.773843922E-3
2.133459372E0,-4.092797264E-2,-6.475171447E-2,1.282817032E-2
2.135443681E0,-3.848451003E-2,-6.169738993E-2,1.343903504E-2
2.137457222E0,-3.970624134E-2,-5.925392732E-2,1.710422710E-2
2.139440685E0,-3.726277873E-2,-5.436700583E-2,2.138028294E-2
2.141454840E0,-3.665191308E-2,-5.009094998E-2,2.260201424E-2
2.143439073E0,-3.665191308E-2,-4.642575979E-2,2.504547499E-2
2.145452612E0,-3.787364438E-2,-3.848451003E-2,2.565634064E-2
2.147466460E0,-3.787364438E-2,-3.237585723E-2,3.054326214E-2
2.149451385E0,-4.031710699E-2,-2.504547499E-2,3.237585723E-2
2.151464387E0,-4.092797264E-2,-1.527163107E-2,3.604105115E-2
2.153448389E0,-4.398229718E-2,-2.443460980E-3,3.543018550E-2
2.155461544E0,-4.520402849E-2,2.443460980E-3,3.848451003E-2
2.157446161E0,-4.459316283E-2,1.649336144E-2,4.398229718E-2
2.159460086E0,-4.520402849E-2,2.443460934E-2,4.398229718E-2
2.161443088E0,-4.703662544E-2,3.848451003E-2,4.764748737E-2
2.163458166E0,-4.703662544E-2,5.619960278E-2,5.131268129E-2
2.165442168E0,-4.703662544E-2,6.047565863E-2,5.436700583E-2
2.167455785E0,-4.276056588E-2,7.696902007E-2,5.864306539E-2
2.169441248E0,-4.092797264E-2,9.101892263E-2,6.230825558E-2
2.171453327E0,-3.970624134E-2,9.957103431E-2,6.475171447E-2
2.173467789E0,-3.543018550E-2,1.136209369E-1,7.147123665E-2
2.175452330E0,-3.115412779E-2,1.252273768E-1,7.757988572E-2
2.177465255E0,-2.993239649E-2,1.313360333E-1,7.880161703E-2
2.179448948E0,-2.199114859E-2,1.423316002E-1,8.002334833E-2
2.181463181E0,-1.404990070E-2,1.484402567E-1,8.491026610E-2
2.183446491E0,-1.221730467E-2,1.533271819E-1,8.491026610E-2
2.185461876E0,-5.497787148E-3,1.545489132E-1,8.368854225E-2
2.187445032E0,-6.108652451E-4,1.557706445E-1,8.552113175E-2
2.189460111E0,7.941247895E-3,1.539380401E-1,8.491026610E-2
2.191442804E0,1.343903504E-2,1.508837193E-1,8.307767659E-2
2.193457037E0,1.771509275E-2,1.496619880E-1,8.307767659E-2
2.195439731E0,2.321287990E-2,1.441642046E-1,7.880161703E-2
2.197453963E0,2.932153270E-2,1.362229437E-1,7.452555746E-2
2.199469273E0,3.054326214E-2,1.325577646E-1,7.269296050E-2
2.201452966E0,3.726277873E-2,1.233947799E-1,6.658431143E-2
2.203466814E0,4.092797264E-2,1.136209369E-1,6.108652428E-2
2.205450585E0,4.276056588E-2,1.075122803E-1,5.619960278E-2
2.207464356E0,4.948008433E-2,1.001819000E-1,5.253441259E-2
2.209449050E0,5.070181563E-2,9.101892263E-2,4.581489414E-2
2.211462590E0,5.253441259E-2,8.674286306E-2,4.214970022E-2
2.213446207E0,5.864306539E-2,7.941248268E-2,3.787364438E-2
2.215460747E0,6.352998316E-2,6.963863969E-2,3.176499158E-2
2.217443749E0,6.780604273E-2,6.780604273E-2,2.748893574E-2
2.219458212E0,7.635815442E-2,6.169738993E-2,2.260201424E-2
2.221441906E0,8.307767659E-2,5.742133409E-2,2.015855350E-2
2.223455524E0,9.224065393E-2,5.253441259E-2,1.588249579E-2
2.225439525E0,1.044579595E-1,4.825835302E-2,1.099557430E-2
2.227453604E0,1.093448773E-1,4.825835302E-2,6.719517522E-3
2.229468451E0,1.197295859E-1,4.398229718E-2,3.665191587E-3
2.231451145E0,1.343903542E-1,4.214970022E-2,-4.886921961E-3
2.233465685E0,1.404990107E-1,4.276056588E-2,-7.941247895E-3
2.235448994E0,1.545489132E-1,4.642575979E-2,-1.282817032E-2
2.237464073E0,1.661553532E-1,4.703662544E-2,-1.832595654E-2
2.239447229E0,1.728748679E-1,5.558873713E-2,-2.382374369E-2
2.241460461E0,1.905899495E-1,6.230825558E-2,-3.237585723E-2
2.243445001E0,2.070833147E-1,7.574728876E-2,-3.848451003E-2
2.245459157E0,2.138028294E-1,8.735372871E-2,-3.970624134E-2
2.247442927E0,2.284636050E-1,1.105666086E-1,-4.520402849E-2
2.249458006E0,2.431243658E-1,1.386664063E-1,-4.642575979E-2
2.251441700E0,2.498438805E-1,1.569923609E-1,-4.764748737E-2
2.253454317E0,2.632829249E-1,1.960877478E-1,-4.825835302E-2
2.255438627E0,2.718350291E-1,2.186897546E-1,-4.825835302E-2
2.257452397E0,2.864958048E-1,2.700024247E-1,-4.398229718E-2
2.259466630E0,3.078760803E-1,3.200933933E-1,-3.848451003E-2
2.261449632E0,3.182607889E-1,3.500257730E-1,-3.420845419E-2
2.263464171E0,3.390302062E-1,4.086688459E-1,-2.504547499E-2
2.265447558E0,3.640756905E-1,4.679227769E-1,-1.404990070E-2
2.267461944E0,3.781255782E-1,5.021312237E-1,-9.773843922E-3
2.269446868E0,4.092797041E-1,5.632177591E-1,2.443460980E-3
2.271459563E0,4.410447180E-1,6.267477274E-1,1.038470957E-2
2.273443257E0,4.581489265E-1,6.560692787E-1,1.649336144E-2
2.275455258E0,4.972442985E-1,7.153232098E-1,2.626720630E-2
2.277440798E0,5.363397002E-1,7.660250068E-1,3.420845419E-2
2.279455877E0,5.552765131E-1,7.904596329E-1,3.848451003E-2
2.281439186E0,5.955936313E-1,8.326093554E-1,4.337143153E-2
2.283453034E0,6.395758986E-1,8.698720932E-1,4.703662544E-2
2.285467497E0,6.633996367E-1,8.820894361E-1,4.948008433E-2
2.287451499E0,7.092145681E-1,9.059131742E-1,5.253441259E-2
2.289466578E0,7.330383062E-1,9.126327038E-1,5.070181563E-2
2.291449425E0,7.800748944E-1,9.224064946E-1,4.948008433E-2
2.293463504E0,8.313875794E-1,9.217956662E-1,4.520402849E-2
2.295446967E0,8.521569967E-1,9.211847782E-1,4.031710699E-2
2.297461353E0,9.040805697E-1,9.059131742E-1,3.604105115E-2
2.299444740E0,9.535606503E-1,8.857545853E-1,2.504547499E-2
2.301458665E0,9.773843884E-1,8.698720932E-1,1.954768784E-2
2.303442896E0,1.029918790E0,8.338310719E-1,9.773843922E-3
2.305456514E0,1.080009699E0,7.904596329E-1,-3.054326167E-3
2.307440438E0,1.103833556E0,7.629706860E-1,-9.162978269E-3
2.309455209E0,1.152702689E0,7.037167549E-1,-2.504547499E-2
2.311438903E0,1.197906733E0,6.352998614E-1,-3.420845419E-2
2.313452828E0,1.222341299E0,5.992587805E-1,-4.153883830E-2
2.315465753E0,1.269377947E0,5.198463202E-1,-5.558873713E-2
2.317450601E0,1.292590857E0,4.752531648E-1,-6.108652428E-2
2.319464525E0,1.342070937E0,3.878994286E-1,-7.086037099E-2
2.321447604E0,1.387274981E0,2.981022298E-1,-8.002334833E-2
2.323461683E0,1.414763927E0,2.504547536E-1,-8.491026610E-2
2.325445376E0,1.460578799E0,1.582140923E-1,-8.979719132E-2
2.327459224E0,1.507004619E0,6.841690838E-2,-9.590584040E-2
2.329443842E0,1.530828357E0,2.260201424E-2,-9.896016866E-2
2.331457766E0,1.573588848E0,-6.475171447E-2,-9.957103431E-2
2.333441460E0,1.621236324E0,-1.459967941E-1,-9.896016866E-2
2.335455923E0,1.640173197E0,-1.808161139E-1,-1.007927656E-1
2.337438925E0,1.684766293E0,-2.516764700E-1,-9.712757170E-2
2.339453157E0,1.723861694E0,-3.103195429E-1,-9.285151958E-2
2.341467620E0,1.742798567E0,-3.365867436E-1,-9.162978828E-2
2.343451006E0,1.780061364E0,-3.866777122E-1,-8.429940045E-2
2.345464855E0,1.813048005E0,-4.245513380E-1,-7.819075137E-2
2.347448856E0,1.829541445E0,-4.416555762E-1,-7.269296050E-2
2.349464242E0,1.862528086E0,-4.709770977E-1,-6.963863969E-2
2.351446706E0,1.879632354E0,-4.819726646E-1,-6.108652428E-2
2.353460553E0,1.912619114E0,-4.960225821E-1,-5.375614017E-2
2.355443940E0,1.942551494E0,-5.051855445E-1,-4.398229718E-2
2.357457788E0,1.959655762E0,-5.070181489E-1,-3.909537569E-2
2.359442020E0,1.991420746E0,-5.033529401E-1,-3.115412779E-2
2.361456560E0,2.025018215E0,-4.966334403E-1,-2.138028294E-2
2.363439946E0,2.040900707E0,-4.917465150E-1,-1.527163107E-2
2.365453717E0,2.072665691E0,-4.746423066E-1,-8.552113548E-3
2.367469103E0,2.100765467E0,-4.544837475E-1,-6.108652451E-4
2.369452181E0,2.115426302E0,-4.428772926E-1,2.443460980E-3
2.371466414E0,2.146580458E0,-4.147774875E-1,1.038470957E-2
2.373450108E0,2.174069405E0,-3.836233616E-1,1.588249579E-2
2.375464571E0,2.185675859E0,-3.683517575E-1,1.893682219E-2
2.377447958E0,2.217440844E0,-3.371976018E-1,2.565634064E-2
2.379462114E0,2.241875410E0,-3.029891551E-1,3.176499158E-2
2.381444499E0,2.256536245E0,-2.846632004E-1,3.420845419E-2
2.383459347E0,2.282803535E0,-2.528982162E-1,3.726277873E-2
2.385443272E0,2.297464132E0,-2.376265824E-1,4.031710699E-2
2.387457427E0,2.322509766E0,-2.058615834E-1,4.520402849E-2
2.389441198E0,2.345722437E0,-1.771509200E-1,4.764748737E-2
2.391454738E0,2.359161615E0,-1.618792862E-1,5.131268129E-2
2.393438971E0,2.379930973E0,-1.337794960E-1,5.864306539E-2
2.395452203E0,2.400089502E0,-1.075122803E-1,6.291911751E-2
2.397467281E0,2.411085129E0,-9.590584040E-2,6.902777404E-2
2.399450976E0,2.429411173E0,-7.147123665E-2,7.757988572E-2
2.401464516E0,2.447126150E0,-5.253441259E-2,8.674286306E-2
2.403449133E0,2.454456568E0,-4.214970022E-2,9.285151958E-2
2.405462673E0,2.467895508E0,-2.443460934E-2,1.038470939E-1
2.407446444E0,2.483167171E0,-5.497787148E-3,1.123992056E-1
2.409462445E0,2.489275932E0,2.443460980E-3,1.191187203E-1
2.411444293E0,2.498438835E0,2.199114859E-2,1.270599663E-1
2.413458065E0,2.511266947E0,4.092797264E-2,1.392772794E-1
2.415442989E0,2.519208193E0,4.825835302E-2,1.453859210E-1
2.417455991E0,2.525927782E0,6.902777404E-2,1.527163088E-1
2.419439376E0,2.533258200E0,7.574728876E-2,1.600466967E-1
2.421453763E0,2.543031931E0,9.590584040E-2,1.649336219E-1
2.423467303E0,2.554027557E0,1.142318025E-1,1.734857261E-1
2.425451612E0,2.560747147E0,1.276708394E-1,1.783726513E-1
2.427465460E0,2.569299221E0,1.478293836E-1,1.863138974E-1
2.429450078E0,2.579684019E0,1.722639948E-1,1.893682331E-1
2.431464540E0,2.585792542E0,1.869247705E-1,1.936442852E-1
2.433447311E0,2.598620653E0,2.144137025E-1,1.948660165E-1
2.435458160E0,2.611449003E0,2.461786866E-1,1.997529417E-1
2.437444545E0,2.616946697E0,2.638937831E-1,1.991420686E-1
2.439459316E0,2.631607533E0,2.981022298E-1,2.052507252E-1
2.441442395E0,2.650544405E0,3.347541690E-1,2.058615834E-1
2.443457243E0,2.656042099E0,3.543018401E-1,2.095267773E-1
2.445440937E0,2.674978971E0,3.903428912E-1,2.131919712E-1
2.447455015E0,2.692693949E0,4.257730842E-1,2.150245607E-1
2.449439017E0,2.700024366E0,4.471533597E-1,2.174680233E-1
2.451452865E0,2.720182896E0,4.838052690E-1,2.193006277E-1
2.453466481E0,2.728124142E0,5.021312237E-1,2.229658216E-1
2.455450791E0,2.744006634E0,5.375614166E-1,2.247984111E-1
2.457464639E0,2.762943506E0,5.699372888E-1,2.284636050E-1
2.459448256E0,2.771495581E0,5.845980644E-1,2.339613885E-1
2.461462411E0,2.786156416E0,6.151412725E-1,2.388483137E-1
2.463446183E0,2.802038908E0,6.438519955E-1,2.443460971E-1
2.465460645E0,2.809369326E0,6.597344875E-1,2.498438805E-1
2.467443724E0,2.820975780E0,6.853908300E-1,2.571742535E-1
2.469458803E0,2.831971169E0,7.110471725E-1,2.724458873E-1
2.471441573E0,2.836247444E0,7.214318514E-1,2.791654170E-1
2.473455729E0,2.844799519E0,7.458664775E-1,2.907718420E-1
2.475439115E0,2.850297213E0,7.605272532E-1,3.054326177E-1
2.477455655E0,2.850908041E0,7.696902156E-1,3.145956099E-1
2.479437503E0,2.852740765E0,7.892379165E-1,3.371976018E-1
2.481451043E0,2.852129936E0,7.959573865E-1,3.463605940E-1
2.483465506E0,2.851518869E0,8.100073338E-1,3.707951903E-1
2.485449508E0,2.851518869E0,8.234463334E-1,3.940080702E-1
2.487463663E0,2.852129936E0,8.295549750E-1,4.062253833E-1
2.489447973E0,2.851518869E0,8.405506015E-1,4.282165468E-1
2.491461590E0,2.850297213E0,8.503243923E-1,4.495968223E-1
2.493444976E0,2.849686384E0,8.558222055E-1,4.587597847E-1
2.495460055E0,2.851518869E0,8.649851680E-1,4.795292318E-1
2.497442518E0,2.855184078E0,8.704829812E-1,4.972442985E-1
2.499456904E0,2.855184078E0,8.759807348E-1,5.015203953E-1
2.501440675E0,2.857016802E0,8.796459436E-1,5.143485069E-1
2.503455061E0,2.858849287E0,8.790351152E-1,5.271766782E-1
2.505438217E0,2.860071182E0,8.790351152E-1,5.302310586E-1
2.507452373E0,2.862514496E0,8.723155856E-1,5.369505286E-1
2.509467758E0,2.862514496E0,8.649851680E-1,5.430592299E-1
2.511450760E0,2.862514496E0,8.576548100E-1,5.491678715E-1
2.513464608E0,2.864958048E0,8.429940343E-1,5.485569835E-1
2.515447686E0,2.867401361E0,8.326093554E-1,5.497786999E-1
2.517461227E0,2.870455742E0,8.106181622E-1,5.552765131E-1
2.519445921E0,2.876564503E0,7.867944241E-1,5.583308339E-1
2.521460076E0,2.879007816E0,7.751879692E-1,5.601634383E-1
2.523444386E0,2.886338234E0,7.476990819E-1,5.656611919E-1
2.525457618E0,2.893057823E0,7.232644558E-1,5.687155724E-1
2.527441312E0,2.896112204E0,7.110471725E-1,5.717698932E-1
2.529457545E0,2.902220726E0,6.872233748E-1,5.742133260E-1
2.531439776E0,2.908329487E0,6.652322412E-1,5.797111392E-1
2.533453548E0,2.911383867E0,6.536257863E-1,5.821545720E-1
2.535468626E0,2.918103218E0,6.322455406E-1,5.852088928E-1
2.537451474E0,2.924211979E0,6.114761233E-1,5.900958180E-1
2.539466245E0,2.928488016E0,5.974262357E-1,5.913175344E-1
2.541449016E0,2.932764053E0,5.809328556E-1,5.968153477E-1
2.543463786E0,2.939483643E0,5.662720799E-1,6.010913849E-1
2.545447173E0,2.942537785E0,5.589417219E-1,6.035348773E-1
2.547460944E0,2.951700926E0,5.467243791E-1,6.047565937E-1
2.549445945E0,2.954144239E0,5.448917747E-1,6.072000265E-1
2.551459409E0,2.959642172E0,5.387831330E-1,6.078109145E-1
2.553443410E0,2.965139866E0,5.381723046E-1,6.102544069E-1
2.555455796E0,2.967583418E0,5.400048494E-1,6.114761233E-1
2.557441337E0,2.970637798E0,5.424483418E-1,6.163630486E-1
2.559455184E0,2.976746321E0,5.497786999E-1,6.151412725E-1
2.561438263E0,2.975524664E0,5.564982295E-1,6.175847650E-1
2.563451803E0,2.977967978E0,5.717698932E-1,6.212499738E-1
2.565466574E0,2.976135492E0,5.870414972E-1,6.236934066E-1
2.567450499E0,2.975524664E0,5.962044597E-1,6.255260110E-1
2.569465270E0,2.975524664E0,6.139195561E-1,6.279694438E-1
2.571448117E0,2.972470284E0,6.322455406E-1,6.316346526E-1
2.573461888E0,2.970026731E0,6.432411075E-1,6.334672570E-1
2.575445967E0,2.961474657E0,6.621779203E-1,6.365215778E-1
2.577460353E0,2.952311754E0,6.847799420E-1,6.377432942E-1
2.579443201E0,2.948646545E0,6.945537925E-1,6.389650702E-1
2.581458587E0,2.937650919E0,7.177666426E-1,6.407976151E-1
2.583441589E0,2.933985710E0,7.250970602E-1,6.414085031E-1
2.585455514E0,2.923601151E0,7.470881939E-1,6.450737119E-1
2.587439438E0,2.913827181E0,7.696902156E-1,6.462954283E-1
2.589454286E0,2.907107592E0,7.800748944E-1,6.499606371E-1
2.591467519E0,2.896112204E0,8.038986921E-1,6.487388611E-1
2.593450904E0,2.887560129E0,8.289441466E-1,6.505714655E-1
2.595463445E0,2.880840540E0,8.393288255E-1,6.511823535E-1
2.597448370E0,2.869844913E0,8.625417352E-1,6.536257863E-1
2.599463448E0,2.857016802E0,8.857545853E-1,6.572909951E-1
2.601446911E0,2.852129936E0,8.949176073E-1,6.591235995E-1
2.603460760E0,2.839912415E0,9.108000994E-1,6.597344875E-1
2.605444068E0,2.824640989E0,9.236282706E-1,6.633996367E-1
2.607458916E0,2.820364952E0,9.266825914E-1,6.652322412E-1
2.609442917E0,2.806314945E0,9.358455539E-1,6.670648456E-1
2.611457689E0,2.799595356E0,9.370672703E-1,6.682865620E-1
2.613440152E0,2.787378073E0,9.395107627E-1,6.731734872E-1
2.615455153E0,2.776993513E0,9.382890463E-1,6.756169796E-1
2.617438232E0,2.770273924E0,9.352346659E-1,6.762278080E-1
2.619452157E0,2.759278297E0,9.297369123E-1,6.792821288E-1
2.621466004E0,2.747061014E0,9.205739498E-1,6.817256212E-1
2.623449699E0,2.740952253E0,9.162978530E-1,6.805039048E-1
2.625464470E0,2.731789351E0,9.028588533E-1,6.817256212E-1
2.627447779E0,2.720182896E0,8.888089061E-1,6.774495840E-1
2.629462319E0,2.715906858E0,8.802568316E-1,6.762278080E-1
2.631445936E0,2.703078747E0,8.631525636E-1,6.713408828E-1
2.633459553E0,2.692693949E0,8.460483551E-1,6.676757336E-1
2.635442863E0,2.686585426E0,8.399397135E-1,6.640105247E-1
2.637458017E0,2.673757076E0,8.277224302E-1,6.554583907E-1
2.639441712E0,2.662150621E0,8.173376918E-1,6.432411075E-1
2.641454868E0,2.657263756E0,8.155050874E-1,6.377432942E-1
2.643439869E0,2.647490025E0,8.124507666E-1,6.261368990E-1
2.645453717E0,2.645046473E0,8.112290502E-1,6.188064814E-1
2.647467565E0,2.634661913E0,8.093964458E-1,6.053674817E-1
2.649451874E0,2.629774809E0,8.148942590E-1,5.870414972E-1
2.651465106E0,2.629774809E0,8.191702962E-1,5.797111392E-1
2.653448724E0,2.622444391E0,8.319984674E-1,5.607742667E-1
2.655463879E0,2.615114212E0,8.527678847E-1,5.424483418E-1
2.657446650E0,2.613281488E0,8.637634516E-1,5.332853794E-1
2.659460498E0,2.605340242E0,8.967501521E-1,5.155702829E-1
2.661444730E0,2.600453377E0,9.334021211E-1,4.954117239E-1
2.663458655E0,2.593733788E0,9.572258592E-1,4.880813360E-1
2.665442348E0,2.588846922E0,1.006095052E0,4.715879560E-1
2.667456504E0,2.582738161E0,1.058629513E0,4.557054639E-1
2.669440814E0,2.582127333E0,1.084896684E0,4.477642179E-1
2.671454276E0,2.578462124E0,1.144761443E0,4.337143302E-1
2.673468124E0,2.578462124E0,1.199739337E0,4.233296216E-1
2.675451511E0,2.576629639E0,1.230282545E0,4.178318381E-1
2.677465666E0,2.577851295E0,1.286482215E0,4.123340547E-1
2.679450053E0,2.579684019E0,1.316414595E0,4.068362415E-1
2.681464131E0,2.585181713E0,1.376890302E0,4.037819207E-1
2.683447825E0,2.588236094E0,1.432479024E0,4.043927789E-1
2.685461981E0,2.589457750E0,1.461800575E0,4.019493461E-1
2.687445136E0,2.596788168E0,1.509448051E0,4.050036669E-1
2.689460830E0,2.600453377E0,1.560149789E0,4.092797041E-1
2.691443216E0,2.605340242E0,1.580308437E0,4.123340547E-1
2.693457064E0,2.609005451E0,1.620625496E0,4.190535545E-1
2.695441450E0,2.615114212E0,1.654223084E0,4.294382632E-1
2.697455298E0,2.619390249E0,1.668883801E0,4.312708676E-1
2.699439222E0,2.626109600E0,1.690264106E0,4.392121136E-1
2.701453455E0,2.632829189E0,1.703703165E0,4.465425014E-1
2.703467303E0,2.634661913E0,1.709811807E0,4.520402849E-1
2.705450304E0,2.638326883E0,1.709811807E0,4.605923891E-1
2.707464845E0,2.641381264E0,1.700648785E0,4.648684561E-1
2.709449385E0,2.640159607E0,1.696983695E0,4.715879560E-1
2.711462694E0,2.643824816E0,1.675603390E0,4.764748812E-1
2.713446004E0,2.643824816E0,1.665218711E0,4.807509482E-1
2.715460160E0,2.645046473E0,1.632842779E0,4.831944108E-1
2.717445084E0,2.648711681E0,1.601077795E0,4.893030524E-1
2.719458701E0,2.648711681E0,1.581530094E0,4.905247986E-1
2.721441471E0,2.652987719E0,1.543656468E0,4.935791194E-1
2.723455935E0,2.661539793E0,1.503339410E0,4.929682612E-1
2.725440168E0,2.661539793E0,1.484402537E0,4.923573732E-1
2.727454092E0,2.668870211E0,1.441031098E0,4.911356568E-1
2.729469401E0,2.675589800E0,1.397659659E0,4.899139404E-1
2.731451865E0,2.679865837E0,1.378111959E0,4.899139404E-1
2.733466404E0,2.689639568E0,1.332297087E0,4.868595898E-1
2.735450329E0,2.698802710E0,1.288314819E0,4.801400900E-1
2.737463331E0,2.704300404E0,1.265712738E0,4.795292318E-1
2.739447332E0,2.712852478E0,1.224173903E0,4.709770977E-1
2.741461181E0,2.720182896E0,1.184467673E0,4.642575979E-1
2.743445183E0,2.724458933E0,1.160643935E0,4.624249935E-1
2.745458645E0,2.734843731E0,1.122770309E0,4.538728893E-1
2.747442724E0,2.739119768E0,1.105055213E0,4.465425014E-1
2.749457725E0,2.747061014E0,1.069625020E0,4.392121136E-1
2.751440804E0,2.756834745E0,1.039692640E0,4.288274050E-1
2.753455652E0,2.759278297E0,1.025031924E0,4.269948006E-1
2.755437807E0,2.764165163E0,9.987646937E-1,4.147774875E-1
2.757452501E0,2.773939133E0,9.737191796E-1,4.037819207E-1
2.759467273E0,2.776993513E0,9.651671052E-1,3.982841372E-1
2.761450350E0,2.786156416E0,9.456194043E-1,3.872885704E-1
2.763464814E0,2.795930147E0,9.291260242E-1,3.811798990E-1
2.765448278E0,2.804482222E0,9.236282706E-1,3.750712574E-1
2.767462048E0,2.813645363E0,9.120218158E-1,3.640756905E-1
2.769446358E0,2.824029922E0,9.034696817E-1,3.561344445E-1
2.771460206E0,2.828306198E0,9.016370773E-1,3.524692357E-1
2.773444207E0,2.838079929E0,8.967501521E-1,3.433062732E-1
2.775458439E0,2.844799519E0,8.961393237E-1,3.408628106E-1
2.777442056E0,2.852129936E0,8.930850029E-1,3.347541690E-1
2.779455366E0,2.863125324E0,8.912523985E-1,3.280346394E-1
2.781439598E0,2.866179705E0,8.943067193E-1,3.268128932E-1
2.783452830E0,2.875953674E0,8.930850029E-1,3.255911767E-1
2.785467909E0,2.883894920E0,8.924741149E-1,3.243694305E-1
2.787451065E0,2.888781786E0,8.930850029E-1,3.255911767E-1
2.789466450E0,2.893057823E0,8.949176073E-1,3.298672438E-1
2.791449837E0,2.899166346E0,8.875871897E-1,3.335324228E-1
2.793463301E0,2.900388241E0,8.894197941E-1,3.390302062E-1
2.795446379E0,2.904053450E0,8.820894361E-1,3.488040566E-1
2.797462150E0,2.905275106E0,8.759807348E-1,3.573561609E-1
2.799445766E0,2.906496763E0,8.704829812E-1,3.622430861E-1
2.801458153E0,2.908329487E0,8.558222055E-1,3.738495409E-1
2.803443386E0,2.908940315E0,8.356636763E-1,3.866777122E-1
2.805456617E0,2.908329487E0,8.289441466E-1,3.927863538E-1
2.807440542E0,2.906496763E0,8.038986921E-1,4.080579877E-1
2.809456006E0,2.907718658E0,7.886270285E-1,4.135557711E-1
2.811438776E0,2.907107592E0,7.538077235E-1,4.227187634E-1
2.813452317E0,2.904053450E0,7.214318514E-1,4.349360466E-1
2.815467934E0,2.900999069E0,7.012733221E-1,4.379903674E-1
2.817450474E0,2.902220726E0,6.566801667E-1,4.495968223E-1
2.819464629E0,2.895501375E0,6.126978397E-1,4.557054639E-1
2.821448554E0,2.894890308E0,5.894849896E-1,4.575380683E-1
2.823462479E0,2.890614271E0,5.400048494E-1,4.624249935E-1
2.825445865E0,2.885727406E0,4.868595898E-1,4.654793143E-1
2.827459943E0,2.887560129E0,4.605923891E-1,4.673119187E-1
2.829444868E0,2.879618883E0,4.080579877E-1,4.660901725E-1
2.831457793E0,2.874731779E0,3.524692357E-1,4.612032473E-1
2.833441564E0,2.872288465E0,3.243694305E-1,4.593706727E-1
2.835452335E0,2.867401361E0,2.681698501E-1,4.575380683E-1
2.837469491E0,2.859460115E0,2.156354338E-1,4.526511431E-1
2.839453876E0,2.852740765E0,1.875356287E-1,4.483750761E-1
2.841467109E0,2.839301586E0,1.392772794E-1,4.416555762E-1
2.843451649E0,2.834414721E0,1.136209369E-1,4.367686510E-1
2.845465266E0,2.811201811E0,6.658431143E-2,4.276056588E-1
2.847450114E0,2.789210796E0,2.138028294E-2,4.159992337E-1
2.849464270E0,2.778825998E0,-1.832595794E-3,4.111123085E-1
2.851446809E0,2.753169775E0,-3.970624134E-2,3.988949955E-1
2.853460350E0,2.721404552E0,-7.330382615E-2,3.878994286E-1
2.855445505E0,2.701857090E0,-8.979719132E-2,3.830125034E-1
2.857459353E0,2.665815830E0,-1.178969890E-1,3.714060783E-1
2.859442509E0,2.628553152E0,-1.423316002E-1,3.597996235E-1
2.861457279E0,2.608394623E0,-1.521054506E-1,3.530801237E-1
2.863440358E0,2.565023184E0,-1.655444801E-1,3.402519524E-1
2.865454206E0,2.525316954E0,-1.740965992E-1,3.262020350E-1
2.867468592E0,2.500271559E0,-1.753183305E-1,3.207042515E-1
2.869453209E0,2.458121777E0,-1.747074574E-1,3.066543639E-1
2.871466519E0,2.409863472E0,-1.649336219E-1,2.962696552E-1
2.873449289E0,2.388483047E0,-1.588249654E-1,2.877175212E-1
2.875463676E0,2.338392258E0,-1.362229437E-1,2.761110961E-1
2.877448601E0,2.316401005E0,-1.258382350E-1,2.681698501E-1
2.879462140E0,2.266309977E0,-9.224065393E-2,2.571742535E-1
2.881444988E0,2.217440844E0,-5.619960278E-2,2.437352389E-1
2.883459758E0,2.191784382E0,-3.543018550E-2,2.376265824E-1
2.885443376E0,2.139250040E0,9.773843922E-3,2.241875380E-1
2.887457609E0,2.092824221E0,5.925392732E-2,2.125810981E-1
2.889443687E0,2.070222378E0,8.491026610E-2,2.070833147E-1
2.891455458E0,2.015855312E0,1.380555481E-1,1.942551434E-1
2.893439460E0,1.966986060E0,1.893682331E-1,1.814269722E-1
2.895454461E0,1.944994926E0,2.131919712E-1,1.765400618E-1
2.897466540E0,1.897958279E0,2.712241709E-1,1.649336219E-1
2.899451388E0,1.851532578E0,3.231477141E-1,1.533271819E-1
2.901465004E0,1.830152273E0,3.475823104E-1,1.453859210E-1
2.903448314E0,1.786780834E0,3.952298164E-1,1.343903542E-1
2.905462239E0,1.762957096E0,4.453207552E-1,1.270599663E-1
2.907446855E0,1.717142224E0,4.691445231E-1,1.130100712E-1
2.909462165E0,1.669494748E0,5.100724697E-1,9.346238524E-2
2.911444705E0,1.645060062E0,5.296201706E-1,8.796459436E-2
2.913459091E0,1.598634362E0,5.668829679E-1,7.086037099E-2
2.915441939E0,1.554041147E0,5.974262357E-1,5.192354694E-2
2.917456402E0,1.528995752E0,6.096435189E-1,4.214970022E-2
2.919440635E0,1.485013366E0,6.340781450E-1,2.382374369E-2
2.921454483E0,1.440420270E0,6.524040699E-1,0.000000000E0
2.923468715E0,1.419039965E0,6.566801667E-1,-9.773843922E-3
2.925452332E0,1.370170712E0,6.701191664E-1,-3.115412779E-2
2.927465949E0,1.319468975E0,6.780604124E-1,-5.681046844E-2
2.929451720E0,1.298088670E0,6.811147332E-1,-6.780604273E-2
2.931464414E0,1.250441194E0,6.847799420E-1,-9.468411654E-2
2.933447493E0,1.202182770E0,6.853908300E-1,-1.160643995E-1
2.935462263E0,1.178359032E0,6.872233748E-1,-1.307251602E-1
2.937445342E0,1.130100727E0,6.853908300E-1,-1.594358236E-1
2.939460343E0,1.106887817E0,6.860016584E-1,-1.710422635E-1
2.941443499E0,1.058629513E0,6.872233748E-1,-2.009746730E-1
2.943458270E0,1.006095052E0,6.914994717E-1,-2.284636050E-1
2.945441348E0,9.804387093E-1,6.908885837E-1,-2.425135076E-1
2.947455504E0,9.230173826E-1,6.976081133E-1,-2.681698501E-1
2.949440044E0,8.668177724E-1,7.006624341E-1,-2.877175212E-1
2.951453661E0,8.393288255E-1,7.043276429E-1,-2.987131178E-1
2.953467124E0,7.819074988E-1,7.147123218E-1,-3.182607889E-1
2.955450511E0,7.250970602E-1,7.269296646E-1,-3.329215646E-1
2.957465974E0,6.921103001E-1,7.348709106E-1,-3.396410644E-1
2.959449283E0,6.359107494E-1,7.470881939E-1,-3.463605940E-1
2.961462824E0,5.784893632E-1,7.605272532E-1,-3.481931984E-1
2.963448055E0,5.479460955E-1,7.690793276E-1,-3.506366611E-1
2.965461673E0,4.966334403E-1,7.800748944E-1,-3.445279896E-1
2.967444366E0,4.477642179E-1,7.886270285E-1,-3.371976018E-1
2.969459830E0,4.227187634E-1,7.941248417E-1,-3.329215646E-1
2.971442524E0,3.793473244E-1,7.965682745E-1,-3.188716471E-1
2.973456987E0,3.573561609E-1,7.941248417E-1,-3.115412891E-1
2.975440142E0,3.170390725E-1,7.880161405E-1,-2.889392674E-1
2.977454221E0,2.730567753E-1,7.757988572E-1,-2.675589919E-1
2.979468453E0,2.541199327E-1,7.672467232E-1,-2.559525371E-1
2.981451763E0,2.125810981E-1,7.446447611E-1,-2.364048511E-1
2.983465688E0,1.753183305E-1,7.134906054E-1,-2.119702399E-1
2.985450304E0,1.533271819E-1,6.982190013E-1,-2.034181207E-1
2.987463537E0,1.172861308E-1,6.591235995E-1,-1.789835095E-1
2.989448385E0,7.696902007E-2,6.145304441E-1,-1.582140923E-1
2.991461925E0,5.436700583E-2,5.913175344E-1,-1.496619880E-1
2.993446234E0,1.832595654E-2,5.338962078E-1,-1.313360333E-1
2.995458928E0,-2.199114859E-2,4.758640230E-1,-1.142318025E-1
2.997442853E0,-4.092797264E-2,4.434881806E-1,-1.069014147E-1
2.999457393E0,-7.696902007E-2,3.738495409E-1,-9.590584040E-2
3.001440702E0,-1.117883399E-1,2.999348342E-1,-9.162978828E-2
3.003455165E0,-1.301143020E-1,2.602286041E-1,-8.552113175E-2
3.005438937E0,-1.655444801E-1,1.765400618E-1,-8.491026610E-2
3.007453322E0,-1.832595766E-1,1.313360333E-1,-8.307767659E-2
3.009467555E0,-2.156354338E-1,3.848451003E-2,-8.491026610E-2
3.011450249E0,-2.492330223E-1,-6.169738993E-2,-9.162978828E-2
3.013464173E0,-2.657263875E-1,-1.111774743E-1,-9.590584040E-2
3.015449022E0,-2.987131178E-1,-2.186897546E-1,-1.050688252E-1
3.017463254E0,-3.298672438E-1,-3.243694305E-1,-1.178969890E-1
3.019446563E0,-3.481931984E-1,-3.799581826E-1,-1.252273768E-1
3.021461411E0,-3.805690408E-1,-4.929682612E-1,-1.380555481E-1
3.023444105E0,-4.135557711E-1,-6.053674817E-1,-1.539380401E-1
3.025458337E0,-4.288274050E-1,-6.627888083E-1,-1.618792862E-1
3.027441416E0,-4.612032473E-1,-7.764097452E-1,-1.771509200E-1
3.029456725E0,-4.899139404E-1,-8.857545853E-1,-1.942551434E-1
3.031439881E0,-5.039638281E-1,-9.407324791E-1,-2.028072625E-1
3.033454267E0,-5.314527750E-1,-1.050077319E0,-2.168571651E-1
3.035468192E0,-5.589417219E-1,-1.152091861E0,-2.333505303E-1
3.037452117E0,-5.723807216E-1,-1.201571941E0,-2.388483137E-1
3.039465734E0,-6.029239893E-1,-1.293812633E0,-2.480112910E-1
3.041448427E0,-6.169738770E-1,-1.339627504E0,-2.535090744E-1
3.043463814E0,-6.456845403E-1,-1.423316002E0,-2.626720667E-1
3.045447200E0,-6.786713004E-1,-1.500285029E0,-2.687807083E-1
3.047461432E0,-6.927211881E-1,-1.536326051E0,-2.700024247E-1
3.049445742E0,-7.244861722E-1,-1.602910399E0,-2.724458873E-1
3.051459281E0,-7.593054771E-1,-1.662164330E0,-2.730567753E-1
3.053442668E0,-7.770205736E-1,-1.688431501E0,-2.687807083E-1
3.055458055E0,-8.118399382E-1,-1.736078978E0,-2.669481039E-1
3.057440517E0,-8.472700715E-1,-1.781893969E0,-2.596177161E-1
3.059455289E0,-8.655960560E-1,-1.798998117E0,-2.547308207E-1
3.061438598E0,-9.022479653E-1,-1.831984878E0,-2.431243658E-1
3.063452522E0,-9.419541955E-1,-1.857030392E0,-2.351831198E-1
3.065466294E0,-9.602801800E-1,-1.869858503E0,-2.290744632E-1
3.067449988E0,-9.999864101E-1,-1.881464958E0,-2.205223590E-1
3.069465066E0,-1.021977544E0,-1.889406204E0,-2.131919712E-1
3.071447914E0,-1.062294602E0,-1.897347450E0,-2.028072625E-1
3.073462377E0,-1.106276989E0,-1.896125674E0,-1.936442852E-1
3.075445148E0,-1.128268123E0,-1.890627980E0,-1.912008226E-1
3.077459842E0,-1.171639562E0,-1.883908391E0,-1.838704348E-1
3.079443612E0,-1.218065262E0,-1.865582466E0,-1.777617931E-1
3.081458076E0,-1.241889000E0,-1.855197787E0,-1.753183305E-1
3.083441462E0,-1.288925648E0,-1.831374049E0,-1.716531366E-1
3.085455848E0,-1.333518863E0,-1.797165513E0,-1.716531366E-1
3.087440465E0,-1.354899168E0,-1.780672193E0,-1.704314053E-1
3.089454698E0,-1.399492264E0,-1.739744186E0,-1.698205322E-1
3.091468853E0,-1.441031098E0,-1.695761919E0,-1.661553532E-1
3.093451547E0,-1.460578799E0,-1.670716405E0,-1.673770845E-1
3.095466934E0,-1.499063253E0,-1.622458100E0,-1.685988009E-1
3.097449473E0,-1.537547827E0,-1.569312811E0,-1.667662114E-1
3.099463322E0,-1.554652095E0,-1.542434692E0,-1.692096740E-1
3.101446938E0,-1.590693116E0,-1.488678575E0,-1.643227488E-1
3.103461478E0,-1.609019041E0,-1.462411404E0,-1.637118906E-1
3.105445480E0,-1.640173197E0,-1.401935697E0,-1.631010175E-1
3.107458943E0,-1.668272972E0,-1.343903542E0,-1.588249654E-1
3.109442945E0,-1.682933807E0,-1.315192819E0,-1.563815027E-1
3.111456793E0,-1.711033583E0,-1.257160664E0,-1.527163088E-1
3.113440486E0,-1.737911582E0,-1.200350165E0,-1.478293836E-1
3.115454104E0,-1.751350641E0,-1.171639562E0,-1.459967941E-1
3.117469490E0,-1.773341775E0,-1.117883444E0,-1.423316002E-1
3.119452876E0,-1.797165513E0,-1.065348983E0,-1.350012124E-1
3.121466032E0,-1.807550311E0,-1.039081812E0,-1.343903542E-1
3.123449803E0,-1.827708840E0,-9.902125597E-1,-1.288925707E-1
3.125464497E0,-1.844202161E0,-9.474520087E-1,-1.233947799E-1
3.127447960E0,-1.852754235E0,-9.266825914E-1,-1.221730486E-1
3.129463038E0,-1.866193295E0,-8.918632865E-1,-1.191187203E-1
3.131445502E0,-1.874134541E0,-8.588765264E-1,-1.123992056E-1
3.133460504E0,-1.877188921E0,-8.466592431E-1,-1.130100712E-1
3.135444274E0,-1.882075787E0,-8.228355050E-1,-1.087340117E-1
3.137458430E0,-1.885130167E0,-8.118399382E-1,-1.062905490E-1
3.139441432E0,-1.883908391E0,-7.971791625E-1,-1.075122803E-1
3.141455279E0,-1.884519339E0,-7.837401032E-1,-1.032362282E-1
3.143439281E0,-1.884519339E0,-7.806857824E-1,-1.038470939E-1
3.145453514E0,-1.878410578E0,-7.739662528E-1,-1.014036313E-1
3.147467899E0,-1.879021525E0,-7.715228200E-1,-1.038470939E-1
3.149451363E0,-1.877188921E0,-7.727445364E-1,-1.044579595E-1
3.151466057E0,-1.871080279E0,-7.739662528E-1,-1.062905490E-1
3.153448904E0,-1.862528086E0,-7.806857824E-1,-1.087340117E-1
3.155462752E0,-1.858862996E0,-7.837401032E-1,-1.087340117E-1
3.157446369E0,-1.850310802E0,-7.929030657E-1,-1.148426682E-1
3.159461140E0,-1.841758728E0,-8.069530129E-1,-1.160643995E-1
3.161445142E0,-1.837482691E0,-8.148942590E-1,-1.209513173E-1
3.163458143E0,-1.830152273E0,-8.301658630E-1,-1.221730486E-1
3.165442760E0,-1.829541445E0,-8.387179971E-1,-1.276708394E-1
3.167456916E0,-1.823432803E0,-8.564330935E-1,-1.313360333E-1
3.169440610E0,-1.822821856E0,-8.747590184E-1,-1.386664063E-1
3.171454458E0,-1.822211027E0,-8.833111525E-1,-1.398881376E-1
3.173468614E0,-1.822821856E0,-9.016370773E-1,-1.447750628E-1
3.175452922E0,-1.826487064E0,-9.181304574E-1,-1.514945775E-1
3.177466155E0,-1.828319669E0,-9.248499870E-1,-1.514945775E-1
3.179450080E0,-1.835039139E0,-9.358455539E-1,-1.594358236E-1
3.181464235E0,-1.841758728E0,-9.437867999E-1,-1.637118906E-1
3.183448006E0,-1.847867370E0,-9.450085163E-1,-1.655444801E-1
3.185462392E0,-1.853976011E0,-9.431759119E-1,-1.692096740E-1
3.187444625E0,-1.860695481E0,-9.407324791E-1,-1.710422635E-1
3.189460934E0,-1.865582466E0,-9.370672703E-1,-1.734857261E-1
3.191443397E0,-1.874745488E0,-9.272934198E-1,-1.734857261E-1
3.193458091E0,-1.879632354E0,-9.156870246E-1,-1.747074574E-1
3.195440862E0,-1.885130167E0,-9.101892114E-1,-1.728748679E-1
3.197455940E0,-1.892460585E0,-8.955284357E-1,-1.704314053E-1
3.199439635E0,-1.897958279E0,-8.888089061E-1,-1.698205322E-1
3.201452944E0,-1.901623487E0,-8.717046976E-1,-1.698205322E-1
3.203467330E0,-1.907121301E0,-8.527678847E-1,-1.637118906E-1
3.205451332E0,-1.909564734E0,-8.417723179E-1,-1.618792862E-1
3.207465180E0,-1.915673375E0,-8.222246170E-1,-1.551597714E-1
3.209449566E0,-1.919338584E0,-8.002334833E-1,-1.514945775E-1
3.211463337E0,-1.919338584E0,-7.916813493E-1,-1.484402567E-1
3.213446184E0,-1.921782017E0,-7.690793276E-1,-1.429424733E-1
3.215461571E0,-1.925447226E0,-7.507534027E-1,-1.398881376E-1
3.217444880E0,-1.925447226E0,-7.409795523E-1,-1.350012124E-1
3.219458420E0,-1.926669002E0,-7.226535678E-1,-1.282816976E-1
3.221443114E0,-1.928501606E0,-7.098253965E-1,-1.209513173E-1
3.223456039E0,-1.926058173E0,-7.024950385E-1,-1.197295859E-1
3.225440271E0,-1.926058173E0,-6.914994717E-1,-1.172861308E-1
3.227454427E0,-1.924225569E0,-6.890559793E-1,-1.166752651E-1
3.229469275E0,-1.924225569E0,-6.841690540E-1,-1.142318025E-1
3.231452353E0,-1.923003793E0,-6.805039048E-1,-1.123992056E-1
3.233466124E0,-1.919949412E0,-6.811147332E-1,-1.130100712E-1
3.235448895E0,-1.915673375E0,-6.860016584E-1,-1.142318025E-1
3.237463435E0,-1.910175562E0,-6.914994717E-1,-1.148426682E-1
3.239447975E0,-1.905899525E0,-6.976081133E-1,-1.130100712E-1
3.241462515E0,-1.904066920E0,-7.116580009E-1,-1.160643995E-1
3.243445517E0,-1.898569226E0,-7.269296646E-1,-1.227839142E-1
3.245460365E0,-1.895514846E0,-7.360926270E-1,-1.240056455E-1
3.247442828E0,-1.894904017E0,-7.568620443E-1,-1.264491081E-1
3.249458753E0,-1.890017033E0,-7.776314616E-1,-1.282816976E-1
3.251440985E0,-1.890627980E0,-7.874053121E-1,-1.313360333E-1
3.253455140E0,-1.884519339E0,-8.106181622E-1,-1.331686229E-1
3.255439681E0,-1.877799749E0,-8.295549750E-1,-1.392772794E-1
3.257452990E0,-1.872912884E0,-8.411614299E-1,-1.411098689E-1
3.259467684E0,-1.871080279E0,-8.613200188E-1,-1.447750628E-1
3.261450532E0,-1.862528086E0,-8.778133392E-1,-1.514945775E-1
3.263465226E0,-1.857641220E0,-8.875871897E-1,-1.496619880E-1
3.265448689E0,-1.848478198E0,-9.059131742E-1,-1.545489132E-1
3.267463152E0,-1.841147900E0,-9.144652486E-1,-1.563815027E-1
3.269447384E0,-1.831374049E0,-9.334021211E-1,-1.582140923E-1
3.271460925E0,-1.819767594E0,-9.547823668E-1,-1.624901593E-1
3.273445003E0,-1.811826348E0,-9.657779336E-1,-1.631010175E-1
3.275457928E0,-1.798387289E0,-9.877691269E-1,-1.661553532E-1
3.277443391E0,-1.784948230E0,-1.006705880E0,-1.679879427E-1
3.279456932E0,-1.777006984E0,-1.018923283E0,-1.698205322E-1
3.281439394E0,-1.767843962E0,-1.040303469E0,-1.704314053E-1
3.283454473E0,-1.760513663E0,-1.058629513E0,-1.710422635E-1
3.285468321E0,-1.754405022E0,-1.065959811E0,-1.679879427E-1
3.287452322E0,-1.751961470E0,-1.083064079E0,-1.698205322E-1
3.289467478E0,-1.745852828E0,-1.095281363E0,-1.673770845E-1
3.291449019E0,-1.746463776E0,-1.100779176E0,-1.637118906E-1
3.293464020E0,-1.740965962E0,-1.110553026E0,-1.612684280E-1
3.295449329E0,-1.740965962E0,-1.115439892E0,-1.527163088E-1
3.297462792E0,-1.740355134E0,-1.112385631E0,-1.502728462E-1
3.299445948E0,-1.740965962E0,-1.109942198E0,-1.447750628E-1
3.301459180E0,-1.741576791E0,-1.103833556E0,-1.411098689E-1
3.303443489E0,-1.746463776E0,-1.092227101E0,-1.325577646E-1
3.305457260E0,-1.749518037E0,-1.073901057E0,-1.240056455E-1
3.307440955E0,-1.748296380E0,-1.064738154E0,-1.172861308E-1
3.309456109E0,-1.746463776E0,-1.039692640E0,-1.117883399E-1
3.311438573E0,-1.748907208E0,-1.010982037E0,-1.020144969E-1
3.313453037E0,-1.745852828E0,-9.950994849E-1,-9.773843735E-2
3.315466576E0,-1.745852828E0,-9.633345008E-1,-8.979719132E-2
3.317450193E0,-1.741576791E0,-9.315695167E-1,-8.735372871E-2
3.319464965E0,-1.741576791E0,-9.120218158E-1,-8.552113175E-2
3.321448427E0,-1.735468149E0,-8.802568316E-1,-8.124507964E-2
3.323462583E0,-1.729359508E0,-8.423831463E-1,-8.124507964E-2
3.325447123E0,-1.724472642E0,-8.258898258E-1,-8.124507964E-2
3.327461278E0,-1.715309620E0,-7.892379165E-1,-8.246681094E-2
3.329444665E0,-1.708590150E0,-7.745771408E-1,-8.429940045E-2
3.331459128E0,-1.696372747E0,-7.434229851E-1,-9.101892263E-2
3.333441976E0,-1.682322860E0,-7.159340382E-1,-9.529497474E-2
3.335456055E0,-1.676825047E0,-7.024950385E-1,-9.834930301E-2
3.337439748E0,-1.660331726E0,-6.817256212E-1,-1.032362282E-1
3.339453596E0,-1.643227458E0,-6.627888083E-1,-1.123992056E-1
3.341467752E0,-1.634064555E0,-6.548475623E-1,-1.172861308E-1
3.343451753E0,-1.618792892E0,-6.426302195E-1,-1.240056455E-1
3.345465370E0,-1.603521228E0,-6.371324658E-1,-1.313360333E-1
3.347449679E0,-1.596801758E0,-6.352998614E-1,-1.350012124E-1
3.349464066E0,-1.585806131E0,-6.383541822E-1,-1.423316002E-1
3.351447222E0,-1.574810624E0,-6.450737119E-1,-1.490511149E-1
3.353461992E0,-1.567480206E0,-6.560692787E-1,-1.508837193E-1
3.355444763E0,-1.559538960E0,-6.743952036E-1,-1.539380401E-1
3.357460073E0,-1.555873752E0,-7.018841505E-1,-1.582140923E-1
3.359444381E0,-1.555262923E0,-7.159340382E-1,-1.576032341E-1
3.361456691E0,-1.557095528E0,-7.458664775E-1,-1.588249654E-1
3.363441308E0,-1.558928132E0,-7.648032904E-1,-1.557706445E-1
3.365454925E0,-1.564425945E0,-8.020660877E-1,-1.551597714E-1
3.367469004E0,-1.571145415E0,-8.356636763E-1,-1.484402567E-1
3.369453313E0,-1.575421453E0,-8.539896011E-1,-1.478293836E-1
3.371466930E0,-1.579086661E0,-8.912523985E-1,-1.417207420E-1
3.373449932E0,-1.588249683E0,-9.242390990E-1,-1.368338168E-1
3.375466010E0,-1.593747377E0,-9.382890463E-1,-1.331686229E-1
3.377448704E0,-1.598634362E0,-9.657779336E-1,-1.264491081E-1
3.379462552E0,-1.607186437E0,-9.883799553E-1,-1.203404516E-1
3.381445630E0,-1.613906026E0,-9.957103729E-1,-1.191187203E-1
3.383460709E0,-1.621236324E0,-1.009760261E0,-1.148426682E-1
3.385443865E0,-1.632231951E0,-1.016479731E0,-1.105666086E-1
3.387457943E0,-1.634675384E0,-1.017701507E0,-1.105666086E-1
3.389441945E0,-1.646281838E0,-1.013425469E0,-1.087340117E-1
3.391456485E0,-1.656666517E0,-1.008538485E0,-1.111774743E-1
3.393439486E0,-1.662164330E0,-1.002429843E0,-1.130100712E-1
3.395451258E0,-1.669494748E0,-9.853256345E-1,-1.154535338E-1
3.397468183E0,-1.674381614E0,-9.749409556E-1,-1.172861308E-1
3.399451568E0,-1.677435994E0,-9.541715384E-1,-1.221730486E-1
3.401465032E0,-1.683544636E0,-9.285151958E-1,-1.301143020E-1
3.403449725E0,-1.682933807E0,-9.144652486E-1,-1.343903542E-1
3.405463189E0,-1.684766293E0,-8.833111525E-1,-1.447750628E-1
3.407447498E0,-1.680490255E0,-8.503243923E-1,-1.527163088E-1
3.409462038E0,-1.679268599E0,-8.338310719E-1,-1.600466967E-1
3.411445040E0,-1.674381614E0,-7.977899909E-1,-1.740965992E-1
3.413459273E0,-1.660942554E0,-7.703011036E-1,-1.826487035E-1
3.415443274E0,-1.656055689E0,-7.519751191E-1,-1.875356287E-1
3.417456430E0,-1.643227458E0,-7.208209634E-1,-1.991420686E-1
3.419440508E0,-1.625512362E0,-6.939429045E-1,-2.095267773E-1
3.421455202E0,-1.616960287E0,-6.841690540E-1,-2.138028294E-1
3.423468819E0,-1.598634362E0,-6.640105247E-1,-2.229658216E-1
3.425452206E0,-1.576032281E0,-6.487388611E-1,-2.315179259E-1
3.427466899E0,-1.564425945E0,-6.426302195E-1,-2.382374406E-1
3.429450670E0,-1.541213036E0,-6.340781450E-1,-2.406809032E-1
3.431464825E0,-1.528384805E0,-6.322455406E-1,-2.431243658E-1
3.433448135E0,-1.502728462E0,-6.316346526E-1,-2.474004179E-1
3.435461983E0,-1.480737329E0,-6.377432942E-1,-2.498438805E-1
3.437446599E0,-1.465465665E0,-6.432411075E-1,-2.480112910E-1
3.439460448E0,-1.443474531E0,-6.579018831E-1,-2.480112910E-1
3.441442680E0,-1.418429136E0,-6.731734872E-1,-2.437352389E-1
3.443457758E0,-1.406822681E0,-6.853908300E-1,-2.406809032E-1
3.445441760E0,-1.387885809E0,-7.073819637E-1,-2.327396572E-1
3.447456147E0,-1.373835921E0,-7.348709106E-1,-2.241875380E-1
3.449440456E0,-1.368338108E0,-7.495316267E-1,-2.168571651E-1
3.451453765E0,-1.362229466E0,-7.776314616E-1,-2.089159191E-1
3.453467537E0,-1.361007810E0,-8.038986921E-1,-1.942551434E-1
3.455452153E0,-1.361618638E0,-8.167268038E-1,-1.881465018E-1
3.457465770E0,-1.368949056E0,-8.405506015E-1,-1.771509200E-1
3.459449387E0,-1.377501130E0,-8.588765264E-1,-1.716531366E-1
3.461463235E0,-1.381777167E0,-8.686503768E-1,-1.631010175E-1
3.463446621E0,-1.389718413E0,-8.820894361E-1,-1.514945775E-1
3.465461469E0,-1.392772794E0,-8.881980777E-1,-1.478293836E-1
3.467445471E0,-1.398881435E0,-8.985827565E-1,-1.380555481E-1
3.469459626E0,-1.404990077E0,-9.010262489E-1,-1.337794960E-1
3.471443012E0,-1.406211853E0,-9.016370773E-1,-1.307251602E-1
3.473456245E0,-1.408655286E0,-9.004153609E-1,-1.295034289E-1
3.475439555E0,-1.413542151E0,-8.930850029E-1,-1.288925707E-1
3.477454094E0,-1.417818189E0,-8.869763613E-1,-1.301143020E-1
3.479468250E0,-1.419039965E0,-8.759807348E-1,-1.343903542E-1
3.481451944E0,-1.427592039E0,-8.619308472E-1,-1.374446750E-1
3.483465484E0,-1.431257248E0,-8.539896011E-1,-1.380555481E-1
3.485450409E0,-1.437976837E0,-8.374962807E-1,-1.459967941E-1
3.487464256E0,-1.447139740E0,-8.155050874E-1,-1.569923609E-1
3.489448566E0,-1.450804949E0,-8.038986921E-1,-1.600466967E-1
3.491462106E0,-1.463022232E0,-7.819074988E-1,-1.716531366E-1
3.493446338E0,-1.476461291E0,-7.556403279E-1,-1.747074574E-1
3.495459955E0,-1.478293896E0,-7.422012687E-1,-1.844813079E-1
3.497443342E0,-1.488678575E0,-7.141014934E-1,-1.960877478E-1
3.499457804E0,-1.494176388E0,-6.994407177E-1,-1.991420686E-1
3.501441191E0,-1.499063253E0,-6.682865620E-1,-2.095267773E-1
3.503455655E0,-1.500895858E0,-6.365215778E-1,-2.180788964E-1
3.505439579E0,-1.500895858E0,-6.212499738E-1,-2.199114859E-1
3.507453119E0,-1.496619821E0,-5.900958180E-1,-2.266310006E-1
3.509468506E0,-1.488678575E0,-5.583308339E-1,-2.339613885E-1
3.511451045E0,-1.481959105E0,-5.430592299E-1,-2.376265824E-1
3.513465201E0,-1.468520045E0,-5.198463202E-1,-2.394591719E-1
3.515448510E0,-1.446528912E0,-4.978551865E-1,-2.443460971E-1
3.517464281E0,-1.435533285E0,-4.917465150E-1,-2.449569702E-1
3.519447668E0,-1.414153099E0,-4.819726646E-1,-2.474004179E-1
3.521460822E0,-1.392161846E0,-4.764748812E-1,-2.486221492E-1
3.523444824E0,-1.379333735E0,-4.795292318E-1,-2.486221492E-1
3.525458442E0,-1.356731653E0,-4.862487316E-1,-2.492330223E-1
3.527442674E0,-1.348179579E0,-4.929682612E-1,-2.480112910E-1
3.529457829E0,-1.327410221E0,-5.088507533E-1,-2.486221492E-1
3.531439908E0,-1.309695125E0,-5.302310586E-1,-2.449569702E-1
3.533454371E0,-1.298699498E0,-5.424483418E-1,-2.406809032E-1
3.535469219E0,-1.285871387E0,-5.699372888E-1,-2.394591719E-1
3.537452606E0,-1.266934514E0,-5.986479521E-1,-2.327396572E-1
3.539466453E0,-1.262658477E0,-6.126978397E-1,-2.333505303E-1
3.541450070E0,-1.249830246E0,-6.450737119E-1,-2.260201424E-1
3.543464302E0,-1.235169530E0,-6.768386960E-1,-2.174680233E-1
3.545447919E0,-1.229060888E0,-6.927211881E-1,-2.168571651E-1
3.547462075E0,-1.216843605E0,-7.269296646E-1,-2.070833147E-1
3.549446769E0,-1.203404546E0,-7.641924024E-1,-2.003637999E-1
3.551459694E0,-1.197906733E0,-7.825183868E-1,-1.966986060E-1
3.553442696E0,-1.188743711E0,-8.191702962E-1,-1.887573600E-1
3.555454774E0,-1.183246017E0,-8.552113175E-1,-1.838704348E-1
3.557471622E0,-1.177748203E0,-8.735373020E-1,-1.802052408E-1
3.559455931E0,-1.174693823E0,-9.089674950E-1,-1.728748679E-1
3.561438394E0,-1.171639562E0,-9.279043078E-1,-1.704314053E-1
3.563453473E0,-1.169196129E0,-9.645562172E-1,-1.643227488E-1
3.565467090E0,-1.164919972E0,-1.000597239E0,-1.600466967E-1
3.567451091E0,-1.165530920E0,-1.016479731E0,-1.563815027E-1
3.569466478E0,-1.163087368E0,-1.051299095E0,-1.521054506E-1
3.571449479E0,-1.162476540E0,-1.081231475E0,-1.478293836E-1
3.573463019E0,-1.164309144E0,-1.098335743E0,-1.435533315E-1
3.575447021E0,-1.163087368E0,-1.127046347E0,-1.411098689E-1
3.577460946E0,-1.164309144E0,-1.154535294E0,-1.368338168E-1
3.579444563E0,-1.162476540E0,-1.164919972E0,-1.350012124E-1
3.581457873E0,-1.167363524E0,-1.186300278E0,-1.319468915E-1
3.583442797E0,-1.170417786E0,-1.207069755E0,-1.246165112E-1
3.585455722E0,-1.172861218E0,-1.215621829E0,-1.246165112E-1
3.587439955E0,-1.177137375E0,-1.232115149E0,-1.227839142E-1
3.589454494E0,-1.182024240E0,-1.246775985E0,-1.172861308E-1
3.591467958E0,-1.189965487E0,-1.251662850E0,-1.148426682E-1
3.593451112E0,-1.196684957E0,-1.257160664E0,-1.130100712E-1
3.595465576E0,-1.204015374E0,-1.257771492E0,-1.111774743E-1
3.597450424E0,-1.218065262E0,-1.257160664E0,-1.069014147E-1
3.599464348E0,-1.229671717E0,-1.251662850E0,-1.020144969E-1
3.601447350E0,-1.234558702E0,-1.247997642E0,-1.001819000E-1
3.603462429E0,-1.248608589E0,-1.233947754E0,-1.007927656E-1
3.605446122E0,-1.258993268E0,-1.214400053E0,-9.896016866E-2
3.607459971E0,-1.265101910E0,-1.203404546E0,-9.651670605E-2
3.609444357E0,-1.271821499E0,-1.172861218E0,-9.773843735E-2
3.611457589E0,-1.273043156E0,-1.138652802E0,-9.773843735E-2
3.613441591E0,-1.276097536E0,-1.122159481E0,-9.834930301E-2
3.615455747E0,-1.275486588E0,-1.080620646E0,-1.014036313E-1
3.617439671E0,-1.276708364E0,-1.037860036E0,-1.038470939E-1
3.619453211E0,-1.274875760E0,-1.017090678E0,-1.075122803E-1
3.621467443E0,-1.271210551E0,-9.694431424E-1,-1.130100712E-1
3.623450445E0,-1.271821499E0,-9.468411207E-1,-1.148426682E-1
3.625465216E0,-1.266323686E0,-9.034696817E-1,-1.233947799E-1
3.627447756E0,-1.262658477E0,-8.582656980E-1,-1.325577646E-1
3.629463681E0,-1.258382440E0,-8.362745047E-1,-1.380555481E-1
3.631447375E0,-1.253495455E0,-7.941248417E-1,-1.484402567E-1
3.633460299E0,-1.248608589E0,-7.525860071E-1,-1.594358236E-1
3.635443763E0,-1.243721604E0,-7.330383062E-1,-1.673770845E-1
3.637458226E0,-1.235169530E0,-6.976081133E-1,-1.759291887E-1
3.639442227E0,-1.230893493E0,-6.670648456E-1,-1.863138974E-1
3.641455999E0,-1.224173903E0,-6.499606371E-1,-1.924225539E-1
3.643440078E0,-1.215011001E0,-6.236934066E-1,-1.991420686E-1
3.645453848E0,-1.207069755E0,-6.017022729E-1,-2.040289938E-1
3.647468619E0,-1.203404546E0,-5.925393105E-1,-2.034181207E-1
3.649452312E0,-1.191798091E0,-5.803219676E-1,-2.070833147E-1
3.651465853E0,-1.180802464E0,-5.717698932E-1,-2.028072625E-1
3.653450163E0,-1.175304770E0,-5.705481172E-1,-2.028072625E-1
3.655464317E0,-1.167363524E0,-5.687155724E-1,-1.942551434E-1
3.657447473E0,-1.164309144E0,-5.723807216E-1,-1.924225539E-1
3.659461244E0,-1.156978726E0,-5.797111392E-1,-1.832595766E-1
3.661445245E0,-1.152091861E0,-5.986479521E-1,-1.679879427E-1
3.663459171E0,-1.149037480E0,-6.053674817E-1,-1.606575549E-1
3.665443403E0,-1.144761443E0,-6.255260110E-1,-1.459967941E-1
3.667457251E0,-1.141707182E0,-6.493497491E-1,-1.295034289E-1
3.669441560E0,-1.141096234E0,-6.585127115E-1,-1.191187203E-1
3.671455101E0,-1.139263630E0,-6.860016584E-1,-1.056796908E-1
3.673469563E0,-1.141096234E0,-7.134906054E-1,-8.735372871E-2
3.675452411E0,-1.141096234E0,-7.257078886E-1,-7.941248268E-2
3.677467720E0,-1.142928839E0,-7.513642311E-1,-6.475171447E-2
3.679450799E0,-1.145372391E0,-7.764097452E-1,-5.070181563E-2
3.681464339E0,-1.150259256E0,-7.867944241E-1,-4.642575979E-2
3.683448725E0,-1.157589674E0,-8.069530129E-1,-3.543018550E-2
3.685462573E0,-1.164919972E0,-8.246681094E-1,-2.382374369E-2
3.687445652E0,-1.170417786E0,-8.313875794E-1,-2.199114859E-2
3.689461653E0,-1.181413412E0,-8.399397135E-1,-1.466076635E-2
3.691444347E0,-1.189354658E0,-8.448266387E-1,-1.282817032E-2
3.693458196E0,-1.199739337E0,-8.497135639E-1,-1.160643995E-2
3.695442504E0,-1.215621829E0,-8.484918475E-1,-1.221730467E-2
3.697455429E0,-1.223563075E0,-8.472700715E-1,-1.404990070E-2
3.699470508E0,-1.238223910E0,-8.387179971E-1,-1.527163107E-2
3.701453894E0,-1.250441194E0,-8.271115422E-1,-2.015855350E-2
3.703467819E0,-1.254717231E0,-8.185594082E-1,-2.504547499E-2
3.705452359E0,-1.269988894E0,-8.020660877E-1,-3.115412779E-2
3.707465668E0,-1.282206178E0,-7.819074988E-1,-3.970624134E-2
3.709449978E0,-1.285871387E0,-7.715228200E-1,-4.581489414E-2
3.711463517E0,-1.296866894E0,-7.440338731E-1,-5.864306539E-2
3.713446827E0,-1.304808140E0,-7.177666426E-1,-6.780604273E-2
3.715457906E0,-1.309695125E0,-7.018841505E-1,-7.574728876E-2
3.717444753E0,-1.316414595E0,-6.682865620E-1,-8.552113175E-2
3.719459524E0,-1.321912408E0,-6.322455406E-1,-1.001819000E-1
3.721442911E0,-1.322523236E0,-6.139195561E-1,-1.062905490E-1
3.723456450E0,-1.327410221E0,-5.748242140E-1,-1.178969890E-1
3.725440376E0,-1.328021049E0,-5.589417219E-1,-1.215621829E-1
3.727454839E0,-1.324355841E0,-5.204572082E-1,-1.295034289E-1
3.729469917E0,-1.318858027E0,-4.844161272E-1,-1.356120855E-1
3.731453073E0,-1.313360333E0,-4.667010605E-1,-1.362229437E-1
3.733466843E0,-1.307862520E0,-4.343251884E-1,-1.404990107E-1
3.735451153E0,-1.295645237E0,-4.056145251E-1,-1.417207420E-1
3.737465078E0,-1.285871387E0,-3.921754956E-1,-1.423316002E-1
3.739448387E0,-1.273043156E0,-3.671300113E-1,-1.417207420E-1
3.741462235E0,-1.260215044E0,-3.469714522E-1,-1.398881376E-1
3.743446621E0,-1.250441194E0,-3.402519524E-1,-1.362229437E-1
3.745459545E0,-1.232726097E0,-3.255911767E-1,-1.337794960E-1
3.747444471E0,-1.213789225E0,-3.188716471E-1,-1.240056455E-1
3.749458242E0,-1.202793717E0,-3.145956099E-1,-1.203404516E-1
3.751442550E0,-1.183246017E0,-3.103195429E-1,-1.130100712E-1
3.753455476E0,-1.163698316E0,-3.133738637E-1,-1.069014147E-1
3.755469324E0,-1.151481032E0,-3.139847219E-1,-1.020144969E-1
3.757454248E0,-1.130100727E0,-3.213151097E-1,-9.040805697E-2
3.759468173E0,-1.119716048E0,-3.292563558E-1,-8.552113175E-2
3.761450635E0,-1.102611780E0,-3.426954150E-1,-7.147123665E-2
3.763465099E0,-1.084285855E0,-3.652974069E-1,-6.169738993E-2
3.765449024E0,-1.072679400E0,-3.787364662E-1,-5.619960278E-2
3.767463179E0,-1.058018565E0,-4.062253833E-1,-3.787364438E-2
3.769447566E0,-1.045190454E0,-4.355469346E-1,-2.321287990E-2
3.771461414E0,-1.041525245E0,-4.520402849E-1,-1.588249579E-2
3.773445030E0,-1.034805775E0,-4.899139404E-1,0.000000000E0
3.775460109E0,-1.028086185E0,-5.314527750E-1,1.466076635E-2
3.777442573E0,-1.027475357E0,-5.510004759E-1,2.321287990E-2
3.779456189E0,-1.027475357E0,-5.882632136E-1,3.787364438E-2
3.781440499E0,-1.028086185E0,-6.261368990E-1,5.009094998E-2
3.783454578E0,-1.030529618E0,-6.438519955E-1,5.742133409E-2
3.785468425E0,-1.037860036E0,-6.743952036E-1,6.963863969E-2
3.787452734E0,-1.040914416E0,-6.902777553E-1,7.635815442E-2
3.789467812E0,-1.047633886E0,-7.092145681E-1,8.735372871E-2
3.791450968E0,-1.050688267E0,-7.324274182E-1,9.773843735E-2
3.793463586E0,-1.053742528E0,-7.385360599E-1,1.038470939E-1
3.795447202E0,-1.060462117E0,-7.507534027E-1,1.136209369E-1
3.797461050E0,-1.065959811E0,-7.568620443E-1,1.252273768E-1
3.799446283E0,-1.068403363E0,-7.574729323E-1,1.295034289E-1
3.801460130E0,-1.078788042E0,-7.586946487E-1,1.368338168E-1
3.803442978E0,-1.085507512E0,-7.544185519E-1,1.447750628E-1
3.805457673E0,-1.088561893E0,-7.519751191E-1,1.490511149E-1
3.807442289E0,-1.103222609E0,-7.397578359E-1,1.576032341E-1
3.809456752E0,-1.111163855E0,-7.263187766E-1,1.637118906E-1
3.811439523E0,-1.117883444E0,-7.208209634E-1,1.692096740E-1
3.813453140E0,-1.128268123E0,-7.024950385E-1,1.734857261E-1
3.815467834E0,-1.138652802E0,-6.768386960E-1,1.808161139E-1
3.817450374E0,-1.143539786E0,-6.658431292E-1,1.820378453E-1
3.819465453E0,-1.155146122E0,-6.383541822E-1,1.899790913E-1
3.821448762E0,-1.160643935E0,-6.261368990E-1,1.899790913E-1
3.823462610E0,-1.171639562E0,-5.949827433E-1,1.954768747E-1
3.825446689E0,-1.177748203E0,-5.638286471E-1,1.991420686E-1
3.827460460E0,-1.183246017E0,-5.467243791E-1,2.028072625E-1
3.829445076E0,-1.191798091E0,-5.137376785E-1,2.064724565E-1
3.831458617E0,-1.194241524E0,-4.789183438E-1,2.107485086E-1
3.833442080E0,-1.194852471E0,-4.636467099E-1,2.119702399E-1
3.835456850E0,-1.194852471E0,-4.288274050E-1,2.150245607E-1
3.837441083E0,-1.191187263E0,-3.964515328E-1,2.205223590E-1
3.839455007E0,-1.188132882E0,-3.817907870E-1,2.211332172E-1
3.841467855E0,-1.179580808E0,-3.524692357E-1,2.260201424E-1
3.843452473E0,-1.166752577E0,-3.274237812E-1,2.266310006E-1
3.845466089E0,-1.160033107E0,-3.164281845E-1,2.266310006E-1
3.847449707E0,-1.144761443E0,-2.950479090E-1,2.278527319E-1
3.849464786E0,-1.124602914E0,-2.791654170E-1,2.309070677E-1
3.851447863E0,-1.115439892E0,-2.761110961E-1,2.290744632E-1
3.853462327E0,-1.097113967E0,-2.687807083E-1,2.284636050E-1
3.855446714E0,-1.086118460E0,-2.681698501E-1,2.296853364E-1
3.857460484E0,-1.066570759E0,-2.724458873E-1,2.296853364E-1
3.859443332E0,-1.046412110E0,-2.816088796E-1,2.284636050E-1
3.861457488E0,-1.037249207E0,-2.907718420E-1,2.284636050E-1
3.863441797E0,-1.019534111E0,-3.066543639E-1,2.284636050E-1
3.865455568E0,-1.003651619E0,-3.274237812E-1,2.278527319E-1
3.867439877E0,-9.932668805E-1,-3.378084898E-1,2.272418737E-1
3.869454648E0,-9.773843884E-1,-3.665191531E-1,2.284636050E-1
3.871467034E0,-9.651671052E-1,-3.927863538E-1,2.278527319E-1
3.873450728E0,-9.596692920E-1,-4.080579877E-1,2.272418737E-1
3.875461499E0,-9.474520087E-1,-4.386012554E-1,2.290744632E-1
3.877448270E0,-9.364564419E-1,-4.703662395E-1,2.290744632E-1
3.879462963E0,-9.352346659E-1,-4.850270152E-1,2.284636050E-1
3.881446658E0,-9.285151958E-1,-5.186246037E-1,2.339613885E-1
3.883460275E0,-9.199630618E-1,-5.522221923E-1,2.333505303E-1
3.885444815E0,-9.144652486E-1,-5.699372888E-1,2.370157093E-1
3.887458663E0,-9.083566070E-1,-6.059783101E-1,2.376265824E-1
3.889443896E0,-9.053022861E-1,-6.218608022E-1,2.394591719E-1
3.891456820E0,-9.016370773E-1,-6.517932415E-1,2.412917763E-1
3.893439899E0,-8.949176073E-1,-6.866125464E-1,2.431243658E-1
3.895454746E0,-8.961393237E-1,-6.988298297E-1,2.431243658E-1
3.897468594E0,-8.936958313E-1,-7.263187766E-1,2.461786866E-1
3.899452519E0,-8.918632865E-1,-7.501425147E-1,2.474004179E-1
3.901466058E0,-8.894197941E-1,-7.629706860E-1,2.486221492E-1
3.903449522E0,-8.857545853E-1,-7.825183868E-1,2.510656118E-1
3.905464601E0,-8.802568316E-1,-8.002334833E-1,2.535090744E-1
3.907447602E0,-8.747590184E-1,-8.093964458E-1,2.516764700E-1
3.909462681E0,-8.674286604E-1,-8.228355050E-1,2.577851415E-1
3.911445529E0,-8.607091308E-1,-8.387179971E-1,2.620611787E-1
3.913459992E0,-8.558222055E-1,-8.417723179E-1,2.602286041E-1
3.915443070E0,-8.478809595E-1,-8.515461683E-1,2.657263875E-1
3.917457457E0,-8.399397135E-1,-8.619308472E-1,2.663372457E-1
3.919441843E0,-8.362745047E-1,-8.674286604E-1,2.718350291E-1
3.921455306E0,-8.295549750E-1,-8.753699064E-1,2.742784917E-1
3.923469846E0,-8.240572214E-1,-8.796459436E-1,2.767219543E-1
3.925452848E0,-8.210029006E-1,-8.894197941E-1,2.828305960E-1
3.927466696E0,-8.155050874E-1,-8.936958313E-1,2.895501256E-1
3.929451389E0,-8.142833710E-1,-8.973610401E-1,2.926044464E-1
3.931465776E0,-8.112290502E-1,-9.034696817E-1,2.987131178E-1
3.933448855E0,-8.093964458E-1,-9.077457786E-1,3.054326177E-1
3.935463010E0,-8.093964458E-1,-9.077457786E-1,3.084869385E-1
3.937446704E0,-8.124507666E-1,-9.065240026E-1,3.152064681E-1
3.939461167E0,-8.161159754E-1,-9.053022861E-1,3.237585723E-1
3.941444322E0,-8.191702962E-1,-9.004153609E-1,3.262020350E-1
3.943458094E0,-8.319984674E-1,-8.894197941E-1,3.292563558E-1
3.945441788E0,-8.436049223E-1,-8.717046976E-1,3.353650272E-1
3.947456558E0,-8.503243923E-1,-8.607091308E-1,3.365867436E-1
3.949441252E0,-8.655960560E-1,-8.319984674E-1,3.378084898E-1
3.951453869E0,-8.717046976E-1,-8.161159754E-1,3.378084898E-1
3.953468255E0,-8.833111525E-1,-7.764097452E-1,3.384193480E-1
3.955450796E0,-9.016370773E-1,-7.305948138E-1,3.335324228E-1
3.957465258E0,-9.083566070E-1,-7.043276429E-1,3.316998184E-1
3.959449799E0,-9.205739498E-1,-6.481280327E-1,3.255911767E-1
3.961464262E0,-9.340129495E-1,-5.919284225E-1,3.176499307E-1
3.963447110E0,-9.401215911E-1,-5.564982295E-1,3.133738637E-1
3.965461189E0,-9.511171579E-1,-4.935791194E-1,3.042109013E-1
3.967445191E0,-9.657779336E-1,-4.269948006E-1,2.968805134E-1
3.969460576E0,-9.718865752E-1,-3.915646076E-1,2.907718420E-1
3.971443117E0,-9.834930301E-1,-3.231477141E-1,2.773328125E-1
3.973456888E0,-9.950994849E-1,-2.571742535E-1,2.700024247E-1
3.975441273E0,-9.987646937E-1,-2.266310006E-1,2.651155293E-1
