"Time (s)","Acceleration x (m/s^2)","Acceleration y (m/s^2)","Acceleration z (m/s^2)"
7.060414000E-3,2.887407303E0,-7.819462776E0,5.090072632E0
9.106183000E-3,2.911349297E0,-7.771578789E0,5.030217648E0
1.121172100E-2,2.956839085E0,-7.738059998E0,4.948814869E0
1.319395200E-2,2.985569477E0,-7.714118004E0,4.932055473E0
1.520926000E-2,3.045424461E0,-7.656657219E0,4.876988888E0
1.719326000E-2,3.110068083E0,-7.635109425E0,4.843470097E0
1.920741400E-2,3.143586874E0,-7.620744228E0,4.826710701E0
2.119087400E-2,3.203441858E0,-7.603984833E0,4.807557106E0
2.320472000E-2,3.248931646E0,-7.558494568E0,4.790797710E0
2.518864300E-2,3.265691042E0,-7.541735172E0,4.786009312E0
2.720433600E-2,3.287238836E0,-7.508216381E0,4.788403511E0
2.918625900E-2,3.301604033E0,-7.522581577E0,4.783615112E0
3.120095100E-2,3.320757866E0,-7.508216381E0,4.778826714E0
3.318525900E-2,3.313575268E0,-7.479485989E0,4.766855717E0
3.519825800E-2,3.323152065E0,-7.467514992E0,4.762067318E0
3.721271900E-2,3.311181068E0,-7.474697590E0,4.762067318E0
3.919571900E-2,3.282450438E0,-7.453149796E0,4.754884720E0
4.121018100E-2,3.260902643E0,-7.436390400E0,4.757278919E0
4.319395000E-2,3.224989653E0,-7.383718014E0,4.766855717E0
4.520771900E-2,3.184288263E0,-7.345410824E0,4.766855717E0
4.719233500E-2,3.162740469E0,-7.333439827E0,4.769249916E0
4.920618000E-2,3.122039080E0,-7.297526836E0,4.774038315E0
5.118902600E-2,3.088520288E0,-7.280767441E0,4.797980309E0
5.320379500E-2,3.078943491E0,-7.278373241E0,4.807557106E0
5.518810300E-2,3.090914488E0,-7.252037048E0,4.807557106E0
5.720225700E-2,3.098097086E0,-7.237671852E0,4.821922302E0
5.918494900E-2,3.102885485E0,-7.228095055E0,4.826710701E0
6.119979500E-2,3.090914488E0,-7.223306656E0,4.855441093E0
6.318341000E-2,3.066972494E0,-7.187393665E0,4.869806290E0
6.519794800E-2,3.040636063E0,-7.182605267E0,4.905719280E0
6.721202500E-2,2.999934673E0,-7.177816868E0,4.929661274E0
6.919571800E-2,2.980781078E0,-7.177816868E0,4.953603268E0
7.120956400E-2,2.956839085E0,-7.163451672E0,5.003881454E0
7.319294800E-2,2.952050686E0,-7.146692276E0,5.030217648E0
7.520717900E-2,2.952050686E0,-7.146692276E0,5.042188644E0
7.719079300E-2,2.928108692E0,-7.137115479E0,5.056553841E0
7.920502400E-2,2.868253708E0,-7.134721279E0,5.075707436E0
8.118833200E-2,2.851494312E0,-7.139509678E0,5.099649429E0
8.320225500E-2,2.822763920E0,-7.137115479E0,5.149928093E0
8.518594700E-2,2.815581083E0,-7.146692276E0,5.166687489E0
8.720010100E-2,2.782062292E0,-7.153874874E0,5.164293289E0
8.918433200E-2,2.688688517E0,-7.170634270E0,5.152322292E0
9.119733100E-2,2.633621931E0,-7.184999466E0,5.193023682E0
9.321210000E-2,2.652775526E0,-7.199364662E0,5.204994678E0
9.519540800E-2,2.729389906E0,-7.201758862E0,5.214571476E0
9.721056200E-2,2.767697096E0,-7.204153061E0,5.183446884E0
9.919386900E-2,2.844311714E0,-7.206547260E0,5.173870087E0
1.012081000E-1,2.985569477E0,-7.225700855E0,5.166687489E0
1.031920230E-1,3.059789658E0,-7.237671852E0,5.161899090E0
1.052059450E-1,3.136404276E0,-7.252037048E0,5.118803024E0
1.071904840E-1,3.078943491E0,-7.252037048E0,5.087678432E0
1.092037920E-1,3.016694069E0,-7.264008045E0,5.097255230E0
1.111874840E-1,2.873042107E0,-7.302315235E0,5.125985622E0
1.132021760E-1,2.755726099E0,-7.316680431E0,5.123591423E0
1.151852530E-1,2.705447912E0,-7.328651428E0,5.121197224E0
1.171987920E-1,2.667140722E0,-7.321468830E0,5.080495834E0
1.191825600E-1,2.679111719E0,-7.319074631E0,5.042188644E0
1.211964060E-1,2.719813108E0,-7.319074631E0,5.030217648E0
1.232114830E-1,2.753331900E0,-7.314286232E0,4.963180065E0
1.251950980E-1,2.813186884E0,-7.307103634E0,4.958391666E0
1.272090210E-1,2.868253708E0,-7.321468830E0,4.967968464E0
1.291929440E-1,2.901772499E0,-7.335834026E0,4.903325081E0
1.312071750E-1,2.880224705E0,-7.340622425E0,4.869806290E0
1.331896360E-1,2.851494312E0,-7.352593422E0,4.905719280E0
1.352049430E-1,2.863465309E0,-7.366958618E0,4.939238071E0
1.371884050E-1,2.844311714E0,-7.362170219E0,4.900930882E0
1.392010200E-1,2.770091295E0,-7.378929615E0,4.848258495E0
1.411862510E-1,2.813186884E0,-7.390900612E0,4.860229492E0
1.432000200E-1,2.851494312E0,-7.388506413E0,4.855441093E0
1.451843280E-1,2.853888512E0,-7.400477409E0,4.853046894E0
1.471990960E-1,2.703053713E0,-7.393294811E0,4.869806290E0
1.491819420E-1,2.609679937E0,-7.390900612E0,4.910507679E0
1.511947890E-1,2.542642117E0,-7.429207802E0,4.963180065E0
1.532105580E-1,2.473210335E0,-7.407660007E0,4.936843872E0
1.551935580E-1,2.446874142E0,-7.402871609E0,4.917690277E0
1.572077890E-1,2.391807556E0,-7.393294811E0,4.905719280E0
1.591914040E-1,2.346317768E0,-7.376535416E0,4.903325081E0
1.612049420E-1,2.322375536E0,-7.359776020E0,4.896142483E0
1.631896340E-1,2.353500366E0,-7.352593422E0,4.900930882E0
1.652030950E-1,2.367865562E0,-7.362170219E0,4.900930882E0
1.671883260E-1,2.458845139E0,-7.371747017E0,4.936843872E0
1.692010180E-1,2.521094322E0,-7.371747017E0,4.958391666E0
1.711850180E-1,2.557007313E0,-7.386112213E0,4.975151062E0
1.731982490E-1,2.595314741E0,-7.393294811E0,4.979939461E0
1.752129410E-1,2.671929121E0,-7.419631004E0,4.994304657E0
1.771975560E-1,2.686294317E0,-7.422025204E0,4.996698856E0
1.792114790E-1,2.731784105E0,-7.438784599E0,5.025429249E0
1.811944790E-1,2.736572504E0,-7.453149796E0,5.051765442E0
1.832086330E-1,2.736572504E0,-7.457938194E0,5.054159641E0
1.851920170E-1,2.741360903E0,-7.484274387E0,5.051765442E0
1.872074790E-1,2.722207308E0,-7.493851185E0,5.078101635E0
1.891904780E-1,2.705447912E0,-7.496245384E0,5.070919037E0
1.912037860E-1,2.705447912E0,-7.498639584E0,5.068524837E0
1.931884010E-1,2.688688517E0,-7.498639584E0,5.049371243E0
1.952016320E-1,2.681505919E0,-7.496245384E0,5.042188644E0
1.971855550E-1,2.683900118E0,-7.498639584E0,5.030217648E0
1.991997860E-1,2.686294317E0,-7.501033783E0,5.025429249E0
2.011834010E-1,2.715024710E0,-7.501033783E0,5.030217648E0
2.031978620E-1,2.731784105E0,-7.515398979E0,5.030217648E0
2.052114000E-1,2.750937700E0,-7.541735172E0,5.042188644E0
2.071966310E-1,2.815581083E0,-7.565677166E0,5.063736439E0
2.092093230E-1,2.856282711E0,-7.599195957E0,5.106832027E0
2.111927080E-1,2.873042107E0,-7.625532627E0,5.114014626E0
2.132061690E-1,2.959233284E0,-7.647080421E0,5.102043629E0
2.151920160E-1,2.992752075E0,-7.692570210E0,5.066130638E0
2.172058610E-1,3.004723072E0,-7.709329605E0,5.035006046E0
2.191880910E-1,3.055001259E0,-7.723694801E0,4.958391666E0
2.212030920E-1,3.074155092E0,-7.738059998E0,4.917690277E0
2.231865530E-1,3.095702887E0,-7.747636795E0,4.922478676E0
2.252009380E-1,3.119644880E0,-7.790732384E0,4.927267075E0
2.271852450E-1,3.136404276E0,-7.795520782E0,4.917690277E0
2.291984760E-1,3.165134668E0,-7.814674377E0,4.893748283E0
2.311819370E-1,3.210624456E0,-7.793126583E0,4.857835293E0
2.331960910E-1,3.215412855E0,-7.793126583E0,4.845864296E0
2.352111670E-1,3.253720045E0,-7.814674377E0,4.862623692E0
2.371938600E-1,3.282450438E0,-7.831433773E0,4.867412090E0
2.392087060E-1,3.289633036E0,-7.838616371E0,4.874594688E0
2.411917060E-1,3.294421434E0,-7.852981567E0,4.891354084E0
2.432059370E-1,3.306392431E0,-7.855375767E0,4.908113480E0
2.451895510E-1,3.323152065E0,-7.876923561E0,4.915296078E0
2.472047050E-1,3.342305660E0,-7.927201748E0,4.936843872E0
2.491877050E-1,3.335123062E0,-7.946355343E0,4.955997467E0
2.512018590E-1,3.330334663E0,-7.953537941E0,4.972756863E0
2.531850130E-1,3.325546265E0,-7.965508938E0,5.015852451E0
2.551985510E-1,3.299209833E0,-7.970297337E0,5.035006046E0
2.571834740E-1,3.289633036E0,-7.975085735E0,5.044582844E0
2.591975500E-1,3.272873640E0,-7.984662533E0,5.066130638E0
2.612117040E-1,3.260902643E0,-7.977479935E0,5.092466831E0
2.631944730E-1,3.227383852E0,-7.979874134E0,5.106832027E0
2.652083190E-1,3.196259260E0,-7.970297337E0,5.152322292E0
2.671939350E-1,3.167528868E0,-7.977479935E0,5.164293289E0
2.692065500E-1,3.119644880E0,-7.960720539E0,5.202600479E0
2.711905500E-1,3.059789658E0,-7.946355343E0,5.226542473E0
2.732052410E-1,3.038241863E0,-7.943961143E0,5.238513470E0
2.751886260E-1,2.978386879E0,-7.939172745E0,5.267243862E0
2.772028570E-1,2.923320293E0,-7.941566944E0,5.286397457E0
2.791856260E-1,2.904166698E0,-7.939172745E0,5.310339451E0
2.812006260E-1,2.863465309E0,-7.920019150E0,5.348646641E0
2.831843950E-1,2.822763920E0,-7.905653954E0,5.382165432E0
2.851985490E-1,2.801215887E0,-7.905653954E0,5.396530628E0
2.871831640E-1,2.760514498E0,-7.915230751E0,5.437232018E0
2.891967020E-1,2.734178305E0,-7.908048153E0,5.487510204E0
2.912098560E-1,2.726995707E0,-7.910442352E0,5.504269600E0
2.931930100E-1,2.703053713E0,-7.920019150E0,5.535394192E0
2.952083170E-1,2.703053713E0,-7.931990147E0,5.549759388E0
2.971917790E-1,2.710236311E0,-7.924807549E0,5.576095581E0
2.992055480E-1,2.729389906E0,-7.920019150E0,5.595249176E0
3.011895470E-1,2.729389906E0,-7.924807549E0,5.609614372E0
3.032037010E-1,2.746149302E0,-7.931990147E0,5.635950565E0
3.051880090E-1,2.750937700E0,-7.953537941E0,5.643133640E0
3.072019320E-1,2.755726099E0,-7.953537941E0,5.633556366E0
3.091856240E-1,2.760514498E0,-7.965508938E0,5.621585369E0
3.111990860E-1,2.758120298E0,-7.963114738E0,5.628767967E0
3.131834700E-1,2.765302896E0,-7.958326340E0,5.621585369E0
3.151967000E-1,2.774879694E0,-7.963114738E0,5.597643375E0
3.172114690E-1,2.796427488E0,-7.955932140E0,5.578489780E0
3.191950850E-1,2.808398485E0,-7.951143742E0,5.573701382E0
3.212093160E-1,2.813186884E0,-7.953537941E0,5.564124584E0
3.231929310E-1,2.806004286E0,-7.955932140E0,5.535394192E0
3.252073920E-1,2.813186884E0,-7.963114738E0,5.535394192E0
3.271920850E-1,2.815581083E0,-7.979874134E0,5.513846397E0
3.292055450E-1,2.827552319E0,-7.979874134E0,5.506663799E0
3.311880840E-1,2.858676910E0,-7.963114738E0,5.475539207E0
3.332015450E-1,2.877830505E0,-7.965508938E0,5.458779812E0
3.351856220E-1,2.880224705E0,-7.955932140E0,5.451597214E0
3.372003910E-1,2.892195702E0,-7.948749542E0,5.449203014E0
3.391831610E-1,2.894589901E0,-7.941566944E0,5.453991413E0
3.411978530E-1,2.904166698E0,-7.951143742E0,5.453991413E0
3.432120060E-1,2.916137695E0,-7.951143742E0,5.442020416E0
3.451956980E-1,2.896984100E0,-7.958326340E0,5.418078423E0
3.472104670E-1,2.885013103E0,-7.958326340E0,5.418078423E0
3.491939290E-1,2.908955097E0,-7.951143742E0,5.403713226E0
3.512080060E-1,2.901772499E0,-7.951143742E0,5.370194435E0
3.531923910E-1,2.896984100E0,-7.955932140E0,5.358223438E0
3.552055440E-1,2.882618904E0,-7.948749542E0,5.339069843E0
3.571883130E-1,2.906560898E0,-7.958326340E0,5.267243862E0
3.592040050E-1,2.913743496E0,-7.958326340E0,5.228936672E0
3.611870820E-1,2.908955097E0,-7.963114738E0,5.169081688E0
3.632006970E-1,2.911349297E0,-7.953537941E0,5.142745018E0
3.651858510E-1,2.904166698E0,-7.943961143E0,5.102043629E0
3.671991590E-1,2.923320293E0,-7.946355343E0,5.075707436E0
3.691824660E-1,2.923320293E0,-7.948749542E0,5.063736439E0
3.711972360E-1,2.940079689E0,-7.958326340E0,5.049371243E0
3.732104650E-1,2.940079689E0,-7.967903137E0,5.035006046E0
3.751950810E-1,2.944868088E0,-7.960720539E0,5.023035049E0
3.772090040E-1,2.937685490E0,-7.948749542E0,5.025429249E0
3.791920810E-1,2.937685490E0,-7.946355343E0,5.058948040E0
3.812064660E-1,2.947262287E0,-7.946355343E0,5.058948040E0
3.831904660E-1,2.949656487E0,-7.958326340E0,5.063736439E0
3.852040810E-1,2.959233284E0,-7.958326340E0,5.082890034E0
3.871895410E-1,2.978386879E0,-7.958326340E0,5.082890034E0
3.892025410E-1,2.985569477E0,-7.965508938E0,5.082890034E0
3.911853110E-1,2.985569477E0,-7.958326340E0,5.080495834E0
3.932015410E-1,2.997540474E0,-7.955932140E0,5.080495834E0
3.951837720E-1,3.004723072E0,-7.965508938E0,5.102043629E0
3.971975410E-1,3.009511471E0,-7.965508938E0,5.109226227E0
3.992120800E-1,3.014299870E0,-7.977479935E0,5.135562420E0
4.011956940E-1,3.021482468E0,-7.975085735E0,5.164293289E0
4.032096170E-1,3.031059265E0,-7.967903137E0,5.171475887E0
4.051936170E-1,3.031059265E0,-7.984662533E0,5.185841084E0
4.072083870E-1,3.002328873E0,-8.003816605E0,5.190629482E0
4.091907710E-1,2.999934673E0,-8.003816605E0,5.200206280E0
4.112055400E-1,2.995146275E0,-7.999027729E0,5.212177277E0
4.131883870E-1,2.978386879E0,-8.020575523E0,5.238513470E0
4.152028470E-1,2.964021683E0,-8.020575523E0,5.240907669E0
4.171868470E-1,2.952050686E0,-8.025363922E0,5.236119270E0
4.192013090E-1,2.923320293E0,-8.039729118E0,5.231330872E0
4.211849240E-1,2.901772499E0,-8.049305916E0,5.226542473E0
4.231982320E-1,2.873042107E0,-8.058882713E0,5.226542473E0
4.252136160E-1,2.865859509E0,-8.054094315E0,5.216965675E0
4.271978470E-1,2.846705914E0,-8.063671112E0,5.202600479E0
4.292116920E-1,2.839523315E0,-8.066065788E0,5.202600479E0
4.311945390E-1,2.832340717E0,-8.073247910E0,5.202600479E0
4.332083850E-1,2.806004286E0,-8.092401505E0,5.214571476E0
4.351917690E-1,2.789244890E0,-8.109161377E0,5.202600479E0
4.372062310E-1,2.774879694E0,-8.106766701E0,5.185841084E0
4.391902310E-1,2.750937700E0,-8.082824707E0,5.154716492E0
4.412040000E-1,2.719813108E0,-8.101978302E0,5.140350819E0
4.431883840E-1,2.703053713E0,-8.106766701E0,5.147533417E0
4.452021530E-1,2.683900118E0,-8.109161377E0,5.145139217E0
4.471861530E-1,2.671929121E0,-8.082824707E0,5.099649429E0
4.491996910E-1,2.659958124E0,-8.094796181E0,5.078101635E0
4.511834610E-1,2.647987127E0,-8.118738174E0,5.061342239E0
4.531975380E-1,2.636016130E0,-8.147468567E0,5.030217648E0
4.552129220E-1,2.636016130E0,-8.166622162E0,4.999093056E0
4.571960750E-1,2.633621931E0,-8.173804283E0,4.917690277E0
4.592086140E-1,2.628833532E0,-8.164227486E0,4.881777287E0
4.611929980E-1,2.650381327E0,-8.173804283E0,4.797980309E0
4.632071520E-1,2.669534922E0,-8.173804283E0,4.726154327E0
4.651908440E-1,2.664746523E0,-8.180987358E0,4.695029736E0
4.672052290E-1,2.667140722E0,-8.188169479E0,4.639962673E0
4.691889210E-1,2.667140722E0,-8.197746277E0,4.611232281E0
4.712031510E-1,2.674323320E0,-8.207323074E0,4.599261284E0
4.731870740E-1,2.674323320E0,-8.224082947E0,4.563348293E0
4.752006890E-1,2.676717520E0,-8.228871346E0,4.534617901E0
4.771849970E-1,2.691082716E0,-8.236053467E0,4.522646904E0
4.791984590E-1,2.707842112E0,-8.243236542E0,4.503493309E0
4.811824590E-1,2.715024710E0,-8.240841866E0,4.469974518E0
4.831960740E-1,2.722207308E0,-8.255207062E0,4.450820923E0
4.852108420E-1,2.738966703E0,-8.271966934E0,4.434061527E0
4.871942270E-1,2.743755102E0,-8.283937454E0,4.441244125E0
4.892083040E-1,2.750937700E0,-8.286332130E0,4.431667328E0
4.911923810E-1,2.750937700E0,-8.295908928E0,4.410119534E0
4.932053040E-1,2.755726099E0,-8.295908928E0,4.400542736E0
4.951893040E-1,2.731784105E0,-8.293514252E0,4.374206543E0
4.972043810E-1,2.726995707E0,-8.300697327E0,4.355052948E0
4.991879950E-1,2.719813108E0,-8.310274124E0,4.350264549E0
5.012016110E-1,2.703053713E0,-8.324639320E0,4.347870350E0
5.031849180E-1,2.676717520E0,-8.324639320E0,4.326322556E0
5.051993800E-1,2.657563925E0,-8.327033043E0,4.331110954E0
5.071840720E-1,2.621650934E0,-8.319850922E0,4.338293552E0
5.091972260E-1,2.576161146E0,-8.315062523E0,4.340687752E0
5.112110720E-1,2.549824715E0,-8.310274124E0,4.335899353E0
5.131959940E-1,2.513911724E0,-8.291120529E0,4.326322556E0
5.152098400E-1,2.470816135E0,-8.283937454E0,4.311957359E0
5.171932250E-1,2.442085743E0,-8.281543732E0,4.302380562E0
5.192073790E-1,2.396595955E0,-8.298302650E0,4.278438568E0
5.211904560E-1,2.372653961E0,-8.295908928E0,4.271255970E0
5.232055330E-1,2.322375536E0,-8.295908928E0,4.268861771E0
5.251880710E-1,2.286462545E0,-8.298302650E0,4.252102375E0
5.272036860E-1,2.269703150E0,-8.286332130E0,4.230554581E0
5.291862240E-1,2.233790159E0,-8.267178535E0,4.209006786E0
5.312006090E-1,2.193088770E0,-8.264783859E0,4.187458992E0
5.331833780E-1,2.166752577E0,-8.259995461E0,4.180276394E0
5.351979160E-1,2.135627985E0,-8.252813339E0,4.151545525E0
5.372123010E-1,2.106897593E0,-8.236053467E0,4.125209332E0
5.391969160E-1,2.090138197E0,-8.231265068E0,4.115632534E0
5.412107620E-1,2.070984364E0,-8.221688271E0,4.115632534E0
5.431941460E-1,2.066195965E0,-8.236053467E0,4.084507942E0
5.452086080E-1,2.075772762E0,-8.236053467E0,4.065354347E0
5.471923770E-1,2.070984364E0,-8.243236542E0,4.043806553E0
5.492067620E-1,2.085349798E0,-8.252813339E0,4.017470360E0
5.511893000E-1,2.094926596E0,-8.240841866E0,4.012681961E0
5.532033770E-1,2.104503393E0,-8.245630264E0,4.007893562E0
5.551865300E-1,2.111685991E0,-8.250418663E0,4.007893562E0
5.572012990E-1,2.118868589E0,-8.252813339E0,4.007893562E0
5.591846840E-1,2.142810583E0,-8.264783859E0,4.022258759E0
5.611993760E-1,2.159569979E0,-8.255207062E0,4.022258759E0
5.631827610E-1,2.176329374E0,-8.257601738E0,4.015076160E0
5.651975300E-1,2.171540976E0,-8.231265068E0,4.036623955E0
5.672114530E-1,2.188300371E0,-8.221688271E0,4.036623955E0
5.691947600E-1,2.185906172E0,-8.216899872E0,4.048594952E0
5.712086830E-1,2.188300371E0,-8.214506149E0,4.060565948E0
5.731920670E-1,2.183511972E0,-8.212111473E0,4.062960148E0
5.752067600E-1,2.178723574E0,-8.192957878E0,4.084507942E0
5.771910670E-1,2.166752577E0,-8.157045364E0,4.113238335E0
5.792042980E-1,2.157175779E0,-8.149862289E0,4.129997730E0
5.811883750E-1,2.154781580E0,-8.157045364E0,4.146757126E0
5.832018360E-1,2.152387381E0,-8.157045364E0,4.144362926E0
5.851856050E-1,2.145204782E0,-8.147468567E0,4.137180328E0
5.872006820E-1,2.121262789E0,-8.145073891E0,4.115632534E0
5.891840660E-1,2.111685991E0,-8.157045364E0,4.108449936E0
5.911976050E-1,2.094926596E0,-8.154650688E0,4.082113743E0
5.932129890E-1,2.056619167E0,-8.173804283E0,4.058171749E0
5.951956820E-1,2.032677174E0,-8.176198959E0,4.046200752E0
5.972098350E-1,1.975216389E0,-8.197746277E0,4.029441357E0
5.991941420E-1,1.939303398E0,-8.236053467E0,4.019864559E0
6.012070650E-1,1.934514999E0,-8.252813339E0,4.024652958E0
6.031914500E-1,1.929726601E0,-8.279149055E0,4.034229755E0
6.052052190E-1,1.915361404E0,-8.319850922E0,4.022258759E0
6.071898350E-1,1.912967205E0,-8.315062523E0,4.005499363E0
6.092034500E-1,1.908178806E0,-8.329427719E0,3.955221176E0
6.111867570E-1,1.893813491E0,-8.358158112E0,3.914519787E0
6.131988340E-1,1.891419291E0,-8.362946510E0,3.895366192E0
6.151840640E-1,1.879448295E0,-8.394071579E0,3.845088005E0
6.171993720E-1,1.879448295E0,-8.427590370E0,3.787626982E0
6.191827570E-1,1.879448295E0,-8.446743965E0,3.756502390E0
6.211969880E-1,1.872265697E0,-8.441955566E0,3.715801001E0
6.232108340E-1,1.874659896E0,-8.453926086E0,3.696647406E0
6.251948330E-1,1.855506301E0,-8.477868080E0,3.665522814E0
6.272098330E-1,1.872265697E0,-8.511386871E0,3.610456228E0
6.291929100E-1,1.877054095E0,-8.520963669E0,3.586514235E0
6.312062170E-1,1.855506301E0,-8.544905663E0,3.550601006E0
6.331908330E-1,1.843535304E0,-8.576030731E0,3.497928619E0
6.352046020E-1,1.838746905E0,-8.597578049E0,3.471592426E0
6.371880630E-1,1.853112102E0,-8.633491516E0,3.435679436E0
6.392016010E-1,1.848323703E0,-8.671798706E0,3.392583847E0
6.411861390E-1,1.850717902E0,-8.698134422E0,3.371036053E0
6.432003700E-1,1.831564307E0,-8.712499619E0,3.318363667E0
6.451836780E-1,1.841141105E0,-8.738836288E0,3.289633036E0
6.471985240E-1,1.836352706E0,-8.743624687E0,3.265691042E0
6.492122930E-1,1.833958507E0,-8.765172005E0,3.244143248E0
6.511956780E-1,1.841141105E0,-8.793902397E0,3.201047659E0
6.532089850E-1,1.833958507E0,-8.805873871E0,3.193865061E0
6.551939080E-1,1.845929503E0,-8.815450668E0,3.186682463E0
6.572083690E-1,1.860294700E0,-8.817844391E0,3.198653460E0
6.591907540E-1,1.857900500E0,-8.801085472E0,3.222595453E0
6.612052920E-1,1.889025092E0,-8.796297073E0,3.224989653E0
6.631883690E-1,1.900996208E0,-8.781931877E0,3.222595453E0
6.652028310E-1,1.920149803E0,-8.789113998E0,3.224989653E0
6.671873680E-1,1.932120800E0,-8.796297073E0,3.208230257E0
6.692009070E-1,1.951274395E0,-8.784325600E0,3.174711466E0
6.711849070E-1,1.977610588E0,-8.772355080E0,3.086126089E0
6.731987530E-1,2.013523579E0,-8.781931877E0,3.028665066E0
6.751827530E-1,2.044648170E0,-8.774748802E0,3.014299870E0
6.771966760E-1,2.070984364E0,-8.753201485E0,3.004723072E0
6.792110610E-1,2.133233786E0,-8.765172005E0,3.016694069E0
6.811944440E-1,2.176329374E0,-8.762778282E0,3.014299870E0
6.832083670E-1,2.274491549E0,-8.765172005E0,2.990357876E0
6.851922900E-1,2.312798738E0,-8.774748802E0,2.966415882E0
6.872073670E-1,2.413355350E0,-8.774748802E0,2.925714493E0
6.891904440E-1,2.499546528E0,-8.786720276E0,2.882618904E0
6.912043670E-1,2.547430515E0,-8.781931877E0,2.885013103E0
6.931870600E-1,2.631227732E0,-8.796297073E0,2.894589901E0
6.952015970E-1,2.710236311E0,-8.822632790E0,2.896984100E0
6.971855970E-1,2.743755102E0,-8.829815865E0,2.894589901E0
6.991991360E-1,2.760514498E0,-8.846575737E0,2.923320293E0
7.011828280E-1,2.765302896E0,-8.870517731E0,2.916137695E0
7.031975200E-1,2.772485495E0,-8.880094528E0,2.908955097E0
7.052116740E-1,2.796427488E0,-8.908824921E0,2.894589901E0
7.071960590E-1,2.820369720E0,-8.904036522E0,2.870647907E0
7.092092880E-1,2.827552319E0,-8.913613319E0,2.875436306E0
7.111932120E-1,2.829946518E0,-8.935160637E0,2.858676910E0
7.132073650E-1,2.853888512E0,-8.947132111E0,2.863465309E0
7.151911350E-1,2.851494312E0,-8.951920509E0,2.861071110E0
7.172046730E-1,2.853888512E0,-8.956708908E0,2.865859509E0
7.191885960E-1,2.856282711E0,-8.954314232E0,2.870647907E0
7.212022120E-1,2.846705914E0,-8.961497307E0,2.880224705E0
7.231865180E-1,2.829946518E0,-8.954314232E0,2.880224705E0
7.252002870E-1,2.817975283E0,-8.951920509E0,2.873042107E0
7.271849800E-1,2.798821688E0,-8.925583839E0,2.894589901E0
7.291987490E-1,2.767697096E0,-8.927978516E0,2.954444885E0
7.311819030E-1,2.758120298E0,-8.935160637E0,2.995146275E0
7.331962870E-1,2.726995707E0,-8.944737434E0,3.057395458E0
7.352107490E-1,2.695871115E0,-8.949525833E0,3.055001259E0
7.371944400E-1,2.691082716E0,-8.949525833E0,3.045424461E0
7.392073630E-1,2.645592928E0,-8.930372238E0,3.007117271E0
7.411923630E-1,2.597708941E0,-8.927978516E0,2.975992680E0
7.432055170E-1,2.571372509E0,-8.927978516E0,2.964021683E0
7.451895170E-1,2.516305923E0,-8.913613319E0,2.959233284E0
7.472045940E-1,2.468421936E0,-8.930372238E0,2.983175278E0
7.491873630E-1,2.446874142E0,-8.935160637E0,3.004723072E0
7.512018240E-1,2.406172752E0,-8.925583839E0,3.021482468E0
7.531855930E-1,2.394201756E0,-8.930372238E0,3.011905670E0
7.551996700E-1,2.387019157E0,-8.947132111E0,2.947262287E0
7.571834390E-1,2.351106167E0,-8.956708908E0,2.892195702E0
7.591965930E-1,2.336740971E0,-8.961497307E0,2.853888512E0
7.612116700E-1,2.317587137E0,-8.951920509E0,2.827552319E0
7.631953620E-1,2.267308950E0,-8.973467827E0,2.794033289E0
7.652086690E-1,2.260126352E0,-8.985439301E0,2.770091295E0
7.671932850E-1,2.233790159E0,-8.997409821E0,2.743755102E0
7.692073620E-1,2.217030764E0,-9.021351814E0,2.724601507E0
7.711910540E-1,2.205059767E0,-9.033323288E0,2.712630510E0
7.732043620E-1,2.190694571E0,-9.047688484E0,2.657563925E0
7.751874380E-1,2.176329374E0,-9.059659004E0,2.631227732E0
7.772027460E-1,2.176329374E0,-9.050082207E0,2.612074137E0
7.791858220E-1,2.178723574E0,-9.050082207E0,2.595314741E0
7.812012070E-1,2.173935175E0,-9.059659004E0,2.557007313E0
7.831839760E-1,2.176329374E0,-9.064447403E0,2.535459518E0
7.851984370E-1,2.178723574E0,-9.066842079E0,2.494758129E0
7.871837450E-1,2.188300371E0,-9.069235802E0,2.482787132E0
7.891965910E-1,2.214636564E0,-9.069235802E0,2.463633537E0
7.912098990E-1,2.207453966E0,-9.069235802E0,2.444479942E0
7.931938980E-1,2.217030764E0,-9.066842079E0,2.427720547E0
7.952085900E-1,2.207453966E0,-9.050082207E0,2.408566952E0
7.971914360E-1,2.207453966E0,-9.066842079E0,2.391807556E0
7.992055130E-1,2.200271368E0,-9.076418877E0,2.377442360E0
8.011895130E-1,2.212242365E0,-9.085995674E0,2.336740971E0
8.032030520E-1,2.221819162E0,-9.107542992E0,2.317587137E0
8.051868210E-1,2.233790159E0,-9.109937668E0,2.305616140E0
8.072018200E-1,2.226607561E0,-9.124302864E0,2.276885748E0
8.091852820E-1,2.226607561E0,-9.157821655E0,2.250549555E0
8.111991280E-1,2.226607561E0,-9.176975250E0,2.248155355E0
8.131827430E-1,2.224213362E0,-9.193734169E0,2.284068346E0
8.151966660E-1,2.238578558E0,-9.246406555E0,2.401384354E0
8.172114360E-1,2.288856745E0,-9.275136948E0,2.487575531E0
8.191944360E-1,2.331952572E0,-9.330204010E0,2.662352324E0
8.212089730E-1,2.377442360E0,-9.373299599E0,2.750937700E0
8.231923580E-1,2.482787132E0,-9.461885452E0,2.825158119E0
8.252065110E-1,2.607285738E0,-9.521739960E0,2.717418909E0
8.271911270E-1,2.669534922E0,-9.540893555E0,2.616862535E0
8.292045880E-1,2.803610086E0,-9.572018623E0,2.434903145E0
8.311882810E-1,2.940079689E0,-9.610325813E0,2.257732153E0
8.332028190E-1,3.007117271E0,-9.636661530E0,2.173935175E0
8.351865110E-1,3.131615877E0,-9.662998199E0,2.018311977E0
8.372003570E-1,3.205836058E0,-9.684545517E0,1.860294700E0
8.391833570E-1,3.251325846E0,-9.689333916E0,1.802833915E0
8.411978950E-1,3.332728863E0,-9.746794701E0,1.728613615E0
8.432123570E-1,3.387795448E0,-9.780313492E0,1.711854219E0
8.451948180E-1,3.435679436E0,-9.780313492E0,1.714248419E0
8.472108180E-1,3.502717018E0,-9.816226959E0,1.692700624E0
8.491944330E-1,3.543418407E0,-9.832986832E0,1.675941229E0
8.512082790E-1,3.593696833E0,-9.825803757E0,1.640028119E0
8.531904330E-1,3.653551817E0,-9.825803757E0,1.572990537E0
8.552052020E-1,3.696647406E0,-9.816226959E0,1.544260144E0
8.571898170E-1,3.761290789E0,-9.804255486E0,1.484405041E0
8.592031250E-1,3.818751812E0,-9.751583099E0,1.426944256E0
8.611873560E-1,3.859453201E0,-9.737217903E0,1.391031146E0
8.632006620E-1,3.921702385E0,-9.703699112E0,1.316810966E0
8.651846620E-1,3.976768970E0,-9.679757118E0,1.285686255E0
8.672002780E-1,4.003105164E0,-9.648633003E0,1.271321058E0
8.691827390E-1,4.072536945E0,-9.627084732E0,1.259350061E0
8.711968930E-1,4.132391930E0,-9.610325813E0,1.247379065E0
8.732116620E-1,4.173093796E0,-9.598354340E0,1.242590666E0
8.751945090E-1,4.240131378E0,-9.595960617E0,1.221042871E0
8.772095080E-1,4.290409565E0,-9.576807022E0,1.201889277E0
8.791923540E-1,4.311957359E0,-9.576807022E0,1.199495077E0
8.812068150E-1,4.357447147E0,-9.576807022E0,1.189918280E0
8.831901230E-1,4.371812344E0,-9.569623947E0,1.185129881E0
8.852045850E-1,4.383783340E0,-9.574412346E0,1.187524080E0
8.871886610E-1,4.390965939E0,-9.557653427E0,1.204283476E0
8.892022000E-1,4.388571739E0,-9.548076630E0,1.206677675E0
8.911858140E-1,4.338293552E0,-9.524134636E0,1.218648672E0
8.931996600E-1,4.266467571E0,-9.500192642E0,1.233013868E0
8.951851990E-1,4.244919777E0,-9.493009567E0,1.247379065E0
8.971978140E-1,4.201824188E0,-9.435548782E0,1.285686255E0
8.992110450E-1,4.096478939E0,-9.423578262E0,1.316810966E0
9.011957370E-1,4.043806553E0,-9.414001465E0,1.347935557E0
9.032095840E-1,3.943250179E0,-9.370905876E0,1.388636947E0
9.051932750E-1,3.823540211E0,-9.361329079E0,1.484405041E0
9.072080440E-1,3.768473387E0,-9.361329079E0,1.539471745E0
9.091908130E-1,3.696647406E0,-9.368511200E0,1.659181833E0
9.112048900E-1,3.610456228E0,-9.385271072E0,1.747767210E0
9.131891980E-1,3.567360640E0,-9.404424667E0,1.759738207E0
9.152030440E-1,3.497928619E0,-9.437943459E0,1.704671621E0
9.171864290E-1,3.473986626E0,-9.452308655E0,1.666364431E0
9.192006590E-1,3.438073635E0,-9.466673851E0,1.589749932E0
9.211852740E-1,3.423708439E0,-9.500192642E0,1.541865945E0
9.231988120E-1,3.418920040E0,-9.507374763E0,1.541865945E0
9.251824280E-1,3.392583847E0,-9.543288231E0,1.589749932E0
9.271975050E-1,3.404554844E0,-9.607931137E0,1.656787634E0
9.292105050E-1,3.418920040E0,-9.634267807E0,1.671152830E0
9.311953510E-1,3.435679436E0,-9.682151794E0,1.675941229E0
9.332079650E-1,3.469198227E0,-9.703699112E0,1.606509328E0
9.351920420E-1,3.500322819E0,-9.713275909E0,1.546654344E0
9.372067350E-1,3.569754839E0,-9.746794701E0,1.446097851E0
9.391898110E-1,3.632004023E0,-9.756371498E0,1.355118155E0
9.412040420E-1,3.658340216E0,-9.765948296E0,1.328781962E0
9.431879650E-1,3.730166197E0,-9.765948296E0,1.276109457E0
9.452012730E-1,3.749319792E0,-9.770736694E0,1.221042871E0
9.471871180E-1,3.799597979E0,-9.770736694E0,1.192312479E0
9.491997340E-1,3.859453201E0,-9.753977776E0,1.165976286E0
9.511834260E-1,3.885789394E0,-9.732429504E0,1.149216771E0
9.531981950E-1,3.916913986E0,-9.701305389E0,1.115697980E0
9.552116570E-1,3.974374771E0,-9.691728592E0,1.089361787E0
9.571953490E-1,4.007893562E0,-9.694122314E0,1.096544385E0
9.592095800E-1,4.067748547E0,-9.684545517E0,1.082179189E0
9.611932710E-1,4.127603531E0,-9.684545517E0,1.072602391E0
9.632074250E-1,4.165910721E0,-9.674968719E0,1.074996591E0
9.651913480E-1,4.213795185E0,-9.643844604E0,1.065419793E0
9.672058100E-1,4.254496574E0,-9.629479408E0,1.063025594E0
9.691891940E-1,4.266467571E0,-9.622296333E0,1.067813993E0
9.712027330E-1,4.297592163E0,-9.598354340E0,1.070208192E0
9.731861170E-1,4.304774761E0,-9.583989143E0,1.079784989E0
9.752011930E-1,4.319139957E0,-9.579200745E0,1.086967587E0
9.771845780E-1,4.307168961E0,-9.555258751E0,1.101332784E0
9.791978850E-1,4.292803764E0,-9.540893555E0,1.118092179E0
9.812125780E-1,4.273650169E0,-9.540893555E0,1.130063176E0
9.831962700E-1,4.247313976E0,-9.516951561E0,1.118092179E0
9.852098850E-1,4.237737179E0,-9.502586365E0,1.110909581E0
9.871956550E-1,4.197035789E0,-9.483432770E0,1.120486379E0
9.892080380E-1,4.129997730E0,-9.459490776E0,1.134851575E0
9.911917310E-1,4.113238335E0,-9.449913979E0,1.137245774E0
9.932064230E-1,4.048594952E0,-9.428366661E0,1.125274777E0
9.951901150E-1,3.983951569E0,-9.406818390E0,1.130063176E0
9.972037310E-1,3.955221176E0,-9.406818390E0,1.125274777E0
9.991877310E-1,3.890577793E0,-9.351752281E0,1.132457376E0
1.001201577E0,3.821146011E0,-9.313444138E0,1.132457376E0
1.003185268E0,3.778050184E0,-9.308655739E0,1.144428372E0
1.005199730E0,3.691859007E0,-9.282320023E0,1.161187768E0
1.007184037E0,3.603273630E0,-9.277531624E0,1.197100878E0
1.009197499E0,3.562572241E0,-9.263166428E0,1.206677675E0
1.011211422E0,3.476380825E0,-9.253589630E0,1.264138460E0
1.013195114E0,3.426102638E0,-9.258378029E0,1.288080573E0
1.015208653E0,3.354276657E0,-9.260771751E0,1.323993564E0
1.017193190E0,3.258508444E0,-9.265560150E0,1.369483352E0
1.019206729E0,3.213018656E0,-9.284713745E0,1.386242747E0
1.021190190E0,3.129221678E0,-9.315838814E0,1.431732655E0
1.023204883E0,3.038241863E0,-9.325415611E0,1.491587639E0
1.025189267E0,3.004723072E0,-9.342175484E0,1.525106430E0
1.027203421E0,2.928108692E0,-9.366117477E0,1.587355733E0
1.029186806E0,2.865859509E0,-9.390059471E0,1.702277422E0
1.031200959E0,2.841917515E0,-9.425971985E0,1.802833915E0
1.033184882E0,2.813186884E0,-9.495404243E0,2.080561161E0
1.035198805E0,2.808398485E0,-9.567230225E0,2.236184359E0
1.037182189E0,2.817975283E0,-9.603142738E0,2.262520552E0
1.039196035E0,2.837129116E0,-9.677363396E0,2.212242365E0
1.041210420E0,2.877830505E0,-9.706093788E0,2.097320795E0
1.043193266E0,2.889801502E0,-9.715670586E0,2.042253971E0
1.045207419E0,2.930502892E0,-9.746794701E0,1.941697598E0
1.047192650E0,2.944868088E0,-9.749189377E0,1.905784607E0
1.049206188E0,2.975992680E0,-9.739612579E0,1.867477298E0
1.051189188E0,3.009511471E0,-9.737217903E0,1.850717902E0
1.053203111E0,3.023876667E0,-9.730035782E0,1.843535304E0
1.055187650E0,3.035847664E0,-9.708487511E0,1.829170108E0
1.057202419E0,3.047818661E0,-9.677363396E0,1.829170108E0
1.059184649E0,3.047818661E0,-9.653421402E0,1.836352706E0
1.061199034E0,3.062183857E0,-9.598354340E0,1.833958507E0
1.063183110E0,3.069366693E0,-9.543288231E0,1.826775908E0
1.065196880E0,3.066972494E0,-9.524134636E0,1.824381709E0
1.067211341E0,3.086126089E0,-9.483432770E0,1.810016513E0
1.069194495E0,3.102885485E0,-9.437943459E0,1.805228114E0
1.071209187E0,3.117250681E0,-9.418789864E0,1.802833915E0
1.073192956E0,3.162740469E0,-9.380482674E0,1.817199111E0
1.075207417E0,3.191470861E0,-9.342175484E0,1.850717902E0
1.077190109E0,3.201047659E0,-9.344569206E0,1.857900500E0
1.079204263E0,3.229778051E0,-9.320627213E0,1.867477298E0
1.081188879E0,3.229778051E0,-9.303867340E0,1.869871497E0
1.083202494E0,3.246537447E0,-9.289502144E0,1.857900500E0
1.085186109E0,3.232172251E0,-9.251194954E0,1.821987510E0
1.087200955E0,3.232172251E0,-9.232041359E0,1.793257117E0
1.089184032E0,3.246537447E0,-9.224859238E0,1.742978811E0
1.091198801E0,3.246537447E0,-9.188945770E0,1.723825216E0
1.093181262E0,3.239354849E0,-9.153033257E0,1.716642618E0
1.095194801E0,3.205836058E0,-9.102754593E0,1.690306425E0
1.097210416E0,3.179499865E0,-9.057265282E0,1.683123827E0
1.099193878E0,3.167528868E0,-9.047688484E0,1.680729628E0
1.101208031E0,3.138798475E0,-8.980650902E0,1.673547029E0
1.103191723E0,3.098097086E0,-8.935160637E0,1.673547029E0
1.105204877E0,3.076549292E0,-8.918401718E0,1.675941229E0
1.107189877E0,3.040636063E0,-8.887276649E0,1.680729628E0
1.109203646E0,3.007117271E0,-8.863334656E0,1.687912226E0
1.111187108E0,2.971204281E0,-8.844181061E0,1.687912226E0
1.113201492E0,2.937685490E0,-8.834604263E0,1.692700624E0
1.115184645E0,2.925714493E0,-8.815450668E0,1.697489023E0
1.117199107E0,2.906560898E0,-8.791508675E0,1.699883223E0
1.119182107E0,2.844311714E0,-8.777143478E0,1.704671621E0
1.121196876E0,2.832340717E0,-8.765172005E0,1.711854219E0
1.123211414E0,2.784456491E0,-8.738836288E0,1.719036818E0
1.125194491E0,2.746149302E0,-8.702922821E0,1.762132406E0
1.127209260E0,2.719813108E0,-8.698134422E0,1.786074519E0
1.129191952E0,2.698265314E0,-8.705317497E0,1.836352706E0
1.131206413E0,2.671929121E0,-8.702922821E0,1.877054095E0
1.133189875E0,2.650381327E0,-8.712499619E0,1.893813491E0
1.135204875E0,2.595314741E0,-8.731653214E0,1.924938202E0
1.137188259E0,2.552218914E0,-8.736441612E0,1.958456993E0
1.139201875E0,2.530671120E0,-8.741230011E0,1.982398987E0
1.141185183E0,2.497152328E0,-8.774748802E0,2.042253971E0
1.143200028E0,2.477998734E0,-8.801085472E0,2.078166962E0
1.145183335E0,2.425326347E0,-8.813055992E0,2.140416384E0
1.147198489E0,2.401384354E0,-8.820239067E0,2.233790159E0
1.149181566E0,2.394201756E0,-8.832210541E0,2.269703150E0
1.151195412E0,2.355894566E0,-8.853757858E0,2.310404539E0
1.153210489E0,2.308010340E0,-8.858546257E0,2.317587137E0
1.155192951E0,2.298433542E0,-8.872911453E0,2.327163935E0
1.157207104E0,2.264914751E0,-8.887276649E0,2.346317768E0
1.159191642E0,2.209848166E0,-8.899248123E0,2.372653961E0
1.161205258E0,2.193088770E0,-8.904036522E0,2.370259762E0
1.163189181E0,2.161964178E0,-8.894459724E0,2.377442360E0
1.165203642E0,2.114080191E0,-8.906430244E0,2.398990154E0
1.167188334E0,2.092532396E0,-8.899248123E0,2.410961151E0
1.169201181E0,2.051830769E0,-8.901641846E0,2.432508945E0
1.171184641E0,2.018311977E0,-8.884882927E0,2.470816135E0
1.173198795E0,2.006340981E0,-8.884882927E0,2.494758129E0
1.175181872E0,1.987187386E0,-8.889671326E0,2.580949545E0
1.177196872E0,1.982398987E0,-8.899248123E0,2.636016130E0
1.179210795E0,1.977610588E0,-8.942343712E0,2.734178305E0
1.181194103E0,1.991975784E0,-8.975862503E0,2.748543501E0
1.183208333E0,1.996764183E0,-8.985439301E0,2.715024710E0
1.185191948E0,2.018311977E0,-8.999804497E0,2.621650934E0
1.187207717E0,2.056619167E0,-9.016563416E0,2.523488522E0
1.189189794E0,2.087743998E0,-9.011775017E0,2.480392933E0
1.191204256E0,2.121262789E0,-9.023746490E0,2.408566952E0
1.193188563E0,2.181117773E0,-9.016563416E0,2.370259762E0
1.195202409E0,2.217030764E0,-9.009381294E0,2.348711967E0
1.197185486E0,2.255337954E0,-9.011775017E0,2.324769735E0
1.199199716E0,2.317587137E0,-8.995016098E0,2.317587137E0
1.201183101E0,2.339135170E0,-8.992621422E0,2.303221941E0
1.203198101E0,2.379836559E0,-8.983044624E0,2.279279947E0
1.205211947E0,2.415749550E0,-8.956708908E0,2.252943754E0
1.207195101E0,2.437297344E0,-8.944737434E0,2.231395960E0
1.209210101E0,2.487575531E0,-8.930372238E0,2.190694571E0
1.211192870E0,2.509123325E0,-8.920795441E0,2.173935175E0
1.213207407E0,2.547430515E0,-8.892065048E0,2.152387381E0
1.215191638E0,2.585737944E0,-8.858546257E0,2.130839586E0
1.217205254E0,2.602497339E0,-8.848969460E0,2.135627985E0
1.219188023E0,2.640804529E0,-8.860940933E0,2.130839586E0
1.221202715E0,2.645592928E0,-8.841787338E0,2.133233786E0
1.223186408E0,2.650381327E0,-8.832210541E0,2.126051188E0
1.225201484E0,2.664746523E0,-8.841787338E0,2.121262789E0
1.227184945E0,2.679111719E0,-8.856152534E0,2.118868589E0
1.229198714E0,2.681505919E0,-8.856152534E0,2.123656988E0
1.231182483E0,2.700659513E0,-8.860940933E0,2.123656988E0
1.233196868E0,2.686294317E0,-8.865729332E0,2.109291792E0
1.235210714E0,2.693476915E0,-8.856152534E0,2.104503393E0
1.237194099E0,2.698265314E0,-8.880094528E0,2.114080191E0
1.239208253E0,2.695871115E0,-8.911218643E0,2.118868589E0
1.241191021E0,2.688688517E0,-8.913613319E0,2.121262789E0
1.243206406E0,2.679111719E0,-8.904036522E0,2.106897593E0
1.245189790E0,2.674323320E0,-8.918401718E0,2.102109194E0
1.247204329E0,2.655169725E0,-8.935160637E0,2.111685991E0
1.249188021E0,2.643198729E0,-8.939949036E0,2.133233786E0
1.251201482E0,2.638410330E0,-8.942343712E0,2.145204782E0
1.253184329E0,2.604891539E0,-8.954314232E0,2.147598982E0
1.255198174E0,2.590526342E0,-8.935160637E0,2.145204782E0
1.257183328E0,2.576161146E0,-8.927978516E0,2.149993181E0
1.259196943E0,2.588132143E0,-8.942343712E0,2.152387381E0
1.261211020E0,2.571372509E0,-8.971074104E0,2.161964178E0
1.263195020E0,2.568978310E0,-8.968679428E0,2.157175779E0
1.265209789E0,2.547430515E0,-8.971074104E0,2.147598982E0
1.267194482E0,2.516305923E0,-8.990227699E0,2.169146776E0
1.269207327E0,2.501940727E0,-9.002198219E0,2.159569979E0
1.271190404E0,2.489969730E0,-9.030928612E0,2.183511972E0
1.273205788E0,2.487575531E0,-9.052476883E0,2.205059767E0
1.275188942E0,2.475604534E0,-9.071630478E0,2.226607561E0
1.277202788E0,2.434903145E0,-9.097966194E0,2.250549555E0
1.279186481E0,2.413355350E0,-9.107542992E0,2.264914751E0
1.281200327E0,2.408566952E0,-9.119514465E0,2.288856745E0
1.283184018E0,2.391807556E0,-9.153033257E0,2.308010340E0
1.285197787E0,2.379836559E0,-9.157821655E0,2.334346771E0
1.287213172E0,2.375048161E0,-9.174580574E0,2.396595955E0
1.289196249E0,2.355894566E0,-9.203310966E0,2.473210335E0
1.291210172E0,2.343923569E0,-9.215282440E0,2.511517525E0
1.293193480E0,2.341529369E0,-9.253589630E0,2.564189911E0
1.295208633E0,2.367865562E0,-9.282320023E0,2.595314741E0
1.297192556E0,2.382230759E0,-9.299078941E0,2.607285738E0
1.299205248E0,2.403778553E0,-9.306262016E0,2.619256735E0
1.301189863E0,2.439691544E0,-9.337387085E0,2.657563925E0
1.303203709E0,2.461239338E0,-9.349357605E0,2.683900118E0
1.305187017E0,2.509123325E0,-9.358934402E0,2.719813108E0
1.307202171E0,2.533065319E0,-9.368511200E0,2.719813108E0
1.309185171E0,2.564189911E0,-9.349357605E0,2.700659513E0
1.311199093E0,2.590526342E0,-9.334992409E0,2.681505919E0
1.313183093E0,2.592920542E0,-9.330204010E0,2.669534922E0
1.315196862E0,2.626439333E0,-9.330204010E0,2.652775526E0
1.317211708E0,2.647987127E0,-9.308655739E0,2.628833532E0
1.319194708E0,2.650381327E0,-9.294290543E0,2.624045134E0
1.321209170E0,2.676717520E0,-9.251194954E0,2.614468336E0
1.323192555E0,2.691082716E0,-9.224859238E0,2.609679937E0
1.325207015E0,2.698265314E0,-9.208099365E0,2.600103140E0
1.327191092E0,2.707842112E0,-9.200917244E0,2.576161146E0
1.329205554E0,2.705447912E0,-9.176975250E0,2.552218914E0
1.331188938E0,2.705447912E0,-9.155426979E0,2.540247917E0
1.333201554E0,2.688688517E0,-9.131484985E0,2.501940727E0
1.335185246E0,2.664746523E0,-9.093177795E0,2.463633537E0
1.337200631E0,2.652775526E0,-9.071630478E0,2.449268341E0
1.339183706E0,2.647987127E0,-9.057265282E0,2.439691544E0
1.341198168E0,2.633621931E0,-9.052476883E0,2.434903145E0
1.343211706E0,2.621650934E0,-9.021351814E0,2.432508945E0
1.345195706E0,2.597708941E0,-8.990227699E0,2.427720547E0
1.347211091E0,2.607285738E0,-8.980650902E0,2.422932148E0
1.349193860E0,2.604891539E0,-8.968679428E0,2.398990154E0
1.351207322E0,2.590526342E0,-8.947132111E0,2.377442360E0
1.353192321E0,2.588132143E0,-8.937555313E0,2.360682964E0
1.355206090E0,2.585737944E0,-8.944737434E0,2.353500366E0
1.357188321E0,2.585737944E0,-8.935160637E0,2.360682964E0
1.359203013E0,2.580949545E0,-8.932766914E0,2.353500366E0
1.361187321E0,2.571372509E0,-8.920795441E0,2.329558372E0
1.363200859E0,2.580949545E0,-8.913613319E0,2.334346771E0
1.365184629E0,2.585737944E0,-8.906430244E0,2.341529369E0
1.367199706E0,2.604891539E0,-8.906430244E0,2.348711967E0
1.369182397E0,2.600103140E0,-8.889671326E0,2.372653961E0
1.371196320E0,2.612074137E0,-8.892065048E0,2.396595955E0
1.373210474E0,2.616862535E0,-8.887276649E0,2.430114746E0
1.375195089E0,2.614468336E0,-8.887276649E0,2.439691544E0
1.377209474E0,2.600103140E0,-8.872911453E0,2.442085743E0
1.379191397E0,2.580949545E0,-8.870517731E0,2.446874142E0
1.381207089E0,2.590526342E0,-8.880094528E0,2.446874142E0
1.383191011E0,2.600103140E0,-8.887276649E0,2.451662540E0
1.385204627E0,2.576161146E0,-8.887276649E0,2.470816135E0
1.387189165E0,2.576161146E0,-8.901641846E0,2.473210335E0
1.389202396E0,2.564189911E0,-8.904036522E0,2.494758129E0
1.391186165E0,2.557007313E0,-8.942343712E0,2.523488522E0
1.393199627E0,2.549824715E0,-8.951920509E0,2.537853718E0
1.395183627E0,2.525882721E0,-8.975862503E0,2.559401512E0
1.397197549E0,2.494758129E0,-9.023746490E0,2.547430515E0
1.399211933E0,2.485181332E0,-9.045293808E0,2.540247917E0
1.401195933E0,2.487575531E0,-9.071630478E0,2.537853718E0
1.403210164E0,2.482787132E0,-9.100360870E0,2.542642117E0
1.405193549E0,2.468421936E0,-9.112331390E0,2.542642117E0
1.407208010E0,2.454056740E0,-9.131484985E0,2.542642117E0
1.409191318E0,2.439691544E0,-9.138668060E0,2.547430515E0
1.411205548E0,2.408566952E0,-9.153033257E0,2.545036316E0
1.413188548E0,2.389413357E0,-9.174580574E0,2.545036316E0
1.415202779E0,2.372653961E0,-9.181763649E0,2.535459518E0
1.417186779E0,2.367865562E0,-9.198522568E0,2.521094322E0
1.419200317E0,2.348711967E0,-9.212887764E0,2.525882721E0
1.421185240E0,2.334346771E0,-9.210494041E0,2.518700123E0
1.423198394E0,2.329558372E0,-9.200917244E0,2.521094322E0
1.425212931E0,2.324769735E0,-9.215282440E0,2.506729126E0
1.427198393E0,2.322375536E0,-9.229647636E0,2.513911724E0
1.429211316E0,2.315192938E0,-9.217676163E0,2.504334927E0
1.431194470E0,2.312798738E0,-9.196128845E0,2.485181332E0
1.433209162E0,2.312798738E0,-9.191340446E0,2.480392933E0
1.435192239E0,2.310404539E0,-9.188945770E0,2.477998734E0
1.437206393E0,2.324769735E0,-9.191340446E0,2.473210335E0
1.439190161E0,2.334346771E0,-9.186552048E0,2.466027737E0
1.441204238E0,2.341529369E0,-9.193734169E0,2.446874142E0
1.443188007E0,2.339135170E0,-9.181763649E0,2.444479942E0
1.445201161E0,2.358288765E0,-9.179368973E0,2.434903145E0
1.447185854E0,2.377442360E0,-9.165003777E0,2.427720547E0
1.449200623E0,2.377442360E0,-9.165003777E0,2.432508945E0
1.451183392E0,2.394201756E0,-9.150638580E0,2.442085743E0
1.453197237E0,2.406172752E0,-9.153033257E0,2.482787132E0
1.455211930E0,2.401384354E0,-9.148244858E0,2.499546528E0
1.457196545E0,2.413355350E0,-9.141061783E0,2.523488522E0
1.459208930E0,2.434903145E0,-9.131484985E0,2.549824715E0
1.461193853E0,2.444479942E0,-9.119514465E0,2.561795712E0
1.463207083E0,2.468421936E0,-9.097966194E0,2.523488522E0
1.465190468E0,2.492363930E0,-9.059659004E0,2.444479942E0
1.467205852E0,2.501940727E0,-9.038111687E0,2.406172752E0
1.469188852E0,2.535459518E0,-9.023746490E0,2.336740971E0
1.471203313E0,2.547430515E0,-8.992621422E0,2.315192938E0
1.473187082E0,2.568978310E0,-8.975862503E0,2.281674147E0
1.475200544E0,2.576161146E0,-8.930372238E0,2.279279947E0
1.477184621E0,2.583343744E0,-8.916007042E0,2.279279947E0
1.479198467E0,2.597708941E0,-8.884882927E0,2.281674147E0
1.481182389E0,2.614468336E0,-8.844181061E0,2.284068346E0
1.483196005E0,2.614468336E0,-8.810662270E0,2.276885748E0
1.485209235E0,2.604891539E0,-8.779537201E0,2.269703150E0
1.487195620E0,2.616862535E0,-8.738836288E0,2.279279947E0
1.489208312E0,2.614468336E0,-8.714894295E0,2.274491549E0
1.491192005E0,2.624045134E0,-8.690952301E0,2.272097349E0
1.493205466E0,2.624045134E0,-8.657433510E0,2.272097349E0
1.495190080E0,2.626439333E0,-8.650250435E0,2.269703150E0
1.497203080E0,2.616862535E0,-8.602366447E0,2.248155355E0
1.499187388E0,2.624045134E0,-8.561665535E0,2.233790159E0
1.501201234E0,2.628833532E0,-8.540117264E0,2.226607561E0
1.503185542E0,2.616862535E0,-8.494627953E0,2.233790159E0
1.505200234E0,2.609679937E0,-8.477868080E0,2.236184359E0
1.507184004E0,2.600103140E0,-8.451532364E0,2.229001760E0
1.509198079E0,2.578555346E0,-8.422801971E0,2.214636564E0
1.511211080E0,2.573766708E0,-8.413225174E0,2.200271368E0
1.513196003E0,2.566584110E0,-8.362946510E0,2.183511972E0
1.515209849E0,2.554613113E0,-8.322244644E0,2.173935175E0
1.517192618E0,2.559401512E0,-8.307879448E0,2.176329374E0
1.519206464E0,2.545036316E0,-8.300697327E0,2.164358377E0
1.521190156E0,2.506729126E0,-8.259995461E0,2.154781580E0
1.523204925E0,2.501940727E0,-8.226476669E0,2.138022184E0
1.525188309E0,2.482787132E0,-8.221688271E0,2.140416384E0
1.527203617E0,2.468421936E0,-8.195352554E0,2.135627985E0
1.529186386E0,2.468421936E0,-8.180987358E0,2.126051188E0
1.531200002E0,2.475604534E0,-8.152256966E0,2.109291792E0
1.533183694E0,2.466027737E0,-8.137891769E0,2.092532396E0
1.535198386E0,2.477998734E0,-8.142680168E0,2.082955360E0
1.537182078E0,2.477998734E0,-8.142680168E0,2.051830769E0
1.539195693E0,2.468421936E0,-8.140285492E0,2.049436569E0
1.541210078E0,2.475604534E0,-8.113949776E0,2.044648170E0
1.543194078E0,2.475604534E0,-8.125920296E0,2.023100376E0
1.545208231E0,2.475604534E0,-8.140285492E0,2.013523579E0
1.547192847E0,2.468421936E0,-8.142680168E0,2.001552582E0
1.549206078E0,2.463633537E0,-8.147468567E0,1.987187386E0
1.551189154E0,2.458845139E0,-8.137891769E0,1.980004787E0
1.553204307E0,2.444479942E0,-8.161833763E0,1.972822189E0
1.555187692E0,2.442085743E0,-8.188169479E0,1.958456993E0
1.557201461E0,2.442085743E0,-8.202534676E0,1.953668594E0
1.559184615E0,2.458845139E0,-8.248024940E0,1.948880196E0
1.561200000E0,2.454056740E0,-8.312667847E0,1.946485996E0
1.563182461E0,2.463633537E0,-8.341399193E0,1.948880196E0
1.565197460E0,2.492363930E0,-8.394071579E0,1.965639591E0
1.567211999E0,2.511517525E0,-8.485051155E0,1.972822189E0
1.569194999E0,2.533065319E0,-8.520963669E0,1.960851192E0
1.571208922E0,2.566584110E0,-8.592789650E0,1.920149803E0
1.573191922E0,2.585737944E0,-8.635885239E0,1.896207690E0
1.575206076E0,2.628833532E0,-8.738836288E0,1.836352706E0
1.577189845E0,2.681505919E0,-8.820239067E0,1.798045516E0
1.579204844E0,2.691082716E0,-8.844181061E0,1.793257117E0
1.581187690E0,2.722207308E0,-8.942343712E0,1.771709204E0
1.583202382E0,2.774879694E0,-9.042900085E0,1.764526606E0
1.585186152E0,2.784456491E0,-9.078812599E0,1.764526606E0
1.587201459E0,2.827552319E0,-9.167398453E0,1.745373011E0
1.589183613E0,2.841917515E0,-9.267954826E0,1.733402014E0
1.591198075E0,2.844311714E0,-9.308655739E0,1.738190413E0
1.593212304E0,2.861071110E0,-9.399636269E0,1.721431017E0
1.595195920E0,2.870647907E0,-9.478644371E0,1.716642618E0
1.597210458E0,2.880224705E0,-9.521739960E0,1.711854219E0
1.599193766E0,2.896984100E0,-9.607931137E0,1.726219416E0
1.601207920E0,2.896984100E0,-9.682151794E0,1.738190413E0
1.603191304E0,2.887407303E0,-9.710882187E0,1.764526606E0
1.605205458E0,2.880224705E0,-9.787496567E0,1.781286120E0
1.607190073E0,2.887407303E0,-9.806650162E0,1.781286120E0
1.609203688E0,2.908955097E0,-9.847352028E0,1.771709204E0
1.611186765E0,2.918531895E0,-9.854534149E0,1.745373011E0
1.613200842E0,2.932897091E0,-9.861717224E0,1.733402014E0
1.615184842E0,2.944868088E0,-9.856928825E0,1.714248419E0
1.617199919E0,2.956839085E0,-9.825803757E0,1.702277422E0
1.619182073E0,2.954444885E0,-9.801861763E0,1.695094824E0
1.621196918E0,2.978386879E0,-9.718064308E0,1.711854219E0
1.623211610E0,2.995146275E0,-9.636661530E0,1.738190413E0
1.625194456E0,3.011905670E0,-9.591172218E0,1.757344007E0
1.627210149E0,3.033453465E0,-9.495404243E0,1.786074519E0
1.629192533E0,3.047818661E0,-9.380482674E0,1.817199111E0
1.631206995E0,3.050212860E0,-9.323021889E0,1.824381709E0
1.633190995E0,3.071760893E0,-9.212887764E0,1.843535304E0
1.635204225E0,3.093308687E0,-9.076418877E0,1.843535304E0
1.637187378E0,3.100491285E0,-9.011775017E0,1.853112102E0
1.639202148E0,3.090914488E0,-8.892065048E0,1.833958507E0
1.641186148E0,3.107673883E0,-8.836998940E0,1.826775908E0
1.643200532E0,3.136404276E0,-8.729259491E0,1.807622313E0
1.645183917E0,3.134010077E0,-8.628703117E0,1.798045516E0
1.647198994E0,3.119644880E0,-8.583212852E0,1.795651317E0
1.649181762E0,3.114856482E0,-8.489839554E0,1.793257117E0
1.651195301E0,3.129221678E0,-8.410830498E0,1.783680320E0
1.653207301E0,3.114856482E0,-8.362946510E0,1.766920805E0
1.655192839E0,3.088520288E0,-8.291120529E0,1.747767210E0
1.657207993E0,3.081337690E0,-8.228871346E0,1.714248419E0
1.659190454E0,3.076549292E0,-8.188169479E0,1.692700624E0
1.661205454E0,3.081337690E0,-8.140285492E0,1.649604917E0
1.663188915E0,3.081337690E0,-8.078036308E0,1.632845521E0
1.665203607E0,3.064578056E0,-8.058882713E0,1.618480325E0
1.667187377E0,3.064578056E0,-8.020575523E0,1.584961534E0
1.669201223E0,3.069366693E0,-7.996633530E0,1.575384736E0
1.671184838E0,3.074155092E0,-7.936778545E0,1.553836942E0
1.673199300E0,3.078943491E0,-7.915230751E0,1.537077546E0
1.675183069E0,3.076549292E0,-7.900865555E0,1.522712231E0
1.677195991E0,3.062183857E0,-7.876923561E0,1.486799240E0
1.679210145E0,3.057395458E0,-7.857769966E0,1.458068848E0
1.681193529E0,3.059789658E0,-7.843404770E0,1.446097851E0
1.683208222E0,3.074155092E0,-7.807491779E0,1.400607944E0
1.685192299E0,3.071760893E0,-7.793126583E0,1.376665950E0
1.687207299E0,3.076549292E0,-7.769184589E0,1.362300754E0
1.689190453E0,3.074155092E0,-7.733271599E0,1.347935557E0
1.691204605E0,3.105279684E0,-7.711723804E0,1.350329757E0
1.693187375E0,3.124433279E0,-7.697358608E0,1.352723956E0
1.695202682E0,3.150769472E0,-7.661445618E0,1.355118155E0
1.697186067E0,3.165134668E0,-7.651868820E0,1.362300754E0
1.699199298E0,3.201047659E0,-7.642292023E0,1.357512355E0
1.701183682E0,3.232172251E0,-7.606379032E0,1.359906554E0
1.703197452E0,3.244143248E0,-7.615955830E0,1.352723956E0
1.705211604E0,3.248931646E0,-7.618350029E0,1.331176162E0
1.707196220E0,3.275267839E0,-7.601590633E0,1.340752959E0
1.709209758E0,3.289633036E0,-7.620744228E0,1.345541358E0
1.711193528E0,3.296815634E0,-7.656657219E0,1.328781962E0
1.713207681E0,3.292027235E0,-7.659051418E0,1.312022567E0
1.715190758E0,3.280056238E0,-7.673416615E0,1.307234168E0
1.717204297E0,3.256114244E0,-7.728483200E0,1.300051570E0
1.719188603E0,3.251325846E0,-7.795520782E0,1.280897856E0
1.721202680E0,3.253720045E0,-7.817068577E0,1.273715258E0
1.723185757E0,3.210624456E0,-7.884106159E0,1.242590666E0
1.725200527E0,3.172317266E0,-7.967903137E0,1.218648672E0
1.727184527E0,3.153163671E0,-8.006210327E0,1.211466074E0
1.729197527E0,3.117250681E0,-8.106766701E0,1.199495077E0
1.731213527E0,3.100491285E0,-8.219294548E0,1.170764685E0
1.733195602E0,3.035847664E0,-8.279149055E0,1.156399369E0
1.735209526E0,2.987963676E0,-8.403648376E0,1.118092179E0
1.737193449E0,2.983175278E0,-8.463502884E0,1.106121182E0
1.739207987E0,2.944868088E0,-8.585607529E0,1.084573388E0
1.741191372E0,2.911349297E0,-8.736441612E0,1.039083481E0
1.743206372E0,2.904166698E0,-8.822632790E0,1.022324085E0
1.745191064E0,2.882618904E0,-8.980650902E0,1.010353088E0
1.747205448E0,2.868253708E0,-9.136273384E0,9.911994934E-1
1.749187678E0,2.863465309E0,-9.212887764E0,9.816226959E-1
1.751201448E0,2.865859509E0,-9.390059471E0,9.672574997E-1
1.753186371E0,2.892195702E0,-9.562441826E0,9.648633003E-1
1.755199986E0,2.908955097E0,-9.651026726E0,9.552865028E-1
1.757183371E0,2.947262287E0,-9.825803757E0,9.385270476E-1
1.759196602E0,2.975992680E0,-1.000776291E1,9.169792533E-1
1.761211677E0,2.992752075E0,-1.009874249E1,9.289502501E-1
1.763194447E0,3.066972494E0,-1.028070164E1,9.648633003E-1
1.765209216E0,3.098097086E0,-1.044111347E1,9.720458984E-1
1.767193754E0,3.172317266E0,-1.051772785E1,9.935936928E-1
1.769207293E0,3.251325846E0,-1.066856289E1,1.019929886E0
1.771190985E0,3.294421434E0,-1.073560047E1,1.041477680E0
1.773204524E0,3.363853455E0,-1.086967564E1,1.065419793E0
1.775188907E0,3.454833031E0,-1.097262669E1,1.089361787E0
1.777203600E0,3.490746021E0,-1.102529907E1,1.098938584E0
1.779185830E0,3.562572241E0,-1.112824917E1,1.113303781E0
1.781200830E0,3.646369219E0,-1.120486355E1,1.149216771E0
1.783183907E0,3.675099611E0,-1.123120022E1,1.175553083E0
1.785198061E0,3.761290789E0,-1.129823780E1,1.225831270E0
1.787213138E0,3.849876404E0,-1.132936287E1,1.264138460E0
1.789196291E0,3.888183594E0,-1.134612179E1,1.280897856E0
1.791209829E0,3.955221176E0,-1.134851646E1,1.302445769E0
1.793194060E0,4.022258759E0,-1.134612179E1,1.307234168E0
1.795207906E0,4.065354347E0,-1.133654499E1,1.314416766E0
1.797191368E0,4.101267338E0,-1.131499767E1,1.319205165E0
1.799205752E0,4.108449936E0,-1.130063248E1,1.323993564E0
1.801188599E0,4.139574528E0,-1.126711273E1,1.323993564E0
1.803203367E0,4.168305397E0,-1.125274754E1,1.350329757E0
1.805187367E0,4.168305397E0,-1.124077702E1,1.364694953E0
1.807201521E0,4.158728123E0,-1.122641182E1,1.395819545E0
1.809184905E0,4.158728123E0,-1.121444035E1,1.412579060E0
1.811198982E0,4.149151325E0,-1.120486355E1,1.419761658E0
1.813182136E0,4.113238335E0,-1.120246983E1,1.434126854E0
1.815196290E0,4.077325344E0,-1.120486355E1,1.429338455E0
1.817211674E0,4.055777550E0,-1.120486355E1,1.426944256E0
1.819194058E0,4.005499363E0,-1.119289303E1,1.417367458E0
1.821209212E0,3.981557369E0,-1.117613316E1,1.410184860E0
1.823192827E0,3.957615376E0,-1.117373943E1,1.403002143E0
1.825206674E0,3.912125587E0,-1.116416264E1,1.383848548E0
1.827191058E0,3.885789394E0,-1.113782597E1,1.371877551E0
1.829204597E0,3.811569214E0,-1.110909557E1,1.369483352E0
1.831188211E0,3.756502390E0,-1.106360626E1,1.331176162E0
1.833203365E0,3.730166197E0,-1.103726959E1,1.316810966E0
1.835186980E0,3.696647406E0,-1.100375080E1,1.295263171E0
1.837199673E0,3.648763418E0,-1.094389629E1,1.304839969E0
1.839183673E0,3.641580820E0,-1.091516590E1,1.304839969E0
1.841197211E0,3.598485231E0,-1.086009884E1,1.297657371E0
1.843212596E0,3.555389643E0,-1.080024433E1,1.254561663E0
1.845195595E0,3.526659012E0,-1.076193619E1,1.230619669E0
1.847210441E0,3.473986626E0,-1.067574501E1,1.192312479E0
1.849193518E0,3.402160645E0,-1.058955383E1,1.156399369E0
1.851207979E0,3.356670856E0,-1.054885292E1,1.130063176E0
1.853191364E0,3.275267839E0,-1.048660374E1,1.082179189E0
1.855205749E0,3.205836058E0,-1.041717148E1,1.029506683E0
1.857190056E0,3.177105665E0,-1.037647057E1,1.007958889E0
1.859202748E0,3.095702887E0,-1.031422138E1,9.840168953E-1
1.861186748E0,3.064578056E0,-1.024000072E1,9.864110947E-1
1.863201440E0,2.997540474E0,-1.021127033E1,9.840168953E-1
1.865184517E0,2.954444885E0,-1.018253994E1,9.888052940E-1
1.867200517E0,2.937685490E0,-1.016817474E1,9.864110947E-1
1.869182978E0,2.913743496E0,-1.014902115E1,9.696516991E-1
1.871197440E0,2.899378300E0,-1.009634876E1,9.864110947E-1
1.873211054E0,2.904166698E0,-1.008198357E1,9.983820915E-1
1.875195670E0,2.923320293E0,-1.006043530E1,1.005564690E0
1.877208824E0,2.942473888E0,-1.001255131E1,1.022324085E0
1.879192593E0,2.956839085E0,-9.995792389E0,1.027112484E0
1.881206747E0,2.966415882E0,-9.955090523E0,1.053448796E0
1.883190439E0,3.004723072E0,-9.907206535E0,1.086967587E0
1.885204208E0,3.031059265E0,-9.892841339E0,1.103726983E0
1.887189438E0,3.083731890E0,-9.859322548E0,1.103726983E0
1.889201823E0,3.143586874E0,-9.818621635E0,1.072602391E0
1.891185746E0,3.162740469E0,-9.794678688E0,1.053448796E0
1.893196823E0,3.193865061E0,-9.749189377E0,1.039083481E0
1.895213515E0,3.203441858E0,-9.691728592E0,1.043871999E0
1.897198053E0,3.222595453E0,-9.674968719E0,1.058237195E0
1.899212207E0,3.229778051E0,-9.639056206E0,1.086967587E0
1.901195052E0,3.232172251E0,-9.619902611E0,1.086967587E0
1.903209514E0,3.260902643E0,-9.574412346E0,1.094150186E0
1.905192899E0,3.284844637E0,-9.536105156E0,1.098938584E0
1.907207976E0,3.294421434E0,-9.516951561E0,1.091755986E0
1.909190976E0,3.301604033E0,-9.483432770E0,1.077390790E0
1.911205514E0,3.280056238E0,-9.440337181E0,1.084573388E0
1.913189514E0,3.275267839E0,-9.423578262E0,1.096544385E0
1.915203051E0,3.251325846E0,-9.392453194E0,1.122880578E0
1.917186744E0,3.236960649E0,-9.380482674E0,1.132457376E0
1.919201128E0,3.229778051E0,-9.368511200E0,1.125274777E0
1.921184513E0,3.217807055E0,-9.334992409E0,1.115697980E0
1.923198975E0,3.196259260E0,-9.299078941E0,1.108515382E0
1.925182359E0,3.184288263E0,-9.294290543E0,1.096544385E0
1.927196898E0,3.165134668E0,-9.282320023E0,1.060631394E0
1.929211358E0,3.160346270E0,-9.244012833E0,1.053448796E0
1.931194127E0,3.153163671E0,-9.236829758E0,1.060631394E0
1.933207358E0,3.136404276E0,-9.220070839E0,1.046266198E0
1.935192204E0,3.114856482E0,-9.198522568E0,1.046266198E0
1.937207281E0,3.064578056E0,-9.176975250E0,1.051054597E0
1.939189435E0,3.031059265E0,-9.176975250E0,1.046266198E0
1.941204204E0,3.014299870E0,-9.169792175E0,1.039083481E0
1.943188280E0,2.983175278E0,-9.153033257E0,1.031900883E0
1.945202050E0,2.966415882E0,-9.121908188E0,1.017535686E0
1.947186050E0,2.942473888E0,-9.119514465E0,1.012747288E0
1.949199973E0,2.896984100E0,-9.109937668E0,9.959878922E-1
1.951183665E0,2.841917515E0,-9.078812599E0,9.911994934E-1
1.953198665E0,2.820369720E0,-9.069235802E0,9.935936928E-1
1.955181203E0,2.803610086E0,-9.045293808E0,9.983820915E-1
1.957195664E0,2.758120298E0,-9.035717010E0,1.005564690E0
1.959209510E0,2.743755102E0,-9.040505409E0,1.005564690E0
1.961193125E0,2.710236311E0,-9.016563416E0,1.015141487E0
1.963207049E0,2.707842112E0,-9.016563416E0,1.012747288E0
1.965190741E0,2.667140722E0,-8.999804497E0,1.015141487E0
1.967206126E0,2.633621931E0,-8.963891029E0,1.019929886E0
1.969188895E0,2.607285738E0,-8.949525833E0,1.034295082E0
1.971202971E0,2.566584110E0,-8.937555313E0,1.077390790E0
1.973186971E0,2.547430515E0,-8.935160637E0,1.144428372E0
1.975199894E0,2.542642117E0,-8.918401718E0,1.173158884E0
1.977184278E0,2.523488522E0,-8.916007042E0,1.209071875E0
1.979198125E0,2.528276920E0,-8.899248123E0,1.244984865E0
1.981212278E0,2.537853718E0,-8.899248123E0,1.244984865E0
1.983196201E0,2.542642117E0,-8.901641846E0,1.268926859E0
1.985211585E0,2.568978310E0,-8.892065048E0,1.261744261E0
1.987195893E0,2.585737944E0,-8.884882927E0,1.264138460E0
1.989208277E0,2.600103140E0,-8.899248123E0,1.264138460E0
1.991192277E0,2.619256735E0,-8.911218643E0,1.249773264E0
1.993206739E0,2.671929121E0,-8.927978516E0,1.240196466E0
1.995189508E0,2.712630510E0,-8.951920509E0,1.230619669E0
1.997203893E0,2.710236311E0,-8.949525833E0,1.228225470E0
1.999187276E0,2.748543501E0,-8.971074104E0,1.211466074E0
2.001201738E0,2.777273893E0,-8.990227699E0,1.206677675E0
2.003185430E0,2.784456491E0,-9.006986618E0,1.209071875E0
2.005199353E0,2.808398485E0,-9.028534889E0,1.204283476E0
2.007184276E0,2.820369720E0,-9.040505409E0,1.194706678E0
2.009197430E0,2.829946518E0,-9.052476883E0,1.197100878E0
2.011211584E0,2.832340717E0,-9.064447403E0,1.197100878E0
2.013194429E0,2.858676910E0,-9.093177795E0,1.192312479E0
2.015210045E0,2.863465309E0,-9.117119789E0,1.175553083E0
2.017193506E0,2.863465309E0,-9.133879662E0,1.165976286E0
2.019206968E0,2.858676910E0,-9.186552048E0,1.151610970E0
2.021190660E0,2.851494312E0,-9.215282440E0,1.132457376E0
2.023204814E0,2.858676910E0,-9.289502144E0,1.101332784E0
2.025188275E0,2.863465309E0,-9.366117477E0,1.094150186E0
2.027203967E0,2.877830505E0,-9.404424667E0,1.084573388E0
2.029186967E0,2.875436306E0,-9.483432770E0,1.043871999E0
2.031200275E0,2.875436306E0,-9.526528358E0,1.027112484E0
2.033184890E0,2.863465309E0,-9.615114212E0,1.019929886E0
2.035198044E0,2.880224705E0,-9.703699112E0,1.036689281E0
2.037213198E0,2.870647907E0,-9.751583099E0,1.039083481E0
2.039195890E0,2.863465309E0,-9.832986832E0,1.029506683E0
2.041209735E0,2.861071110E0,-9.914389610E0,1.046266198E0
2.043193812E0,2.873042107E0,-9.950302124E0,1.055842996E0
2.045207658E0,2.880224705E0,-1.002931118E1,1.072602391E0
2.047192889E0,2.896984100E0,-1.008198357E1,1.101332784E0
2.049206350E0,2.899378300E0,-1.009874249E1,1.118092179E0
2.051188581E0,2.906560898E0,-1.014183807E1,1.175553083E0
2.053200812E0,2.913743496E0,-1.018253994E1,1.237802267E0
2.055186657E0,2.916137695E0,-1.020169353E1,1.261744261E0
2.057202042E0,2.911349297E0,-1.021605873E1,1.326387763E0
2.059185119E0,2.916137695E0,-1.022324085E1,1.352723956E0
2.061198965E0,2.940079689E0,-1.020887566E1,1.424550056E0
2.063182734E0,2.959233284E0,-1.018493366E1,1.474828243E0
2.065196888E0,2.966415882E0,-1.016817474E1,1.501164436E0
2.067211580E0,2.954444885E0,-1.012507915E1,1.558625340E0
2.069194425E0,2.942473888E0,-1.004607010E1,1.625662923E0
2.071209118E0,2.942473888E0,-1.000776291E1,1.661576033E0
2.073193502E0,2.918531895E0,-9.916783333E0,1.731007814E0
2.075206425E0,2.906560898E0,-9.840168953E0,1.810016513E0
2.077190656E0,2.885013103E0,-9.794678688E0,1.836352706E0
2.079204502E0,2.837129116E0,-9.677363396E0,1.886630893E0
2.081188579E0,2.801215887E0,-9.586383820E0,1.905784607E0
2.083202424E0,2.784456491E0,-9.548076630E0,1.924938202E0
2.085185732E0,2.729389906E0,-9.440337181E0,1.965639591E0
2.087201117E0,2.693476915E0,-9.325415611E0,1.975216389E0
2.089184501E0,2.674323320E0,-9.265560150E0,1.968033791E0
2.091197809E0,2.628833532E0,-9.148244858E0,1.934514999E0
2.093211348E0,2.614468336E0,-9.050082207E0,1.920149803E0
2.095197117E0,2.564189911E0,-8.992621422E0,1.905784607E0
2.097210731E0,2.530671120E0,-8.884882927E0,1.877054095E0
2.099192577E0,2.513911724E0,-8.848969460E0,1.872265697E0
2.101207962E0,2.473210335E0,-8.767566681E0,1.869871497E0
2.103190731E0,2.468421936E0,-8.712499619E0,1.848323703E0
2.105205731E0,2.456450939E0,-8.669404030E0,1.850717902E0
2.107190424E0,2.446874142E0,-8.592789650E0,1.843535304E0
2.109204193E0,2.454056740E0,-8.542511940E0,1.824381709E0
2.111187653E0,2.466027737E0,-8.518569946E0,1.800439715E0
2.113201730E0,2.466027737E0,-8.482656479E0,1.745373011E0
2.115185730E0,2.494758129E0,-8.456320763E0,1.697489023E0
2.117198961E0,2.516305923E0,-8.439560890E0,1.680729628E0
2.119182730E0,2.561795712E0,-8.434772491E0,1.647210717E0
2.121197192E0,2.578555346E0,-8.408436775E0,1.606509328E0
2.123211269E0,2.616862535E0,-8.386888504E0,1.584961534E0
2.125194652E0,2.667140722E0,-8.398859978E0,1.553836942E0
2.127209806E0,2.703053713E0,-8.386888504E0,1.549048543E0
2.129192191E0,2.767697096E0,-8.374917984E0,1.527500629E0
2.131206960E0,2.827552319E0,-8.360552788E0,1.489193439E0
2.133189191E0,2.858676910E0,-8.365341187E0,1.472434044E0
2.135203268E0,2.932897091E0,-8.370129585E0,1.443703651E0
2.137188575E0,2.997540474E0,-8.372523308E0,1.412579060E0
2.139202728E0,3.038241863E0,-8.367734909E0,1.393425345E0
2.141185498E0,3.093308687E0,-8.336610794E0,1.369483352E0
2.143200574E0,3.143586874E0,-8.319850922E0,1.338358760E0
2.145183574E0,3.165134668E0,-8.312667847E0,1.314416766E0
2.147198959E0,3.213018656E0,-8.298302650E0,1.302445769E0
2.149181498E0,3.246537447E0,-8.283937454E0,1.300051570E0
2.151195344E0,3.256114244E0,-8.279149055E0,1.300051570E0
2.153210035E0,3.277662039E0,-8.259995461E0,1.295263171E0
2.155193112E0,3.294421434E0,-8.264783859E0,1.290474772E0
2.157207266E0,3.325546265E0,-8.276755333E0,1.285686255E0
2.159191343E0,3.344699860E0,-8.274360657E0,1.283292055E0
2.161205112E0,3.354276657E0,-8.274360657E0,1.283292055E0
2.163188574E0,3.371036053E0,-8.274360657E0,1.297657371E0
2.165202958E0,3.363853455E0,-8.283937454E0,1.297657371E0
2.167187573E0,3.363853455E0,-8.293514252E0,1.288080573E0
2.169201111E0,3.371036053E0,-8.286332130E0,1.278503656E0
2.171183957E0,3.375824451E0,-8.293514252E0,1.283292055E0
2.173198342E0,3.359065056E0,-8.312667847E0,1.288080573E0
2.175213419E0,3.332728863E0,-8.343792915E0,1.302445769E0
2.177197111E0,3.320757866E0,-8.370129585E0,1.326387763E0
2.179210111E0,3.306392431E0,-8.382100105E0,1.343147159E0
2.181194110E0,3.294421434E0,-8.403648376E0,1.367089152E0
2.183208495E0,3.275267839E0,-8.418013573E0,1.393425345E0
2.185191879E0,3.268085241E0,-8.429984093E0,1.417367458E0
2.187207648E0,3.263296843E0,-8.453926086E0,1.443703651E0
2.189189725E0,3.244143248E0,-8.477868080E0,1.470039845E0
2.191203033E0,3.256114244E0,-8.489839554E0,1.541865945E0
2.193187879E0,3.253720045E0,-8.542511940E0,1.613691926E0
2.195201494E0,3.248931646E0,-8.559270859E0,1.637633920E0
2.197185724E0,3.256114244E0,-8.602366447E0,1.647210717E0
2.199199878E0,3.282450438E0,-8.638279915E0,1.625662923E0
2.201183340E0,3.296815634E0,-8.650250435E0,1.601720929E0
2.203197494E0,3.325546265E0,-8.678980827E0,1.570596337E0
2.205211032E0,3.366247654E0,-8.710105896E0,1.558625340E0
2.207196186E0,3.373430252E0,-8.724471092E0,1.556231141E0
2.209208570E0,3.387795448E0,-8.729259491E0,1.553836942E0
2.211192570E0,3.378218651E0,-8.765172005E0,1.570596337E0
2.213206416E0,3.371036053E0,-8.784325600E0,1.577778935E0
2.215190108E0,3.363853455E0,-8.822632790E0,1.580173135E0
2.217204877E0,3.349488258E0,-8.841787338E0,1.572990537E0
2.219188877E0,3.342305660E0,-8.851364136E0,1.570596337E0
2.221202724E0,3.292027235E0,-8.875306129E0,1.568202138E0
2.223186030E0,3.287238836E0,-8.877699852E0,1.563413739E0
2.225200569E0,3.253720045E0,-8.882488251E0,1.556231141E0
2.227186030E0,3.220201254E0,-8.920795441E0,1.556231141E0
2.229198030E0,3.196259260E0,-8.920795441E0,1.556231141E0
2.231212492E0,3.169923067E0,-8.925583839E0,1.565807939E0
2.233197799E0,3.124433279E0,-8.937555313E0,1.565807939E0
2.235210415E0,3.110068083E0,-8.947132111E0,1.563413739E0
2.237194106E0,3.090914488E0,-8.968679428E0,1.563413739E0
2.239208491E0,3.093308687E0,-8.968679428E0,1.558625340E0
2.241192491E0,3.074155092E0,-8.971074104E0,1.558625340E0
2.243205798E0,3.050212860E0,-8.980650902E0,1.556231141E0
2.245189491E0,3.047818661E0,-8.990227699E0,1.558625340E0
2.247204491E0,3.043030262E0,-8.990227699E0,1.553836942E0
2.249187952E0,3.021482468E0,-8.997409821E0,1.541865945E0
2.251201105E0,2.997540474E0,-9.004592896E0,1.544260144E0
2.253185105E0,2.975992680E0,-9.009381294E0,1.551442742E0
2.255200182E0,2.954444885E0,-9.023746490E0,1.534683347E0
2.257183567E0,2.944868088E0,-9.033323288E0,1.529894829E0
2.259196798E0,2.940079689E0,-9.033323288E0,1.522712231E0
2.261211028E0,2.911349297E0,-9.038111687E0,1.513135433E0
2.263194644E0,2.908955097E0,-9.035717010E0,1.517923832E0
2.265209489E0,2.894589901E0,-9.030928612E0,1.520318031E0
2.267193181E0,2.877830505E0,-9.071630478E0,1.534683347E0
2.269207335E0,2.875436306E0,-9.071630478E0,1.532289028E0
2.271190335E0,2.856282711E0,-9.071630478E0,1.505952835E0
2.273205489E0,2.853888512E0,-9.052476883E0,1.501164436E0
2.275188489E0,2.853888512E0,-9.054870605E0,1.503558636E0
2.277202720E0,2.846705914E0,-9.064447403E0,1.505952835E0
2.279186103E0,2.853888512E0,-9.057265282E0,1.467645645E0
2.281200565E0,2.856282711E0,-9.059659004E0,1.460463047E0
2.283184257E0,2.846705914E0,-9.054870605E0,1.455674648E0
2.285198642E0,2.849100113E0,-9.040505409E0,1.450886250E0
2.287182949E0,2.853888512E0,-9.047688484E0,1.446097851E0
2.289196488E0,2.868253708E0,-9.054870605E0,1.448492050E0
2.291210411E0,2.892195702E0,-9.057265282E0,1.462857246E0
2.293192564E0,2.920926094E0,-9.059659004E0,1.501164436E0
2.295207641E0,2.949656487E0,-9.054870605E0,1.527500629E0
2.297191256E0,2.966415882E0,-9.054870605E0,1.525106430E0
2.299205410E0,2.992752075E0,-9.050082207E0,1.498770237E0
2.301189718E0,3.014299870E0,-9.062053680E0,1.465251446E0
2.303203333E0,3.019088268E0,-9.069235802E0,1.448492050E0
2.305187564E0,3.035847664E0,-9.074024200E0,1.434126854E0
2.307202717E0,3.059789658E0,-9.057265282E0,1.422155857E0
2.309185101E0,3.081337690E0,-9.052476883E0,1.412579060E0
2.311199947E0,3.090914488E0,-9.059659004E0,1.398213744E0
2.313183024E0,3.100491285E0,-9.040505409E0,1.376665950E0
2.315196563E0,3.088520288E0,-9.045293808E0,1.369483352E0
2.317211024E0,3.086126089E0,-9.035717010E0,1.352723956E0
2.319195024E0,3.083731890E0,-9.042900085E0,1.335964561E0
2.321208793E0,3.069366693E0,-9.042900085E0,1.319205165E0
2.323192177E0,3.076549292E0,-9.052476883E0,1.300051570E0
2.325207023E0,3.066972494E0,-9.069235802E0,1.307234168E0
2.327190947E0,3.047818661E0,-9.083600998E0,1.314416766E0
2.329204485E0,3.026270866E0,-9.121908188E0,1.302445769E0
2.331188254E0,3.021482468E0,-9.126696587E0,1.288080573E0
2.333202331E0,3.007117271E0,-9.136273384E0,1.268926859E0
2.335186099E0,2.985569477E0,-9.160215378E0,1.259350061E0
2.337200561E0,2.973598480E0,-9.176975250E0,1.254561663E0
2.339183253E0,2.964021683E0,-9.239224434E0,1.249773264E0
2.341198022E0,2.956839085E0,-9.267954826E0,1.242590666E0
2.343212253E0,2.949656487E0,-9.291896820E0,1.233013868E0
2.345196484E0,2.918531895E0,-9.330204010E0,1.228225470E0
2.347210638E0,2.916137695E0,-9.370905876E0,1.235408068E0
2.349193406E0,2.913743496E0,-9.385271072E0,1.233013868E0
2.351207868E0,2.889801502E0,-9.423578262E0,1.223437071E0
2.353192791E0,2.882618904E0,-9.449913979E0,1.216254473E0
2.355205714E0,2.885013103E0,-9.476250648E0,1.233013868E0
2.357189483E0,2.875436306E0,-9.526528358E0,1.233013868E0
2.359203329E0,2.870647907E0,-9.543288231E0,1.233013868E0
2.361186406E0,2.858676910E0,-9.586383820E0,1.235408068E0
2.363200868E0,2.849100113E0,-9.612719536E0,1.228225470E0
2.365184790E0,2.858676910E0,-9.627084732E0,1.240196466E0
2.367200174E0,2.853888512E0,-9.655815125E0,1.235408068E0
2.369182713E0,2.856282711E0,-9.674968719E0,1.240196466E0
2.371196251E0,2.856282711E0,-9.689333916E0,1.242590666E0
2.373207021E0,2.851494312E0,-9.708487511E0,1.247379065E0
2.375193790E0,2.839523315E0,-9.708487511E0,1.261744261E0
2.377209174E0,2.846705914E0,-9.701305389E0,1.276109457E0
2.379192250E0,2.839523315E0,-9.698910713E0,1.285686255E0
2.381206712E0,2.844311714E0,-9.708487511E0,1.288080573E0
2.383190943E0,2.849100113E0,-9.698910713E0,1.292868972E0
2.385204250E0,2.851494312E0,-9.708487511E0,1.302445769E0
2.387189481E0,2.856282711E0,-9.701305389E0,1.321599364E0
2.389202327E0,2.880224705E0,-9.696516991E0,1.338358760E0
2.391185712E0,2.894589901E0,-9.694122314E0,1.343147159E0
2.393200480E0,2.904166698E0,-9.689333916E0,1.350329757E0
2.395183942E0,2.918531895E0,-9.660603523E0,1.367089152E0
2.397197172E0,2.923320293E0,-9.658209801E0,1.359906554E0
2.399211865E0,2.935291290E0,-9.643844604E0,1.362300754E0
2.401195634E0,2.966415882E0,-9.624691010E0,1.386242747E0
2.403210019E0,2.990357876E0,-9.591172218E0,1.400607944E0
2.405193172E0,2.995146275E0,-9.581595421E0,1.400607944E0
2.407208248E0,3.002328873E0,-9.552865028E0,1.391031146E0
2.409190941E0,3.028665066E0,-9.519346237E0,1.376665950E0
2.411205402E0,3.035847664E0,-9.500192642E0,1.376665950E0
2.413188171E0,3.066972494E0,-9.452308655E0,1.367089152E0
2.415203941E0,3.088520288E0,-9.418789864E0,1.359906554E0
2.417186633E0,3.083731890E0,-9.414001465E0,1.362300754E0
2.419200864E0,3.100491285E0,-9.390059471E0,1.391031146E0
2.421185171E0,3.110068083E0,-9.363722801E0,1.403002143E0
2.423199324E0,3.134010077E0,-9.323021889E0,1.412579060E0
2.425182709E0,3.134010077E0,-9.287108421E0,1.429338455E0
2.427197401E0,3.155557871E0,-9.267954826E0,1.438915253E0
2.429210940E0,3.201047659E0,-9.234436035E0,1.455674648E0
2.431193786E0,3.217807055E0,-9.196128845E0,1.450886250E0
2.433208555E0,3.227383852E0,-9.174580574E0,1.443703651E0
2.435192246E0,3.236960649E0,-9.160215378E0,1.414973259E0
2.437206016E0,3.251325846E0,-9.131484985E0,1.391031146E0
2.439190323E0,3.263296843E0,-9.117119789E0,1.388636947E0
2.441203862E0,3.265691042E0,-9.081207275E0,1.407790542E0
2.443187554E0,3.277662039E0,-9.040505409E0,1.422155857E0
2.445201477E0,3.280056238E0,-9.033323288E0,1.431732655E0
2.447185785E0,3.284844637E0,-9.011775017E0,1.436521053E0
2.449199630E0,3.272873640E0,-8.956708908E0,1.450886250E0
2.451183553E0,3.239354849E0,-8.942343712E0,1.450886250E0
2.453196553E0,3.236960649E0,-8.935160637E0,1.446097851E0
2.455211938E0,3.213018656E0,-8.932766914E0,1.446097851E0
2.457195553E0,3.181894064E0,-8.923190117E0,1.443703651E0
2.459209169E0,3.157952070E0,-8.913613319E0,1.441309452E0
2.461192861E0,3.141192675E0,-8.908824921E0,1.431732655E0
2.463206706E0,3.110068083E0,-8.920795441E0,1.441309452E0
2.465192168E0,3.074155092E0,-8.923190117E0,1.434126854E0
2.467206014E0,3.057395458E0,-8.932766914E0,1.429338455E0
2.469189398E0,3.031059265E0,-8.944737434E0,1.426944256E0
2.471202937E0,3.007117271E0,-8.963891029E0,1.434126854E0
2.473187245E0,2.992752075E0,-8.973467827E0,1.438915253E0
2.475200783E0,2.949656487E0,-8.973467827E0,1.462857246E0
2.477184474E0,2.918531895E0,-8.999804497E0,1.479616642E0
2.479198090E0,2.904166698E0,-8.997409821E0,1.484405041E0
2.481213090E0,2.885013103E0,-8.995016098E0,1.486799240E0
2.483196167E0,2.873042107E0,-9.002198219E0,1.482010841E0
2.485210013E0,2.856282711E0,-8.999804497E0,1.462857246E0
2.487194936E0,2.832340717E0,-8.997409821E0,1.467645645E0
2.489207551E0,2.822763920E0,-9.009381294E0,1.462857246E0
2.491191935E0,2.810792685E0,-9.014169693E0,1.450886250E0
2.493205166E0,2.817975283E0,-8.990227699E0,1.443703651E0
2.495190012E0,2.801215887E0,-8.983044624E0,1.429338455E0
2.497204243E0,2.765302896E0,-8.978256226E0,1.414973259E0
2.499187320E0,2.753331900E0,-8.985439301E0,1.405396342E0
2.501201704E0,2.748543501E0,-8.978256226E0,1.391031146E0
2.503185396E0,2.717418909E0,-8.999804497E0,1.374271750E0
2.505199319E0,2.698265314E0,-9.016563416E0,1.364694953E0
2.507184242E0,2.688688517E0,-9.026140213E0,1.364694953E0
2.509197088E0,2.674323320E0,-9.040505409E0,1.359906554E0
2.511211626E0,2.667140722E0,-9.054870605E0,1.371877551E0
2.513196165E0,2.674323320E0,-9.062053680E0,1.376665950E0
2.515209396E0,2.671929121E0,-9.074024200E0,1.379060149E0
2.517192857E0,2.659958124E0,-9.083600998E0,1.398213744E0
2.519207010E0,2.640804529E0,-9.121908188E0,1.417367458E0
2.521191241E0,2.655169725E0,-9.165003777E0,1.410184860E0
2.523204856E0,2.659958124E0,-9.176975250E0,1.405396342E0
2.525187933E0,2.667140722E0,-9.203310966E0,1.391031146E0
2.527203625E0,2.683900118E0,-9.217676163E0,1.395819545E0
2.529187318E0,2.686294317E0,-9.222464561E0,1.400607944E0
2.531200548E0,2.693476915E0,-9.241618156E0,1.403002143E0
2.533183317E0,2.715024710E0,-9.251194954E0,1.414973259E0
2.535197470E0,2.726995707E0,-9.253589630E0,1.419761658E0
2.537212240E0,2.734178305E0,-9.236829758E0,1.410184860E0
2.539196163E0,2.743755102E0,-9.241618156E0,1.398213744E0
2.541210394E0,2.738966703E0,-9.244012833E0,1.381454349E0
2.543194009E0,2.741360903E0,-9.244012833E0,1.364694953E0
2.545207932E0,2.772485495E0,-9.229647636E0,1.374271750E0
2.547192470E0,2.784456491E0,-9.227252960E0,1.379060149E0
2.549205470E0,2.806004286E0,-9.229647636E0,1.383848548E0
2.551190008E0,2.810792685E0,-9.224859238E0,1.388636947E0
2.553205085E0,2.808398485E0,-9.224859238E0,1.386242747E0
2.555187546E0,2.827552319E0,-9.217676163E0,1.386242747E0
2.557201393E0,2.834734917E0,-9.215282440E0,1.395819545E0
2.559184546E0,2.832340717E0,-9.215282440E0,1.383848548E0
2.561198392E0,2.868253708E0,-9.232041359E0,1.388636947E0
2.563182315E0,2.882618904E0,-9.244012833E0,1.393425345E0
2.565197776E0,2.877830505E0,-9.251194954E0,1.383848548E0
2.567211622E0,2.889801502E0,-9.277531624E0,1.388636947E0
2.569194930E0,2.894589901E0,-9.279925346E0,1.391031146E0
2.571208545E0,2.894589901E0,-9.282320023E0,1.379060149E0
2.573192545E0,2.892195702E0,-9.287108421E0,1.362300754E0
2.575207621E0,2.894589901E0,-9.296685219E0,1.359906554E0
2.577190621E0,2.892195702E0,-9.291896820E0,1.369483352E0
2.579203545E0,2.892195702E0,-9.289502144E0,1.369483352E0
2.581188545E0,2.882618904E0,-9.284713745E0,1.374271750E0
2.583201775E0,2.877830505E0,-9.270348549E0,1.381454349E0
2.585186083E0,2.877830505E0,-9.270348549E0,1.381454349E0
2.587109921E0,2.868253708E0,-9.279925346E0,1.379060149E0
2.589094147E0,2.865859509E0,-9.299078941E0,1.376665950E0
2.591108372E0,2.870647907E0,-9.294290543E0,1.379060149E0
2.593092289E0,2.873042107E0,-9.279925346E0,1.381454349E0
2.595105822E0,2.875436306E0,-9.272743225E0,1.376665950E0
2.597119970E0,2.865859509E0,-9.267954826E0,1.376665950E0
2.599104350E0,2.870647907E0,-9.270348549E0,1.379060149E0
2.601117498E0,2.880224705E0,-9.279925346E0,1.388636947E0
2.603101261E0,2.889801502E0,-9.287108421E0,1.386242747E0
2.605115410E0,2.892195702E0,-9.291896820E0,1.393425345E0
2.607100250E0,2.889801502E0,-9.315838814E0,1.391031146E0
2.609112937E0,2.889801502E0,-9.313444138E0,1.393425345E0
2.611096547E0,2.882618904E0,-9.284713745E0,1.407790542E0
2.613109771E0,2.896984100E0,-9.294290543E0,1.429338455E0
2.615095382E0,2.894589901E0,-9.303867340E0,1.426944256E0
2.617109530E0,2.889801502E0,-9.306262016E0,1.443703651E0
2.619092525E0,2.894589901E0,-9.299078941E0,1.455674648E0
2.621106134E0,2.906560898E0,-9.279925346E0,1.482010841E0
2.623120589E0,2.901772499E0,-9.308655739E0,1.496376038E0
2.625104815E0,2.899378300E0,-9.311050415E0,1.486799240E0
2.627118963E0,2.916137695E0,-9.299078941E0,1.470039845E0
2.629102343E0,2.911349297E0,-9.294290543E0,1.455674648E0
2.631116183E0,2.913743496E0,-9.301473618E0,1.446097851E0
2.633100793E0,2.925714493E0,-9.287108421E0,1.434126854E0
2.635114018E0,2.923320293E0,-9.277531624E0,1.458068848E0
2.637097704E0,2.932897091E0,-9.284713745E0,1.467645645E0
2.639111930E0,2.920926094E0,-9.291896820E0,1.484405041E0
2.641095847E0,2.913743496E0,-9.301473618E0,1.489193439E0
2.643109765E0,2.916137695E0,-9.294290543E0,1.496376038E0
2.645093375E0,2.899378300E0,-9.315838814E0,1.534683347E0
2.647108446E0,2.882618904E0,-9.323021889E0,1.541865945E0
2.649121671E0,2.877830505E0,-9.337387085E0,1.568202138E0
2.651105435E0,2.873042107E0,-9.373299599E0,1.599326730E0
2.653119199E0,2.885013103E0,-9.394847870E0,1.616086125E0
2.655103270E0,2.882618904E0,-9.437943459E0,1.647210717E0
2.657117648E0,2.913743496E0,-9.466673851E0,1.687912226E0
2.659100413E0,2.930502892E0,-9.478644371E0,1.711854219E0
2.661115253E0,2.968810081E0,-9.504981041E0,1.776497602E0
2.663098248E0,3.011905670E0,-9.524134636E0,1.848323703E0
2.665113011E0,3.038241863E0,-9.540893555E0,1.881842494E0
2.667097391E0,3.095702887E0,-9.564835548E0,1.934514999E0
2.669110000E0,3.143586874E0,-9.579200745E0,2.020706177E0
2.671094302E0,3.181894064E0,-9.588777542E0,2.075772762E0
2.673108758E0,3.239354849E0,-9.579200745E0,2.197877169E0
2.675092752E0,3.311181068E0,-9.588777542E0,2.355894566E0
2.677106593E0,3.342305660E0,-9.610325813E0,2.432508945E0
2.679120664E0,3.383007050E0,-9.624691010E0,2.580949545E0
2.681104120E0,3.402160645E0,-9.615114212E0,2.667140722E0
2.683117884E0,3.421314240E0,-9.605537415E0,2.839523315E0
2.685101263E0,3.438073635E0,-9.603142738E0,3.035847664E0
2.687116719E0,3.428496838E0,-9.607931137E0,3.136404276E0
2.689099098E0,3.402160645E0,-9.607931137E0,3.339911461E0
2.691113630E0,3.363853455E0,-9.603142738E0,3.574543238E0
2.693096702E0,3.339911461E0,-9.595960617E0,3.691859007E0
2.695110542E0,3.284844637E0,-9.595960617E0,3.931279182E0
2.697094845E0,3.251325846E0,-9.598354340E0,4.192247391E0
2.699108916E0,3.239354849E0,-9.605537415E0,4.316745758E0
2.701093602E0,3.193865061E0,-9.617507935E0,4.582501888E0
2.703107367E0,3.138798475E0,-9.651026726E0,4.833893299E0
2.705122207E0,3.131615877E0,-9.658209801E0,4.963180065E0
2.707105510E0,3.098097086E0,-9.691728592E0,5.243301868E0
2.709119965E0,3.055001259E0,-9.730035782E0,5.497087002E0
2.711102498E0,3.052607059E0,-9.744400978E0,5.602431774E0
2.713117800E0,3.043030262E0,-9.756371498E0,5.808333397E0
2.715101256E0,3.033453465E0,-9.761159897E0,5.892130375E0
2.717114712E0,2.997540474E0,-9.744400978E0,6.042964935E0
2.719097860E0,2.971204281E0,-9.713275909E0,6.193799973E0
2.721113239E0,2.956839085E0,-9.674968719E0,6.256049156E0
2.723096003E0,2.892195702E0,-9.603142738E0,6.387730122E0
2.725110074E0,2.820369720E0,-9.533711433E0,6.517016888E0
2.727094992E0,2.782062292E0,-9.485827446E0,6.591237068E0
2.729107909E0,2.683900118E0,-9.394847870E0,6.742072105E0
2.731122057E0,2.571372509E0,-9.330204010E0,6.928819656E0
2.733105437E0,2.497152328E0,-9.306262016E0,7.031770229E0
2.735120584E0,2.355894566E0,-9.296685219E0,7.287950039E0
2.737103887E0,2.255337954E0,-9.327810287E0,7.575253963E0
2.739117420E0,2.197877169E0,-9.363722801E0,7.711723804E0
2.741102107E0,2.099714994E0,-9.471462250E0,7.939172745E0
2.743114947E0,2.059013367E0,-9.636661530E0,8.145073891E0
2.745099556E0,1.975216389E0,-9.753977776E0,8.255207062E0
2.747114705E0,1.924938202E0,-9.988609314E0,8.453926086E0
2.749097161E0,1.908178806E0,-1.012268448E1,8.544905663E0
2.751111540E0,1.879448295E0,-1.040759468E1,8.688557625E0
2.753095919E0,1.857900500E0,-1.069968700E1,8.841787338E0
2.755108528E0,1.855506301E0,-1.085291672E1,8.918401718E0
2.757092523E0,1.831564307E0,-1.114022064E1,9.145850182E0
2.759106671E0,1.841141105E0,-1.143949604E1,9.363722801E0
2.761120743E0,1.838746905E0,-1.158554173E1,9.481039047E0
2.763104814E0,1.826775908E0,-1.181059742E1,9.703699112E0
2.765118270E0,1.805228114E0,-1.201171017E1,9.904812813E0
2.767103803E0,1.807622313E0,-1.208592987E1,9.995792389E0
2.769117105E0,1.819593310E0,-1.221282291E1,1.014423275E1
2.771100177E0,1.838746905E0,-1.230380249E1,1.029267311E1
2.773112171E0,1.860294700E0,-1.234450436E1,1.037886429E1
2.775097397E0,1.915361404E0,-1.239238834E1,1.054406452E1
2.777112083E0,1.972822189E0,-1.243069553E1,1.075235939E1
2.779095538E0,2.106897593E0,-1.244745445E1,1.084812832E1
2.781110226E0,2.310404539E0,-1.247379112E1,1.102529907E1
2.783093681E0,2.422932148E0,-1.248815632E1,1.108754826E1
2.785107830E0,2.640804529E0,-1.248336792E1,1.121204662E1
2.787091440E0,2.873042107E0,-1.250491524E1,1.128866100E1
2.789105049E0,2.992752075E0,-1.251688671E1,1.131020927E1
2.791119505E0,3.224989653E0,-1.252167511E1,1.134851646E1
2.793103807E0,3.414131641E0,-1.252167511E1,1.136288166E1
2.795116956E0,3.493140221E0,-1.250970364E1,1.139161205E1
2.797101335E0,3.643975019E0,-1.250730991E1,1.147301483E1
2.799114790E0,3.737348795E0,-1.251928043E1,1.155202293E1
2.801098785E0,3.782838583E0,-1.252646351E1,1.159033012E1
2.803113010E0,3.854664803E0,-1.255040550E1,1.167173290E1
2.805096390E0,3.885789394E0,-1.257195282E1,1.176989555E1
2.807111691E0,3.892971992E0,-1.261265469E1,1.183214474E1
2.809094762E0,3.885789394E0,-1.267729759E1,1.196621990E1
2.811108373E0,3.873818398E0,-1.272278786E1,1.200931549E1
2.813091136E0,3.823540211E0,-1.274433517E1,1.206917095E1
2.815106515E0,3.782838583E0,-1.279461384E1,1.209550667E1
2.817120586E0,3.754108191E0,-1.281855583E1,1.209550667E1
2.819103965E0,3.708618402E0,-1.282334423E1,1.208114147E1
2.821118498E0,3.691859007E0,-1.285925770E1,1.204762268E1
2.823101877E0,3.684676409E0,-1.287601662E1,1.202368069E1
2.825116872E0,3.672705412E0,-1.288080502E1,1.198058510E1
2.827100635E0,3.687070608E0,-1.289277649E1,1.191115379E1
2.829114168E0,3.691859007E0,-1.290714169E1,1.188242340E1
2.831097547E0,3.734954596E0,-1.296699619E1,1.180580902E1
2.833112003E0,3.811569214E0,-1.303642845E1,1.169567490E1
2.835095075E0,3.866635799E0,-1.308431244E1,1.161666679E1
2.837109223E0,3.998316765E0,-1.321838760E1,1.143710136E1
2.839092833E0,4.151545525E0,-1.333809757E1,1.125035381E1
2.841107673E0,4.230554581E0,-1.340752983E1,1.113782597E1
2.843090437E0,4.402936935E0,-1.350808620E1,1.089122391E1
2.845104816E0,4.481945515E0,-1.357272911E1,1.076433086E1
2.847119041E0,4.620809078E0,-1.369004536E1,1.049378586E1
2.849102728E0,4.718971729E0,-1.375708294E1,1.021127033E1
2.851117107E0,4.759673119E0,-1.378102493E1,1.008198357E1
2.853099947E0,4.788403511E0,-1.380975533E1,9.828198433E0
2.855114404E0,4.809951305E0,-1.380017853E1,9.574412346E0
2.857097705E0,4.797980309E0,-1.376426601E1,9.437943459E0
2.859112546E0,4.781220913E0,-1.369004536E1,9.129091263E0
2.861096233E0,4.762067318E0,-1.358948898E1,8.798690796E0
2.863109996E0,4.754884720E0,-1.353442192E1,8.638279915E0
2.865093991E0,4.726154327E0,-1.345301914E1,8.324639320E0
2.867109139E0,4.704606533E0,-1.333330917E1,8.097189903E0
2.869091903E0,4.707000732E0,-1.327824306E1,8.006210327E0
2.871105974E0,4.697423935E0,-1.319683933E1,7.852981567E0
2.873121430E0,4.680664539E0,-1.312261963E1,7.738059998E0
2.875103271E0,4.680664539E0,-1.309388924E1,7.671022415E0
2.877117649E0,4.692635536E0,-1.304121685E1,7.544129372E0
2.879101337E0,4.687847137E0,-1.302685165E1,7.493851185E0
2.881115869E0,4.671087742E0,-1.298136139E1,7.422025204E0
2.883099249E0,4.671087742E0,-1.298614979E1,7.326257229E0
2.885113089E0,4.690241337E0,-1.298614979E1,7.285555840E0
2.887098314E0,4.726154327E0,-1.300051498E1,7.268796444E0
2.889111155E0,4.762067318E0,-1.304600525E1,7.259219646E0
2.891095533E0,4.776432514E0,-1.307473564E1,7.254431248E0
2.893108375E0,4.848258495E0,-1.312261963E1,7.297526836E0
2.895093369E0,4.920084476E0,-1.318726254E1,7.350199223E0
2.897107439E0,4.953603268E0,-1.321120453E1,7.369352818E0
2.899089358E0,5.023035049E0,-1.326627159E1,7.410054207E0
2.901104967E0,5.056553841E0,-1.329021358E1,7.453149796E0
2.903118808E0,5.056553841E0,-1.328781986E1,7.474697590E0
2.905102879E0,5.046977043E0,-1.328542519E1,7.539340973E0
2.907117565E0,5.037400246E0,-1.328303146E1,7.615955830E0
2.909100099E0,4.977545261E0,-1.327584839E1,7.642292023E0
2.911114477E0,4.905719280E0,-1.322556973E1,7.706935406E0
2.913098165E0,4.876988888E0,-1.320162773E1,7.728483200E0
2.915112082E0,4.805162907E0,-1.314177322E1,7.735665798E0
2.917096076E0,4.699818134E0,-1.309867764E1,7.704541206E0
2.919109532E0,4.637568474E0,-1.306755257E1,7.675810814E0
2.921093296E0,4.556165695E0,-1.302445698E1,7.642292023E0
2.923107752E0,4.534617901E0,-1.299333286E1,7.630321026E0
2.925091131E0,4.520252705E0,-1.298614979E1,7.630321026E0
2.927106202E0,4.498704910E0,-1.297657299E1,7.587224960E0
2.929119658E0,4.484339714E0,-1.298375607E1,7.539340973E0
2.931103960E0,4.484339714E0,-1.298375607E1,7.505822182E0
2.933113878E0,4.515464306E0,-1.297896767E1,7.443572998E0
2.935099949E0,4.556165695E0,-1.299572659E1,7.410054207E0
2.937115406E0,4.572925091E0,-1.300530338E1,7.402871609E0
2.939099400E0,4.616020679E0,-1.302445698E1,7.345410824E0
2.941112547E0,4.623203278E0,-1.304600525E1,7.307103634E0
2.943096850E0,4.663905144E0,-1.304361057E1,7.223306656E0
2.945111075E0,4.695029736E0,-1.305558205E1,7.146692276E0
2.947095916E0,4.709394932E0,-1.302924538E1,7.115567684E0
2.949109218E0,4.718971729E0,-1.299333286E1,7.038952827E0
2.951092289E0,4.728548527E0,-1.292868900E1,6.983886242E0
2.953107053E0,4.726154327E0,-1.288319969E1,6.981492043E0
2.955120508E0,4.714183331E0,-1.278743172E1,6.998251438E0
2.957104580E0,4.697423935E0,-1.268208599E1,7.029376030E0
2.959117805E0,4.692635536E0,-1.263180828E1,7.046135426E0
2.961101491E0,4.699818134E0,-1.253604031E1,7.072471619E0
2.963116256E0,4.680664539E0,-1.244266605E1,7.058106422E0
2.965099634E0,4.678270340E0,-1.239478207E1,7.041347027E0
2.967115552E0,4.697423935E0,-1.233971596E1,7.005434036E0
2.969097777E0,4.735731125E0,-1.230619717E1,6.971915245E0
2.971112233E0,4.764461517E0,-1.229422569E1,6.969521046E0
2.973094382E0,4.841075897E0,-1.229183197E1,6.964732647E0
2.975110683E0,4.884171486E0,-1.231098557E1,6.955155849E0
2.977094063E0,4.934449673E0,-1.231098557E1,6.909666061E0
2.979106903E0,5.001487255E0,-1.229901409E1,6.856993675E0
2.981121743E0,5.023035049E0,-1.227986050E1,6.837840080E0
2.983105046E0,5.066130638E0,-1.222479343E1,6.821080685E0
2.985119271E0,5.082890034E0,-1.216493893E1,6.845022678E0
2.987104112E0,5.094861031E0,-1.213620853E1,6.876147270E0
2.989117413E0,5.118803024E0,-1.205719948E1,6.919242859E0
2.991100178E0,5.125985622E0,-1.198297977E1,6.938396454E0
2.993115249E0,5.133168221E0,-1.194946098E1,6.943184853E0
2.995098858E0,5.147533417E0,-1.187763500E1,6.974309444E0
2.997112468E0,5.152322292E0,-1.180580902E1,6.983886242E0
2.999095770E0,5.157110691E0,-1.176271248E1,6.991068840E0
3.001110534E0,5.149928093E0,-1.169328117E1,7.024587631E0
3.003093682E0,5.152322292E0,-1.161187840E1,7.070077419E0
3.005107830E0,5.147533417E0,-1.156878281E1,7.082048416E0
3.007092748E0,5.130774021E0,-1.150653362E1,7.098807812E0
3.009106204E0,5.128379822E0,-1.147062016E1,7.105990410E0
3.011119737E0,5.118803024E0,-1.135330486E1,7.137115479E0
3.013102885E0,5.109226227E0,-1.127908421E1,7.163451672E0
3.015117033E0,5.118803024E0,-1.125035381E1,7.173028469E0
3.017101336E0,5.128379822E0,-1.117852783E1,7.180211067E0
3.019115483E0,5.152322292E0,-1.111388397E1,7.168240070E0
3.021099478E0,5.169081688E0,-1.107318306E1,7.173028469E0
3.023113319E0,5.188235283E0,-1.101332760E1,7.182605267E0
3.025096929E0,5.209783077E0,-1.093192482E1,7.199364662E0
3.027112077E0,5.224148273E0,-1.091755962E1,7.216124058E0
3.029095379E0,5.274426460E0,-1.085531044E1,7.280767441E0
3.031108681E0,5.300762653E0,-1.080742645E1,7.364564419E0
3.033093829E0,5.322310448E0,-1.077630138E1,7.414842606E0
3.035107439E0,5.353435040E0,-1.072841740E1,7.532158375E0
3.037090203E0,5.370194435E0,-1.068292809E1,7.594407558E0
3.039104581E0,5.382165432E0,-1.067095661E1,7.632715225E0
3.041118730E0,5.374982834E0,-1.063983250E1,7.673416615E0
3.043102493E0,5.367800236E0,-1.062546730E1,7.673416615E0
3.045116565E0,5.343858242E0,-1.060391903E1,7.685387611E0
3.047100636E0,5.293580055E0,-1.057279491E1,7.682993412E0
3.049114476E0,5.257667065E0,-1.054885292E1,7.690176010E0
3.051097548E0,5.185841084E0,-1.052491093E1,7.714118004E0
3.053111312E0,5.078101635E0,-1.047463226E1,7.687781811E0
3.055096614E0,5.027823448E0,-1.043871975E1,7.680599213E0
3.057110070E0,4.922478676E0,-1.038125896E1,7.644686222E0
3.059093833E0,4.814739704E0,-1.033098030E1,7.582436562E0
3.061107905E0,4.757278919E0,-1.029267311E1,7.565677166E0
3.063090976E0,4.637568474E0,-1.022563553E1,7.524975777E0
3.065105432E0,4.525041103E0,-1.016578007E1,7.474697590E0
3.067120580E0,4.467580318E0,-1.012747288E1,7.431602001E0
3.069103267E0,4.359841347E0,-1.007001209E1,7.371747017E0
3.071117415E0,4.304774761E0,-9.995792389E0,7.335834026E0
3.073101179E0,4.187458992E0,-9.947908401E0,7.343016624E0
3.075115251E0,4.072536945E0,-9.847352028E0,7.366958618E0
3.077098398E0,4.012681961E0,-9.809044838E0,7.374141216E0
3.079113162E0,3.902548790E0,-9.739612579E0,7.438784599E0
3.081096541E0,3.773261786E0,-9.655815125E0,7.517793179E0
3.083110920E0,3.701435804E0,-9.605537415E0,7.563282967E0
3.085094684E0,3.581725836E0,-9.473855972E0,7.661445618E0
3.087109755E0,3.454833031E0,-9.346963882E0,7.773972988E0
3.089093058E0,3.399766445E0,-9.282320023E0,7.845798969E0
3.091106590E0,3.292027235E0,-9.174580574E0,7.967903137E0
3.093117046E0,3.177105665E0,-9.066842079E0,8.090007782E0
3.095103810E0,3.129221678E0,-9.021351814E0,8.152256966E0
3.097118573E0,3.035847664E0,-8.908824921E0,8.288725853E0
3.099102261E0,2.952050686E0,-8.796297073E0,8.473079681E0
3.101116485E0,2.906560898E0,-8.736441612E0,8.549694061E0
3.103100095E0,2.841917515E0,-8.664615631E0,8.690952301E0
3.105114244E0,2.822763920E0,-8.602366447E0,8.757989883E0
3.107098622E0,2.779668093E0,-8.576030731E0,8.868123055E0
3.109112386E0,2.758120298E0,-8.513781548E0,8.966285706E0
3.111095150E0,2.748543501E0,-8.482656479E0,9.009381294E0
3.113110221E0,2.760514498E0,-8.444349289E0,9.100360870E0
3.115092985E0,2.774879694E0,-8.420407295E0,9.198522568E0
3.117107517E0,2.782062292E0,-8.429984093E0,9.251194954E0
3.119091205E0,2.825158119E0,-8.444349289E0,9.320627213E0
3.121104660E0,2.873042107E0,-8.453926086E0,9.363722801E0
3.123119731E0,2.889801502E0,-8.461109161E0,9.368511200E0
3.125103188E0,2.911349297E0,-8.506598473E0,9.366117477E0
3.127117951E0,2.949656487E0,-8.542511940E0,9.399636269E0
3.129100715E0,2.968810081E0,-8.554482460E0,9.430760384E0
3.131115094E0,3.019088268E0,-8.573636055E0,9.485827446E0
3.133098243E0,3.055001259E0,-8.590395927E0,9.481039047E0
3.135113314E0,3.069366693E0,-8.588001251E0,9.447520256E0
3.137097615E0,3.100491285E0,-8.542511940E0,9.342175484E0
3.139109841E0,3.119644880E0,-8.523358345E0,9.277531624E0
3.141094527E0,3.110068083E0,-8.470685959E0,9.155426979E0
3.143108368E0,3.102885485E0,-8.389283180E0,9.038111687E0
3.145091439E0,3.112462282E0,-8.327033043E0,8.985439301E0
3.147106741E0,3.119644880E0,-8.214506149E0,8.868123055E0
3.149120044E0,3.105279684E0,-8.058882713E0,8.736441612E0
3.151104345E0,3.095702887E0,-7.982268333E0,8.657433510E0
3.153118187E0,3.052607059E0,-7.821856976E0,8.497021675E0
3.155102181E0,3.021482468E0,-7.663839817E0,8.317456245E0
3.157116021E0,2.999934673E0,-7.577648163E0,8.224082947E0
3.159099400E0,2.964021683E0,-7.386112213E0,8.030152321E0
3.161113241E0,2.908955097E0,-7.163451672E0,7.850587368E0
3.163097774E0,2.875436306E0,-7.050923824E0,7.759607792E0
3.165111691E0,2.774879694E0,-6.835445881E0,7.606379032E0
3.167095608E0,2.724601507E0,-6.593631268E0,7.467514992E0
3.169109449E0,2.600103140E0,-6.473921299E0,7.402871609E0
3.171092520E0,2.497152328E0,-6.244078159E0,7.278373241E0
3.173106669E0,2.442085743E0,-6.131550789E0,7.220912457E0
3.175090125E0,2.324769735E0,-5.932831764E0,7.105990410E0
3.177105426E0,2.197877169E0,-5.734113216E0,6.979097843E0
3.179119344E0,2.135627985E0,-5.640739441E0,6.926425457E0
3.181102108E0,1.994369984E0,-5.456385612E0,6.799532890E0
3.183116872E0,1.879448295E0,-5.310339451E0,6.687005520E0
3.185100481E0,1.821987510E0,-5.228936672E0,6.619967937E0
3.187115014E0,1.695094824E0,-5.066130638E0,6.483498096E0
3.189098624E0,1.587355733E0,-4.936843872E0,6.382941723E0
3.191112234E0,1.527500629E0,-4.879383087E0,6.327875137E0
3.193097382E0,1.426944256E0,-4.769249916E0,6.234501362E0
3.195109992E0,1.328781962E0,-4.661510944E0,6.167463779E0
3.197093987E0,1.278503656E0,-4.620809078E0,6.129156113E0
3.199108212E0,1.197100878E0,-4.513070107E0,6.030993938E0
3.201091821E0,1.163581967E0,-4.410119534E0,5.978321552E0
3.203105662E0,1.077390790E0,-4.355052948E0,5.899312973E0
3.205119579E0,1.000776291E0,-4.254496574E0,5.815515995E0
3.207104497E0,9.696516991E-1,-4.192247391E0,5.770026207E0
3.209117953E0,9.169792533E-1,-4.082113743E0,5.643133640E0
3.211100485E0,8.738836050E-1,-3.995922565E0,5.528211594E0
3.213114557E0,8.499416113E-1,-3.943250179E0,5.480327606E0
3.215099474E0,7.876923680E-1,-3.821146011E0,5.379771233E0
3.217114546E0,7.302315235E-1,-3.703830004E0,5.221754074E0
3.219096156E0,7.206547260E-1,-3.636792421E0,5.142745018E0
3.221110842E0,7.038952708E-1,-3.481169224E0,4.939238071E0
3.223095145E0,7.086837292E-1,-3.320757866E0,4.735731125E0
3.225109062E0,7.254431248E-1,-3.236960649E0,4.644751072E0
3.227093288E0,7.422025204E-1,-3.090914488E0,4.498704910E0
3.229107128E0,7.685387731E-1,-2.952050686E0,4.283226967E0
3.231089969E0,7.829039693E-1,-2.882618904E0,4.153939724E0
3.233105271E0,8.619126081E-1,-2.722207308E0,3.876212597E0
3.235118803E0,8.906430602E-1,-2.566584110E0,3.584120035E0
3.237101952E0,9.672574997E-1,-2.489969730E0,3.438073635E0
3.239116638E0,1.051054597E0,-2.358288765E0,3.201047659E0
3.241099787E0,1.098938584E0,-2.291250944E0,3.098097086E0
3.243113858E0,1.209071875E0,-2.152387381E0,2.918531895E0
3.245098160E0,1.319205165E0,-2.015917778E0,2.698265314E0
3.247112924E0,1.379060149E0,-1.951274395E0,2.573766708E0
3.249095456E0,1.496376038E0,-1.831564307E0,2.288856745E0
3.251109605E0,1.613691926E0,-1.692700624E0,2.018311977E0
3.253092599E0,1.678335428E0,-1.618480325E0,1.900996208E0
3.255106516E0,1.800439715E0,-1.465251446E0,1.675941229E0
3.257091127E0,1.896207690E0,-1.323993564E0,1.520318031E0
3.259105275E0,1.944091797E0,-1.256955862E0,1.458068848E0
3.261119654E0,2.032677174E0,-1.130063176E0,1.350329757E0
3.263103417E0,2.094926596E0,-9.600749016E-1,1.223437071E0
3.265116565E0,2.116474390E0,-8.643068075E-1,1.151610970E0
3.267102406E0,2.145204782E0,-7.015010715E-1,1.003170490E0
3.269115093E0,2.171540976E0,-5.027823448E-1,9.337386489E-1
3.271098088E0,2.217030764E0,-4.333505034E-1,7.972691655E-1
3.273113774E0,2.240972757E0,-2.801215947E-1,6.703764796E-1
3.275096845E0,2.255337954E0,-1.867477298E-1,6.033388376E-1
3.277110763E0,2.269703150E0,-1.675941236E-2,4.548983276E-1
3.279093834E0,2.264914751E0,1.628057212E-1,3.208230138E-1
3.281108290E0,2.267308950E0,2.394201756E-1,2.609679997E-1
3.283092284E0,2.264914751E0,3.998316824E-1,1.604115069E-1
3.285106355E0,2.267308950E0,5.530605912E-1,1.173158810E-1
3.287121735E0,2.272097349E0,6.153098345E-1,9.097966552E-2
3.289103652E0,2.238578558E0,7.422025204E-1,0.000000000E0
3.291118647E0,2.195482969E0,8.834604025E-1,-1.556231081E-1
3.293101487E0,2.166752577E0,9.576807022E-1,-2.274491638E-1
3.295115635E0,2.130839586E0,1.072602391E0,-3.375824392E-1
3.297099861E0,2.087743998E0,1.187524080E0,-4.596867263E-1
3.299113086E0,2.059013367E0,1.254561663E0,-5.123591423E-1
3.301097388E0,2.015917778E0,1.374271750E0,-6.344634295E-1
3.303111536E0,1.984793186E0,1.424550056E0,-6.751648784E-1
3.305094993E0,1.951274395E0,1.553836942E0,-7.637503147E-1
3.307110679E0,1.944091797E0,1.656787634E0,-8.906430602E-1
3.309093135E0,1.941697598E0,1.714248419E0,-9.768342972E-1
3.311107283E0,1.960851192E0,1.824381709E0,-1.127668977E0
3.313091508E0,1.996764183E0,1.924938202E0,-1.235408068E0
3.315104734E0,2.032677174E0,1.965639591E0,-1.280897856E0
3.317119190E0,2.147598982E0,2.056619167E0,-1.381454349E0
3.319102645E0,2.281674147E0,2.152387381E0,-1.482010841E0
3.321116717E0,2.346317768E0,2.200271368E0,-1.527500629E0
3.323100173E0,2.497152328E0,2.255337954E0,-1.596932530E0
3.325114552E0,2.655169725E0,2.346317768E0,-1.628057122E0
3.327098623E0,2.726995707E0,2.377442360E0,-1.632845521E0
3.329112386E0,2.885013103E0,2.420537949E0,-1.635239720E0
3.331096689E0,2.947262287E0,2.446874142E0,-1.618480325E0
3.333109606E0,3.059789658E0,2.466027737E0,-1.601720929E0
3.335093909E0,3.143586874E0,2.499546528E0,-1.549048543E0
3.337108672E0,3.155557871E0,2.511517525E0,-1.529894829E0
3.339091744E0,3.157952070E0,2.537853718E0,-1.498770237E0
3.341105584E0,3.105279684E0,2.588132143E0,-1.474828243E0
3.343119809E0,3.069366693E0,2.626439333E0,-1.472434044E0
3.345104112E0,2.973598480E0,2.671929121E0,-1.450886250E0
3.347118490E0,2.846705914E0,2.726995707E0,-1.379060149E0
3.349101562E0,2.772485495E0,2.760514498E0,-1.328781962E0
3.351116095E0,2.612074137E0,2.837129116E0,-1.221042871E0
3.353099473E0,2.439691544E0,2.923320293E0,-1.132457376E0
3.355113930E0,2.341529369E0,2.968810081E0,-1.086967587E0
3.357097001E0,2.147598982E0,3.038241863E0,-9.840168953E-1
3.359110765E0,1.922544003E0,3.110068083E0,-8.858546019E-1
3.361094836E0,1.817199111E0,3.155557871E0,-8.116343617E-1
3.363108907E0,1.625662923E0,3.248931646E0,-6.584054828E-1
3.365092056E0,1.541865945E0,3.335123062E0,-5.770025849E-1
3.367107973E0,1.367089152E0,3.368641853E0,-4.429273009E-1
3.369090429E0,1.177947283E0,3.433285236E0,-3.160346150E-1
3.371104654E0,1.094150186E0,3.457227230E0,-2.537853718E-1
3.373118110E0,9.241618514E-1,3.488351822E0,-1.221042871E-1
3.375103028E0,7.757213712E-1,3.538630009E0,-2.633621916E-2
3.377116637E0,7.134721279E-1,3.555389643E0,2.154781483E-2
3.379099709E0,5.650315881E-1,3.596091032E0,9.816227108E-2
3.381114703E0,4.285621047E-1,3.615244627E0,1.819593310E-1
3.383098389E0,3.567360640E-1,3.622427225E0,2.250549644E-1
3.385111923E0,2.370259613E-1,3.639186621E0,3.160346150E-1
3.387096840E0,1.005564705E-1,3.643975019E0,4.094084799E-1
3.389110066E0,3.830722719E-2,3.653551817E0,4.572925270E-1
3.391093444E0,-8.379705995E-2,3.655946016E0,5.626373887E-1
3.393108592E0,-2.011129409E-1,3.679888010E0,6.775590777E-1
3.395090972E0,-2.681505978E-1,3.672705412E0,7.445967197E-1
3.397105197E0,-3.998316824E-1,3.655946016E0,8.499416113E-1
3.399120192E0,-4.740519226E-1,3.672705412E0,9.744400978E-1
3.401103032E0,-6.081272364E-1,3.677493811E0,1.046266198E0
3.403117181E0,-7.350199223E-1,3.699041605E0,1.185129881E0
3.405100867E0,-7.924807668E-1,3.718195200E0,1.256955862E0
3.407115553E0,-8.882488012E-1,3.761290789E0,1.419761658E0
3.409099010E0,-9.911994934E-1,3.806780815E0,1.584961534E0
3.411113158E0,-1.043871999E0,3.842693806E0,1.663970232E0
3.413096153E0,-1.142034173E0,3.871424198E0,1.819593310E0
3.415110377E0,-1.225831270E0,3.897760391E0,1.963245392E0
3.417094294E0,-1.268926859E0,3.919308186E0,2.042253971E0
3.419108751E0,-1.359906554E0,3.983951569E0,2.188300371E0
3.421092437E0,-1.419761658E0,4.048594952E0,2.319981337E0
3.423106278E0,-1.438915253E0,4.079719543E0,2.372653961E0
3.425090580E0,-1.489193439E0,4.113238335E0,2.489969730E0
3.427105343E0,-1.539471745E0,4.158728123E0,2.590526342E0
3.429118877E0,-1.553836942E0,4.187458992E0,2.643198729E0
3.431101948E0,-1.565807939E0,4.242525578E0,2.760514498E0
3.433116097E0,-1.568202138E0,4.261679173E0,2.825158119E0
3.435099475E0,-1.587355733E0,4.278438568E0,2.954444885E0
3.437113931E0,-1.587355733E0,4.304774761E0,3.093308687E0
3.439097695E0,-1.580173135E0,4.302380562E0,3.155557871E0
3.441111535E0,-1.553836942E0,4.304774761E0,3.280056238E0
3.443095222E0,-1.534683347E0,4.307168961E0,3.387795448E0
3.445108370E0,-1.539471745E0,4.304774761E0,3.454833031E0
3.447093596E0,-1.541865945E0,4.271255970E0,3.579331636E0
3.449107206E0,-1.534683347E0,4.235342979E0,3.684676409E0
3.451090507E0,-1.532289028E0,4.213795185E0,3.732560396E0
3.453105271E0,-1.520318031E0,4.151545525E0,3.847482204E0
3.455119419E0,-1.522712231E0,4.074931145E0,3.943250179E0
3.457102799E0,-1.525106430E0,4.022258759E0,3.993528366E0
3.459116101E0,-1.510741234E0,3.914519787E0,4.084507942E0
3.461100325E0,-1.508347034E0,3.828328609E0,4.153939724E0
3.463114474E0,-1.517923832E0,3.775655985E0,4.194641590E0
3.465098237E0,-1.532289028E0,3.687070608E0,4.271255970E0
3.467113309E0,-1.527500629E0,3.636792421E0,4.314351559E0
3.469096919E0,-1.520318031E0,3.538630009E0,4.414907932E0
3.471110144E0,-1.508347034E0,3.426102638E0,4.515464306E0
3.473095369E0,-1.505952835E0,3.375824451E0,4.565742493E0
3.475107979E0,-1.491587639E0,3.275267839E0,4.649539471E0
3.477092051E0,-1.496376038E0,3.174711466E0,4.745307922E0
3.479105891E0,-1.489193439E0,3.129221678E0,4.788403511E0
3.481089269E0,-1.467645645E0,3.047818661E0,4.876988888E0
3.483104034E0,-1.450886250E0,2.968810081E0,4.967968464E0
3.485117258E0,-1.438915253E0,2.928108692E0,5.025429249E0
3.487102484E0,-1.429338455E0,2.841917515E0,5.140350819E0
3.489116555E0,-1.393425345E0,2.774879694E0,5.233725071E0
3.491099088E0,-1.376665950E0,2.748543501E0,5.276820660E0
3.493112621E0,-1.355118155E0,2.700659513E0,5.382165432E0
3.495097154E0,-1.340752959E0,2.624045134E0,5.501875401E0
3.497110764E0,-1.297657371E0,2.600103140E0,5.571307182E0
3.499094143E0,-1.254561663E0,2.564189911E0,5.707777023E0
3.501108830E0,-1.216254473E0,2.537853718E0,5.786785603E0
3.503091901E0,-1.144428372E0,2.509123325E0,5.937620163E0
3.505106664E0,-1.077390790E0,2.466027737E0,6.069301128E0
3.507090736E0,-1.039083481E0,2.451662540E0,6.126761913E0
3.509105115E0,-9.576807022E-1,2.418143749E0,6.227318764E0
3.511119033E0,-8.762778044E-1,2.394201756E0,6.320692539E0
3.513102411E0,-8.307880163E-1,2.363077164E0,6.385335922E0
3.515116482E0,-7.158663273E-1,2.315192938E0,6.507440090E0
3.517100246E0,-6.081272364E-1,2.291250944E0,6.586448669E0
3.519114010E0,-5.554547906E-1,2.272097349E0,6.607996464E0
3.521098005E0,-4.357447028E-1,2.260126352E0,6.653486729E0
3.523112153E0,-3.399766386E-1,2.238578558E0,6.691793919E0
3.525095531E0,-2.944868207E-1,2.224213362E0,6.715735912E0
3.527110680E0,-1.915361285E-1,2.226607561E0,6.744466305E0
3.529093443E0,-1.460463107E-1,2.231395960E0,6.756437302E0
3.531108131E0,-6.703764945E-2,2.236184359E0,6.766014099E0
3.533090971E0,2.154781483E-2,2.243366957E0,6.775590897E0
3.535106042E0,6.703764945E-2,2.238578558E0,6.773196697E0
3.537089344E0,1.340752989E-1,2.221819162E0,6.782773495E0
3.539102569E0,1.771709323E-1,2.238578558E0,6.816292286E0
3.541117718E0,1.819593310E-1,2.219424963E0,6.840234280E0
3.543101404E0,2.011129409E-1,2.207453966E0,6.897695065E0
3.545115552E0,2.250549644E-1,2.154781580E0,6.943184853E0
3.547099778E0,2.274491638E-1,2.116474390E0,6.959944248E0
3.549113695E0,2.202665508E-1,2.051830769E0,6.995857239E0
3.551096690E0,2.011129409E-1,1.987187386E0,7.029376030E0
3.553111146E0,1.891419291E-1,1.944091797E0,7.050923824E0
3.555094525E0,1.723825186E-1,1.891419291E0,7.108384609E0
3.557108135E0,1.532289088E-1,1.831564307E0,7.170634270E0
3.559092744E0,1.460463107E-1,1.800439715E0,7.201758862E0
3.561106816E0,1.125274822E-1,1.726219416E0,7.261613846E0
3.563089964E0,9.337386489E-2,1.702277422E0,7.299921036E0
3.565104113E0,5.746084079E-2,1.632845521E0,7.388506413E0
3.567119722E0,2.154781483E-2,1.572990537E0,7.491456985E0
3.569102254E0,2.394201700E-3,1.539471745E0,7.548917770E0
3.571116326E0,-1.915361360E-2,1.513135433E0,7.635109425E0
3.573098859E0,-5.027823523E-2,1.465251446E0,7.709329605E0
3.575112700E0,-6.464344263E-2,1.429338455E0,7.735665798E0
3.577097309E0,-1.029506698E-1,1.379060149E0,7.759607792E0
3.579111996E0,-1.340752989E-1,1.364694953E0,7.805097580E0
3.581095375E0,-1.388636976E-1,1.345541358E0,7.819462776E0
3.583109600E0,-1.556231081E-1,1.309628367E0,7.838616371E0
3.585093595E0,-1.699883193E-1,1.326387763E0,7.884106159E0
3.587108051E0,-1.915361285E-1,1.314416766E0,7.903259754E0
3.589091353E0,-2.226607651E-1,1.264138460E0,7.927201748E0
3.591105270E0,-2.657563984E-1,1.242590666E0,7.955932140E0
3.593119957E0,-2.801215947E-1,1.221042871E0,7.972691536E0
3.595102721E0,-2.920926213E-1,1.180341482E0,8.010998726E0
3.597117176E0,-3.064578176E-1,1.132457376E0,8.042123795E0
3.599100633E0,-3.591302633E-1,1.106121182E0,8.058882713E0
3.601114781E0,-4.022258818E-1,1.077390790E0,8.056488991E0
3.603097775E0,-4.333505034E-1,1.065419793E0,8.049305916E0
3.605112616E0,-4.908113480E-1,1.053448796E0,8.027758598E0
3.607097225E0,-5.386953950E-1,1.055842996E0,8.027758598E0
3.609110374E0,-5.770025849E-1,1.053448796E0,8.030152321E0
3.611093445E0,-6.320692301E-1,1.055842996E0,8.030152321E0
3.613107901E0,-6.943184733E-1,1.074996591E0,8.018181801E0
3.615093127E0,-7.254431248E-1,1.101332784E0,8.018181801E0
3.617106121E0,-7.805097699E-1,1.163581967E0,8.037335396E0
3.619088885E0,-8.212111592E-1,1.223437071E0,8.051700592E0
3.621103340E0,-8.283938169E-1,1.242590666E0,8.054094315E0
3.623117719E0,-8.571242094E-1,1.300051570E0,8.080430984E0
3.625102099E0,-8.690952063E-1,1.340752959E0,8.097189903E0
3.627116477E0,-8.906430602E-1,1.352723956E0,8.101978302E0
3.629098934E0,-8.930372596E-1,1.343147159E0,8.116343498E0
3.631114082E0,-8.858546019E-1,1.335964561E0,8.147468567E0
3.633097460E0,-8.619126081E-1,1.278503656E0,8.202534676E0
3.635111532E0,-8.475474119E-1,1.204283476E0,8.250418663E0
3.637095603E0,-8.259995580E-1,1.161187768E0,8.264783859E0
3.639109060E0,-7.661445141E-1,1.036689281E0,8.305485725E0
3.641092515E0,-7.038952708E-1,9.026140571E-1,8.329427719E0
3.643106663E0,-6.655880809E-1,8.283938169E-1,8.353369713E0
3.645090581E0,-6.200982332E-1,6.847416759E-1,8.396465302E0
3.647105421E0,-5.434837937E-1,5.434837937E-1,8.439560890E0
3.649118647E0,-5.075707436E-1,4.716577232E-1,8.458714485E0
3.651102641E0,-4.381389022E-1,3.232172430E-1,8.501810074E0
3.653113712E0,-3.519476354E-1,1.987187415E-1,8.590395927E0
3.655099245E0,-3.088520169E-1,1.460463107E-1,8.631096840E0
3.657114239E0,-2.537853718E-1,2.394201607E-2,8.712499619E0
3.659098004E0,-2.250549644E-1,-7.900865376E-2,8.772355080E0
3.661112151E0,-1.580173075E-1,-1.125274822E-1,8.801085472E0
3.663096146E0,-9.337386489E-2,-1.843535304E-1,8.839392662E0
3.665110525E0,-6.224924326E-2,-2.274491638E-1,8.880094528E0
3.667094827E0,-3.351882473E-2,-2.849099934E-1,8.947132111E0
3.669108053E0,9.576806799E-3,-3.136404157E-1,9.033323288E0
3.671091739E0,2.633621916E-2,-3.256114423E-1,9.076418877E0
3.673106195E0,5.746084079E-2,-3.591302633E-1,9.133879662E0
3.675089574E0,9.337386489E-2,-3.567360640E-1,9.129091263E0
3.677103722E0,1.125274822E-1,-3.519476354E-1,9.133879662E0
3.679117255E0,1.508347094E-1,-3.423708379E-1,9.148244858E0
3.681101326E0,1.843535304E-1,-3.280056417E-1,9.160215378E0
3.683114552E0,1.963245422E-1,-3.040636182E-1,9.167398453E0
3.685098469E0,2.442085743E-1,-2.729389966E-1,9.188945770E0
3.687114155E0,2.777273953E-1,-2.226607651E-1,9.193734169E0
3.689096689E0,2.825157940E-1,-1.867477298E-1,9.200917244E0
3.691111683E0,3.064578176E-1,-1.268926859E-1,9.232041359E0
3.693094139E0,3.208230138E-1,-6.464344263E-2,9.239224434E0
3.695109903E0,3.543418646E-1,-3.351882473E-2,9.258378029E0
3.697092359E0,3.998316824E-1,2.394201700E-3,9.263166428E0
3.699105199E0,4.165911078E-1,1.915361360E-2,9.258378029E0
3.701121501E0,4.477157295E-1,3.591302410E-2,9.239224434E0
3.703104573E0,4.668693244E-1,5.506663769E-2,9.220070839E0
3.705118721E0,4.692635238E-1,6.943184882E-2,9.203310966E0
3.707103101E0,4.644751251E-1,8.619125932E-2,9.205705643E0
3.709116325E0,4.596867263E-1,7.422025502E-2,9.205705643E0
3.711100319E0,4.525041282E-1,6.464344263E-2,9.212887764E0
3.713114391E0,4.333505034E-1,4.309562966E-2,9.244012833E0
3.715097462E0,3.878606856E-1,1.197100803E-2,9.323021889E0
3.717112226E0,3.615244627E-1,-9.576806799E-3,9.354146004E0
3.719095682E0,3.040636182E-1,-4.309562966E-2,9.445125580E0
3.721108907E0,2.346317619E-1,-9.097966552E-2,9.528923035E0
3.723092825E0,1.939303428E-1,-1.221042871E-1,9.562441826E0
3.725106126E0,1.388636976E-1,-1.795651317E-1,9.600749016E0
3.727091352E0,1.125274822E-1,-2.082955539E-1,9.600749016E0
3.729105500E0,5.506663769E-2,-2.873041928E-1,9.603142738E0
3.731088879E0,-2.394201700E-3,-3.663128614E-1,9.629479408E0
3.733099258E0,-2.154781483E-2,-4.022258818E-1,9.658209801E0
3.735116791E0,-4.548983276E-2,-4.955997467E-1,9.706093788E0
3.737100863E0,-6.943184882E-2,-5.985504389E-1,9.761159897E0
3.739114934E0,-8.379705995E-2,-6.440402865E-1,9.789890289E0
3.741098620E0,-1.005564705E-1,-7.541735172E-1,9.854534149E0
3.743112538E0,-1.077390760E-1,-8.762778044E-1,9.916783333E0
3.745095840E0,-9.816227108E-2,-9.289502501E-1,9.940725327E0
3.747110681E0,-1.125274822E-1,-1.015141487E0,9.974244118E0
3.749094060E0,-1.125274822E-1,-1.118092179E0,9.988609314E0
3.751108823E0,-1.005564705E-1,-1.170764685E0,1.000058079E1
3.753092741E0,-6.943184882E-2,-1.249773264E0,1.001973438E1
3.755105966E0,-5.267243832E-2,-1.321599364E0,1.001255131E1
3.757090268E0,-4.788403213E-2,-1.371877551E0,1.001015759E1
3.759103801E0,-1.197100803E-2,-1.453280449E0,9.991003990E0
3.761117718E0,0.000000000E0,-1.486799240E0,9.959878922E0
3.763101405E0,1.197100803E-2,-1.544260144E0,9.890447617E0
3.765116399E0,6.943184882E-2,-1.572990537E0,9.804255486E0
3.767099856E0,7.661445439E-2,-1.570596337E0,9.770736694E0
3.769114004E0,8.379705995E-2,-1.580173135E0,9.718064308E0
3.771097383E0,1.053448766E-1,-1.589749932E0,9.677363396E0
3.773110608E0,1.197100878E-1,-1.584961534E0,9.643844604E0
3.775095756E0,1.316810995E-1,-1.541865945E0,9.605537415E0
3.777109905E0,1.292868853E-1,-1.482010841E0,9.564835548E0
3.779092437E0,1.221042871E-1,-1.458068848E0,9.545681953E0
3.781106817E0,1.173158810E-1,-1.386242747E0,9.533711433E0
3.783090580E0,1.221042871E-1,-1.285686255E0,9.536105156E0
3.785104728E0,1.268926859E-1,-1.235408068E0,9.540893555E0
3.787120338E0,1.364694983E-1,-1.175553083E0,9.564835548E0
3.789103101E0,1.388636976E-1,-1.120486379E0,9.574412346E0
3.791116404E0,1.628057212E-1,-1.084573388E0,9.588777542E0
3.793101014E0,2.106897533E-1,-1.058237195E0,9.634267807E0
3.795114238E0,2.274491638E-1,-1.039083481E0,9.660603523E0
3.797098233E0,2.489969730E-1,-9.911994934E-1,9.718064308E0
3.799112612E0,3.160346150E-1,-9.935936928E-1,9.792284966E0
3.801095761E0,3.567360640E-1,-1.000776291E0,9.830592155E0
3.803109524E0,4.381389022E-1,-1.022324085E0,9.911994934E0
3.805094442E0,5.123591423E-1,-1.089361787E0,9.955090523E0
3.807108975E0,5.482721925E-1,-1.108515382E0,9.979032516E0
3.809091661E0,6.272808313E-1,-1.180341482E0,1.001973438E1
3.811106117E0,7.110779285E-1,-1.268926859E0,1.006043530E1
3.813088881E0,7.493851185E-1,-1.314416766E0,1.007240677E1
3.815102722E0,8.355764151E-1,-1.426944256E0,1.013226128E1
3.817118100E0,9.026140571E-1,-1.520318031E0,1.024000072E1
3.819101248E0,9.504981041E-1,-1.589749932E0,1.028309631E1
3.821115705E0,1.036689281E0,-1.723825216E0,1.035731697E1
3.823099314E0,1.077390790E0,-1.841141105E0,1.038125896E1
3.825113463E0,1.163581967E0,-1.898601890E0,1.040998936E1
3.827097457E0,1.254561663E0,-2.030282974E0,1.045069027E1
3.829111374E0,1.285686255E0,-2.106897593E0,1.047223854E1
3.831095292E0,1.362300754E0,-2.226607561E0,1.050815105E1
3.833109440E0,1.460463047E0,-2.322375536E0,1.052012253E1
3.835092512E0,1.496376038E0,-2.379836559E0,1.052491093E1
3.837106121E0,1.556231141E0,-2.492363930E0,1.052251625E1
3.839090039E0,1.604115129E0,-2.578555346E0,1.052730465E1
3.841104803E0,1.647210717E0,-2.621650934E0,1.052491093E1
3.843118028E0,1.697489023E0,-2.707842112E0,1.049378586E1
3.845101792E0,1.726219416E0,-2.779668093E0,1.044111347E1
3.847117170E0,1.726219416E0,-2.806004286E0,1.041238308E1
3.849100472E0,1.740584612E0,-2.887407303E0,1.034774017E1
3.851113467E0,1.716642618E0,-2.935291290E0,1.025436592E1
3.853097384E0,1.702277422E0,-2.956839085E0,1.020169353E1
3.855112148E0,1.675941229E0,-3.002328873E0,1.008437729E1
3.857096142E0,1.649604917E0,-3.019088268E0,1.002691650E1
3.859109059E0,1.589749932E0,-3.023876667E0,9.907206535E0
3.861093978E0,1.522712231E0,-3.031059265E0,9.775525093E0
3.863107895E0,1.491587639E0,-3.033453465E0,9.691728592E0
3.865090659E0,1.431732655E0,-3.033453465E0,9.538499832E0
3.867105653E0,1.347935557E0,-3.026270866E0,9.385271072E0
3.869089033E0,1.314416766E0,-3.026270866E0,9.323021889E0
3.871103180E0,1.235408068E0,-3.011905670E0,9.212887764E0
3.873117713E0,1.168370485E0,-2.997540474E0,9.121908188E0
3.875100400E0,1.139639974E0,-2.990357876E0,9.097966194E0
3.877115163E0,1.113303781E0,-2.973598480E0,9.047688484E0
3.879098928E0,1.101332784E0,-2.942473888E0,9.006986618E0
3.881113075E0,1.091755986E0,-2.925714493E0,8.997409821E0
3.883097069E0,1.103726983E0,-2.904166698E0,8.983044624E0
3.885110526E0,1.144428372E0,-2.887407303E0,8.951920509E0
3.887095135E0,1.168370485E0,-2.868253708E0,8.942343712E0
3.889108130E0,1.221042871E0,-2.837129116E0,8.930372238E0
3.891091432E0,1.249773264E0,-2.815581083E0,8.937555313E0
3.893103118E0,1.347935557E0,-2.770091295E0,8.956708908E0
3.895120113E0,1.462857246E0,-2.753331900E0,8.980650902E0
3.897104107E0,1.520318031E0,-2.736572504E0,9.004592896E0
3.899118256E0,1.647210717E0,-2.715024710E0,9.074024200E0
3.901101558E0,1.776497602E0,-2.734178305E0,9.162610054E0
3.903116014E0,1.845929503E0,-2.741360903E0,9.198522568E0
3.905099701E0,1.972822189E0,-2.794033289E0,9.277531624E0
3.907115387E0,2.097320795E0,-2.849100113E0,9.354146004E0
3.909098459E0,2.154781580E0,-2.880224705E0,9.390059471E0
3.911111453E0,2.252943754E0,-2.925714493E0,9.473855972E0
3.913096910E0,2.336740971E0,-3.023876667E0,9.536105156E0
3.915109904E0,2.382230759E0,-3.066972494E0,9.552865028E0
3.917092975E0,2.468421936E0,-3.141192675E0,9.562441826E0
3.919107431E0,2.513911724E0,-3.224989653E0,9.516951561E0
3.921090810E0,2.542642117E0,-3.263296843E0,9.485827446E0
3.923105266E0,2.583343744E0,-3.330334663E0,9.421183586E0
3.925088337E0,2.602497339E0,-3.366247654E0,9.390059471E0
3.927103639E0,2.628833532E0,-3.430891037E0,9.363722801E0
3.929116326E0,2.657563925E0,-3.509899616E0,9.368511200E0
3.931100320E0,2.662352324E0,-3.560178041E0,9.368511200E0
3.933114469E0,2.640804529E0,-3.612850428E0,9.354146004E0
3.935099309E0,2.631227732E0,-3.696647406E0,9.323021889E0
3.937113226E0,2.628833532E0,-3.751713991E0,9.301473618E0
3.939095683E0,2.624045134E0,-3.847482204E0,9.253589630E0
3.941111061E0,2.590526342E0,-3.928884983E0,9.200917244E0
3.943093518E0,2.578555346E0,-3.962403774E0,9.167398453E0
3.945107666E0,2.561795712E0,-4.031835556E0,9.124302864E0
3.947093506E0,2.549824715E0,-4.115632534E0,9.062053680E0
3.949105116E0,2.540247917E0,-4.161122322E0,9.018958092E0
3.951088880E0,2.518700123E0,-4.220977783E0,8.930372238E0
3.953104182E0,2.518700123E0,-4.288015366E0,8.839392662E0
3.955117792E0,2.521094322E0,-4.321534157E0,8.805873871E0
3.957102093E0,2.523488522E0,-4.393360138E0,8.750806808E0
3.959115627E0,2.530671120E0,-4.426878929E0,8.722076416E0
3.961099236E0,2.561795712E0,-4.508281708E0,8.659827232E0
3.963113385E0,2.597708941E0,-4.556165695E0,8.633491516E0
3.965096533E0,2.614468336E0,-4.575319290E0,8.626308441E0
3.967111913E0,2.647987127E0,-4.613626480E0,8.585607529E0
3.969095214E0,2.676717520E0,-4.668693542E0,8.542511940E0
3.971109054E0,2.698265314E0,-4.673481941E0,8.523358345E0
3.973092126E0,2.760514498E0,-4.704606533E0,8.501810074E0
3.975106659E0,2.827552319E0,-4.721365929E0,8.477868080E0
3.977090038E0,2.856282711E0,-4.723760128E0,8.458714485E0
3.979104725E0,2.889801502E0,-4.742913723E0,8.432378769E0
3.981087873E0,2.928108692E0,-4.754884720E0,8.394071579E0
3.983103252E0,2.964021683E0,-4.745307922E0,8.365341187E0
3.985116400E0,3.035847664E0,-4.714183331E0,8.291120529E0
3.987102010E0,3.071760893E0,-4.680664539E0,8.240841866E0
3.989114312E0,3.102885485E0,-4.661510944E0,8.135497093E0
3.991097922E0,3.167528868E0,-4.613626480E0,8.042123795E0
3.993112993E0,3.208230257E0,-4.580107689E0,8.008605003E0
3.995095449E0,3.260902643E0,-4.513070107E0,7.946355343E0
3.997109675E0,3.308786631E0,-4.455609322E0,7.886500359E0
3.999093669E0,3.335123062E0,-4.410119534E0,7.857769966E0
4.001107509E0,3.383007050E0,-4.328716755E0,7.800309181E0
4.003091427E0,3.404554844E0,-4.240131378E0,7.716512203E0
4.005105344E0,3.423708439E0,-4.197035789E0,7.675810814E0
4.007090262E0,3.464409828E0,-4.108449936E0,7.606379032E0
4.009103410E0,3.481169224E0,-4.015076160E0,7.532158375E0
4.011117558E0,3.464409828E0,-3.979163170E0,7.503427982E0
4.013100322E0,3.476380825E0,-3.924096584E0,7.426813602E0
4.015116008E0,3.505111217E0,-3.876212597E0,7.366958618E0
4.017098850E0,3.514688015E0,-3.859453201E0,7.347805023E0
4.019112613E0,3.524264812E0,-3.828328609E0,7.314286232E0
4.021096685E0,3.524264812E0,-3.821146011E0,7.319074631E0
4.023110756E0,3.545812607E0,-3.861847401E0,7.381323814E0
4.025094211E0,3.576937437E0,-3.971980572E0,7.453149796E0
4.027109591E0,3.576937437E0,-4.039018154E0,7.484274387E0
4.029092354E0,3.591302633E0,-4.197035789E0,7.510610580E0
4.031106811E0,3.629609823E0,-4.405331135E0,7.544129372E0
4.033090497E0,3.639186621E0,-4.522646904E0,7.563282967E0
4.035104260E0,3.684676409E0,-4.745307922E0,7.637503624E0
4.037087409E0,3.730166197E0,-4.999093056E0,7.730877399E0
4.039102403E0,3.756502390E0,-5.128379822E0,7.773972988E0
4.041116321E0,3.828328609E0,-5.384559631E0,7.838616371E0
4.043100238E0,3.912125587E0,-5.590460777E0,7.924807549E0
4.045113848E0,3.955221176E0,-5.686229229E0,7.963114738E0
4.047098766E0,4.067748547E0,-5.856217384E0,8.063671112E0
4.049111683E0,4.146757126E0,-6.014234543E0,8.164227486E0
4.051094755E0,4.192247391E0,-6.083666325E0,8.209717751E0
4.053105749E0,4.283226967E0,-6.191405773E0,8.276755333E0
4.055091898E0,4.340687752E0,-6.224924564E0,8.307879448E0
4.057107276E0,4.469974518E0,-6.287173748E0,8.379706383E0
4.059090655E0,4.563348293E0,-6.332663536E0,8.425195694E0
4.061105727E0,4.606443882E0,-6.344634533E0,8.439560890E0
4.063088182E0,4.702212334E0,-6.375759125E0,8.451532364E0
4.065102947E0,4.778826714E0,-6.337451935E0,8.437167168E0
4.067117710E0,4.797980309E0,-6.330269337E0,8.422801971E0
4.069101088E0,4.843470097E0,-6.291962147E0,8.389283180E0
4.071114699E0,4.893748283E0,-6.251260757E0,8.336610794E0
4.073098924E0,4.903325081E0,-6.227318764E0,8.315062523E0
4.075112842E0,4.891354084E0,-6.160281181E0,8.257601738E0
4.077096220E0,4.893748283E0,-6.110002518E0,8.169015884E0
4.079110599E0,4.867412090E0,-6.057330132E0,8.123526573E0
4.081094286E0,4.797980309E0,-5.992686749E0,8.042123795E0
4.083108126E0,4.757278919E0,-5.920860767E0,7.953537941E0
4.085092121E0,4.683058739E0,-5.884947777E0,7.908048153E0
4.087106577E0,4.592078686E0,-5.856217384E0,7.817068577E0
4.089089417E0,4.529829502E0,-5.825092793E0,7.766790390E0
4.091103181E0,4.417302132E0,-5.777208805E0,7.671022415E0
4.093117406E0,4.292803764E0,-5.714959621E0,7.589619160E0
4.095102016E0,4.235342979E0,-5.705382824E0,7.556100368E0
4.097116087E0,4.137180328E0,-5.676652431E0,7.493851185E0
4.099098620E0,4.039018154E0,-5.659893036E0,7.443572998E0
4.101113999E0,3.998316765E0,-5.669469833E0,7.429207802E0
4.103097301E0,3.919308186E0,-5.707777023E0,7.407660007E0
4.105110604E0,3.840299606E0,-5.731719017E0,7.374141216E0
4.107096059E0,3.818751812E0,-5.750872612E0,7.362170219E0
4.109108976E0,3.749319792E0,-5.791574001E0,7.338228226E0
4.111092741E0,3.670311213E0,-5.815515995E0,7.319074631E0
4.113107735E0,3.639186621E0,-5.825092793E0,7.328651428E0
4.115090268E0,3.617638826E0,-5.877765179E0,7.383718014E0
4.117104416E0,3.603273630E0,-5.925649166E0,7.474697590E0
4.119088026E0,3.574543238E0,-5.954379559E0,7.529764175E0
4.121102482E0,3.562572241E0,-5.999869347E0,7.673416615E0
4.123116937E0,3.555389643E0,-6.038176537E0,7.745242596E0
4.125100086E0,3.562572241E0,-6.133944988E0,7.862558365E0
4.127115157E0,3.591302633E0,-6.222530365E0,7.917624950E0
4.129097922E0,3.600879431E0,-6.263231754E0,7.939172745E0
4.131112377E0,3.655946016E0,-6.356605530E0,8.010998726E0
4.133095679E0,3.730166197E0,-6.452373505E0,8.101978302E0
4.135109520E0,3.775655985E0,-6.495469093E0,8.149862289E0
4.137093514E0,3.864241600E0,-6.572083473E0,8.228871346E0
4.139107047E0,3.964797974E0,-6.617573261E0,8.281543732E0
4.141091349E0,4.022258759E0,-6.631938934E0,8.288725853E0
4.143105189E0,4.125209332E0,-6.655880928E0,8.312667847E0
4.145089184E0,4.232948780E0,-6.679822922E0,8.327033043E0
4.147104332E0,4.290409565E0,-6.694188118E0,8.329427719E0
4.149087019E0,4.419696331E0,-6.720524311E0,8.346187592E0
4.151100936E0,4.481945515E0,-6.722918510E0,8.353369713E0
4.153116315E0,4.604049683E0,-6.739677906E0,8.370129585E0
4.155098695E0,4.716577530E0,-6.777985096E0,8.382100105E0
4.157112535E0,4.769249916E0,-6.789956093E0,8.386888504E0
4.159096530E0,4.869806290E0,-6.825869083E0,8.377311707E0
4.161110755E0,4.953603268E0,-6.852205276E0,8.362946510E0
4.163094442E0,4.989516258E0,-6.876147270E0,8.348581314E0
4.165108513E0,5.051765442E0,-6.912060261E0,8.310274124E0
4.167092892E0,5.078101635E0,-6.981492043E0,8.269572258E0
4.169105810E0,5.094861031E0,-7.007828236E0,8.252813339E0
4.171089419E0,5.099649429E0,-7.065289021E0,8.219294548E0
4.173103029E0,5.073313236E0,-7.105990410E0,8.171410561E0
4.175118639E0,5.066130638E0,-7.117961884E0,8.147468567E0
4.177102402E0,5.008669853E0,-7.156269073E0,8.085219383E0
4.179115551E0,4.951209068E0,-7.180211067E0,7.996633530E0
4.181099237E0,4.912901878E0,-7.168240070E0,7.958326340E0
4.183114309E0,4.833893299E0,-7.151480675E0,7.886500359E0
