"Time (s)","Gyroscope x (rad/s)","Gyroscope y (rad/s)","Gyroscope z (rad/s)"
9.106183000E-3,2.431243658E-1,-9.175195694E-1,3.970624208E-1
1.121172100E-2,2.431243658E-1,-9.175195694E-1,3.970624208E-1
1.319395200E-2,2.431243658E-1,-9.175195694E-1,3.970624208E-1
1.520926000E-2,2.431243658E-1,-9.175195694E-1,3.970624208E-1
1.719326000E-2,2.431243658E-1,-9.175195694E-1,3.970624208E-1
1.920741400E-2,2.431243658E-1,-9.175195694E-1,3.970624208E-1
2.119087400E-2,2.431243658E-1,-9.175195694E-1,3.970624208E-1
2.320472000E-2,2.431243658E-1,-9.175195694E-1,3.970624208E-1
2.518864300E-2,2.431243658E-1,-9.175195694E-1,3.970624208E-1
2.720433600E-2,2.431243658E-1,-9.175195694E-1,3.970624208E-1
2.918625900E-2,2.431243658E-1,-9.175195694E-1,3.970624208E-1
3.120095100E-2,2.431243658E-1,-9.175195694E-1,3.970624208E-1
3.318525900E-2,2.431243658E-1,-9.175195694E-1,3.970624208E-1
3.519825800E-2,2.431243658E-1,-9.175195694E-1,3.970624208E-1
3.721271900E-2,2.431243658E-1,-9.175195694E-1,3.970624208E-1
3.919571900E-2,2.431243658E-1,-9.175195694E-1,3.970624208E-1
4.121018100E-2,2.431243658E-1,-9.175195694E-1,3.970624208E-1
4.319395000E-2,2.431243658E-1,-9.175195694E-1,3.970624208E-1
4.520771900E-2,2.431243658E-1,-9.175195694E-1,3.970624208E-1
4.719233500E-2,2.431243658E-1,-9.175195694E-1,3.970624208E-1
4.920618000E-2,2.431243658E-1,-9.175195694E-1,3.970624208E-1
5.118902600E-2,2.431243658E-1,-9.175195694E-1,3.970624208E-1
5.320379500E-2,2.431243658E-1,-9.175195694E-1,3.970624208E-1
5.518810300E-2,2.431243658E-1,-9.175195694E-1,3.970624208E-1
5.720225700E-2,2.431243658E-1,-9.175195694E-1,3.970624208E-1
5.918494900E-2,2.431243658E-1,-9.175195694E-1,3.970624208E-1
6.119979500E-2,2.431243658E-1,-9.175195694E-1,3.970624208E-1
6.318341000E-2,2.431243658E-1,-9.175195694E-1,3.970624208E-1
6.519794800E-2,2.431243658E-1,-9.175195694E-1,3.970624208E-1
6.721202500E-2,2.431243658E-1,-9.175195694E-1,3.970624208E-1
6.919571800E-2,2.431243658E-1,-9.175195694E-1,3.970624208E-1
7.120956400E-2,2.431243658E-1,-9.175195694E-1,3.970624208E-1
7.319294800E-2,8.979719132E-2,-6.462954283E-1,4.245513380E-1
7.520717900E-2,8.552113175E-2,-6.511823535E-1,4.251621962E-1
7.719079300E-2,8.063421398E-2,-6.591235995E-1,4.257730842E-1
7.920502400E-2,6.963863969E-2,-6.707300544E-1,4.300491214E-1
8.118833200E-2,6.902777404E-2,-6.731734872E-1,4.300491214E-1
8.320225500E-2,6.352998316E-2,-6.829473376E-1,4.355469346E-1
8.518594700E-2,6.108652428E-2,-6.939429045E-1,4.367686510E-1
8.720010100E-2,5.803219974E-2,-7.012733221E-1,4.373795092E-1
8.918433200E-2,5.436700583E-2,-7.171558142E-1,4.434881806E-1
9.119733100E-2,5.253441259E-2,-7.342600226E-1,4.508185387E-1
9.321210000E-2,4.886921868E-2,-7.422012687E-1,4.538728893E-1
9.519540800E-2,4.886921868E-2,-7.562511563E-1,4.557054639E-1
9.721056200E-2,4.642575979E-2,-7.672467232E-1,4.569272101E-1
9.919386900E-2,4.520402849E-2,-7.745771408E-1,4.538728893E-1
1.012081000E-1,4.581489414E-2,-7.849618196E-1,4.520402849E-1
1.031920230E-1,4.398229718E-2,-7.843509912E-1,4.459316432E-1
1.052059450E-1,4.214970022E-2,-7.898487449E-1,4.355469346E-1
1.071904840E-1,3.787364438E-2,-8.002334833E-1,4.306600094E-1
1.092037920E-1,3.909537569E-2,-8.112290502E-1,4.306600094E-1
1.111874840E-1,3.604105115E-2,-8.326093554E-1,4.318817258E-1
1.132021760E-1,3.543018550E-2,-8.546004891E-1,4.373795092E-1
1.151852530E-1,3.726277873E-2,-8.662069440E-1,4.410447180E-1
1.171987920E-1,3.665191308E-2,-8.857545853E-1,4.489859641E-1
1.191825600E-1,3.909537569E-2,-8.973610401E-1,4.550946057E-1
1.211964060E-1,3.909537569E-2,-9.016370773E-1,4.557054639E-1
1.232114830E-1,3.787364438E-2,-9.071348906E-1,4.581489265E-1
1.251950980E-1,3.787364438E-2,-9.101892114E-1,4.581489265E-1
1.272090210E-1,3.970624134E-2,-9.089674950E-1,4.557054639E-1
1.291929440E-1,3.909537569E-2,-9.120218158E-1,4.520402849E-1
1.312071750E-1,3.543018550E-2,-9.181304574E-1,4.514294267E-1
1.331896360E-1,3.543018550E-2,-9.193521738E-1,4.495968223E-1
1.352049430E-1,3.298672289E-2,-9.187413454E-1,4.465425014E-1
1.371884050E-1,3.359758854E-2,-9.181304574E-1,4.489859641E-1
1.392010200E-1,2.871066704E-2,-9.217956662E-1,4.520402849E-1
1.411862510E-1,2.809980139E-2,-9.193521738E-1,4.526511431E-1
1.432000200E-1,2.504547499E-2,-9.150761366E-1,4.514294267E-1
1.451843280E-1,2.382374369E-2,-9.138544202E-1,4.489859641E-1
1.471990960E-1,1.710422710E-2,-9.193521738E-1,4.532620013E-1
1.491819420E-1,1.649336144E-2,-9.260717034E-1,4.581489265E-1
1.511947890E-1,1.221730467E-2,-9.382890463E-1,4.691445231E-1
1.532105580E-1,9.773843922E-3,-9.468411207E-1,4.801400900E-1
1.551935580E-1,7.330383174E-3,-9.511171579E-1,4.831944108E-1
1.572077890E-1,1.221730490E-3,-9.578366876E-1,4.984660447E-1
1.591914040E-1,-4.886921961E-3,-9.657779336E-1,5.106833577E-1
1.612049420E-1,-6.108652335E-3,-9.682214260E-1,5.143485069E-1
1.631896340E-1,-1.160643995E-2,-9.749409556E-1,5.296201706E-1
1.652030950E-1,-1.588249579E-2,-9.804387093E-1,5.338962078E-1
1.671883260E-1,-1.893682219E-2,-9.859365225E-1,5.436700583E-1
1.692010180E-1,-2.382374369E-2,-9.950994849E-1,5.491678715E-1
1.711850180E-1,-2.443460934E-2,-9.999864101E-1,5.503895879E-1
1.731982490E-1,-3.054326214E-2,-1.011592865E0,5.564982295E-1
1.752129410E-1,-3.481931984E-2,-1.019534111E0,5.601634383E-1
1.771975560E-1,-3.726277873E-2,-1.027475357E0,5.595525503E-1
1.792114790E-1,-3.909537569E-2,-1.038470864E0,5.644394755E-1
1.811944790E-1,-4.214970022E-2,-1.045801282E0,5.681046844E-1
1.832086330E-1,-4.520402849E-2,-1.052520871E0,5.674937963E-1
1.851920170E-1,-4.886921868E-2,-1.063516378E0,5.699372888E-1
1.872074790E-1,-5.070181563E-2,-1.076955438E0,5.723807216E-1
1.891904780E-1,-5.070181563E-2,-1.080009699E0,5.729916096E-1
1.912037860E-1,-5.192354694E-2,-1.091005325E0,5.797111392E-1
1.931884010E-1,-5.558873713E-2,-1.101390004E0,5.839871764E-1
1.952016320E-1,-5.497787148E-2,-1.102000952E0,5.833762884E-1
1.971855550E-1,-5.436700583E-2,-1.111163855E0,5.919284225E-1
1.991997860E-1,-5.558873713E-2,-1.114829063E0,5.949827433E-1
2.011834010E-1,-5.742133409E-2,-1.117883444E0,5.980370641E-1
2.031978620E-1,-5.925392732E-2,-1.119716048E0,5.998696685E-1
2.052114000E-1,-5.619960278E-2,-1.120937705E0,6.035348773E-1
2.071966310E-1,-5.497787148E-2,-1.123992085E0,6.041457057E-1
2.092093230E-1,-5.131268129E-2,-1.120937705E0,6.053674817E-1
2.111927080E-1,-4.825835302E-2,-1.119105101E0,6.029239893E-1
2.132061690E-1,-4.153883830E-2,-1.112996459E0,6.059783101E-1
2.151920160E-1,-3.848451003E-2,-1.106276989E0,6.041457057E-1
2.172058610E-1,-3.787364438E-2,-1.100779176E0,6.041457057E-1
2.191880910E-1,-3.665191308E-2,-1.091616154E0,6.047565937E-1
2.212030920E-1,-3.420845419E-2,-1.076344609E0,6.059783101E-1
2.231865530E-1,-3.176499158E-2,-1.068403363E0,6.065891981E-1
2.252009380E-1,-3.176499158E-2,-1.053131700E0,6.059783101E-1
2.271852450E-1,-3.176499158E-2,-1.044579625E0,6.072000265E-1
2.291984760E-1,-3.054326214E-2,-1.025642753E0,6.090326309E-1
2.311819370E-1,-2.809980139E-2,-1.006705880E0,6.108652353E-1
2.331960910E-1,-3.054326214E-2,-9.957103729E-1,6.102544069E-1
2.352111670E-1,-2.993239649E-2,-9.718865752E-1,6.139195561E-1
2.371938600E-1,-3.176499158E-2,-9.480628371E-1,6.169738770E-1
2.392087060E-1,-3.176499158E-2,-9.370672703E-1,6.200281978E-1
2.411917060E-1,-3.176499158E-2,-9.101892114E-1,6.255260110E-1
2.432059370E-1,-3.481931984E-2,-8.827002645E-1,6.310238242E-1
2.451895510E-1,-3.176499158E-2,-8.686503768E-1,6.346889734E-1
2.472047050E-1,-3.237585723E-2,-8.436049223E-1,6.401867867E-1
2.491877050E-1,-3.359758854E-2,-8.167268038E-1,6.426302195E-1
2.512018590E-1,-3.359758854E-2,-8.051204085E-1,6.462954283E-1
2.531850130E-1,-3.481931984E-2,-7.812966704E-1,6.542366743E-1
2.551985510E-1,-3.420845419E-2,-7.562511563E-1,6.615670323E-1
2.571834740E-1,-3.787364438E-2,-7.434229851E-1,6.627888083E-1
2.591975500E-1,-3.787364438E-2,-7.220427394E-1,6.676757336E-1
2.612117040E-1,-3.665191308E-2,-7.000515461E-1,6.713408828E-1
2.631944730E-1,-3.787364438E-2,-6.914994717E-1,6.743952036E-1
2.652083190E-1,-3.665191308E-2,-6.756169796E-1,6.817256212E-1
2.671939350E-1,-3.848451003E-2,-6.676757336E-1,6.811147332E-1
2.692065500E-1,-3.848451003E-2,-6.560692787E-1,6.841690540E-1
2.711905500E-1,-3.787364438E-2,-6.462954283E-1,6.878342628E-1
2.732052410E-1,-3.726277873E-2,-6.438519955E-1,6.890559793E-1
2.751886260E-1,-3.787364438E-2,-6.426302195E-1,6.914994717E-1
2.772028570E-1,-4.031710699E-2,-6.426302195E-1,6.914994717E-1
2.791856260E-1,-3.787364438E-2,-6.462954283E-1,6.933320761E-1
2.812006260E-1,-4.031710699E-2,-6.524040699E-1,6.890559793E-1
2.831843950E-1,-3.970624134E-2,-6.646214128E-1,6.890559793E-1
2.851985490E-1,-4.031710699E-2,-6.701191664E-1,6.866125464E-1
2.871831640E-1,-4.153883830E-2,-6.847799420E-1,6.792821288E-1
2.891967020E-1,-3.909537569E-2,-7.024950385E-1,6.750060916E-1
2.912098560E-1,-4.031710699E-2,-7.098253965E-1,6.725626588E-1
2.931930100E-1,-4.031710699E-2,-7.293730974E-1,6.652322412E-1
2.952083170E-1,-3.848451003E-2,-7.373143435E-1,6.627888083E-1
2.971917790E-1,-3.665191308E-2,-7.568620443E-1,6.554583907E-1
2.992055480E-1,-3.726277873E-2,-7.764097452E-1,6.475171447E-1
3.011895470E-1,-3.481931984E-2,-7.874053121E-1,6.444628239E-1
3.032037010E-1,-3.359758854E-2,-8.057312369E-1,6.352998614E-1
3.051880090E-1,-3.054326214E-2,-8.271115422E-1,6.285803318E-1
3.072019320E-1,-2.871066704E-2,-8.344419003E-1,6.255260110E-1
3.091856240E-1,-2.626720630E-2,-8.515461683E-1,6.181956530E-1
3.111990860E-1,-2.565634064E-2,-8.637634516E-1,6.114761233E-1
3.131834700E-1,-2.382374369E-2,-8.717046976E-1,6.072000265E-1
3.151967000E-1,-2.076941915E-2,-8.802568316E-1,6.078109145E-1
3.172114690E-1,-1.771509275E-2,-8.881980777E-1,6.029239893E-1
3.191950850E-1,-1.832595654E-2,-8.918632865E-1,6.004805565E-1
3.212093160E-1,-1.710422710E-2,-8.961393237E-1,5.968153477E-1
3.231929310E-1,-1.282817032E-2,-9.004153609E-1,5.962044597E-1
3.252073920E-1,-1.221730467E-2,-9.028588533E-1,5.955936313E-1
3.271920850E-1,-1.038470957E-2,-9.022479653E-1,5.943718553E-1
3.292055450E-1,-7.330383174E-3,-9.053022861E-1,5.949827433E-1
3.311880840E-1,-8.552113548E-3,-9.065240026E-1,5.949827433E-1
3.332015450E-1,-3.665191587E-3,-9.083566070E-1,5.955936313E-1
3.351856220E-1,-3.054326167E-3,-9.083566070E-1,5.919284225E-1
3.372003910E-1,0.000000000E0,-9.083566070E-1,5.907067060E-1
3.391831610E-1,3.665191587E-3,-9.089674950E-1,5.907067060E-1
3.411978530E-1,3.665191587E-3,-9.065240026E-1,5.876523852E-1
3.432120060E-1,1.160643995E-2,-9.034696817E-1,5.882632136E-1
3.451956980E-1,1.710422710E-2,-9.034696817E-1,5.864306092E-1
3.472104670E-1,1.954768784E-2,-9.022479653E-1,5.852088928E-1
3.491939290E-1,2.504547499E-2,-8.973610401E-1,5.833762884E-1
3.512080060E-1,2.993239649E-2,-8.924741149E-1,5.827654600E-1
3.531923910E-1,3.176499158E-2,-8.906415105E-1,5.815436840E-1
3.552055440E-1,3.665191308E-2,-8.802568316E-1,5.827654600E-1
3.571883130E-1,4.092797264E-2,-8.704829812E-1,5.815436840E-1
3.592040050E-1,4.153883830E-2,-8.655960560E-1,5.821545720E-1
3.611870820E-1,4.581489414E-2,-8.546004891E-1,5.815436840E-1
3.632006970E-1,4.520402849E-2,-8.497135639E-1,5.833762884E-1
3.651858510E-1,4.581489414E-2,-8.381071091E-1,5.827654600E-1
3.671991590E-1,4.642575979E-2,-8.283332586E-1,5.852088928E-1
3.691824660E-1,4.520402849E-2,-8.210029006E-1,5.882632136E-1
3.711972360E-1,4.703662544E-2,-8.148942590E-1,5.913175344E-1
3.732104650E-1,4.886921868E-2,-8.045095205E-1,5.949827433E-1
3.751950810E-1,4.520402849E-2,-7.996225953E-1,5.974262357E-1
3.772090040E-1,4.581489414E-2,-7.910705209E-1,6.035348773E-1
3.791920810E-1,4.337143153E-2,-7.806857824E-1,6.090326309E-1
3.812064660E-1,4.276056588E-2,-7.788531780E-1,6.120869517E-1
3.831904660E-1,4.214970022E-2,-7.721336484E-1,6.169738770E-1
3.852040810E-1,3.970624134E-2,-7.617489696E-1,6.243042946E-1
3.871895410E-1,3.787364438E-2,-7.574729323E-1,6.255260110E-1
3.892025410E-1,3.604105115E-2,-7.483099103E-1,6.304129362E-1
3.911853110E-1,3.481931984E-2,-7.428121567E-1,6.316346526E-1
3.932015410E-1,3.237585723E-2,-7.391469479E-1,6.389650702E-1
3.951837720E-1,2.932153270E-2,-7.324274182E-1,6.450737119E-1
3.971975410E-1,2.687807009E-2,-7.312057018E-1,6.444628239E-1
3.992120800E-1,2.626720630E-2,-7.263187766E-1,6.481280327E-1
4.011956940E-1,2.504547499E-2,-7.263187766E-1,6.505714655E-1
4.032096170E-1,2.199114859E-2,-7.244861722E-1,6.517932415E-1
4.051936170E-1,1.832595654E-2,-7.257078886E-1,6.524040699E-1
4.072083870E-1,1.527163107E-2,-7.293730974E-1,6.524040699E-1
4.091907710E-1,1.466076635E-2,-7.305948138E-1,6.548475623E-1
4.112055400E-1,1.282817032E-2,-7.342600226E-1,6.524040699E-1
4.131883870E-1,1.160643995E-2,-7.403686643E-1,6.542366743E-1
4.152028470E-1,1.038470957E-2,-7.458664775E-1,6.530149579E-1
4.171868470E-1,9.162978269E-3,-7.531968355E-1,6.511823535E-1
4.192013090E-1,8.552113548E-3,-7.629706860E-1,6.475171447E-1
4.211849240E-1,9.162978269E-3,-7.684684992E-1,6.450737119E-1
4.231982320E-1,6.108652335E-3,-7.788531780E-1,6.420193911E-1
4.252136160E-1,6.719517522E-3,-7.959573865E-1,6.401867867E-1
4.271978470E-1,6.719517522E-3,-8.038986921E-1,6.383541822E-1
4.292116920E-1,7.330383174E-3,-8.222246170E-1,6.346889734E-1
4.311945390E-1,6.108652335E-3,-8.295549750E-1,6.340781450E-1
4.332083850E-1,6.719517522E-3,-8.497135639E-1,6.316346526E-1
4.351917690E-1,7.330383174E-3,-8.692612648E-1,6.304129362E-1
4.372062310E-1,5.497787148E-3,-8.790351152E-1,6.291912198E-1
4.391902310E-1,6.108652335E-3,-9.010262489E-1,6.243042946E-1
4.412040000E-1,8.552113548E-3,-9.230173826E-1,6.224716902E-1
4.431883840E-1,8.552113548E-3,-9.327912331E-1,6.206390858E-1
4.452021530E-1,1.038470957E-2,-9.566149712E-1,6.194173694E-1
4.471861530E-1,1.954768784E-2,-9.804387093E-1,6.126978397E-1
4.491996910E-1,1.771509275E-2,-9.883799553E-1,6.108652353E-1
4.511834610E-1,2.138028294E-2,-1.007316828E0,6.078109145E-1
4.531975380E-1,2.871066704E-2,-1.025642753E0,6.041457057E-1
4.552129220E-1,3.298672289E-2,-1.032362223E0,6.029239893E-1
4.571960750E-1,3.909537569E-2,-1.044579625E0,5.986479521E-1
4.592086140E-1,4.092797264E-2,-1.048855662E0,5.962044597E-1
4.611929980E-1,4.520402849E-2,-1.056185961E0,5.943718553E-1
4.632071520E-1,4.948008433E-2,-1.062294602E0,5.894849896E-1
4.651908440E-1,5.009094998E-2,-1.065348983E0,5.864306092E-1
4.672052290E-1,5.375614017E-2,-1.069625020E0,5.858197808E-1
4.691889210E-1,5.619960278E-2,-1.070846796E0,5.803219676E-1
4.712031510E-1,5.803219974E-2,-1.071457624E0,5.821545720E-1
4.731870740E-1,6.536258012E-2,-1.070235968E0,5.809328556E-1
4.752006890E-1,6.841690838E-2,-1.066570759E0,5.809328556E-1
4.771849970E-1,7.208210230E-2,-1.066570759E0,5.809328556E-1
4.791984590E-1,8.002334833E-2,-1.062905550E0,5.815436840E-1
4.811824590E-1,8.552113175E-2,-1.057407737E0,5.797111392E-1
4.831960740E-1,8.857546002E-2,-1.051909924E0,5.821545720E-1
4.852108420E-1,9.468411654E-2,-1.043357849E0,5.809328556E-1
4.871942270E-1,1.007927656E-1,-1.037249207E0,5.827654600E-1
4.892083040E-1,1.020144969E-1,-1.032362223E0,5.803219676E-1
4.911923810E-1,1.099557430E-1,-1.023199320E0,5.803219676E-1
4.932053040E-1,1.136209369E-1,-1.017701507E0,5.809328556E-1
4.951893040E-1,1.172861308E-1,-1.009760261E0,5.791002512E-1
4.972043810E-1,1.246165112E-1,-1.000597239E0,5.778785348E-1
4.991879950E-1,1.270599663E-1,-9.975429177E-1,5.742133260E-1
5.012016110E-1,1.319468915E-1,-9.908234477E-1,5.723807216E-1
5.031849180E-1,1.392772794E-1,-9.859365225E-1,5.687155724E-1
5.051993800E-1,1.398881376E-1,-9.828822017E-1,5.681046844E-1
5.071840720E-1,1.453859210E-1,-9.816604257E-1,5.638286471E-1
5.091972260E-1,1.521054506E-1,-9.853256345E-1,5.583308339E-1
5.112110720E-1,1.514945775E-1,-9.841039181E-1,5.540547967E-1
5.131959940E-1,1.551597714E-1,-9.902125597E-1,5.497786999E-1
5.152098400E-1,1.618792862E-1,-9.957103729E-1,5.436700583E-1
5.171932250E-1,1.618792862E-1,-9.993755221E-1,5.424483418E-1
5.192073790E-1,1.679879427E-1,-1.009149432E0,5.345070958E-1
5.211904560E-1,1.685988009E-1,-1.018312335E0,5.308418870E-1
5.232055330E-1,1.685988009E-1,-1.031140566E0,5.265658498E-1
5.251880710E-1,1.692096740E-1,-1.043968678E0,5.167919993E-1
5.272036860E-1,1.704314053E-1,-1.052520871E0,5.143485069E-1
5.291862240E-1,1.716531366E-1,-1.070846796E0,5.070181489E-1
5.312006090E-1,1.679879427E-1,-1.089783549E0,5.051855445E-1
5.331833780E-1,1.673770845E-1,-1.098335743E0,4.996877611E-1
5.351979160E-1,1.667662114E-1,-1.116050839E0,4.966334403E-1
5.372123010E-1,1.624901593E-1,-1.134987593E0,4.948008358E-1
5.391969160E-1,1.600466967E-1,-1.144761443E0,4.923573732E-1
5.412107620E-1,1.569923609E-1,-1.161865711E0,4.905247986E-1
5.431941460E-1,1.514945775E-1,-1.179580808E0,4.917465150E-1
5.452086080E-1,1.502728462E-1,-1.191798091E0,4.923573732E-1
5.471923770E-1,1.453859210E-1,-1.209513187E0,4.941899776E-1
5.492067620E-1,1.411098689E-1,-1.230282545E0,4.972442985E-1
5.511893000E-1,1.392772794E-1,-1.237002134E0,4.996877611E-1
5.532033770E-1,1.337794960E-1,-1.254106402E0,5.039638281E-1
5.551865300E-1,1.319468915E-1,-1.265712738E0,5.070181489E-1
5.572012990E-1,1.282816976E-1,-1.281595230E0,5.137376785E-1
5.591846840E-1,1.258382350E-1,-1.297477722E0,5.186246037E-1
5.611993760E-1,1.209513173E-1,-1.304808140E0,5.229006410E-1
5.631827610E-1,1.185078546E-1,-1.323134065E0,5.290092826E-1
5.651975300E-1,1.172861308E-1,-1.339627504E0,5.369505286E-1
5.672114530E-1,1.142318025E-1,-1.352455616E0,5.400048494E-1
5.691947600E-1,1.105666086E-1,-1.370781660E0,5.436700583E-1
5.712086830E-1,1.087340117E-1,-1.388496757E0,5.528330207E-1
5.731920670E-1,1.087340117E-1,-1.399492264E0,5.552765131E-1
5.752067600E-1,1.087340117E-1,-1.422094345E0,5.607742667E-1
5.771910670E-1,1.099557430E-1,-1.445307136E0,5.656611919E-1
5.792042980E-1,1.099557430E-1,-1.457524419E0,5.662720799E-1
5.811883750E-1,1.136209369E-1,-1.482569933E0,5.711590052E-1
5.832018360E-1,1.148426682E-1,-1.507004619E0,5.772676468E-1
5.851856050E-1,1.191187203E-1,-1.521054506E0,5.803219676E-1
5.872006820E-1,1.209513173E-1,-1.548543453E0,5.845980644E-1
5.891840660E-1,1.209513173E-1,-1.561982393E0,5.845980644E-1
5.911976050E-1,1.240056455E-1,-1.591303945E0,5.907067060E-1
5.932129890E-1,1.276708394E-1,-1.623679876E0,5.962044597E-1
5.951956820E-1,1.288925707E-1,-1.637118816E0,5.986479521E-1
5.972098350E-1,1.331686229E-1,-1.668272972E0,6.065891981E-1
5.991941420E-1,1.398881376E-1,-1.700037956E0,6.157521605E-1
6.012070650E-1,1.411098689E-1,-1.714698792E0,6.206390858E-1
6.031914500E-1,1.453859210E-1,-1.745242000E0,6.267477274E-1
6.052052190E-1,1.514945775E-1,-1.780061364E0,6.359107494E-1
6.071898350E-1,1.576032341E-1,-1.798998117E0,6.426302195E-1
6.092034500E-1,1.612684280E-1,-1.831374049E0,6.481280327E-1
6.111867570E-1,1.679879427E-1,-1.861306429E0,6.585127115E-1
6.131988340E-1,1.716531366E-1,-1.880243182E0,6.633996367E-1
6.151840640E-1,1.759291887E-1,-1.910786510E0,6.725626588E-1
6.171993720E-1,1.838704348E-1,-1.944994926E0,6.823364496E-1
6.191827570E-1,1.850921661E-1,-1.960877419E0,6.878342628E-1
6.211969880E-1,1.887573600E-1,-1.989588141E0,6.963863969E-1
6.232108340E-1,1.912008226E-1,-2.004248857E0,7.024950385E-1
6.251948330E-1,1.991420686E-1,-2.033570290E0,7.141014934E-1
6.272098330E-1,2.040289938E-1,-2.065946341E0,7.257078886E-1
6.291929100E-1,2.040289938E-1,-2.077552795E0,7.293730974E-1
6.312062170E-1,2.089159191E-1,-2.105652571E0,7.415903807E-1
6.331908330E-1,2.131919712E-1,-2.137417555E0,7.568620443E-1
6.352046020E-1,2.144137025E-1,-2.150856495E0,7.611380816E-1
6.371880630E-1,2.174680233E-1,-2.181399822E0,7.739662528E-1
6.392016010E-1,2.217440903E-1,-2.210110426E0,7.855727077E-1
6.411861390E-1,2.229658216E-1,-2.229047298E0,7.922922373E-1
6.432003700E-1,2.247984111E-1,-2.257147074E0,8.075638413E-1
6.451836780E-1,2.260201424E-1,-2.291966438E0,8.191702962E-1
6.471985240E-1,2.266310006E-1,-2.306016207E0,8.271115422E-1
6.492122930E-1,2.266310006E-1,-2.338392258E0,8.374962807E-1
6.511956780E-1,2.272418737E-1,-2.370768070E0,8.527678847E-1
6.532089850E-1,2.272418737E-1,-2.387872219E0,8.576548100E-1
6.551939080E-1,2.296853364E-1,-2.425135136E0,8.710938692E-1
6.572083690E-1,2.272418737E-1,-2.441628456E0,8.765916228E-1
6.591907540E-1,2.284636050E-1,-2.478280306E0,8.881980777E-1
6.612052920E-1,2.302961946E-1,-2.516764879E0,9.004153609E-1
6.631883690E-1,2.309070677E-1,-2.535090685E0,9.053022861E-1
6.652028310E-1,2.327396572E-1,-2.569910049E0,9.132435322E-1
6.671873680E-1,2.333505303E-1,-2.601064205E0,9.217956662E-1
6.692009070E-1,2.345722616E-1,-2.617557526E0,9.260717034E-1
6.711849070E-1,2.333505303E-1,-2.645046473E0,9.291260242E-1
6.731987530E-1,2.315179259E-1,-2.667648554E0,9.358455539E-1
6.751827530E-1,2.302961946E-1,-2.679865837E0,9.370672703E-1
6.771966760E-1,2.290744632E-1,-2.697580814E0,9.401215911E-1
6.792110610E-1,2.272418737E-1,-2.712852478E0,9.431759119E-1
6.811944440E-1,2.272418737E-1,-2.721404552E0,9.450085163E-1
6.832083670E-1,2.272418737E-1,-2.736065388E0,9.431759119E-1
6.851922900E-1,2.266310006E-1,-2.740952253E0,9.437867999E-1
6.872073670E-1,2.254092693E-1,-2.752558708E0,9.401215911E-1
6.891904440E-1,2.235766798E-1,-2.759278297E0,9.364564419E-1
6.912043670E-1,2.223549485E-1,-2.764165163E0,9.352346659E-1
6.931870600E-1,2.217440903E-1,-2.770884752E0,9.309586287E-1
6.952015970E-1,2.211332172E-1,-2.773939133E0,9.272934198E-1
6.971855970E-1,2.217440903E-1,-2.773939133E0,9.224064946E-1
6.991991360E-1,2.235766798E-1,-2.773939133E0,9.211847782E-1
7.011828280E-1,2.223549485E-1,-2.775160789E0,9.187413454E-1
7.031975200E-1,2.235766798E-1,-2.770884752E0,9.175195694E-1
7.052116740E-1,2.254092693E-1,-2.762332678E0,9.156870246E-1
7.071960590E-1,2.272418737E-1,-2.755613089E0,9.138544202E-1
7.092092880E-1,2.278527319E-1,-2.747061014E0,9.126327038E-1
7.111932120E-1,2.247984111E-1,-2.737287045E0,9.126327038E-1
7.132073650E-1,2.284636050E-1,-2.725680828E0,9.162978530E-1
7.151911350E-1,2.315179259E-1,-2.720182896E0,9.175195694E-1
7.172046730E-1,2.321287990E-1,-2.709798336E0,9.187413454E-1
7.191885960E-1,2.339613885E-1,-2.703689575E0,9.199630618E-1
7.212022120E-1,2.376265824E-1,-2.694526672E0,9.242390990E-1
7.231865180E-1,2.400700450E-1,-2.687196255E0,9.260717034E-1
7.252002870E-1,2.412917763E-1,-2.682920218E0,9.303477407E-1
7.271849800E-1,2.455678284E-1,-2.676811457E0,9.334021211E-1
7.291987490E-1,2.504547536E-1,-2.674978971E0,9.388998747E-1
7.311819030E-1,2.559525371E-1,-2.675589800E0,9.413433671E-1
7.331962870E-1,2.651155293E-1,-2.672535419E0,9.443976879E-1
7.352107490E-1,2.736676335E-1,-2.676200628E0,9.498954415E-1
7.371944400E-1,2.779437006E-1,-2.678644180E0,9.498954415E-1
7.392073630E-1,2.871066630E-1,-2.680476665E0,9.541715384E-1
7.411923630E-1,2.919935882E-1,-2.692083120E0,9.608910084E-1
7.432055170E-1,2.956587672E-1,-2.696359158E0,9.602801800E-1
7.451895170E-1,3.042109013E-1,-2.707965612E0,9.657779336E-1
7.472045940E-1,3.133738637E-1,-2.723237276E0,9.688322544E-1
7.491873630E-1,3.176499307E-1,-2.729956865E0,9.718865752E-1
7.512018240E-1,3.268128932E-1,-2.748282671E0,9.767735004E-1
7.531855930E-1,3.323107064E-1,-2.759889126E0,9.804387093E-1
7.551996700E-1,3.420845270E-1,-2.780047655E0,9.822713137E-1
7.571834390E-1,3.488040566E-1,-2.804482222E0,9.847147465E-1
7.591965930E-1,3.549126983E-1,-2.816699743E0,9.914342761E-1
7.612116700E-1,3.604104817E-1,-2.840523481E0,9.932668805E-1
7.631953620E-1,3.671300113E-1,-2.868623257E0,9.999864101E-1
7.652086690E-1,3.707951903E-1,-2.882673025E0,1.006095052E0
7.671932850E-1,3.775147200E-1,-2.910772800E0,1.009760261E0
7.692073620E-1,3.830125034E-1,-2.939483643E0,1.016479731E0
7.711910540E-1,3.872885704E-1,-2.954144239E0,1.020144939E0
7.732043620E-1,3.933972120E-1,-2.981633186E0,1.026864529E0
7.751874380E-1,4.001167417E-1,-3.014009237E0,1.036638379E0
7.772027460E-1,4.019493461E-1,-3.027448177E0,1.040303469E0
7.791858220E-1,4.080579877E-1,-3.059823990E0,1.048244715E0
7.812012070E-1,4.129449129E-1,-3.090367317E0,1.058629513E0
7.831839760E-1,4.141666293E-1,-3.105638981E0,1.062905550E0
7.851984370E-1,4.166100919E-1,-3.134960413E0,1.070846796E0
7.871837450E-1,4.184426963E-1,-3.148399591E0,1.077566266E0
7.891965910E-1,4.214970171E-1,-3.177721024E0,1.083064079E0
7.912098990E-1,4.227187634E-1,-3.207653284E0,1.094670534E0
7.931938980E-1,4.251621962E-1,-3.221092463E0,1.097113967E0
7.952085900E-1,4.251621962E-1,-3.249192238E0,1.109942198E0
7.971914360E-1,4.263839424E-1,-3.278513670E0,1.117272496E0
7.992055130E-1,4.269948006E-1,-3.295007229E0,1.121548533E0
8.011895130E-1,4.294382632E-1,-3.324939489E0,1.131322384E0
8.032030520E-1,4.257730842E-1,-3.355482817E0,1.136209369E0
8.051868210E-1,4.282165468E-1,-3.372586966E0,1.144150615E0
8.072018200E-1,4.269948006E-1,-3.408017159E0,1.149648428E0
8.091852820E-1,4.245513380E-1,-3.444669008E0,1.157589674E0
8.111991280E-1,4.214970171E-1,-3.462995052E0,1.161865711E0
8.131827430E-1,4.233296216E-1,-3.502701283E0,1.169806957E0
8.151966660E-1,4.257730842E-1,-3.546072721E0,1.175915599E0
8.172114360E-1,4.282165468E-1,-3.565620422E0,1.179580808E0
8.191944360E-1,4.404338300E-1,-3.605326653E0,1.180802464E0
8.212089730E-1,4.508185387E-1,-3.624263525E0,1.180191636E0
8.231923580E-1,4.697553813E-1,-3.659693718E0,1.177137375E0
8.252065110E-1,4.862487316E-1,-3.690847874E0,1.171639562E0
8.271911270E-1,4.954117239E-1,-3.707952023E0,1.169196129E0
8.292045880E-1,5.094616413E-1,-3.728110552E0,1.156978726E0
8.311882810E-1,5.229006410E-1,-3.742771387E0,1.144150615E0
8.332028190E-1,5.283984542E-1,-3.746436596E0,1.139263630E0
8.351865110E-1,5.393940210E-1,-3.747047424E0,1.127046347E0
8.372003570E-1,5.485569835E-1,-3.737884521E0,1.112996459E0
8.391833570E-1,5.534439087E-1,-3.730554104E0,1.108720422E0
8.411978950E-1,5.632177591E-1,-3.713449717E0,1.103222609E0
8.432123570E-1,5.723807216E-1,-3.691458702E0,1.094059706E0
8.451948180E-1,5.791002512E-1,-3.679241419E0,1.092837930E0
8.472108180E-1,5.876523852E-1,-3.650530815E0,1.090394497E0
8.491944330E-1,5.943718553E-1,-3.634037256E0,1.089172721E0
8.512082790E-1,6.053674817E-1,-3.602883101E0,1.089172721E0
8.531904330E-1,6.120869517E-1,-3.568063974E0,1.092837930E0
8.552052020E-1,6.126978397E-1,-3.547905445E0,1.092227101E0
8.571898170E-1,6.194173694E-1,-3.506977320E0,1.097724795E0
8.592031250E-1,6.200281978E-1,-3.466660261E0,1.099557400E0
8.611873560E-1,6.181956530E-1,-3.440392971E0,1.102000952E0
8.632006620E-1,6.206390858E-1,-3.393967390E0,1.106276989E0
8.651846620E-1,6.218608022E-1,-3.343265533E0,1.111774802E0
8.672002780E-1,6.212499738E-1,-3.316387415E0,1.114829063E0
8.691827390E-1,6.230825782E-1,-3.265074730E0,1.118494272E0
8.711968930E-1,6.224716902E-1,-3.210707664E0,1.120326877E0
8.732116620E-1,6.218608022E-1,-3.183829546E0,1.121548533E0
8.751945090E-1,6.249151230E-1,-3.131295204E0,1.120326877E0
8.772095080E-1,6.230825782E-1,-3.077539206E0,1.117883444E0
8.791923540E-1,6.224716902E-1,-3.053104401E0,1.116661668E0
8.812068150E-1,6.200281978E-1,-2.999959230E0,1.109942198E0
8.831901230E-1,6.188064814E-1,-2.973081112E0,1.104444385E0
8.852045850E-1,6.157521605E-1,-2.924211979E0,1.096503139E0
8.871886610E-1,6.126978397E-1,-2.877175331E0,1.086118460E0
8.892022000E-1,6.090326309E-1,-2.854573250E0,1.078788042E0
8.911858140E-1,6.059783101E-1,-2.811201811E0,1.067792416E0
8.931996600E-1,5.986479521E-1,-2.770884752E0,1.054964304E0
8.951851990E-1,5.955936313E-1,-2.750726223E0,1.047023058E0
8.971978140E-1,5.907067060E-1,-2.720182896E0,1.035416603E0
8.992110450E-1,5.852088928E-1,-2.687807083E0,1.023810148E0
9.011957370E-1,5.803219676E-1,-2.675589800E0,1.018312335E0
9.032095840E-1,5.760459304E-1,-2.651766062E0,1.007927656E0
9.051932750E-1,5.717698932E-1,-2.628553152E0,9.987646937E-1
9.072080440E-1,5.711590052E-1,-2.620001078E0,9.950994849E-1
9.091908130E-1,5.711590052E-1,-2.601064205E0,9.877691269E-1
9.112048900E-1,5.711590052E-1,-2.585792542E0,9.761626720E-1
9.131891980E-1,5.711590052E-1,-2.579684019E0,9.743300676E-1
9.152030440E-1,5.717698932E-1,-2.567466736E0,9.663888216E-1
9.171864290E-1,5.711590052E-1,-2.562579632E0,9.627236128E-1
9.192006590E-1,5.668829679E-1,-2.546697140E0,9.529497623E-1
9.211852740E-1,5.632177591E-1,-2.538145065E0,9.443976879E-1
9.231988120E-1,5.626068711E-1,-2.535090685E0,9.413433671E-1
9.251824280E-1,5.638286471E-1,-2.525927782E0,9.340129495E-1
9.271975050E-1,5.656611919E-1,-2.519208193E0,9.285151958E-1
9.292105050E-1,5.638286471E-1,-2.513710499E0,9.236282706E-1
9.311953510E-1,5.687155724E-1,-2.505769253E0,9.156870246E-1
9.332079650E-1,5.705481172E-1,-2.496606350E0,9.071348906E-1
9.351920420E-1,5.736024380E-1,-2.489275932E0,9.028588533E-1
9.372067350E-1,5.705481172E-1,-2.477669477E0,8.949176073E-1
9.391898110E-1,5.674937963E-1,-2.460565090E0,8.851437569E-1
9.412040420E-1,5.662720799E-1,-2.450791359E0,8.796459436E-1
9.431879650E-1,5.638286471E-1,-2.429411173E0,8.710938692E-1
9.452012730E-1,5.583308339E-1,-2.401922226E0,8.600982428E-1
9.471871180E-1,5.552765131E-1,-2.387261391E0,8.558222055E-1
9.491997340E-1,5.540547967E-1,-2.354274750E0,8.484918475E-1
9.511834260E-1,5.497786999E-1,-2.339613914E0,8.466592431E-1
9.531981950E-1,5.467243791E-1,-2.297464132E0,8.405506015E-1
9.552116570E-1,5.412266254E-1,-2.257757902E0,8.326093554E-1
9.571953490E-1,5.393940210E-1,-2.233934164E0,8.289441466E-1
9.592095800E-1,5.326744914E-1,-2.188730240E0,8.246681094E-1
9.611932710E-1,5.271766782E-1,-2.141082764E0,8.167268038E-1
9.632074250E-1,5.229006410E-1,-2.120313168E0,8.173376918E-1
9.651913480E-1,5.137376785E-1,-2.069000483E0,8.100073338E-1
9.672058100E-1,5.076290369E-1,-2.017687798E0,8.032878041E-1
9.691891940E-1,5.045747161E-1,-1.993864179E0,8.008443117E-1
9.712027330E-1,4.960225821E-1,-1.940108061E0,7.965682745E-1
9.731861170E-1,4.874704778E-1,-1.886351824E0,7.916813493E-1
9.752011930E-1,4.819726646E-1,-1.857641220E0,7.861835957E-1
9.771845780E-1,4.734205604E-1,-1.804495931E0,7.806857824E-1
9.791978850E-1,4.648684561E-1,-1.748907208E0,7.788531780E-1
9.812125780E-1,4.618141353E-1,-1.720196486E0,7.721336484E-1
9.831962700E-1,4.514294267E-1,-1.664607763E0,7.672467232E-1
9.852098850E-1,4.483750761E-1,-1.637729764E0,7.635815740E-1
9.871956550E-1,4.373795092E-1,-1.583973527E0,7.586946487E-1
9.892080380E-1,4.276056588E-1,-1.530217409E0,7.538077235E-1
9.911917310E-1,4.208861589E-1,-1.506393671E0,7.483099103E-1
9.932064230E-1,4.105014503E-1,-1.458135366E0,7.434229851E-1
9.951901150E-1,3.964515328E-1,-1.410487890E0,7.367035151E-1
9.972037310E-1,3.921754956E-1,-1.387274981E0,7.318165898E-1
9.991877310E-1,3.781255782E-1,-1.347568750E0,7.281513810E-1
1.001201577E0,3.646865487E-1,-1.310916781E0,7.257078886E-1
1.003185268E0,3.561344445E-1,-1.291369081E0,7.208209634E-1
1.005199730E0,3.408628106E-1,-1.262658477E0,7.177666426E-1
1.007184037E0,3.274237812E-1,-1.240056396E0,7.128797174E-1
1.009197499E0,3.225368559E-1,-1.229671717E0,7.116580009E-1
1.011211422E0,3.072652221E-1,-1.213178396E0,7.086036801E-1
1.013195114E0,2.993239760E-1,-1.204626322E0,7.055493593E-1
1.015208653E0,2.852740586E-1,-1.200350165E0,7.031059265E-1
1.017193190E0,2.748893499E-1,-1.194241524E0,6.982190013E-1
1.019206729E0,2.681698501E-1,-1.195463300E0,6.969972253E-1
1.021190190E0,2.571742535E-1,-1.199739337E0,6.939429045E-1
1.023204883E0,2.461786866E-1,-1.209513187E0,6.896668673E-1
1.025189267E0,2.388483137E-1,-1.216232657E0,6.878342628E-1
1.027203421E0,2.290744632E-1,-1.230893493E0,6.823364496E-1
1.029186806E0,2.241875380E-1,-1.249830246E0,6.786713004E-1
1.031200959E0,2.235766798E-1,-1.262658477E0,6.786713004E-1
1.033184882E0,2.296853364E-1,-1.284649611E0,6.743952036E-1
1.035198805E0,2.388483137E-1,-1.307251573E0,6.658431292E-1
1.037182189E0,2.449569702E-1,-1.318247199E0,6.621779203E-1
1.039196035E0,2.547308207E-1,-1.343903542E0,6.530149579E-1
1.041210420E0,2.602286041E-1,-1.365894675E0,6.414085031E-1
1.043193266E0,2.638937831E-1,-1.374446750E0,6.346889734E-1
1.045207419E0,2.657263875E-1,-1.394605398E0,6.243042946E-1
1.047192650E0,2.681698501E-1,-1.400103092E0,6.169738770E-1
1.049206188E0,2.712241709E-1,-1.417207360E0,6.053674817E-1
1.051189188E0,2.742784917E-1,-1.430035591E0,5.955936313E-1
1.053203111E0,2.748893499E-1,-1.435533285E0,5.900958180E-1
1.055187650E0,2.785545588E-1,-1.445307136E0,5.821545720E-1
1.057202419E0,2.840523422E-1,-1.456913590E0,5.754350424E-1
1.059184649E0,2.840523422E-1,-1.459967971E0,5.705481172E-1
1.061199034E0,2.864958048E-1,-1.468520045E0,5.662720799E-1
1.063183110E0,2.907718420E-1,-1.472796082E0,5.613851547E-1
1.065196880E0,2.919935882E-1,-1.475850463E0,5.607742667E-1
1.067211341E0,2.944370508E-1,-1.479515672E0,5.540547967E-1
1.069194495E0,2.932153046E-1,-1.478904724E0,5.491678715E-1
1.071209187E0,2.944370508E-1,-1.477683067E0,5.455026627E-1
1.073192956E0,2.938261926E-1,-1.472796082E0,5.424483418E-1
1.075207417E0,2.993239760E-1,-1.464244008E0,5.363397002E-1
1.077190109E0,3.011565804E-1,-1.456913590E0,5.326744914E-1
1.079204263E0,3.029891551E-1,-1.444696307E0,5.241223574E-1
1.081188879E0,3.066543639E-1,-1.439809442E0,5.204572082E-1
1.083202494E0,3.090978265E-1,-1.419039965E0,5.125159621E-1
1.085186109E0,3.133738637E-1,-1.399492264E0,5.100724697E-1
1.087200955E0,3.121521473E-1,-1.388496757E0,5.057964325E-1
1.089184032E0,3.145956099E-1,-1.364672899E0,4.954117239E-1
1.091198801E0,3.127630055E-1,-1.337794900E0,4.874704778E-1
1.093181262E0,3.133738637E-1,-1.323745012E0,4.850270152E-1
1.095194801E0,3.097086847E-1,-1.294423461E0,4.783074856E-1
1.097210416E0,3.060434759E-1,-1.263880134E0,4.734205604E-1
1.099193878E0,3.029891551E-1,-1.247997642E0,4.740314186E-1
1.101208031E0,3.005456924E-1,-1.217454433E0,4.679227769E-1
1.103191723E0,2.956587672E-1,-1.180802464E0,4.654793143E-1
1.105204877E0,2.950479090E-1,-1.166752577E0,4.636467099E-1
1.107189877E0,2.883284092E-1,-1.131933331E0,4.624249935E-1
1.109203646E0,2.791654170E-1,-1.097113967E0,4.618141353E-1
1.111187108E0,2.785545588E-1,-1.078788042E0,4.612032473E-1
1.113201492E0,2.681698501E-1,-1.045190454E0,4.624249935E-1
1.115184645E0,2.645046413E-1,-1.028086185E0,4.599815309E-1
1.117199107E0,2.547308207E-1,-9.938777685E-1,4.624249935E-1
1.119182107E0,2.455678284E-1,-9.596692920E-1,4.612032473E-1
1.121196876E0,2.412917763E-1,-9.425650835E-1,4.624249935E-1
1.123211414E0,2.302961946E-1,-9.114109278E-1,4.593706727E-1
1.125194491E0,2.199114859E-1,-8.802568316E-1,4.587597847E-1
1.127209260E0,2.138028294E-1,-8.668177724E-1,4.587597847E-1
1.129191952E0,2.009746730E-1,-8.405506015E-1,4.587597847E-1
1.131206413E0,1.930334121E-1,-8.148942590E-1,4.587597847E-1
1.133189875E0,1.912008226E-1,-8.026769161E-1,4.569272101E-1
1.135204875E0,1.777617931E-1,-7.819074988E-1,4.557054639E-1
1.137188259E0,1.704314053E-1,-7.654141784E-1,4.544837475E-1
1.139201875E0,1.649336219E-1,-7.580837607E-1,4.544837475E-1
1.141185183E0,1.600466967E-1,-7.458664775E-1,4.508185387E-1
1.143200028E0,1.551597714E-1,-7.397578359E-1,4.538728893E-1
1.145183335E0,1.478293836E-1,-7.305948138E-1,4.532620013E-1
1.147198489E0,1.447750628E-1,-7.281513810E-1,4.520402849E-1
1.149181566E0,1.435533315E-1,-7.250970602E-1,4.508185387E-1
1.151195412E0,1.423316002E-1,-7.269296646E-1,4.477642179E-1
1.153210489E0,1.362229437E-1,-7.312057018E-1,4.453207552E-1
1.155192951E0,1.368338168E-1,-7.360926270E-1,4.434881806E-1
1.157207104E0,1.325577646E-1,-7.464773059E-1,4.428772926E-1
1.159191642E0,1.313360333E-1,-7.605272532E-1,4.392121136E-1
1.161205258E0,1.313360333E-1,-7.684684992E-1,4.386012554E-1
1.163189181E0,1.264491081E-1,-7.867944241E-1,4.379903674E-1
1.165203642E0,1.270599663E-1,-8.118399382E-1,4.361577928E-1
1.167188334E0,1.252273768E-1,-8.258898258E-1,4.355469346E-1
1.169201181E0,1.270599663E-1,-8.539896011E-1,4.343251884E-1
1.171184641E0,1.270599663E-1,-8.833111525E-1,4.361577928E-1
1.173198795E0,1.301143020E-1,-8.998045325E-1,4.349360466E-1
1.175181872E0,1.319468915E-1,-9.358455539E-1,4.373795092E-1
1.177196872E0,1.374446750E-1,-9.547823668E-1,4.331034720E-1
1.179210795E0,1.472185254E-1,-9.889908433E-1,4.343251884E-1
1.181194103E0,1.569923609E-1,-1.024420977E0,4.355469346E-1
1.183208333E0,1.600466967E-1,-1.043357849E0,4.324925840E-1
1.185191948E0,1.667662114E-1,-1.076955438E0,4.318817258E-1
1.187207717E0,1.704314053E-1,-1.107498646E0,4.282165468E-1
1.189189794E0,1.728748679E-1,-1.125824690E0,4.269948006E-1
1.191204256E0,1.771509200E-1,-1.153313637E0,4.227187634E-1
1.193188563E0,1.826487035E-1,-1.178359032E0,4.208861589E-1
1.195202409E0,1.844813079E-1,-1.189354658E0,4.184426963E-1
1.197185486E0,1.863138974E-1,-1.212567568E0,4.129449129E-1
1.199199716E0,1.936442852E-1,-1.230893493E0,4.129449129E-1
1.201183101E0,1.973094791E-1,-1.237612963E0,4.123340547E-1
1.203198101E0,1.997529417E-1,-1.254717231E0,4.098905921E-1
1.205211947E0,2.046398520E-1,-1.265101910E0,4.086688459E-1
1.207195101E0,2.028072625E-1,-1.266934514E0,4.062253833E-1
1.209210101E0,2.034181207E-1,-1.272432327E0,4.074471295E-1
1.211192870E0,2.040289938E-1,-1.272432327E0,4.050036669E-1
1.213207407E0,2.028072625E-1,-1.273043156E0,4.043927789E-1
1.215191638E0,2.009746730E-1,-1.270599723E0,3.995058835E-1
1.217205254E0,2.015855312E-1,-1.265712738E0,4.025602043E-1
1.219188023E0,2.015855312E-1,-1.257771492E0,3.988949955E-1
1.221202715E0,1.973094791E-1,-1.241278172E0,3.970624208E-1
1.223186408E0,1.966986060E-1,-1.232726097E0,3.988949955E-1
1.225201484E0,1.985312104E-1,-1.218065262E0,3.933972120E-1
1.227184945E0,1.930334121E-1,-1.196074128E0,3.940080702E-1
1.229198714E0,1.942551434E-1,-1.185689449E0,3.921754956E-1
1.231182483E0,1.887573600E-1,-1.162476540E0,3.909537494E-1
1.233196868E0,1.863138974E-1,-1.136820197E0,3.872885704E-1
1.235210714E0,1.820378453E-1,-1.122159481E0,3.848451078E-1
1.237194099E0,1.808161139E-1,-1.098335743E0,3.830125034E-1
1.239208253E0,1.716531366E-1,-1.071457624E0,3.811798990E-1
1.241191021E0,1.692096740E-1,-1.056185961E0,3.799581826E-1
1.243206406E0,1.661553532E-1,-1.029918790E0,3.775147200E-1
1.245189790E0,1.612684280E-1,-1.015258074E0,3.756821156E-1
1.247204329E0,1.521054506E-1,-9.914342761E-1,3.714060783E-1
1.249188021E0,1.466076523E-1,-9.627236128E-1,3.714060783E-1
1.251201482E0,1.423316002E-1,-9.486737251E-1,3.701843321E-1
1.253184329E0,1.350012124E-1,-9.248499870E-1,3.689626157E-1
1.255198174E0,1.246165112E-1,-9.010262489E-1,3.665191531E-1
1.257183328E0,1.178969890E-1,-8.881980777E-1,3.646865487E-1
1.259196943E0,1.105666086E-1,-8.649851680E-1,3.640756905E-1
1.261211020E0,9.957103431E-2,-8.423831463E-1,3.628539443E-1
1.263195020E0,9.285151958E-2,-8.332201838E-1,3.634648323E-1
1.265209789E0,8.368854225E-2,-8.161159754E-1,3.610213697E-1
1.267194482E0,7.574728876E-2,-7.965682745E-1,3.597996235E-1
1.269207327E0,6.963863969E-2,-7.892379165E-1,3.591887653E-1
1.271190404E0,5.986479297E-2,-7.733554244E-1,3.579670191E-1
1.273205788E0,4.948008433E-2,-7.617489696E-1,3.555235863E-1
1.275188942E0,4.520402849E-2,-7.544185519E-1,3.561344445E-1
1.277202788E0,3.481931984E-2,-7.476990819E-1,3.543018401E-1
1.279186481E0,3.176499158E-2,-7.458664775E-1,3.543018401E-1
1.281200327E0,2.138028294E-2,-7.409795523E-1,3.536909819E-1
1.283184018E0,1.710422710E-2,-7.403686643E-1,3.524692357E-1
1.285197787E0,1.343903504E-2,-7.391469479E-1,3.524692357E-1
1.287213172E0,9.162978269E-3,-7.415903807E-1,3.506366611E-1
1.289196249E0,6.108652335E-3,-7.458664775E-1,3.481931984E-1
1.291210172E0,6.719517522E-3,-7.483099103E-1,3.451388776E-1
1.293193480E0,1.343903504E-2,-7.574729323E-1,3.433062732E-1
1.295208633E0,1.588249579E-2,-7.623597980E-1,3.408628106E-1
1.297192556E0,1.588249579E-2,-7.648032904E-1,3.378084898E-1
1.299205248E0,2.138028294E-2,-7.782423496E-1,3.335324228E-1
1.301189863E0,2.687807009E-2,-7.886270285E-1,3.268128932E-1
1.303203709E0,3.176499158E-2,-7.916813493E-1,3.207042515E-1
1.305187017E0,3.909537569E-2,-8.008443117E-1,3.133738637E-1
1.307202171E0,4.398229718E-2,-8.069530129E-1,3.090978265E-1
1.309185171E0,5.253441259E-2,-8.173376918E-1,3.017674387E-1
1.311199093E0,6.230825558E-2,-8.258898258E-1,2.907718420E-1
1.313183093E0,6.536258012E-2,-8.271115422E-1,2.871066630E-1
1.315196862E0,7.574728876E-2,-8.326093554E-1,2.773328125E-1
1.317211708E0,8.246681094E-2,-8.356636763E-1,2.663372457E-1
1.319194708E0,8.613199741E-2,-8.362745047E-1,2.632829249E-1
1.321209170E0,9.407325089E-2,-8.399397135E-1,2.547308207E-1
1.323192555E0,1.020144969E-1,-8.381071091E-1,2.449569702E-1
1.325207015E0,1.050688252E-1,-8.405506015E-1,2.406809032E-1
1.327191092E0,1.105666086E-1,-8.356636763E-1,2.351831198E-1
1.329205554E0,1.178969890E-1,-8.332201838E-1,2.284636050E-1
1.331188938E0,1.191187203E-1,-8.338310719E-1,2.260201424E-1
1.333201554E0,1.221730486E-1,-8.295549750E-1,2.235766798E-1
1.335185246E0,1.264491081E-1,-8.246681094E-1,2.211332172E-1
1.337200631E0,1.276708394E-1,-8.197811842E-1,2.199114859E-1
1.339183706E0,1.295034289E-1,-8.124507666E-1,2.205223590E-1
1.341198168E0,1.301143020E-1,-8.075638413E-1,2.186897546E-1
1.343211706E0,1.325577646E-1,-7.977899909E-1,2.186897546E-1
1.345195706E0,1.356120855E-1,-7.874053121E-1,2.193006277E-1
1.347211091E0,1.356120855E-1,-7.800748944E-1,2.174680233E-1
1.349193860E0,1.362229437E-1,-7.641924024E-1,2.229658216E-1
1.351207322E0,1.392772794E-1,-7.476990819E-1,2.260201424E-1
1.353192321E0,1.392772794E-1,-7.391469479E-1,2.266310006E-1
1.355206090E0,1.386664063E-1,-7.202101350E-1,2.296853364E-1
1.357188321E0,1.411098689E-1,-7.000515461E-1,2.284636050E-1
1.359203013E0,1.417207420E-1,-6.878342628E-1,2.309070677E-1
1.361187321E0,1.411098689E-1,-6.682865620E-1,2.321287990E-1
1.363200859E0,1.417207420E-1,-6.432411075E-1,2.333505303E-1
1.365184629E0,1.417207420E-1,-6.352998614E-1,2.345722616E-1
1.367199706E0,1.392772794E-1,-6.139195561E-1,2.357939780E-1
1.369182397E0,1.411098689E-1,-5.937610269E-1,2.382374406E-1
1.371196320E0,1.398881376E-1,-5.821545720E-1,2.406809032E-1
1.373210474E0,1.404990107E-1,-5.632177591E-1,2.406809032E-1
1.375195089E0,1.417207420E-1,-5.552765131E-1,2.382374406E-1
1.377209474E0,1.429424733E-1,-5.357288122E-1,2.388483137E-1
1.379191397E0,1.435533315E-1,-5.210680366E-1,2.382374406E-1
1.381207089E0,1.417207420E-1,-5.143485069E-1,2.394591719E-1
1.383191011E0,1.411098689E-1,-4.978551865E-1,2.351831198E-1
1.385204627E0,1.404990107E-1,-4.874704778E-1,2.327396572E-1
1.387189165E0,1.423316002E-1,-4.801400900E-1,2.321287990E-1
1.389202396E0,1.417207420E-1,-4.721988440E-1,2.309070677E-1
1.391186165E0,1.447750628E-1,-4.624249935E-1,2.272418737E-1
1.393199627E0,1.459967941E-1,-4.581489265E-1,2.266310006E-1
1.395183627E0,1.478293836E-1,-4.508185387E-1,2.235766798E-1
1.397197549E0,1.453859210E-1,-4.495968223E-1,2.193006277E-1
1.399211933E0,1.466076523E-1,-4.471533597E-1,2.150245607E-1
1.401195933E0,1.478293836E-1,-4.508185387E-1,2.138028294E-1
1.403210164E0,1.466076523E-1,-4.526511431E-1,2.070833147E-1
1.405193549E0,1.484402567E-1,-4.557054639E-1,2.021963894E-1
1.407208010E0,1.490511149E-1,-4.605923891E-1,1.997529417E-1
1.409191318E0,1.508837193E-1,-4.648684561E-1,1.991420686E-1
1.411205548E0,1.484402567E-1,-4.709770977E-1,1.918116808E-1
1.413188548E0,1.521054506E-1,-4.831944108E-1,1.887573600E-1
1.415202779E0,1.502728462E-1,-4.874704778E-1,1.850921661E-1
1.417186779E0,1.484402567E-1,-4.990769029E-1,1.802052408E-1
1.419200317E0,1.484402567E-1,-5.119050741E-1,1.765400618E-1
1.421185240E0,1.490511149E-1,-5.174028873E-1,1.753183305E-1
1.423198394E0,1.478293836E-1,-5.302310586E-1,1.704314053E-1
1.425212931E0,1.478293836E-1,-5.448917747E-1,1.667662114E-1
1.427198393E0,1.484402567E-1,-5.522221923E-1,1.649336219E-1
1.429211316E0,1.472185254E-1,-5.650503635E-1,1.606575549E-1
1.431194470E0,1.453859210E-1,-5.778785348E-1,1.563815027E-1
1.433209162E0,1.435533315E-1,-5.833762884E-1,1.563815027E-1
1.435192239E0,1.435533315E-1,-5.974262357E-1,1.496619880E-1
1.437206393E0,1.411098689E-1,-6.096435189E-1,1.484402567E-1
1.439190161E0,1.404990107E-1,-6.157521605E-1,1.466076523E-1
1.441204238E0,1.374446750E-1,-6.267477274E-1,1.429424733E-1
1.443188007E0,1.374446750E-1,-6.328563690E-1,1.417207420E-1
1.445201161E0,1.337794960E-1,-6.444628239E-1,1.356120855E-1
1.447185854E0,1.343903542E-1,-6.560692787E-1,1.325577646E-1
1.449200623E0,1.337794960E-1,-6.603453159E-1,1.331686229E-1
1.451183392E0,1.319468915E-1,-6.658431292E-1,1.313360333E-1
1.453197237E0,1.331686229E-1,-6.774495840E-1,1.288925707E-1
1.455211930E0,1.337794960E-1,-6.823364496E-1,1.258382350E-1
1.457196545E0,1.350012124E-1,-6.866125464E-1,1.215621829E-1
1.459208930E0,1.374446750E-1,-6.927211881E-1,1.154535338E-1
1.461193853E0,1.386664063E-1,-6.927211881E-1,1.142318025E-1
1.463207083E0,1.441642046E-1,-6.939429045E-1,1.117883399E-1
1.465190468E0,1.459967941E-1,-6.945537925E-1,1.111774743E-1
1.467205852E0,1.453859210E-1,-6.945537925E-1,1.081231460E-1
1.469188852E0,1.411098689E-1,-6.902777553E-1,1.026253626E-1
1.471203313E0,1.429424733E-1,-6.853908300E-1,1.014036313E-1
1.473187082E0,1.411098689E-1,-6.829473376E-1,9.651670605E-2
1.475200544E0,1.423316002E-1,-6.762278080E-1,9.407325089E-2
1.477184621E0,1.411098689E-1,-6.719517708E-1,9.101892263E-2
1.479198467E0,1.380555481E-1,-6.658431292E-1,9.040805697E-2
1.481182389E0,1.411098689E-1,-6.572909951E-1,8.735372871E-2
1.483196005E0,1.398881376E-1,-6.517932415E-1,8.613199741E-2
1.485209235E0,1.380555481E-1,-6.420193911E-1,8.552113175E-2
1.487195620E0,1.386664063E-1,-6.316346526E-1,8.491026610E-2
1.489208312E0,1.368338168E-1,-6.267477274E-1,8.307767659E-2
1.491192005E0,1.362229437E-1,-6.181956530E-1,8.002334833E-2
1.493205466E0,1.362229437E-1,-6.096435189E-1,7.757988572E-2
1.495190080E0,1.337794960E-1,-6.053674817E-1,7.574728876E-2
1.497203080E0,1.319468915E-1,-5.937610269E-1,7.574728876E-2
1.499187388E0,1.295034289E-1,-5.876523852E-1,7.269296050E-2
1.501201234E0,1.258382350E-1,-5.815436840E-1,6.841690838E-2
1.503185542E0,1.246165112E-1,-5.705481172E-1,6.719517708E-2
1.505200234E0,1.215621829E-1,-5.687155724E-1,6.536258012E-2
1.507184004E0,1.172861308E-1,-5.601634383E-1,6.108652428E-2
1.509198079E0,1.191187203E-1,-5.528330207E-1,5.558873713E-2
1.511211080E0,1.123992056E-1,-5.467243791E-1,5.742133409E-2
1.513196003E0,1.123992056E-1,-5.406157374E-1,5.253441259E-2
1.515209849E0,1.081231460E-1,-5.302310586E-1,5.009094998E-2
1.517192618E0,1.044579595E-1,-5.259549618E-1,4.703662544E-2
1.519206464E0,9.896016866E-2,-5.192354321E-1,4.520402849E-2
1.521190156E0,9.529497474E-2,-5.100724697E-1,4.031710699E-2
1.523204925E0,9.224065393E-2,-5.064072609E-1,3.970624134E-2
1.525188309E0,8.674286306E-2,-4.996877611E-1,3.543018550E-2
1.527203617E0,7.819075137E-2,-4.935791194E-1,3.054326214E-2
1.529186386E0,7.819075137E-2,-4.893030524E-1,2.932153270E-2
1.531200002E0,7.024950534E-2,-4.831944108E-1,2.626720630E-2
1.533183694E0,6.291911751E-2,-4.758640230E-1,2.382374369E-2
1.535198386E0,5.864306539E-2,-4.734205604E-1,2.199114859E-2
1.537182078E0,5.070181563E-2,-4.685336351E-1,1.893682219E-2
1.539195693E0,4.581489414E-2,-4.654793143E-1,1.527163107E-2
1.541210078E0,3.726277873E-2,-4.569272101E-1,1.160643995E-2
1.543194078E0,2.871066704E-2,-4.520402849E-1,8.552113548E-3
1.545208231E0,2.504547499E-2,-4.495968223E-1,8.552113548E-3
1.547192847E0,1.466076635E-2,-4.453207552E-1,2.443460980E-3
1.549206078E0,1.221730490E-3,-4.386012554E-1,-1.221730490E-3
1.551189154E0,-6.108652451E-4,-4.386012554E-1,6.108652451E-4
1.553204307E0,-1.160643995E-2,-4.343251884E-1,-5.497787148E-3
1.555187692E0,-2.076941915E-2,-4.288274050E-1,-8.552113548E-3
1.557201461E0,-2.565634064E-2,-4.269948006E-1,-7.941247895E-3
1.559184615E0,-3.420845419E-2,-4.221078753E-1,-9.773843922E-3
1.561200000E0,-4.153883830E-2,-4.178318381E-1,-1.282817032E-2
1.563182461E0,-4.642575979E-2,-4.166100919E-1,-1.404990070E-2
1.565197460E0,-5.070181563E-2,-4.105014503E-1,-1.343903504E-2
1.567211999E0,-5.864306539E-2,-4.086688459E-1,-1.404990070E-2
1.569194999E0,-5.986479297E-2,-4.062253833E-1,-1.221730467E-2
1.571208922E0,-6.719517708E-2,-4.031710625E-1,-1.404990070E-2
1.573191922E0,-7.269296050E-2,-3.995058835E-1,-1.282817032E-2
1.575206076E0,-8.002334833E-2,-3.933972120E-1,-1.343903504E-2
1.577189845E0,-8.735372871E-2,-3.903428912E-1,-1.466076635E-2
1.579204844E0,-8.918632567E-2,-3.866777122E-1,-1.282817032E-2
1.581187690E0,-9.712757170E-2,-3.805690408E-1,-1.343903504E-2
1.583202382E0,-1.014036313E-1,-3.787364662E-1,-1.099557430E-2
1.585186152E0,-1.075122803E-1,-3.750712574E-1,-1.038470957E-2
1.587201459E0,-1.117883399E-1,-3.714060783E-1,-8.552113548E-3
1.589183613E0,-1.197295859E-1,-3.695734739E-1,-6.719517522E-3
1.591198075E0,-1.191187203E-1,-3.701843321E-1,-2.443460980E-3
1.593212304E0,-1.264491081E-1,-3.659082949E-1,6.108652451E-4
1.595195920E0,-1.337794960E-1,-3.665191531E-1,2.443460980E-3
1.597210458E0,-1.331686229E-1,-3.683517575E-1,6.719517522E-3
1.599193766E0,-1.404990107E-1,-3.646865487E-1,1.282817032E-2
1.601207920E0,-1.435533315E-1,-3.659082949E-1,1.282817032E-2
1.603191304E0,-1.441642046E-1,-3.652974069E-1,2.015855350E-2
1.605205458E0,-1.484402567E-1,-3.665191531E-1,2.504547499E-2
1.607190073E0,-1.478293836E-1,-3.689626157E-1,2.993239649E-2
1.609203688E0,-1.484402567E-1,-3.714060783E-1,3.543018550E-2
1.611186765E0,-1.514945775E-1,-3.707951903E-1,4.214970022E-2
1.613200842E0,-1.521054506E-1,-3.714060783E-1,4.520402849E-2
1.615184842E0,-1.533271819E-1,-3.756821156E-1,5.131268129E-2
1.617199919E0,-1.545489132E-1,-3.762930036E-1,5.558873713E-2
1.619182073E0,-1.563815027E-1,-3.799581826E-1,5.742133409E-2
1.621196918E0,-1.569923609E-1,-3.824016452E-1,6.352998316E-2
1.623211610E0,-1.600466967E-1,-3.854559660E-1,6.414084882E-2
1.625194456E0,-1.606575549E-1,-3.854559660E-1,6.536258012E-2
1.627210149E0,-1.594358236E-1,-3.885102868E-1,6.536258012E-2
1.629192533E0,-1.594358236E-1,-3.909537494E-1,6.536258012E-2
1.631206995E0,-1.612684280E-1,-3.891211748E-1,6.414084882E-2
1.633190995E0,-1.606575549E-1,-3.891211748E-1,6.047565863E-2
1.635204225E0,-1.618792862E-1,-3.909537494E-1,5.742133409E-2
1.637187378E0,-1.612684280E-1,-3.897320330E-1,5.192354694E-2
1.639202148E0,-1.637118906E-1,-3.854559660E-1,4.398229718E-2
1.641186148E0,-1.624901593E-1,-3.872885704E-1,4.153883830E-2
1.643200532E0,-1.667662114E-1,-3.824016452E-1,2.993239649E-2
1.645183917E0,-1.679879427E-1,-3.787364662E-1,1.954768784E-2
1.647198994E0,-1.685988009E-1,-3.762930036E-1,1.527163107E-2
1.649181762E0,-1.704314053E-1,-3.683517575E-1,0.000000000E0
1.651195301E0,-1.722639948E-1,-3.634648323E-1,-1.343903504E-2
1.653207301E0,-1.740965992E-1,-3.597996235E-1,-2.138028294E-2
1.655192839E0,-1.747074574E-1,-3.536909819E-1,-3.481931984E-2
1.657207993E0,-1.814269722E-1,-3.457497358E-1,-5.070181563E-2
1.659190454E0,-1.832595766E-1,-3.414736688E-1,-5.619960278E-2
1.661205454E0,-1.832595766E-1,-3.341432810E-1,-7.269296050E-2
1.663188915E0,-1.893682331E-1,-3.200933933E-1,-8.674286306E-2
1.665203607E0,-1.905899495E-1,-3.170390725E-1,-9.468411654E-2
1.667187377E0,-1.918116808E-1,-3.066543639E-1,-1.075122803E-1
1.669201223E0,-1.924225539E-1,-2.993239760E-1,-1.142318025E-1
1.671184838E0,-1.954768747E-1,-2.834414840E-1,-1.295034289E-1
1.673199300E0,-1.948660165E-1,-2.687807083E-1,-1.411098689E-1
1.675183069E0,-1.948660165E-1,-2.602286041E-1,-1.484402567E-1
1.677195991E0,-1.979203373E-1,-2.419026345E-1,-1.594358236E-1
1.679210145E0,-1.973094791E-1,-2.193006277E-1,-1.710422635E-1
1.681193529E0,-1.966986060E-1,-2.095267773E-1,-1.740965992E-1
1.683208222E0,-1.985312104E-1,-1.881465018E-1,-1.887573600E-1
1.685192299E0,-1.997529417E-1,-1.631010175E-1,-1.985312104E-1
1.687207299E0,-1.997529417E-1,-1.484402567E-1,-2.021963894E-1
1.689190453E0,-2.040289938E-1,-1.233947799E-1,-2.107485086E-1
1.691204605E0,-2.028072625E-1,-9.590584040E-2,-2.180788964E-1
1.693187375E0,-2.028072625E-1,-8.185594529E-2,-2.247984111E-1
1.695202682E0,-2.040289938E-1,-5.619960278E-2,-2.315179259E-1
1.697186067E0,-2.052507252E-1,-3.054326214E-2,-2.382374406E-1
1.699199298E0,-2.034181207E-1,-1.771509275E-2,-2.461786866E-1
1.701183682E0,-2.040289938E-1,6.108652335E-3,-2.583959997E-1
1.703197452E0,-2.040289938E-1,1.710422710E-2,-2.632829249E-1
1.705211604E0,-2.040289938E-1,4.092797264E-2,-2.785545588E-1
1.707196220E0,-2.040289938E-1,6.108652428E-2,-2.864958048E-1
1.709209758E0,-2.046398520E-1,7.513642311E-2,-2.919935882E-1
1.711193528E0,-2.040289938E-1,9.346238524E-2,-3.048217595E-1
1.713207681E0,-2.046398520E-1,1.166752651E-1,-3.176499307E-1
1.715190758E0,-2.046398520E-1,1.252273768E-1,-3.225368559E-1
1.717204297E0,-2.064724565E-1,1.441642046E-1,-3.323107064E-1
1.719188603E0,-2.040289938E-1,1.643227488E-1,-3.402519524E-1
1.721202680E0,-2.040289938E-1,1.692096740E-1,-3.469714522E-1
1.723185757E0,-2.040289938E-1,1.863138974E-1,-3.524692357E-1
1.725200527E0,-2.052507252E-1,1.997529417E-1,-3.579670191E-1
1.727184527E0,-2.052507252E-1,2.064724565E-1,-3.567453027E-1
1.729197527E0,-2.046398520E-1,2.150245607E-1,-3.591887653E-1
1.731213527E0,-2.083050460E-1,2.254092693E-1,-3.555235863E-1
1.733195602E0,-2.076941878E-1,2.290744632E-1,-3.543018401E-1
1.735209526E0,-2.101376504E-1,2.357939780E-1,-3.457497358E-1
1.737193449E0,-2.107485086E-1,2.394591719E-1,-3.426954150E-1
1.739207987E0,-2.131919712E-1,2.437352389E-1,-3.310889602E-1
1.741191372E0,-2.168571651E-1,2.504547536E-1,-3.176499307E-1
1.743206372E0,-2.180788964E-1,2.522873580E-1,-3.084869385E-1
1.745191064E0,-2.211332172E-1,2.535090744E-1,-2.926044464E-1
1.747205448E0,-2.211332172E-1,2.565633953E-1,-2.718350291E-1
1.749187678E0,-2.223549485E-1,2.590068579E-1,-2.596177161E-1
1.751201448E0,-2.235766798E-1,2.590068579E-1,-2.382374406E-1
1.753186371E0,-2.229658216E-1,2.577851415E-1,-2.138028294E-1
1.755199986E0,-2.235766798E-1,2.571742535E-1,-1.997529417E-1
1.757183371E0,-2.235766798E-1,2.522873580E-1,-1.716531366E-1
1.759196602E0,-2.229658216E-1,2.461786866E-1,-1.441642046E-1
1.761211677E0,-2.241875380E-1,2.412917763E-1,-1.270599663E-1
1.763194447E0,-2.217440903E-1,2.333505303E-1,-1.001819000E-1
1.765209216E0,-2.223549485E-1,2.284636050E-1,-8.368854225E-2
1.767193754E0,-2.162462920E-1,2.180788964E-1,-5.314527452E-2
1.769207293E0,-2.138028294E-1,2.058615834E-1,-1.832595654E-2
1.771190985E0,-2.101376504E-1,1.966986060E-1,-4.886921961E-3
1.773204524E0,-2.052507252E-1,1.814269722E-1,2.443460934E-2
1.775188907E0,-1.966986060E-1,1.631010175E-1,5.253441259E-2
1.777203600E0,-1.912008226E-1,1.533271819E-1,6.902777404E-2
1.779185830E0,-1.863138974E-1,1.368338168E-1,9.529497474E-2
1.781200830E0,-1.765400618E-1,1.178969890E-1,1.215621829E-1
1.783183907E0,-1.728748679E-1,1.111774743E-1,1.343903542E-1
1.785198061E0,-1.624901593E-1,8.918632567E-2,1.582140923E-1
1.787213138E0,-1.527163088E-1,7.208210230E-2,1.783726513E-1
1.789196291E0,-1.472185254E-1,6.291911751E-2,1.893682331E-1
1.791209829E0,-1.362229437E-1,4.642575979E-2,2.064724565E-1
1.793194060E0,-1.252273768E-1,3.176499158E-2,2.193006277E-1
1.795207906E0,-1.209513173E-1,2.199114859E-2,2.260201424E-1
1.797191368E0,-1.087340117E-1,8.552113548E-3,2.376265824E-1
1.799205752E0,-1.062905490E-1,1.221730490E-3,2.394591719E-1
1.801188599E0,-9.468411654E-2,-1.160643995E-2,2.474004179E-1
1.803203367E0,-8.674286306E-2,-2.443460934E-2,2.498438805E-1
1.805187367E0,-7.819075137E-2,-3.176499158E-2,2.522873580E-1
1.807201521E0,-6.963863969E-2,-4.337143153E-2,2.541199327E-1
1.809184905E0,-5.803219974E-2,-5.436700583E-2,2.547308207E-1
1.811198982E0,-5.192354694E-2,-5.925392732E-2,2.535090744E-1
1.813182136E0,-4.214970022E-2,-7.024950534E-2,2.516764700E-1
1.815196290E0,-3.176499158E-2,-8.429940045E-2,2.474004179E-1
1.817211674E0,-2.504547499E-2,-9.101892263E-2,2.455678284E-1
1.819194058E0,-1.832595654E-2,-1.056796908E-1,2.412917763E-1
1.821209212E0,-8.552113548E-3,-1.185078546E-1,2.333505303E-1
1.823192827E0,-4.886921961E-3,-1.264491081E-1,2.296853364E-1
1.825206674E0,4.276056774E-3,-1.435533315E-1,2.229658216E-1
1.827191058E0,9.162978269E-3,-1.606575549E-1,2.144137025E-1
1.829204597E0,1.160643995E-2,-1.716531366E-1,2.107485086E-1
1.831188211E0,1.710422710E-2,-1.899790913E-1,2.034181207E-1
1.833203365E0,1.832595654E-2,-1.997529417E-1,1.966986060E-1
1.835186980E0,2.321287990E-2,-2.186897546E-1,1.863138974E-1
1.837199673E0,2.626720630E-2,-2.406809032E-1,1.710422635E-1
1.839183673E0,2.993239649E-2,-2.516764700E-1,1.637118906E-1
1.841197211E0,3.115412779E-2,-2.748893499E-1,1.484402567E-1
1.843212596E0,3.298672289E-2,-2.938261926E-1,1.313360333E-1
1.845195595E0,3.237585723E-2,-3.054326177E-1,1.240056455E-1
1.847210441E0,2.871066704E-2,-3.255911767E-1,1.050688252E-1
1.849193518E0,2.932153270E-2,-3.506366611E-1,8.674286306E-2
1.851207979E0,2.809980139E-2,-3.610213697E-1,7.696902007E-2
1.853191364E0,2.504547499E-2,-3.824016452E-1,5.742133409E-2
1.855205749E0,2.260201424E-2,-4.025602043E-1,3.848451003E-2
1.857190056E0,1.832595654E-2,-4.111123085E-1,2.687807009E-2
1.859202748E0,1.649336144E-2,-4.318817258E-1,9.773843922E-3
1.861186748E0,1.282817032E-2,-4.410447180E-1,3.665191587E-3
1.863201440E0,1.160643995E-2,-4.587597847E-1,-1.527163107E-2
1.865184517E0,7.330383174E-3,-4.764748812E-1,-3.298672289E-2
1.867200517E0,4.276056774E-3,-4.825835526E-1,-3.909537569E-2
1.869182978E0,1.832595794E-3,-4.984660447E-1,-5.619960278E-2
1.871197440E0,-1.221730490E-3,-5.155702829E-1,-7.269296050E-2
1.873211054E0,-4.276056774E-3,-5.204572082E-1,-7.880161703E-2
1.875195670E0,-8.552113548E-3,-5.338962078E-1,-9.712757170E-2
1.877208824E0,-1.160643995E-2,-5.424483418E-1,-1.136209369E-1
1.879192593E0,-1.099557430E-2,-5.485569835E-1,-1.215621829E-1
1.881206747E0,-1.404990070E-2,-5.540547967E-1,-1.398881376E-1
1.883190439E0,-1.466076635E-2,-5.595525503E-1,-1.606575549E-1
1.885204208E0,-1.404990070E-2,-5.632177591E-1,-1.685988009E-1
1.887189438E0,-1.466076635E-2,-5.619960427E-1,-1.887573600E-1
1.889201823E0,-1.527163107E-2,-5.619960427E-1,-2.058615834E-1
1.891185746E0,-1.466076635E-2,-5.607742667E-1,-2.144137025E-1
1.893196823E0,-1.527163107E-2,-5.546656251E-1,-2.345722616E-1
1.895213515E0,-1.282817032E-2,-5.485569835E-1,-2.535090744E-1
1.897198053E0,-1.221730467E-2,-5.418374538E-1,-2.602286041E-1
1.899212207E0,-1.160643995E-2,-5.308418870E-1,-2.803871334E-1
1.901195052E0,-1.160643995E-2,-5.253441334E-1,-2.889392674E-1
1.903209514E0,-8.552113548E-3,-5.100724697E-1,-3.023782969E-1
1.905192899E0,-3.054326167E-3,-4.941899776E-1,-3.219259977E-1
1.907207976E0,-3.054326167E-3,-4.856378734E-1,-3.298672438E-1
1.909190976E0,1.832595794E-3,-4.691445231E-1,-3.457497358E-1
1.911205514E0,6.719517522E-3,-4.489859641E-1,-3.579670191E-1
1.913189514E0,7.941247895E-3,-4.379903674E-1,-3.634648323E-1
1.915203051E0,1.282817032E-2,-4.221078753E-1,-3.750712574E-1
1.917186744E0,1.771509275E-2,-4.031710625E-1,-3.897320330E-1
1.919201128E0,1.954768784E-2,-3.927863538E-1,-3.940080702E-1
1.921184513E0,2.687807009E-2,-3.756821156E-1,-4.025602043E-1
1.923198975E0,3.237585723E-2,-3.561344445E-1,-4.117231667E-1
1.925182359E0,3.237585723E-2,-3.445279896E-1,-4.159992337E-1
1.927196898E0,3.481931984E-2,-3.243694305E-1,-4.227187634E-1
1.929211358E0,3.726277873E-2,-3.170390725E-1,-4.282165468E-1
1.931194127E0,4.092797264E-2,-2.987131178E-1,-4.355469346E-1
1.933207358E0,4.642575979E-2,-2.803871334E-1,-4.404338300E-1
1.935192204E0,4.825835302E-2,-2.681698501E-1,-4.447098970E-1
1.937207281E0,5.497787148E-2,-2.522873580E-1,-4.526511431E-1
1.939189435E0,5.986479297E-2,-2.357939780E-1,-4.550946057E-1
1.941204204E0,6.352998316E-2,-2.266310006E-1,-4.599815309E-1
1.943188280E0,6.780604273E-2,-2.113593817E-1,-4.660901725E-1
1.945202050E0,7.086037099E-2,-1.973094791E-1,-4.715879560E-1
1.947186050E0,7.391469181E-2,-1.912008226E-1,-4.715879560E-1
1.949199973E0,7.819075137E-2,-1.783726513E-1,-4.758640230E-1
1.951183665E0,8.185594529E-2,-1.673770845E-1,-4.789183438E-1
1.953198665E0,8.491026610E-2,-1.612684280E-1,-4.801400900E-1
1.955181203E0,8.552113175E-2,-1.472185254E-1,-4.807509482E-1
1.957195664E0,8.918632567E-2,-1.380555481E-1,-4.831944108E-1
1.959209510E0,9.101892263E-2,-1.331686229E-1,-4.838052690E-1
1.961193125E0,9.346238524E-2,-1.227839142E-1,-4.825835526E-1
1.963207049E0,9.529497474E-2,-1.209513173E-1,-4.801400900E-1
1.965190741E0,1.001819000E-1,-1.123992056E-1,-4.813618064E-1
1.967206126E0,9.896016866E-2,-1.056796908E-1,-4.801400900E-1
1.969188895E0,1.038470939E-1,-1.032362282E-1,-4.776966274E-1
1.971202971E0,1.026253626E-1,-9.468411654E-2,-4.728097022E-1
1.973186971E0,1.099557430E-1,-9.346238524E-2,-4.691445231E-1
1.975199894E0,1.111774743E-1,-9.407325089E-2,-4.660901725E-1
1.977184278E0,1.172861308E-1,-9.162978828E-2,-4.624249935E-1
1.979198125E0,1.246165112E-1,-8.979719132E-2,-4.581489265E-1
1.981212278E0,1.240056455E-1,-8.857546002E-2,-4.544837475E-1
1.983196201E0,1.313360333E-1,-8.613199741E-2,-4.508185387E-1
1.985211585E0,1.337794960E-1,-8.368854225E-2,-4.465425014E-1
1.987195893E0,1.350012124E-1,-8.185594529E-2,-4.416555762E-1
1.989208277E0,1.423316002E-1,-7.819075137E-2,-4.398229718E-1
1.991192277E0,1.459967941E-1,-7.696902007E-2,-4.361577928E-1
1.993206739E0,1.472185254E-1,-7.452555746E-2,-4.349360466E-1
1.995189508E0,1.478293836E-1,-6.963863969E-2,-4.276056588E-1
1.997203893E0,1.502728462E-1,-6.719517708E-2,-4.245513380E-1
1.999187276E0,1.527163088E-1,-6.047565863E-2,-4.208861589E-1
2.001201738E0,1.545489132E-1,-5.558873713E-2,-4.141666293E-1
2.003185430E0,1.551597714E-1,-5.131268129E-2,-4.141666293E-1
2.005199353E0,1.557706445E-1,-4.337143153E-2,-4.098905921E-1
2.007184276E0,1.588249654E-1,-3.665191308E-2,-4.013384581E-1
2.009197430E0,1.569923609E-1,-3.237585723E-2,-3.982841372E-1
2.011211584E0,1.576032341E-1,-2.443460934E-2,-3.933972120E-1
2.013194429E0,1.569923609E-1,-1.588249579E-2,-3.830125034E-1
2.015210045E0,1.582140923E-1,-1.038470957E-2,-3.775147200E-1
2.017193506E0,1.533271819E-1,-4.276056774E-3,-3.707951903E-1
2.019206968E0,1.514945775E-1,6.719517522E-3,-3.573561609E-1
2.021190660E0,1.508837193E-1,1.038470957E-2,-3.506366611E-1
2.023204814E0,1.484402567E-1,2.321287990E-2,-3.371976018E-1
2.025188275E0,1.441642046E-1,3.481931984E-2,-3.304781020E-1
2.027203967E0,1.423316002E-1,3.848451003E-2,-3.152064681E-1
2.029186967E0,1.386664063E-1,4.825835302E-2,-3.023782969E-1
2.031200275E0,1.356120855E-1,5.192354694E-2,-2.926044464E-1
2.033184890E0,1.319468915E-1,6.230825558E-2,-2.767219543E-1
2.035198044E0,1.282816976E-1,6.841690838E-2,-2.583959997E-1
2.037213198E0,1.246165112E-1,7.269296050E-2,-2.467895597E-1
2.039195890E0,1.233947799E-1,7.941248268E-2,-2.284636050E-1
2.041209735E0,1.203404516E-1,8.246681094E-2,-2.058615834E-1
2.043193812E0,1.185078546E-1,8.368854225E-2,-1.973094791E-1
2.045207658E0,1.136209369E-1,8.246681094E-2,-1.795943826E-1
2.047192889E0,1.105666086E-1,8.246681094E-2,-1.576032341E-1
2.049206350E0,1.099557430E-1,7.941248268E-2,-1.459967941E-1
2.051188581E0,1.093448773E-1,7.452555746E-2,-1.288925707E-1
2.053200812E0,1.087340117E-1,6.597344577E-2,-1.105666086E-1
2.055186657E0,1.081231460E-1,6.047565863E-2,-1.020144969E-1
2.057202042E0,1.105666086E-1,4.825835302E-2,-8.491026610E-2
2.059185119E0,1.111774743E-1,4.153883830E-2,-7.574728876E-2
2.061198965E0,1.148426682E-1,2.382374369E-2,-6.230825558E-2
2.063182734E0,1.185078546E-1,1.832595794E-3,-5.131268129E-2
2.065196888E0,1.209513173E-1,-9.162978269E-3,-4.337143153E-2
2.067211580E0,1.246165112E-1,-3.604105115E-2,-3.481931984E-2
2.069194425E0,1.295034289E-1,-6.414084882E-2,-2.565634064E-2
2.071209118E0,1.331686229E-1,-8.063421398E-2,-2.443460934E-2
2.073193502E0,1.386664063E-1,-1.117883399E-1,-1.710422710E-2
2.075206425E0,1.435533315E-1,-1.490511149E-1,-1.649336144E-2
2.077190656E0,1.490511149E-1,-1.679879427E-1,-1.282817032E-2
2.079204502E0,1.551597714E-1,-2.058615834E-1,-1.282817032E-2
2.081188579E0,1.600466967E-1,-2.474004179E-1,-1.282817032E-2
2.083202424E0,1.618792862E-1,-2.681698501E-1,-1.343903504E-2
2.085185732E0,1.685988009E-1,-3.121521473E-1,-1.649336144E-2
2.087201117E0,1.734857261E-1,-3.555235863E-1,-2.015855350E-2
2.089184501E0,1.747074574E-1,-3.769038618E-1,-1.954768784E-2
2.091197809E0,1.771509200E-1,-4.214970171E-1,-2.504547499E-2
2.093211348E0,1.814269722E-1,-4.447098970E-1,-2.565634064E-2
2.095197117E0,1.808161139E-1,-4.862487316E-1,-3.176499158E-2
2.097210731E0,1.844813079E-1,-5.296201706E-1,-3.604105115E-2
2.099192577E0,1.857030392E-1,-5.503895879E-1,-3.726277873E-2
2.101207962E0,1.832595766E-1,-5.907067060E-1,-4.153883830E-2
2.103190731E0,1.826487035E-1,-6.267477274E-1,-4.764748737E-2
2.105205731E0,1.838704348E-1,-6.432411075E-1,-5.070181563E-2
2.107190424E0,1.832595766E-1,-6.762278080E-1,-5.314527452E-2
2.109204193E0,1.820378453E-1,-7.079927921E-1,-5.375614017E-2
2.111187653E0,1.820378453E-1,-7.232644558E-1,-5.558873713E-2
2.113201730E0,1.783726513E-1,-7.452555895E-1,-5.864306539E-2
2.115185730E0,1.753183305E-1,-7.648032904E-1,-6.047565863E-2
2.117198961E0,1.740965992E-1,-7.739662528E-1,-5.742133409E-2
2.119182730E0,1.692096740E-1,-7.855727077E-1,-6.169738993E-2
2.121197192E0,1.643227488E-1,-7.935139537E-1,-6.230825558E-2
2.123211269E0,1.618792862E-1,-7.935139537E-1,-6.352998316E-2
2.125194652E0,1.563815027E-1,-7.959573865E-1,-5.986479297E-2
2.127209806E0,1.551597714E-1,-7.935139537E-1,-6.108652428E-2
2.129192191E0,1.521054506E-1,-7.867944241E-1,-5.803219974E-2
2.131206960E0,1.447750628E-1,-7.739662528E-1,-5.681046844E-2
2.133189191E0,1.417207420E-1,-7.660250068E-1,-5.742133409E-2
2.135203268E0,1.362229437E-1,-7.470881939E-1,-5.681046844E-2
2.137188575E0,1.276708394E-1,-7.244861722E-1,-5.619960278E-2
2.139202728E0,1.252273768E-1,-7.122688890E-1,-5.314527452E-2
2.141185498E0,1.166752651E-1,-6.829473376E-1,-5.131268129E-2
2.143200574E0,1.062905490E-1,-6.493497491E-1,-5.009094998E-2
2.145183574E0,1.038470939E-1,-6.328563690E-1,-4.886921868E-2
2.147198959E0,9.529497474E-2,-5.943718553E-1,-4.337143153E-2
2.149181498E0,8.674286306E-2,-5.564982295E-1,-4.276056588E-2
2.151195344E0,8.185594529E-2,-5.357288122E-1,-4.092797264E-2
2.153210035E0,7.452555746E-2,-4.917465150E-1,-3.665191308E-2
2.155193112E0,6.597344577E-2,-4.520402849E-1,-3.481931984E-2
2.157207266E0,6.230825558E-2,-4.263839424E-1,-3.359758854E-2
2.159191343E0,5.314527452E-2,-3.848451078E-1,-3.359758854E-2
2.161205112E0,4.948008433E-2,-3.622430861E-1,-2.871066704E-2
2.163188574E0,4.153883830E-2,-3.170390725E-1,-2.748893574E-2
2.165202958E0,3.481931984E-2,-2.700024247E-1,-2.565634064E-2
2.167187573E0,3.054326214E-2,-2.492330223E-1,-2.199114859E-2
2.169201111E0,2.076941915E-2,-2.034181207E-1,-2.138028294E-2
2.171183957E0,1.588249579E-2,-1.606575549E-1,-1.649336144E-2
2.173198342E0,1.343903504E-2,-1.411098689E-1,-1.466076635E-2
2.175213419E0,3.054326167E-3,-9.651670605E-2,-1.160643995E-2
2.177197111E0,-1.221730490E-3,-5.986479297E-2,-4.886921961E-3
2.179210111E0,-6.719517522E-3,-3.970624134E-2,-4.886921961E-3
2.181194110E0,-1.221730467E-2,-1.832595794E-3,6.108652451E-4
2.183208495E0,-1.771509275E-2,3.054326214E-2,4.886921961E-3
2.185191879E0,-2.015855350E-2,4.642575979E-2,5.497787148E-3
2.187207648E0,-2.626720630E-2,7.635815442E-2,9.162978269E-3
2.189189725E0,-3.054326214E-2,9.224065393E-2,1.038470957E-2
2.191203033E0,-3.115412779E-2,1.154535338E-1,1.527163107E-2
2.193187879E0,-3.176499158E-2,1.398881376E-1,1.954768784E-2
2.195201494E0,-3.115412779E-2,1.545489132E-1,1.832595654E-2
2.197185724E0,-2.932153270E-2,1.771509200E-1,2.076941915E-2
2.199199878E0,-2.932153270E-2,1.985312104E-1,2.138028294E-2
2.201183340E0,-3.115412779E-2,2.083050460E-1,2.076941915E-2
2.203197494E0,-3.176499158E-2,2.266310006E-1,1.710422710E-2
2.205211032E0,-3.115412779E-2,2.449569702E-1,1.282817032E-2
2.207196186E0,-3.359758854E-2,2.516764700E-1,1.221730467E-2
2.209208570E0,-3.604105115E-2,2.669481039E-1,7.941247895E-3
2.211192570E0,-3.481931984E-2,2.791654170E-1,4.276056774E-3
2.213206416E0,-3.481931984E-2,2.828305960E-1,2.443460980E-3
2.215190108E0,-3.848451003E-2,2.944370508E-1,-1.832595794E-3
2.217204877E0,-3.909537569E-2,3.054326177E-1,-4.886921961E-3
2.219188877E0,-3.787364438E-2,3.072652221E-1,-4.886921961E-3
2.221202724E0,-4.153883830E-2,3.164281845E-1,-1.099557430E-2
2.223186030E0,-4.153883830E-2,3.194825351E-1,-9.773843922E-3
2.225200569E0,-4.459316283E-2,3.262020350E-1,-1.099557430E-2
2.227186030E0,-4.581489414E-2,3.329215646E-1,-1.160643995E-2
2.229198030E0,-4.520402849E-2,3.359758854E-1,-1.099557430E-2
2.231212492E0,-4.825835302E-2,3.433062732E-1,-1.282817032E-2
2.233197799E0,-4.886921868E-2,3.475823104E-1,-9.162978269E-3
2.235210415E0,-4.948008433E-2,3.494149148E-1,-9.162978269E-3
2.237194106E0,-4.948008433E-2,3.512475193E-1,-6.108652335E-3
2.239208491E0,-5.253441259E-2,3.530801237E-1,-6.108652335E-3
2.241192491E0,-5.253441259E-2,3.518583775E-1,-6.719517522E-3
2.243205798E0,-5.314527452E-2,3.536909819E-1,-2.443460980E-3
2.245189491E0,-5.558873713E-2,3.494149148E-1,0.000000000E0
2.247204491E0,-5.558873713E-2,3.481931984E-1,0.000000000E0
2.249187952E0,-5.925392732E-2,3.445279896E-1,6.108652451E-4
2.251201105E0,-6.047565863E-2,3.365867436E-1,4.276056774E-3
2.253185105E0,-6.108652428E-2,3.353650272E-1,3.665191587E-3
2.255200182E0,-6.352998316E-2,3.243694305E-1,3.665191587E-3
2.257183567E0,-6.536258012E-2,3.225368559E-1,6.108652335E-3
2.259196798E0,-6.780604273E-2,3.115412891E-1,4.276056774E-3
2.261211028E0,-6.963863969E-2,2.999348342E-1,6.108652335E-3
2.263194644E0,-7.086037099E-2,2.932153046E-1,5.497787148E-3
2.265209489E0,-7.147123665E-2,2.816088796E-1,6.108652335E-3
2.267193181E0,-7.574728876E-2,2.669481039E-1,5.497787148E-3
2.269207335E0,-7.574728876E-2,2.614503205E-1,3.054326167E-3
2.271190335E0,-7.819075137E-2,2.486221492E-1,3.665191587E-3
2.273205489E0,-7.941248268E-2,2.302961946E-1,3.665191587E-3
2.275188489E0,-8.002334833E-2,2.266310006E-1,4.276056774E-3
2.277202720E0,-8.246681094E-2,2.125810981E-1,3.054326167E-3
2.279186103E0,-8.491026610E-2,1.979203373E-1,0.000000000E0
2.281200565E0,-8.429940045E-2,1.887573600E-1,2.443460980E-3
2.283184257E0,-8.491026610E-2,1.747074574E-1,1.832595794E-3
2.285198642E0,-8.674286306E-2,1.624901593E-1,-3.054326167E-3
2.287182949E0,-8.491026610E-2,1.576032341E-1,-2.443460980E-3
2.289196488E0,-8.857546002E-2,1.472185254E-1,-7.330383174E-3
2.291210411E0,-8.796459436E-2,1.441642046E-1,-7.330383174E-3
2.293192564E0,-8.552113175E-2,1.331686229E-1,-9.162978269E-3
2.295207641E0,-8.185594529E-2,1.258382350E-1,-1.221730467E-2
2.297191256E0,-8.124507964E-2,1.233947799E-1,-1.466076635E-2
2.299205410E0,-8.002334833E-2,1.185078546E-1,-1.710422710E-2
2.301189718E0,-7.635815442E-2,1.160643995E-1,-2.321287990E-2
2.303203333E0,-7.696902007E-2,1.148426682E-1,-2.321287990E-2
2.305187564E0,-7.757988572E-2,1.142318025E-1,-2.748893574E-2
2.307202717E0,-7.696902007E-2,1.148426682E-1,-3.176499158E-2
2.309185101E0,-7.574728876E-2,1.178969890E-1,-3.115412779E-2
2.311199947E0,-7.391469181E-2,1.215621829E-1,-3.359758854E-2
2.313183024E0,-7.391469181E-2,1.288925707E-1,-3.665191308E-2
2.315196563E0,-7.024950534E-2,1.307251602E-1,-3.604105115E-2
2.317211024E0,-6.963863969E-2,1.392772794E-1,-3.481931984E-2
2.319195024E0,-7.024950534E-2,1.447750628E-1,-3.726277873E-2
2.321208793E0,-7.024950534E-2,1.490511149E-1,-3.481931984E-2
2.323192177E0,-7.208210230E-2,1.582140923E-1,-3.298672289E-2
2.325207023E0,-7.330382615E-2,1.643227488E-1,-3.176499158E-2
2.327190947E0,-7.147123665E-2,1.710422635E-1,-2.748893574E-2
2.329204485E0,-7.330382615E-2,1.814269722E-1,-2.626720630E-2
2.331188254E0,-7.513642311E-2,1.869247705E-1,-2.443460934E-2
2.333202331E0,-7.513642311E-2,1.936442852E-1,-2.076941915E-2
2.335186099E0,-7.696902007E-2,2.015855312E-1,-1.404990070E-2
2.337200561E0,-7.880161703E-2,2.064724565E-1,-1.160643995E-2
2.339183253E0,-8.063421398E-2,2.131919712E-1,-5.497787148E-3
2.341198022E0,-8.246681094E-2,2.156354338E-1,-6.108652451E-4
2.343212253E0,-8.613199741E-2,2.186897546E-1,6.108652451E-4
2.345196484E0,-8.796459436E-2,2.223549485E-1,6.719517522E-3
2.347210638E0,-9.224065393E-2,2.223549485E-1,1.588249579E-2
2.349193406E0,-9.407325089E-2,2.223549485E-1,1.893682219E-2
2.351207868E0,-9.529497474E-2,2.235766798E-1,2.565634064E-2
2.353192791E0,-9.896016866E-2,2.217440903E-1,2.748893574E-2
2.355205714E0,-1.014036313E-1,2.162462920E-1,3.787364438E-2
2.357189483E0,-1.050688252E-1,2.125810981E-1,4.337143153E-2
2.359203329E0,-1.069014147E-1,2.144137025E-1,4.825835302E-2
2.361186406E0,-1.111774743E-1,2.040289938E-1,5.558873713E-2
2.363200868E0,-1.148426682E-1,1.966986060E-1,6.291911751E-2
2.365184790E0,-1.166752651E-1,1.948660165E-1,6.536258012E-2
2.367200174E0,-1.191187203E-1,1.850921661E-1,7.147123665E-2
2.369182713E0,-1.240056455E-1,1.740965992E-1,8.002334833E-2
2.371196251E0,-1.240056455E-1,1.698205322E-1,8.674286306E-2
2.373207021E0,-1.301143020E-1,1.582140923E-1,9.101892263E-2
2.375193790E0,-1.319468915E-1,1.447750628E-1,1.007927656E-1
2.377209174E0,-1.331686229E-1,1.404990107E-1,1.044579595E-1
2.379192250E0,-1.374446750E-1,1.264491081E-1,1.093448773E-1
2.381206712E0,-1.417207420E-1,1.099557430E-1,1.191187203E-1
2.383190943E0,-1.429424733E-1,1.014036313E-1,1.221730486E-1
2.385204250E0,-1.484402567E-1,8.979719132E-2,1.288925707E-1
2.387189481E0,-1.490511149E-1,8.185594529E-2,1.313360333E-1
2.389202327E0,-1.527163088E-1,6.719517708E-2,1.362229437E-1
2.391185712E0,-1.557706445E-1,5.497787148E-2,1.404990107E-1
2.393200480E0,-1.557706445E-1,4.886921868E-2,1.435533315E-1
2.395183942E0,-1.618792862E-1,3.359758854E-2,1.496619880E-1
2.397197172E0,-1.637118906E-1,1.954768784E-2,1.508837193E-1
2.399211865E0,-1.661553532E-1,1.527163107E-2,1.478293836E-1
2.401195634E0,-1.661553532E-1,5.497787148E-3,1.514945775E-1
2.403210019E0,-1.704314053E-1,-2.443460980E-3,1.514945775E-1
2.405193172E0,-1.704314053E-1,-7.941247895E-3,1.527163088E-1
2.407208248E0,-1.734857261E-1,-1.527163107E-2,1.521054506E-1
2.409190941E0,-1.765400618E-1,-1.954768784E-2,1.521054506E-1
2.411205402E0,-1.777617931E-1,-2.076941915E-2,1.521054506E-1
2.413188171E0,-1.808161139E-1,-2.199114859E-2,1.502728462E-1
2.415203941E0,-1.850921661E-1,-2.138028294E-2,1.472185254E-1
2.417186633E0,-1.881465018E-1,-1.954768784E-2,1.490511149E-1
2.419200864E0,-1.887573600E-1,-1.710422710E-2,1.441642046E-1
2.421185171E0,-1.912008226E-1,-1.160643995E-2,1.447750628E-1
2.423199324E0,-1.942551434E-1,-9.773843922E-3,1.411098689E-1
2.425182709E0,-1.930334121E-1,-1.832595794E-3,1.386664063E-1
2.427197401E0,-1.966986060E-1,1.221730490E-3,1.368338168E-1
2.429210940E0,-1.991420686E-1,9.773843922E-3,1.331686229E-1
2.431193786E0,-1.997529417E-1,1.771509275E-2,1.307251602E-1
2.433208555E0,-2.003637999E-1,2.260201424E-2,1.264491081E-1
2.435192246E0,-2.028072625E-1,3.481931984E-2,1.209513173E-1
2.437206016E0,-2.046398520E-1,4.703662544E-2,1.172861308E-1
2.439190323E0,-2.034181207E-1,5.314527452E-2,1.148426682E-1
2.441203862E0,-2.076941878E-1,6.902777404E-2,1.062905490E-1
2.443187554E0,-2.076941878E-1,8.246681094E-2,1.001819000E-1
2.445201477E0,-2.083050460E-1,9.040805697E-2,9.590584040E-2
2.447185785E0,-2.076941878E-1,1.032362282E-1,8.857546002E-2
2.449199630E0,-2.076941878E-1,1.197295859E-1,8.368854225E-2
2.451183553E0,-2.089159191E-1,1.258382350E-1,7.819075137E-2
2.453196553E0,-2.083050460E-1,1.423316002E-1,7.269296050E-2
2.455211938E0,-2.113593817E-1,1.472185254E-1,7.269296050E-2
2.457195553E0,-2.113593817E-1,1.588249654E-1,6.597344577E-2
2.459209169E0,-2.125810981E-1,1.765400618E-1,6.108652428E-2
2.461192861E0,-2.150245607E-1,1.820378453E-1,5.803219974E-2
2.463206706E0,-2.144137025E-1,1.924225539E-1,5.192354694E-2
2.465192168E0,-2.162462920E-1,2.046398520E-1,5.070181563E-2
2.467206014E0,-2.144137025E-1,2.089159191E-1,4.948008433E-2
2.469189398E0,-2.144137025E-1,2.174680233E-1,4.764748737E-2
2.471202937E0,-2.150245607E-1,2.229658216E-1,4.459316283E-2
2.473187245E0,-2.119702399E-1,2.223549485E-1,4.581489414E-2
2.475200783E0,-2.101376504E-1,2.272418737E-1,4.581489414E-2
2.477184474E0,-2.095267773E-1,2.290744632E-1,4.398229718E-2
2.479198090E0,-2.101376504E-1,2.321287990E-1,4.153883830E-2
2.481213090E0,-2.083050460E-1,2.302961946E-1,4.337143153E-2
2.483196167E0,-2.046398520E-1,2.296853364E-1,4.153883830E-2
2.485210013E0,-2.046398520E-1,2.260201424E-1,4.276056588E-2
2.487194936E0,-2.040289938E-1,2.223549485E-1,3.970624134E-2
2.489207551E0,-2.040289938E-1,2.211332172E-1,3.787364438E-2
2.491191935E0,-2.021963894E-1,2.131919712E-1,3.848451003E-2
2.493205166E0,-1.997529417E-1,2.076941878E-1,3.665191308E-2
2.495190012E0,-1.997529417E-1,2.028072625E-1,3.543018550E-2
2.497204243E0,-1.973094791E-1,1.966986060E-1,3.481931984E-2
2.499187320E0,-1.960877478E-1,1.857030392E-1,3.420845419E-2
2.501201704E0,-1.936442852E-1,1.808161139E-1,3.115412779E-2
2.503185396E0,-1.918116808E-1,1.734857261E-1,3.176499158E-2
2.505199319E0,-1.881465018E-1,1.667662114E-1,3.054326214E-2
2.507184242E0,-1.881465018E-1,1.600466967E-1,2.809980139E-2
2.509197088E0,-1.863138974E-1,1.502728462E-1,2.932153270E-2
2.511211626E0,-1.844813079E-1,1.417207420E-1,2.809980139E-2
2.513196165E0,-1.814269722E-1,1.368338168E-1,2.626720630E-2
2.515209396E0,-1.777617931E-1,1.270599663E-1,2.809980139E-2
2.517192857E0,-1.759291887E-1,1.221730486E-1,2.809980139E-2
2.519207010E0,-1.698205322E-1,1.099557430E-1,2.871066704E-2
2.521191241E0,-1.667662114E-1,9.957103431E-2,2.932153270E-2
2.523204856E0,-1.655444801E-1,9.651670605E-2,2.687807009E-2
2.525187933E0,-1.582140923E-1,8.429940045E-2,2.809980139E-2
2.527203625E0,-1.539380401E-1,7.330382615E-2,2.932153270E-2
2.529187318E0,-1.508837193E-1,7.086037099E-2,2.748893574E-2
2.531200548E0,-1.466076523E-1,5.925392732E-2,2.809980139E-2
2.533183317E0,-1.398881376E-1,5.131268129E-2,2.932153270E-2
2.535197470E0,-1.368338168E-1,4.642575979E-2,2.993239649E-2
2.537212240E0,-1.319468915E-1,3.604105115E-2,2.993239649E-2
2.539196163E0,-1.282816976E-1,2.687807009E-2,2.748893574E-2
2.541210394E0,-1.246165112E-1,2.687807009E-2,2.687807009E-2
2.543194009E0,-1.203404516E-1,1.832595654E-2,2.504547499E-2
2.545207932E0,-1.160643995E-1,1.527163107E-2,2.443460934E-2
2.547192470E0,-1.142318025E-1,1.466076635E-2,2.504547499E-2
2.549205470E0,-1.117883399E-1,8.552113548E-3,2.382374369E-2
2.551190008E0,-1.105666086E-1,6.719517522E-3,2.504547499E-2
2.553205085E0,-1.044579595E-1,6.108652335E-3,2.443460934E-2
2.555187546E0,-1.007927656E-1,2.443460980E-3,2.260201424E-2
2.557201393E0,-9.957103431E-2,2.443460980E-3,2.076941915E-2
2.559184546E0,-9.529497474E-2,-6.108652451E-4,2.138028294E-2
2.561198392E0,-9.285151958E-2,-2.443460980E-3,2.015855350E-2
2.563182315E0,-9.224065393E-2,-1.832595794E-3,2.076941915E-2
2.565197776E0,-8.979719132E-2,-1.832595794E-3,1.954768784E-2
2.567211622E0,-8.674286306E-2,-6.719517522E-3,1.710422710E-2
2.569194930E0,-8.735372871E-2,-4.886921961E-3,1.588249579E-2
2.571208545E0,-8.735372871E-2,-5.497787148E-3,1.404990070E-2
2.573192545E0,-8.552113175E-2,-6.108652335E-3,1.466076635E-2
2.575207621E0,-8.552113175E-2,-5.497787148E-3,1.588249579E-2
2.577190621E0,-8.368854225E-2,-3.665191587E-3,1.404990070E-2
2.579203545E0,-8.246681094E-2,-4.886921961E-3,1.282817032E-2
2.581188545E0,-8.307767659E-2,-4.276056774E-3,1.282817032E-2
2.583201775E0,-8.307767659E-2,-4.886921961E-3,1.466076635E-2
2.585186083E0,-8.307767659E-2,-3.054326167E-3,1.527163107E-2
2.587109921E0,-8.368854225E-2,-4.276056774E-3,1.527163107E-2
2.589094147E0,-8.368854225E-2,-3.054326167E-3,1.771509275E-2
2.591108372E0,-8.063421398E-2,-3.665191587E-3,1.710422710E-2
2.593092289E0,-8.368854225E-2,-4.276056774E-3,2.015855350E-2
2.595105822E0,-8.307767659E-2,-3.665191587E-3,2.138028294E-2
2.597119970E0,-8.307767659E-2,-2.443460980E-3,2.321287990E-2
2.599104350E0,-8.429940045E-2,-3.054326167E-3,2.443460934E-2
2.601117498E0,-8.429940045E-2,-4.886921961E-3,2.809980139E-2
2.603101261E0,-8.429940045E-2,-3.054326167E-3,2.993239649E-2
2.605115410E0,-8.429940045E-2,-6.719517522E-3,3.115412779E-2
2.607100250E0,-8.429940045E-2,-9.773843922E-3,3.298672289E-2
2.609112937E0,-8.552113175E-2,-8.552113548E-3,3.298672289E-2
2.611096547E0,-8.124507964E-2,-9.773843922E-3,3.420845419E-2
2.613109771E0,-8.246681094E-2,-1.160643995E-2,3.665191308E-2
2.615095382E0,-8.124507964E-2,-1.466076635E-2,3.543018550E-2
2.617109530E0,-7.880161703E-2,-1.588249579E-2,3.726277873E-2
2.619092525E0,-8.002334833E-2,-1.527163107E-2,3.726277873E-2
2.621106134E0,-7.696902007E-2,-1.649336144E-2,3.665191308E-2
2.623120589E0,-7.574728876E-2,-1.710422710E-2,3.726277873E-2
2.625104815E0,-7.513642311E-2,-1.893682219E-2,3.909537569E-2
2.627118963E0,-7.391469181E-2,-1.832595654E-2,3.970624134E-2
2.629102343E0,-7.147123665E-2,-1.893682219E-2,4.214970022E-2
2.631116183E0,-7.147123665E-2,-2.138028294E-2,4.153883830E-2
2.633100793E0,-7.330382615E-2,-1.893682219E-2,4.398229718E-2
2.635114018E0,-7.208210230E-2,-1.710422710E-2,5.009094998E-2
2.637097704E0,-7.147123665E-2,-1.588249579E-2,4.886921868E-2
2.639111930E0,-6.963863969E-2,-1.404990070E-2,5.314527452E-2
2.641095847E0,-7.024950534E-2,-9.162978269E-3,5.925392732E-2
2.643109765E0,-7.086037099E-2,-7.330383174E-3,6.108652428E-2
2.645093375E0,-7.024950534E-2,-4.276056774E-3,6.719517708E-2
2.647108446E0,-6.719517708E-2,-3.054326167E-3,7.208210230E-2
2.649121671E0,-6.536258012E-2,3.054326167E-3,7.819075137E-2
2.651105435E0,-6.230825558E-2,6.719517522E-3,8.491026610E-2
2.653119199E0,-6.047565863E-2,1.099557430E-2,8.674286306E-2
2.655103270E0,-5.803219974E-2,2.260201424E-2,9.407325089E-2
2.657117648E0,-5.497787148E-2,3.420845419E-2,9.834930301E-2
2.659100413E0,-5.497787148E-2,3.909537569E-2,1.014036313E-1
2.661115253E0,-5.253441259E-2,5.497787148E-2,1.056796908E-1
2.663098248E0,-5.009094998E-2,7.147123665E-2,1.069014147E-1
2.665113011E0,-4.764748737E-2,8.063421398E-2,1.087340117E-1
2.667097391E0,-4.703662544E-2,9.834930301E-2,1.044579595E-1
2.669110000E0,-4.642575979E-2,1.203404516E-1,1.014036313E-1
2.671094302E0,-4.703662544E-2,1.313360333E-1,9.896016866E-2
2.673108758E0,-4.703662544E-2,1.551597714E-1,9.224065393E-2
2.675092752E0,-4.520402849E-2,1.795943826E-1,8.246681094E-2
2.677106593E0,-4.276056588E-2,1.918116808E-1,7.696902007E-2
2.679120664E0,-3.543018550E-2,2.107485086E-1,6.352998316E-2
2.681104120E0,-3.726277873E-2,2.247984111E-1,5.497787148E-2
2.683117884E0,-2.932153270E-2,2.449569702E-1,4.092797264E-2
2.685101263E0,-2.382374369E-2,2.693915665E-1,2.626720630E-2
2.687116719E0,-1.954768784E-2,2.791654170E-1,1.893682219E-2
2.689099098E0,-1.649336144E-2,3.048217595E-1,1.221730490E-3
2.691113630E0,-1.038470957E-2,3.249803185E-1,-1.466076635E-2
2.693096702E0,-7.330383174E-3,3.359758854E-1,-2.260201424E-2
2.695110542E0,2.443460980E-3,3.597996235E-1,-3.848451003E-2
2.697094845E0,1.343903504E-2,3.805690408E-1,-5.253441259E-2
2.699108916E0,2.015855350E-2,3.915646076E-1,-6.047565863E-2
2.701093602E0,3.054326214E-2,4.117231667E-1,-7.391469181E-2
2.703107367E0,4.214970022E-2,4.282165468E-1,-8.674286306E-2
2.705122207E0,5.253441259E-2,4.324925840E-1,-9.407325089E-2
2.707105510E0,6.902777404E-2,4.465425014E-1,-1.050688252E-1
2.709119965E0,8.429940045E-2,4.569272101E-1,-1.166752651E-1
2.711102498E0,8.918632567E-2,4.630358517E-1,-1.215621829E-1
2.713117800E0,1.026253626E-1,4.764748812E-1,-1.362229437E-1
2.715101256E0,1.093448773E-1,4.801400900E-1,-1.435533315E-1
2.717114712E0,1.148426682E-1,4.929682612E-1,-1.545489132E-1
2.719097860E0,1.142318025E-1,5.064072609E-1,-1.661553532E-1
2.721113239E0,1.154535338E-1,5.149593949E-1,-1.740965992E-1
2.723096003E0,1.148426682E-1,5.308418870E-1,-1.820378453E-1
2.725110074E0,1.154535338E-1,5.528330207E-1,-1.918116808E-1
2.727094992E0,1.123992056E-1,5.607742667E-1,-1.942551434E-1
2.729107909E0,1.130100712E-1,5.827654600E-1,-2.040289938E-1
2.731122057E0,1.148426682E-1,6.102544069E-1,-2.101376504E-1
2.733105437E0,1.191187203E-1,6.249151230E-1,-2.083050460E-1
2.735120584E0,1.343903542E-1,6.560692787E-1,-2.144137025E-1
2.737103887E0,1.569923609E-1,6.902777553E-1,-2.156354338E-1
2.739117420E0,1.728748679E-1,7.073819637E-1,-2.168571651E-1
2.741102107E0,2.119702399E-1,7.403686643E-1,-2.199114859E-1
2.743114947E0,2.547308207E-1,7.709119320E-1,-2.217440903E-1
2.745099556E0,2.809980214E-1,7.843509912E-1,-2.211332172E-1
2.747114705E0,3.298672438E-1,8.112290502E-1,-2.223549485E-1
2.749097161E0,3.591887653E-1,8.234463334E-1,-2.254092693E-1
2.751111540E0,4.202753007E-1,8.429940343E-1,-2.290744632E-1
2.753095919E0,4.844161272E-1,8.607091308E-1,-2.333505303E-1
2.755108528E0,5.125159621E-1,8.655960560E-1,-2.351831198E-1
2.757092523E0,5.827654600E-1,8.759807348E-1,-2.364048511E-1
2.759106671E0,6.548475623E-1,8.778133392E-1,-2.370157093E-1
2.761120743E0,6.884451509E-1,8.778133392E-1,-2.333505303E-1
2.763104814E0,7.654141784E-1,8.674286604E-1,-2.260201424E-1
2.765118270E0,8.429940343E-1,8.527678847E-1,-2.168571651E-1
2.767103803E0,8.814785480E-1,8.429940343E-1,-2.095267773E-1
2.769117105E0,9.572258592E-1,8.167268038E-1,-1.893682331E-1
2.771100177E0,1.029307961E0,7.819074988E-1,-1.673770845E-1
2.773112171E0,1.065959811E0,7.641924024E-1,-1.545489132E-1
2.775097397E0,1.139263630E0,7.220427394E-1,-1.282816976E-1
2.777112083E0,1.211956620E0,6.768386960E-1,-1.014036313E-1
2.779095538E0,1.248608589E0,6.511823535E-1,-8.857546002E-2
2.781110226E0,1.316414595E0,5.992587805E-1,-6.658431143E-2
2.783093681E0,1.353677392E0,5.736024380E-1,-6.047565863E-2
2.785107830E0,1.416596532E0,5.277875662E-1,-4.703662544E-2
2.787091440E0,1.477072120E0,4.862487316E-1,-4.214970022E-2
2.789105049E0,1.505782843E0,4.703662395E-1,-3.909537569E-2
2.791119505E0,1.563204169E0,4.440990388E-1,-4.153883830E-2
2.793103807E0,1.617571115E0,4.227187634E-1,-5.436700583E-2
2.795116956E0,1.645060062E0,4.166100919E-1,-5.864306539E-2
2.797101335E0,1.697594523E0,4.086688459E-1,-7.574728876E-2
2.799114790E0,1.747074604E0,4.031710625E-1,-9.529497474E-2
2.801098785E0,1.773952723E0,4.001167417E-1,-1.087340117E-1
2.803113010E0,1.827708840E0,3.915646076E-1,-1.288925707E-1
2.805096390E0,1.880854130E0,3.860668242E-1,-1.508837193E-1
2.807111691E0,1.906510472E0,3.830125034E-1,-1.631010175E-1
2.809094762E0,1.965153456E0,3.701843321E-1,-1.838704348E-1
2.811108373E0,1.992031574E0,3.573561609E-1,-1.966986060E-1
2.813091136E0,2.048841953E0,3.481931984E-1,-2.162462920E-1
2.815106515E0,2.103209019E0,3.323107064E-1,-2.351831198E-1
2.817120586E0,2.127032757E0,3.213151097E-1,-2.431243658E-1
2.819103965E0,2.174680233E0,2.974913716E-1,-2.577851415E-1
2.821118498E0,2.222327709E0,2.712241709E-1,-2.742784917E-1
2.823101877E0,2.244929790E0,2.559525371E-1,-2.809980214E-1
2.825116872E0,2.288301229E0,2.247984111E-1,-2.968805134E-1
2.827100635E0,2.331672668E0,1.905899495E-1,-3.127630055E-1
2.829114168E0,2.354885578E0,1.722639948E-1,-3.164281845E-1
2.831097547E0,2.398867846E0,1.307251602E-1,-3.335324228E-1
2.833112003E0,2.446515322E0,8.735372871E-2,-3.524692357E-1
2.835095075E0,2.468506575E0,6.536258012E-2,-3.610213697E-1
2.837109223E0,2.514321327E0,2.076941915E-2,-3.811798990E-1
2.839092833E0,2.561357975E0,-2.565634064E-2,-4.050036669E-1
2.841107673E0,2.582127333E0,-4.703662544E-2,-4.184426963E-1
2.843090437E0,2.626720667E0,-8.918632567E-2,-4.453207552E-1
2.845104816E0,2.648100853E0,-1.081231460E-1,-4.612032473E-1
2.847119041E0,2.685363531E0,-1.411098689E-1,-4.911356568E-1
2.849102728E0,2.721404552E0,-1.631010175E-1,-5.210680366E-1
2.851117107E0,2.737898111E0,-1.698205322E-1,-5.381723046E-1
2.853099947E0,2.768441200E0,-1.765400618E-1,-5.638286471E-1
2.855114404E0,2.796540976E0,-1.685988009E-1,-5.919284225E-1
2.857097705E0,2.809980154E0,-1.624901593E-1,-6.041457057E-1
2.859112546E0,2.833803892E0,-1.386664063E-1,-6.304129362E-1
2.861096233E0,2.852740765E0,-1.062905490E-1,-6.450737119E-1
2.863109996E0,2.858238459E0,-8.429940045E-2,-6.548475623E-1
2.865093991E0,2.875953674E0,-3.787364438E-2,-6.658431292E-1
2.867109139E0,2.889392614E0,1.343903504E-2,-6.750060916E-1
2.869091903E0,2.896112204E0,4.153883830E-2,-6.743952036E-1
2.871105974E0,2.909551144E0,1.044579595E-1,-6.762278080E-1
2.873121430E0,2.926044464E0,1.692096740E-1,-6.713408828E-1
2.875103271E0,2.930320501E0,2.052507252E-1,-6.688974500E-1
2.877117649E0,2.948035717E0,2.767219543E-1,-6.585127115E-1
2.879101337E0,2.957198620E0,3.133738637E-1,-6.530149579E-1
2.881115869E0,2.974302769E0,3.909537494E-1,-6.383541822E-1
2.883099249E0,2.988963604E0,4.709770977E-1,-6.212499738E-1
2.885113089E0,2.996904850E0,5.082398653E-1,-6.133087277E-1
2.887098314E0,3.011565685E0,5.888741016E-1,-5.919284225E-1
2.889111155E0,3.031113386E0,6.640105247E-1,-5.742133260E-1
2.891095533E0,3.039665461E0,6.988298297E-1,-5.638286471E-1
2.893108375E0,3.059213161E0,7.727445364E-1,-5.467243791E-1
2.895093369E0,3.082426071E0,8.399397135E-1,-5.308418870E-1
2.897107439E0,3.092199802E0,8.710938692E-1,-5.253441334E-1
2.899089358E0,3.112969398E0,9.309586287E-1,-5.143485069E-1
2.901104967E0,3.136182070E0,9.853256345E-1,-5.015203953E-1
2.903118808E0,3.147788525E0,1.009760261E0,-4.978551865E-1
2.905102879E0,3.171612263E0,1.056185961E0,-4.893030524E-1
2.907117565E0,3.194214344E0,1.095892191E0,-4.831944108E-1
2.909100099E0,3.208875179E0,1.112385631E0,-4.770857692E-1
2.911114477E0,3.232698917E0,1.138041973E0,-4.673119187E-1
2.913098165E0,3.240640163E0,1.148426652E0,-4.642575979E-1
2.915112082E0,3.260187864E0,1.161254883E0,-4.538728893E-1
2.917096076E0,3.275459528E0,1.164919972E0,-4.422664344E-1
2.919109532E0,3.281568050E0,1.162476540E0,-4.379903674E-1
2.921093296E0,3.293174505E0,1.154535294E0,-4.294382632E-1
2.923107752E0,3.307224512E0,1.136209369E0,-4.196644127E-1
2.925091131E0,3.309056997E0,1.124602914E0,-4.166100919E-1
2.927106202E0,3.320663452E0,1.100779176E0,-4.105014503E-1
2.929119658E0,3.328604698E0,1.071457624E0,-4.074471295E-1
2.931103960E0,3.329215527E0,1.054353356E0,-4.068362415E-1
2.933113878E0,3.335324287E0,1.021366715E0,-4.043927789E-1
2.935099949E0,3.342043638E0,9.810495973E-1,-4.092797041E-1
2.937115406E0,3.343876362E0,9.621127844E-1,-4.117231667E-1
2.939099400E0,3.348763227E0,9.205739498E-1,-4.172209501E-1
2.941112547E0,3.350595951E0,8.845328689E-1,-4.221078753E-1
2.943096850E0,3.349985123E0,8.674286604E-1,-4.294382632E-1
2.945111075E0,3.349985123E0,8.350527883E-1,-4.379903674E-1
2.947095916E0,3.349985123E0,8.191702962E-1,-4.447098970E-1
2.949109218E0,3.348152399E0,7.922922373E-1,-4.508185387E-1
2.951092289E0,3.347541571E0,7.709119320E-1,-4.587597847E-1
2.953107053E0,3.343876362E0,7.617489696E-1,-4.624249935E-1
2.955120508E0,3.342043638E0,7.464773059E-1,-4.673119187E-1
2.957104580E0,3.340211153E0,7.336491346E-1,-4.715879560E-1
2.959117805E0,3.340821981E0,7.287622094E-1,-4.709770977E-1
2.961101491E0,3.340211153E0,7.232644558E-1,-4.703662395E-1
2.963116256E0,3.339600325E0,7.238753438E-1,-4.685336351E-1
2.965099634E0,3.342654705E0,7.226535678E-1,-4.679227769E-1
2.967115552E0,3.342043638E0,7.232644558E-1,-4.642575979E-1
2.969097777E0,3.344487190E0,7.275404930E-1,-4.605923891E-1
2.971112233E0,3.350595951E0,7.293730974E-1,-4.569272101E-1
2.973094382E0,3.353650093E0,7.354817390E-1,-4.538728893E-1
2.975110683E0,3.355482817E0,7.367035151E-1,-4.514294267E-1
2.977094063E0,3.354261160E0,7.476990819E-1,-4.502076805E-1
2.979106903E0,3.357315302E0,7.586946487E-1,-4.495968223E-1
2.981121743E0,3.356704473E0,7.641924024E-1,-4.495968223E-1
2.983105046E0,3.354261160E0,7.776314616E-1,-4.495968223E-1
2.985119271E0,3.354871988E0,7.965682745E-1,-4.489859641E-1
2.987104112E0,3.354871988E0,8.051204085E-1,-4.471533597E-1
2.989117413E0,3.354261160E0,8.277224302E-1,-4.453207552E-1
2.991100178E0,3.356704473E0,8.533787727E-1,-4.489859641E-1
2.993115249E0,3.358537197E0,8.662069440E-1,-4.477642179E-1
2.995098858E0,3.359148026E0,8.930850029E-1,-4.428772926E-1
2.997112468E0,3.357315302E0,9.236282706E-1,-4.398229718E-1
2.999095770E0,3.357315302E0,9.395107627E-1,-4.379903674E-1
3.001110534E0,3.353650093E0,9.676105380E-1,-4.349360466E-1
3.003093682E0,3.348763227E0,9.993755221E-1,-4.312708676E-1
3.005107830E0,3.346930742E0,1.015258074E0,-4.294382632E-1
3.007092748E0,3.340821981E0,1.047023058E0,-4.239404798E-1
3.009106204E0,3.334102392E0,1.065348983E0,-4.221078753E-1
3.011119737E0,3.327383041E0,1.100779176E0,-4.178318381E-1
3.013102885E0,3.317609072E0,1.137431145E0,-4.141666293E-1
3.015117033E0,3.312111378E0,1.158200502E0,-4.153883755E-1
3.017101336E0,3.303559303E0,1.196684957E0,-4.105014503E-1
3.019115483E0,3.293785334E0,1.233336926E0,-4.068362415E-1
3.021099478E0,3.287676811E0,1.253495455E0,-4.068362415E-1
3.023113319E0,3.273626804E0,1.291369081E0,-4.092797041E-1
3.025096929E0,3.257133484E0,1.326799273E0,-4.111123085E-1
3.027112077E0,3.246137857E0,1.347568750E0,-4.135557711E-1
3.029095379E0,3.229644537E0,1.384831548E0,-4.214970171E-1
3.031108681E0,3.210707664E0,1.423926830E0,-4.276056588E-1
3.033093829E0,3.199712038E0,1.446528912E0,-4.288274050E-1
3.035107439E0,3.180775404E0,1.491732955E0,-4.398229718E-1
3.037090203E0,3.162449360E0,1.540602207E0,-4.459316432E-1
3.039104581E0,3.155118942E0,1.568091035E0,-4.563163519E-1
3.041118730E0,3.139847279E0,1.624290705E0,-4.654793143E-1
3.043102493E0,3.132516861E0,1.654833913E0,-4.709770977E-1
3.045116565E0,3.121521473E0,1.716531396E0,-4.807509482E-1
3.047100636E0,3.104417086E0,1.787391663E0,-4.880813360E-1
3.049114476E0,3.101973772E0,1.822211027E0,-4.899139404E-1
3.051097548E0,3.091588974E0,1.888184428E0,-4.929682612E-1
3.053111312E0,3.080593348E0,1.960877419E0,-4.923573732E-1
3.055096614E0,3.075095654E0,1.996918440E0,-4.911356568E-1
3.057110070E0,3.067765236E0,2.062281132E0,-4.831944108E-1
3.059093833E0,3.056769609E0,2.120924234E0,-4.758640230E-1
3.061107905E0,3.051271915E0,2.149024010E0,-4.709770977E-1
3.063090976E0,3.037221909E0,2.201558352E0,-4.593706727E-1
3.065105432E0,3.031113386E0,2.241875410E0,-4.422664344E-1
3.067120580E0,3.025004625E0,2.259590626E0,-4.331034720E-1
3.069103267E0,3.018285275E0,2.293798923E0,-4.141666293E-1
3.071117415E0,3.006678820E0,2.316401005E0,-4.001167417E-1
3.073101179E0,3.001791716E0,2.324342251E0,-3.878994286E-1
3.075115251E0,2.993239641E0,2.335948706E0,-3.683517575E-1
3.077098398E0,2.988963604E0,2.335948706E0,-3.616322279E-1
3.079113162E0,2.981633186E0,2.336559534E0,-3.420845270E-1
3.081096541E0,2.974302769E0,2.326785803E0,-3.255911767E-1
3.083110920E0,2.971859455E0,2.321898699E0,-3.152064681E-1
3.085094684E0,2.965750694E0,2.304183722E0,-2.993239760E-1
3.087109755E0,2.961474657E0,2.282803535E0,-2.858849466E-1
3.089093058E0,2.963307381E0,2.268142700E0,-2.748893499E-1
3.091106590E0,2.958420277E0,2.237599373E0,-2.590068579E-1
3.093117046E0,2.954144239E0,2.202780008E0,-2.480112910E-1
3.095103810E0,2.955366135E0,2.181399822E0,-2.443460971E-1
3.097118573E0,2.955366135E0,2.142915249E0,-2.302961946E-1
3.099102261E0,2.955976963E0,2.097100496E0,-2.199114859E-1
3.101116485E0,2.957809448E0,2.076330900E0,-2.168571651E-1
3.103100095E0,2.962085485E0,2.027461767E0,-2.095267773E-1
3.105114244E0,2.962696552E0,1.982257724E0,-2.058615834E-1
3.107098622E0,2.968194246E0,1.957212210E0,-2.040289938E-1
3.109112386E0,2.972470284E0,1.909564734E0,-2.040289938E-1
3.111095150E0,2.978579044E0,1.885130167E0,-2.015855312E-1
3.113110221E0,2.988963604E0,1.836871743E0,-2.040289938E-1
3.115092985E0,2.996904850E0,1.789224267E0,-2.083050460E-1
3.117107517E0,3.004846096E0,1.762346268E0,-2.101376504E-1
3.119091205E0,3.019506931E0,1.715309620E0,-2.193006277E-1
3.121104660E0,3.034778595E0,1.668272972E0,-2.296853364E-1
3.123119731E0,3.043941498E0,1.644449234E0,-2.339613885E-1
3.125103188E0,3.062878370E0,1.598634362E0,-2.425135076E-1
3.127117951E0,3.079982519E0,1.560149789E0,-2.565633953E-1
3.129100715E0,3.090978146E0,1.542434692E0,-2.614503205E-1
3.131115094E0,3.117245436E0,1.507615447E0,-2.706133127E-1
3.133098243E0,3.142901659E0,1.478904724E0,-2.803871334E-1
3.135113314E0,3.154508114E0,1.467909217E0,-2.864958048E-1
3.137097615E0,3.181997061E0,1.448972344E0,-2.938261926E-1
3.139109841E0,3.196657896E0,1.442252874E0,-2.968805134E-1
3.141094527E0,3.223536015E0,1.431868076E0,-3.005456924E-1
3.143108368E0,3.247970581E0,1.426981211E0,-2.999348342E-1
3.145091439E0,3.260798693E0,1.428202987E0,-2.987131178E-1
3.147106741E0,3.290731192E0,1.433700681E0,-2.944370508E-1
3.149120044E0,3.318219900E0,1.442252874E0,-2.895501256E-1
3.151104345E0,3.330437422E0,1.448361516E0,-2.834414840E-1
3.153118187E0,3.355482817E0,1.461189628E0,-2.693915665E-1
3.155102181E0,3.381139040E0,1.475239515E0,-2.559525371E-1
3.157116021E0,3.392134666E0,1.484402537E0,-2.461786866E-1
3.159099400E0,3.410460711E0,1.497841597E0,-2.260201424E-1
3.161113241E0,3.426954031E0,1.512502313E0,-2.058615834E-1
3.163097774E0,3.433062792E0,1.520443559E0,-1.918116808E-1
3.165111691E0,3.447112560E0,1.529606581E0,-1.673770845E-1
3.167095608E0,3.459329844E0,1.539380431E0,-1.411098689E-1
3.169109449E0,3.465438604E0,1.544878244E0,-1.252273768E-1
3.171092520E0,3.476433992E0,1.552819490E0,-9.773843735E-2
3.173106669E0,3.481931925E0,1.554652095E0,-8.124507964E-2
3.175090125E0,3.488651514E0,1.557706356E0,-4.825835302E-2
3.177105426E0,3.497203588E0,1.558317184E0,-2.076941915E-2
3.179119344E0,3.500868797E0,1.559538960E0,-2.443460980E-3
3.181102108E0,3.506977320E0,1.554041147E0,2.687807009E-2
3.183116872E0,3.511253357E0,1.547321677E0,5.742133409E-2
3.185100481E0,3.514918566E0,1.541213036E0,7.208210230E-2
3.187115014E0,3.513086081E0,1.526552200E0,1.014036313E-1
3.189098624E0,3.517362118E0,1.505172014E0,1.307251602E-1
3.191112234E0,3.519194603E0,1.491732955E0,1.441642046E-1
3.193097382E0,3.521027327E0,1.463633180E0,1.722639948E-1
3.195109992E0,3.520416498E0,1.425148606E0,1.991420686E-1
3.197093987E0,3.525303364E0,1.401935697E0,2.144137025E-1
3.199108212E0,3.524081707E0,1.357953429E0,2.370157093E-1
3.201091821E0,3.523470640E0,1.335962296E0,2.474004179E-1
3.203105662E0,3.522248983E0,1.280373573E0,2.718350291E-1
3.205119579E0,3.519805431E0,1.219897866E0,2.913827300E-1
3.207104497E0,3.517362118E0,1.187522054E0,2.993239760E-1
3.209117953E0,3.514918566E0,1.118494272E0,3.170390725E-1
3.211100485E0,3.514918566E0,1.040303469E0,3.329215646E-1
3.213114557E0,3.508810043E0,1.000597239E0,3.402519524E-1
3.215099474E0,3.510031700E0,9.193521738E-1,3.549126983E-1
3.217114546E0,3.508810043E0,8.313875794E-1,3.671300113E-1
3.219096156E0,3.508810043E0,7.886270285E-1,3.701843321E-1
3.221110842E0,3.504534006E0,6.994407177E-1,3.793473244E-1
3.223095145E0,3.499646902E0,6.126978397E-1,3.860668242E-1
3.225109062E0,3.492927551E0,5.693264008E-1,3.885102868E-1
3.227093288E0,3.489873171E0,4.850270152E-1,3.897320330E-1
3.229107128E0,3.481321096E0,4.013384581E-1,3.885102868E-1
3.231089969E0,3.475823164E0,3.597996235E-1,3.866777122E-1
3.233105271E0,3.464827776E0,2.803871334E-1,3.866777122E-1
3.235118803E0,3.448945284E0,2.070833147E-1,3.830125034E-1
3.237101952E0,3.439171314E0,1.716531366E-1,3.787364662E-1
3.239116638E0,3.424510479E0,1.044579595E-1,3.707951903E-1
3.241099787E0,3.414736748E0,7.391469181E-2,3.652974069E-1
3.243113858E0,3.398854256E0,1.404990070E-2,3.573561609E-1
3.245098160E0,3.379917383E0,-3.970624134E-2,3.463605940E-1
3.247112924E0,3.371976137E0,-6.230825558E-2,3.384193480E-1
3.249095456E0,3.350595951E0,-1.020144969E-1,3.310889602E-1
3.251109605E0,3.322496176E0,-1.337794960E-1,3.170390725E-1
3.253092599E0,3.308446169E0,-1.472185254E-1,3.127630055E-1
3.255106516E0,3.277292013E0,-1.685988009E-1,3.011565804E-1
3.257091127E0,3.247359753E0,-1.808161139E-1,2.926044464E-1
3.259105275E0,3.230866194E0,-1.850921661E-1,2.889392674E-1
3.261119654E0,3.195436001E0,-1.875356287E-1,2.803871334E-1
3.263103417E0,3.163671017E0,-1.844813079E-1,2.693915665E-1
3.265116565E0,3.145345211E0,-1.795943826E-1,2.687807083E-1
3.267102406E0,3.109304190E0,-1.679879427E-1,2.626720667E-1
3.269115093E0,3.091588974E0,-1.600466967E-1,2.608394623E-1
3.271098088E0,3.053715467E0,-1.380555481E-1,2.583959997E-1
3.273113774E0,3.012176514E0,-1.148426682E-1,2.553416789E-1
3.275096845E0,2.990796328E0,-9.957103431E-2,2.565633953E-1
3.277110763E0,2.945592165E0,-6.841690838E-2,2.528982162E-1
3.279093834E0,2.899166346E0,-3.726277873E-2,2.547308207E-1
3.281108290E0,2.875342607E0,-2.260201424E-2,2.541199327E-1
3.283092284E0,2.824029922E0,1.160643995E-2,2.522873580E-1
3.285106355E0,2.773328304E0,4.337143153E-2,2.522873580E-1
3.287121735E0,2.746450186E0,6.047565863E-2,2.498438805E-1
3.289103652E0,2.696359158E0,8.979719132E-2,2.492330223E-1
3.291118647E0,2.639548779E0,1.160643995E-1,2.492330223E-1
3.293101487E0,2.611449003E0,1.301143020E-1,2.480112910E-1
3.295115635E0,2.552195072E0,1.576032341E-1,2.492330223E-1
3.297099861E0,2.490497589E0,1.820378453E-1,2.474004179E-1
3.299113086E0,2.459954262E0,1.905899495E-1,2.443460971E-1
3.301097388E0,2.398257017E0,2.138028294E-1,2.449569702E-1
3.303111536E0,2.363437653E0,2.260201424E-1,2.400700450E-1
3.305094993E0,2.296853304E0,2.467895597E-1,2.400700450E-1
3.307110679E0,2.229658127E0,2.675589919E-1,2.357939780E-1
3.309093135E0,2.197282314E0,2.797762752E-1,2.309070677E-1
3.311107283E0,2.127643585E0,3.036000133E-1,2.254092693E-1
3.313091508E0,2.056172371E0,3.280346394E-1,2.138028294E-1
3.315104734E0,2.020742178E0,3.414736688E-1,2.095267773E-1
3.317119190E0,1.944994926E0,3.683517575E-1,1.936442852E-1
3.319102645E0,1.873523712E0,3.970624208E-1,1.698205322E-1
3.321116717E0,1.837482691E0,4.135557711E-1,1.612684280E-1
3.323100173E0,1.764789701E0,4.434881806E-1,1.350012124E-1
3.325114552E0,1.693929315E0,4.740314186E-1,1.032362282E-1
3.327098623E0,1.659720898E0,4.862487316E-1,8.613199741E-2
3.329112386E0,1.594358325E0,5.192354321E-1,4.764748737E-2
3.331096689E0,1.528995752E0,5.485569835E-1,9.773843922E-3
3.333109606E0,1.495398164E0,5.668829679E-1,-1.282817032E-2
3.335093909E0,1.432479024E0,5.992587805E-1,-5.681046844E-2
3.337108672E0,1.397659659E0,6.163630486E-1,-7.880161703E-2
3.339091744E0,1.336573124E0,6.548475623E-1,-1.221730486E-1
3.341105584E0,1.273043156E0,6.969972253E-1,-1.624901593E-1
3.343119809E0,1.240056396E0,7.220427394E-1,-1.838704348E-1
3.345104112E0,1.173472166E0,7.672467232E-1,-2.199114859E-1
3.347118490E0,1.104444385E0,8.234463334E-1,-2.541199327E-1
3.349101562E0,1.075122833E0,8.484918475E-1,-2.700024247E-1
3.351116095E0,1.006705880E0,9.053022861E-1,-2.944370508E-1
3.353099473E0,9.431759119E-1,9.627236128E-1,-3.145956099E-1
3.355113930E0,9.101892114E-1,9.926560521E-1,-3.219259977E-1
3.357097001E0,8.472700715E-1,1.043357849E0,-3.316998184E-1
3.359110765E0,7.849618196E-1,1.091005325E0,-3.347541690E-1
3.361094836E0,7.538077235E-1,1.115439892E0,-3.371976018E-1
3.363108907E0,6.939429045E-1,1.155757070E0,-3.353650272E-1
3.365092056E0,6.646214128E-1,1.175915599E0,-3.341432810E-1
3.367107973E0,6.084218025E-1,1.204626322E0,-3.274237812E-1
3.369090429E0,5.571091175E-1,1.230282545E0,-3.225368559E-1
3.371104654E0,5.308418870E-1,1.237002134E0,-3.188716471E-1
3.373118110E0,4.801400900E-1,1.248608589E0,-3.121521473E-1
3.375103028E0,4.306600094E-1,1.255938888E0,-3.060434759E-1
3.377116637E0,4.050036669E-1,1.256549835E0,-3.042109013E-1
3.379099709E0,3.567453027E-1,1.254106402E0,-2.981022298E-1
3.381114703E0,3.066543639E-1,1.241278172E0,-2.981022298E-1
3.383098389E0,2.864958048E-1,1.231504321E0,-2.956587672E-1
3.385111923E0,2.419026345E-1,1.206458807E0,-2.987131178E-1
3.387096840E0,2.003637999E-1,1.178359032E0,-2.987131178E-1
3.389110066E0,1.814269722E-1,1.161254883E0,-2.987131178E-1
3.391093444E0,1.392772794E-1,1.120937705E0,-3.042109013E-1
3.393108592E0,9.896016866E-2,1.077566266E0,-3.072652221E-1
3.395090972E0,8.124507964E-2,1.050688267E0,-3.121521473E-1
3.397105197E0,4.153883830E-2,9.987646937E-1,-3.158173263E-1
3.399120192E0,0.000000000E0,9.425650835E-1,-3.188716471E-1
3.401103032E0,-1.649336144E-2,9.077457786E-1,-3.237585723E-1
3.403117181E0,-5.314527452E-2,8.442157507E-1,-3.286454976E-1
3.405100867E0,-7.024950534E-2,8.106181622E-1,-3.310889602E-1
3.407115553E0,-1.050688252E-1,7.409795523E-1,-3.353650272E-1
3.409099010E0,-1.380555481E-1,6.682865620E-1,-3.378084898E-1
3.411113158E0,-1.508837193E-1,6.365215778E-1,-3.396410644E-1
3.413096153E0,-1.857030392E-1,5.632177591E-1,-3.402519524E-1
3.415110377E0,-2.174680233E-1,4.917465150E-1,-3.445279896E-1
3.417094294E0,-2.302961946E-1,4.612032473E-1,-3.457497358E-1
3.419108751E0,-2.614503205E-1,3.982841372E-1,-3.451388776E-1
3.421092437E0,-2.889392674E-1,3.378084898E-1,-3.445279896E-1
3.423106278E0,-3.023782969E-1,3.115412891E-1,-3.433062732E-1
3.425090580E0,-3.316998184E-1,2.596177161E-1,-3.457497358E-1
3.427105343E0,-3.591887653E-1,2.144137025E-1,-3.426954150E-1
3.429118877E0,-3.726277947E-1,1.930334121E-1,-3.420845270E-1
3.431101948E0,-4.001167417E-1,1.539380401E-1,-3.420845270E-1
3.433116097E0,-4.123340547E-1,1.337794960E-1,-3.384193480E-1
3.435099475E0,-4.355469346E-1,1.001819000E-1,-3.390302062E-1
3.437113931E0,-4.612032473E-1,7.208210230E-2,-3.359758854E-1
3.439097695E0,-4.740314186E-1,5.619960278E-2,-3.323107064E-1
3.441111535E0,-4.996877611E-1,2.809980139E-2,-3.286454976E-1
3.443095222E0,-5.210680366E-1,6.108652335E-3,-3.262020350E-1
3.445108370E0,-5.357288122E-1,-4.886921961E-3,-3.237585723E-1
3.447093596E0,-5.626068711E-1,-2.443460934E-2,-3.188716471E-1
3.449107206E0,-5.833762884E-1,-4.459316283E-2,-3.133738637E-1
3.451090507E0,-5.974262357E-1,-5.375614017E-2,-3.109304011E-1
3.453105271E0,-6.206390858E-1,-6.963863969E-2,-3.060434759E-1
3.455119419E0,-6.426302195E-1,-8.307767659E-2,-2.999348342E-1
3.457102799E0,-6.524040699E-1,-9.285151958E-2,-2.944370508E-1
3.459116101E0,-6.762278080E-1,-1.056796908E-1,-2.871066630E-1
3.461100325E0,-6.982190013E-1,-1.233947799E-1,-2.785545588E-1
3.463114474E0,-7.067710757E-1,-1.307251602E-1,-2.748893499E-1
3.465098237E0,-7.287622094E-1,-1.496619880E-1,-2.675589919E-1
3.467113309E0,-7.415903807E-1,-1.569923609E-1,-2.614503205E-1
3.469096919E0,-7.617489696E-1,-1.771509200E-1,-2.547308207E-1
3.471110144E0,-7.812966704E-1,-1.960877478E-1,-2.449569702E-1
3.473095369E0,-7.929030657E-1,-2.083050460E-1,-2.406809032E-1
3.475107979E0,-8.118399382E-1,-2.284636050E-1,-2.333505303E-1
3.477092051E0,-8.332201838E-1,-2.535090744E-1,-2.235766798E-1
3.479105891E0,-8.448266387E-1,-2.638937831E-1,-2.223549485E-1
3.481089269E0,-8.655960560E-1,-2.907718420E-1,-2.162462920E-1
3.483104034E0,-8.869763613E-1,-3.194825351E-1,-2.070833147E-1
3.485117258E0,-9.010262489E-1,-3.304781020E-1,-2.064724565E-1
3.487102484E0,-9.211847782E-1,-3.579670191E-1,-2.003637999E-1
3.489116555E0,-9.437867999E-1,-3.903428912E-1,-1.960877478E-1
3.491099088E0,-9.529497623E-1,-4.050036669E-1,-1.960877478E-1
3.493112621E0,-9.761626720E-1,-4.300491214E-1,-1.912008226E-1
3.495097154E0,-9.975429177E-1,-4.575380683E-1,-1.912008226E-1
3.497110764E0,-1.007927656E0,-4.721988440E-1,-1.912008226E-1
3.499094143E0,-1.028697014E0,-4.984660447E-1,-1.881465018E-1
3.501108830E0,-1.040303469E0,-5.106833577E-1,-1.893682331E-1
3.503091901E0,-1.056185961E0,-5.314527750E-1,-1.936442852E-1
3.505106664E0,-1.075733662E0,-5.522221923E-1,-1.924225539E-1
3.507090736E0,-1.080620646E0,-5.674937963E-1,-1.936442852E-1
3.509105115E0,-1.100168347E0,-5.852088928E-1,-2.021963894E-1
3.511119033E0,-1.116661668E0,-5.998696685E-1,-2.064724565E-1
3.513102411E0,-1.123992085E0,-6.090326309E-1,-2.095267773E-1
3.515116482E0,-1.138652802E0,-6.206390858E-1,-2.162462920E-1
3.517100246E0,-1.150870085E0,-6.291912198E-1,-2.247984111E-1
3.519114010E0,-1.157589674E0,-6.316346526E-1,-2.296853364E-1
3.521098005E0,-1.171639562E0,-6.352998614E-1,-2.370157093E-1
3.523112153E0,-1.183246017E0,-6.346889734E-1,-2.461786866E-1
3.525095531E0,-1.190576315E0,-6.340781450E-1,-2.541199327E-1
3.527110680E0,-1.205847979E0,-6.255260110E-1,-2.663372457E-1
3.529093443E0,-1.211345792E0,-6.206390858E-1,-2.706133127E-1
3.531108131E0,-1.226006508E0,-6.053674817E-1,-2.858849466E-1
3.533090971E0,-1.240667343E0,-5.888741016E-1,-2.962696552E-1
3.535106042E0,-1.244332552E0,-5.821545720E-1,-3.011565804E-1
3.537089344E0,-1.263269305E0,-5.577199459E-1,-3.121521473E-1
3.539102569E0,-1.275486588E0,-5.375614166E-1,-3.243694305E-1
3.541117718E0,-1.282817006E0,-5.241223574E-1,-3.286454976E-1
3.543101404E0,-1.295645237E0,-4.984660447E-1,-3.402519524E-1
3.545115552E0,-1.309084177E0,-4.740314186E-1,-3.481931984E-1
3.547099778E0,-1.314581990E0,-4.593706727E-1,-3.512475193E-1
3.549113695E0,-1.327410221E0,-4.306600094E-1,-3.573561609E-1
3.551096690E0,-1.337184072E0,-4.031710625E-1,-3.622430861E-1
3.553111146E0,-1.343292713E0,-3.891211748E-1,-3.622430861E-1
3.555094525E0,-1.350623012E0,-3.616322279E-1,-3.628539443E-1
3.557108135E0,-1.357342601E0,-3.329215646E-1,-3.616322279E-1
3.559092744E0,-1.361618638E0,-3.170390725E-1,-3.597996235E-1
3.561106816E0,-1.365894675E0,-2.919935882E-1,-3.591887653E-1
3.563089964E0,-1.368949056E0,-2.785545588E-1,-3.561344445E-1
3.565104113E0,-1.373835921E0,-2.510656118E-1,-3.518583775E-1
3.567119722E0,-1.373225093E0,-2.284636050E-1,-3.457497358E-1
3.569102254E0,-1.375057697E0,-2.174680233E-1,-3.433062732E-1
3.571116326E0,-1.372003317E0,-1.997529417E-1,-3.371976018E-1
3.573098859E0,-1.372003317E0,-1.826487035E-1,-3.304781020E-1
3.575112700E0,-1.373225093E0,-1.765400618E-1,-3.286454976E-1
3.577097309E0,-1.375057697E0,-1.624901593E-1,-3.225368559E-1
3.579111996E0,-1.373225093E0,-1.576032341E-1,-3.176499307E-1
3.581095375E0,-1.374446750E0,-1.557706445E-1,-3.158173263E-1
3.583109600E0,-1.372614264E0,-1.588249654E-1,-3.133738637E-1
3.585093595E0,-1.368949056E0,-1.643227488E-1,-3.109304011E-1
3.587108051E0,-1.368338108E0,-1.704314053E-1,-3.103195429E-1
3.589091353E0,-1.365283847E0,-1.863138974E-1,-3.097086847E-1
3.591105270E0,-1.363451242E0,-2.046398520E-1,-3.103195429E-1
3.593119957E0,-1.362229466E0,-2.162462920E-1,-3.121521473E-1
3.595102721E0,-1.361007810E0,-2.364048511E-1,-3.158173263E-1
3.597117176E0,-1.359175205E0,-2.486221492E-1,-3.158173263E-1
3.599100633E0,-1.359786034E0,-2.742784917E-1,-3.194825351E-1
3.601114781E0,-1.361007810E0,-2.974913716E-1,-3.225368559E-1
3.603097775E0,-1.362229466E0,-3.103195429E-1,-3.243694305E-1
3.605112616E0,-1.362229466E0,-3.359758854E-1,-3.274237812E-1
3.607097225E0,-1.366505504E0,-3.597996235E-1,-3.310889602E-1
3.609110374E0,-1.367727280E0,-3.726277947E-1,-3.298672438E-1
3.611093445E0,-1.370170712E0,-3.982841372E-1,-3.335324228E-1
3.613107901E0,-1.376890302E0,-4.221078753E-1,-3.335324228E-1
3.615093127E0,-1.379944563E0,-4.337143302E-1,-3.329215646E-1
3.617106121E0,-1.386664152E0,-4.544837475E-1,-3.310889602E-1
3.619088885E0,-1.392772794E0,-4.746423066E-1,-3.274237812E-1
3.621103340E0,-1.392161846E0,-4.838052690E-1,-3.249803185E-1
3.623117719E0,-1.400714040E0,-5.015203953E-1,-3.225368559E-1
3.625102099E0,-1.402546644E0,-5.192354321E-1,-3.170390725E-1
3.627116477E0,-1.404379249E0,-5.283984542E-1,-3.152064681E-1
3.629098934E0,-1.406822681E0,-5.455026627E-1,-3.054326177E-1
3.631114082E0,-1.410487890E0,-5.534439087E-1,-3.017674387E-1
3.633097460E0,-1.412320495E0,-5.681046844E-1,-2.974913716E-1
3.635111532E0,-1.413542151E0,-5.845980644E-1,-2.907718420E-1
3.637095603E0,-1.410487890E0,-5.955936313E-1,-2.889392674E-1
3.639109060E0,-1.413542151E0,-6.078109145E-1,-2.816088796E-1
3.641092515E0,-1.411709547E0,-6.267477274E-1,-2.761110961E-1
3.643106663E0,-1.414153099E0,-6.346889734E-1,-2.736676335E-1
3.645090581E0,-1.414153099E0,-6.511823535E-1,-2.663372457E-1
3.647105421E0,-1.409266114E0,-6.719517708E-1,-2.626720667E-1
3.649118647E0,-1.409266114E0,-6.786713004E-1,-2.565633953E-1
3.651102641E0,-1.407433510E0,-6.988298297E-1,-2.553416789E-1
3.653113712E0,-1.402546644E0,-7.183775306E-1,-2.486221492E-1
3.655099245E0,-1.397659659E0,-7.275404930E-1,-2.461786866E-1
3.657114239E0,-1.392161846E0,-7.434229851E-1,-2.455678284E-1
3.659098004E0,-1.386664152E0,-7.605272532E-1,-2.437352389E-1
3.661112151E0,-1.387885809E0,-7.672467232E-1,-2.406809032E-1
3.663096146E0,-1.386053205E0,-7.800748944E-1,-2.376265824E-1
3.665110525E0,-1.386053205E0,-7.867944241E-1,-2.400700450E-1
3.667094827E0,-1.388496757E0,-7.929030657E-1,-2.364048511E-1
3.669108053E0,-1.388496757E0,-7.959573865E-1,-2.351831198E-1
3.671091739E0,-1.389107585E0,-7.971791625E-1,-2.333505303E-1
3.673106195E0,-1.389718413E0,-8.008443117E-1,-2.296853364E-1
3.675089574E0,-1.392161846E0,-7.965682745E-1,-2.247984111E-1
3.677103722E0,-1.392772794E0,-7.953465581E-1,-2.235766798E-1
3.679117255E0,-1.397048831E0,-7.892379165E-1,-2.211332172E-1
3.681101326E0,-1.403157473E0,-7.812966704E-1,-2.180788964E-1
3.683114552E0,-1.409876943E0,-7.721336484E-1,-2.186897546E-1
3.685098469E0,-1.417207360E0,-7.593054771E-1,-2.144137025E-1
3.687114155E0,-1.425148606E0,-7.428121567E-1,-2.095267773E-1
3.689096689E0,-1.429424644E0,-7.330383062E-1,-2.101376504E-1
3.691111683E0,-1.440420270E0,-7.104362845E-1,-2.107485086E-1
3.693094139E0,-1.442252874E0,-7.012733221E-1,-2.095267773E-1
3.695109903E0,-1.453248382E0,-6.750060916E-1,-2.101376504E-1
3.697092359E0,-1.458746195E0,-6.511823535E-1,-2.119702399E-1
3.699105199E0,-1.466687441E0,-6.340781450E-1,-2.150245607E-1
3.701121501E0,-1.469741821E0,-6.084218025E-1,-2.174680233E-1
3.703104573E0,-1.476461291E0,-5.815436840E-1,-2.247984111E-1
3.705118721E0,-1.480737329E0,-5.662720799E-1,-2.290744632E-1
3.707103101E0,-1.485624313E0,-5.430592299E-1,-2.339613885E-1
3.709116325E0,-1.489289522E0,-5.216789246E-1,-2.400700450E-1
3.711100319E0,-1.494176388E0,-5.112941861E-1,-2.412917763E-1
3.713114391E0,-1.496619821E0,-4.948008358E-1,-2.480112910E-1
3.715097462E0,-1.496619821E0,-4.813618064E-1,-2.516764700E-1
3.717112226E0,-1.498452425E0,-4.770857692E-1,-2.522873580E-1
3.719095682E0,-1.496619821E0,-4.709770977E-1,-2.565633953E-1
3.721108907E0,-1.496619821E0,-4.667010605E-1,-2.577851415E-1
3.723092825E0,-1.494787216E0,-4.654793143E-1,-2.577851415E-1
3.725106126E0,-1.489900351E0,-4.673119187E-1,-2.571742535E-1
3.727091352E0,-1.492954612E0,-4.691445231E-1,-2.559525371E-1
3.729105500E0,-1.492343783E0,-4.752531648E-1,-2.486221492E-1
3.731088879E0,-1.492954612E0,-4.874704778E-1,-2.412917763E-1
3.733099258E0,-1.494176388E0,-4.935791194E-1,-2.382374406E-1
3.735116791E0,-1.492343783E0,-5.082398653E-1,-2.309070677E-1
3.737100863E0,-1.490511179E0,-5.235115290E-1,-2.205223590E-1
3.739114934E0,-1.489900351E0,-5.338962078E-1,-2.150245607E-1
3.741098620E0,-1.485624313E0,-5.510004759E-1,-2.040289938E-1
3.743112538E0,-1.483180761E0,-5.711590052E-1,-1.869247705E-1
3.745095840E0,-1.480126500E0,-5.803219676E-1,-1.826487035E-1
3.747110681E0,-1.472796082E0,-5.998696685E-1,-1.667662114E-1
3.749094060E0,-1.467298269E0,-6.206390858E-1,-1.569923609E-1
3.751108823E0,-1.465465665E0,-6.291912198E-1,-1.459967941E-1
3.753092741E0,-1.456302762E0,-6.481280327E-1,-1.319468915E-1
3.755105966E0,-1.447750688E0,-6.682865620E-1,-1.172861308E-1
3.757090268E0,-1.445918083E0,-6.774495840E-1,-1.087340117E-1
3.759103801E0,-1.436144233E0,-6.982190013E-1,-9.773843735E-2
3.761117718E0,-1.432479024E0,-7.098253965E-1,-9.224065393E-2
3.763101405E0,-1.425759435E0,-7.287622094E-1,-7.757988572E-2
3.765116399E0,-1.422705173E0,-7.507534027E-1,-6.780604273E-2
3.767099856E0,-1.422094345E0,-7.605272532E-1,-6.475171447E-2
3.769114004E0,-1.420872569E0,-7.812966704E-1,-5.253441259E-2
3.771097383E0,-1.421483397E0,-7.996225953E-1,-4.459316283E-2
3.773110608E0,-1.422094345E0,-8.057312369E-1,-4.153883830E-2
3.775095756E0,-1.427592039E0,-8.216137290E-1,-3.481931984E-2
3.777109905E0,-1.433700681E0,-8.344419003E-1,-2.687807009E-2
3.779092437E0,-1.438587666E0,-8.405506015E-1,-2.382374369E-2
3.781106817E0,-1.447750688E0,-8.515461683E-1,-1.954768784E-2
3.783090580E0,-1.461189628E0,-8.558222055E-1,-1.404990070E-2
3.785104728E0,-1.466076612E0,-8.576548100E-1,-1.099557430E-2
3.787120338E0,-1.478293896E0,-8.613200188E-1,-4.886921961E-3
3.789103101E0,-1.491732955E0,-8.607091308E-1,-1.832595794E-3
3.791116404E0,-1.499674201E0,-8.643743396E-1,3.665191587E-3
3.793101014E0,-1.514945865E0,-8.643743396E-1,1.099557430E-2
3.795114238E0,-1.519221902E0,-8.643743396E-1,1.466076635E-2
3.797098233E0,-1.538769603E0,-8.662069440E-1,2.260201424E-2
3.799112612E0,-1.551597714E0,-8.674286604E-1,3.054326214E-2
3.801095761E0,-1.559538960E0,-8.686503768E-1,3.420845419E-2
3.803109524E0,-1.573588848E0,-8.674286604E-1,4.092797264E-2
3.805094442E0,-1.588249683E0,-8.637634516E-1,4.764748737E-2
3.807108975E0,-1.594358325E0,-8.607091308E-1,5.131268129E-2
3.809091661E0,-1.605353832E0,-8.576548100E-1,5.558873713E-2
3.811106117E0,-1.613295078E0,-8.509352803E-1,5.986479297E-2
3.813088881E0,-1.618182063E0,-8.460483551E-1,6.047565863E-2
3.815102722E0,-1.624901533E0,-8.381071091E-1,6.536258012E-2
3.817118100E0,-1.629788518E0,-8.271115422E-1,6.963863969E-2
3.819101248E0,-1.627344966E0,-8.240572214E-1,6.963863969E-2
3.821115705E0,-1.629788518E0,-8.130616546E-1,6.902777404E-2
3.823099314E0,-1.629177570E0,-8.093964458E-1,7.269296050E-2
3.825113463E0,-1.627344966E0,-8.014551997E-1,7.024950534E-2
3.827097457E0,-1.620014668E0,-7.916813493E-1,7.024950534E-2
3.829111374E0,-1.617571115E0,-7.910705209E-1,6.902777404E-2
3.831095292E0,-1.607186437E0,-7.874053121E-1,7.086037099E-2
3.833109440E0,-1.597412586E0,-7.861835957E-1,6.963863969E-2
3.835092512E0,-1.593136549E0,-7.861835957E-1,7.147123665E-2
3.837106121E0,-1.579697490E0,-7.880161405E-1,6.963863969E-2
3.839090039E0,-1.561982393E0,-7.965682745E-1,6.780604273E-2
3.841104803E0,-1.555262923E0,-8.020660877E-1,6.902777404E-2
3.843118028E0,-1.536326051E0,-8.130616546E-1,6.475171447E-2
3.845101792E0,-1.521054506E0,-8.289441466E-1,6.414084882E-2
3.847117170E0,-1.509448051E0,-8.374962807E-1,6.414084882E-2
3.849100472E0,-1.494176388E0,-8.570439219E-1,6.352998316E-2
3.851113467E0,-1.477072120E0,-8.772025108E-1,6.414084882E-2
3.853097384E0,-1.472796082E0,-8.906415105E-1,6.352998316E-2
3.855112148E0,-1.458746195E0,-9.126327038E-1,6.597344577E-2
3.857096142E0,-1.453859329E0,-9.260717034E-1,6.719517708E-2
3.859109059E0,-1.441641927E0,-9.529497623E-1,6.963863969E-2
3.861093978E0,-1.433700681E0,-9.761626720E-1,7.574728876E-2
3.863107895E0,-1.432479024E0,-9.877691269E-1,7.880161703E-2
3.865090659E0,-1.428202987E0,-1.009149432E0,8.429940045E-2
3.867105653E0,-1.430646420E0,-1.032362223E0,1.001819000E-1
3.869089033E0,-1.433700681E0,-1.040303469E0,1.032362282E-1
3.871103180E0,-1.439198494E0,-1.056185961E0,1.203404516E-1
3.873117713E0,-1.444085479E0,-1.067792416E0,1.337794960E-1
3.875100400E0,-1.449583173E0,-1.070846796E0,1.435533315E-1
3.877115163E0,-1.455080986E0,-1.074512005E0,1.624901593E-1
3.879098928E0,-1.464244008E0,-1.074512005E0,1.814269722E-1
3.881113075E0,-1.467298269E0,-1.072068453E0,1.899790913E-1
3.883097069E0,-1.475239515E0,-1.062905550E0,2.131919712E-1
3.885110526E0,-1.488067746E0,-1.050077319E0,2.333505303E-1
3.887095135E0,-1.491122007E0,-1.042747021E0,2.394591719E-1
3.889108130E0,-1.503950238E0,-1.022588372E0,2.608394623E-1
3.891091432E0,-1.508837104E0,-1.012814522E0,2.706133127E-1
3.893103118E0,-1.519221902E0,-9.902125597E-1,2.852740586E-1
3.895120113E0,-1.532050014E0,-9.651671052E-1,2.993239760E-1
3.897104107E0,-1.537547827E0,-9.566149712E-1,3.054326177E-1
3.899118256E0,-1.550375938E0,-9.297369123E-1,3.121521473E-1
3.901101558E0,-1.559538960E0,-9.059131742E-1,3.182607889E-1
3.903116014E0,-1.565036774E0,-8.930850029E-1,3.213151097E-1
3.905099701E0,-1.572367191E0,-8.710938692E-1,3.200933933E-1
3.907115387E0,-1.576032281E0,-8.491026759E-1,3.194825351E-1
3.909098459E0,-1.579086661E0,-8.387179971E-1,3.152064681E-1
3.911111453E0,-1.576643229E0,-8.216137290E-1,3.109304011E-1
3.913096910E0,-1.569923639E0,-8.100073338E-1,3.042109013E-1
3.915109904E0,-1.567480206E0,-8.069530129E-1,2.993239760E-1
3.917092975E0,-1.557095528E0,-8.014551997E-1,2.926044464E-1
3.919107431E0,-1.544878244E0,-8.057312369E-1,2.834414840E-1
3.921090810E0,-1.541823864E0,-8.063421249E-1,2.742784917E-1
3.923105266E0,-1.530217409E0,-8.179485798E-1,2.669481039E-1
3.925088337E0,-1.523497939E0,-8.283332586E-1,2.620611787E-1
3.927103639E0,-1.509448051E0,-8.472700715E-1,2.480112910E-1
3.929116326E0,-1.492954612E0,-8.753699064E-1,2.449569702E-1
3.931100320E0,-1.488678575E0,-8.894197941E-1,2.376265824E-1
3.933114469E0,-1.474017859E0,-9.230173826E-1,2.296853364E-1
3.935099309E0,-1.464854836E0,-9.566149712E-1,2.247984111E-1
3.937113226E0,-1.456302762E0,-9.761626720E-1,2.241875380E-1
3.939095683E0,-1.444085479E0,-1.013425469E0,2.193006277E-1
3.941111061E0,-1.434311628E0,-1.046412110E0,2.199114859E-1
3.943093518E0,-1.428202987E0,-1.068403363E0,2.223549485E-1
3.945107666E0,-1.417207360E0,-1.099557400E0,2.235766798E-1
3.947093506E0,-1.401935697E0,-1.132544160E0,2.302961946E-1
3.949105116E0,-1.395827055E0,-1.149037480E0,2.345722616E-1
3.951088880E0,-1.379333735E0,-1.177748203E0,2.437352389E-1
3.953104182E0,-1.369559884E0,-1.200961113E0,2.565633953E-1
3.955117792E0,-1.361618638E0,-1.212567568E0,2.651155293E-1
3.957102093E0,-1.349401355E0,-1.233947754E0,2.773328125E-1
3.959115627E0,-1.345736146E0,-1.244332552E0,2.852740586E-1
3.961099236E0,-1.333518863E0,-1.256549835E0,2.999348342E-1
3.963113385E0,-1.327410221E0,-1.270599723E0,3.164281845E-1
3.965096533E0,-1.324966669E0,-1.274264932E0,3.231477141E-1
3.967111913E0,-1.318858027E0,-1.282206178E0,3.390302062E-1
3.969095214E0,-1.314581990E0,-1.285871387E0,3.536909819E-1
3.971109054E0,-1.313971162E0,-1.286482215E0,3.585779071E-1
3.973092126E0,-1.310916781E0,-1.283427835E0,3.732386529E-1
3.975106659E0,-1.307251573E0,-1.280984402E0,3.836233616E-1
3.977090038E0,-1.307251573E0,-1.279151797E0,3.897320330E-1
3.979104725E0,-1.308473349E0,-1.266323686E0,3.995058835E-1
3.981087873E0,-1.309695125E0,-1.255938888E0,4.050036669E-1
3.983103252E0,-1.310305953E0,-1.248608589E0,4.080579877E-1
3.985116400E0,-1.312138557E0,-1.232726097E0,4.123340547E-1
3.987102010E0,-1.313971162E0,-1.222952247E0,4.129449129E-1
3.989114312E0,-1.322523236E0,-1.205237150E0,4.123340547E-1
3.991097922E0,-1.328631878E0,-1.189965487E0,4.105014503E-1
3.993112993E0,-1.334740520E0,-1.180802464E0,4.092797041E-1
3.995095449E0,-1.345736146E0,-1.164919972E0,4.062253833E-1
