"Time (s)","Linear Acceleration x (m/s^2)","Linear Acceleration y (m/s^2)","Linear Acceleration z (m/s^2)"
1.719326000E-2,-7.966494560E-2,1.955742836E-1,-1.240649223E-1
2.518864300E-2,5.309152603E-2,2.822937965E-1,-1.772723198E-1
3.318525900E-2,7.171225548E-2,3.343753815E-1,-1.934156418E-1
4.121018100E-2,-1.234531403E-3,3.691291809E-1,-2.028341293E-1
4.920618000E-2,-1.455056667E-1,4.982166290E-1,-1.978769302E-1
5.720225700E-2,-1.724321842E-1,5.443477631E-1,-1.694908142E-1
6.519794800E-2,-2.256419659E-1,5.821580887E-1,-1.152653694E-1
7.319294800E-2,-2.980828285E-1,5.972871780E-1,-3.316164017E-2
8.118833200E-2,-3.708436489E-1,5.854830742E-1,-1.028442383E-2
8.918433200E-2,-4.868445396E-1,5.418071747E-1,-5.646705627E-3
9.721056200E-2,-3.747820854E-1,4.943509102E-1,-1.542186737E-2
1.052059450E-1,-2.244138718E-2,4.278697968E-1,-9.762525558E-2
1.132021760E-1,-3.684172630E-1,3.629746437E-1,-1.140613556E-1
1.211964060E-1,-3.714096546E-1,3.671274185E-1,-2.173571587E-1
1.291929440E-1,-1.868543625E-1,3.582167625E-1,-3.342671394E-1
1.371884050E-1,-2.321202755E-1,3.419203758E-1,-3.290748596E-1
1.451843280E-1,-2.142949104E-1,3.168478012E-1,-3.622703552E-1
1.532105580E-1,-5.376856327E-1,3.295955658E-1,-2.823300362E-1
1.612049420E-1,-6.218919754E-1,3.994283676E-1,-3.284568787E-1
1.692010180E-1,-3.886902332E-1,3.968033791E-1,-2.716355324E-1
1.771975560E-1,-2.116901875E-1,3.496427536E-1,-2.352466583E-1
1.851920170E-1,-1.500756741E-1,2.882366180E-1,-1.825504303E-1
1.931884010E-1,-1.901543140E-1,2.771534920E-1,-1.870117188E-1
2.011834010E-1,-1.561000347E-1,2.777285576E-1,-2.059912682E-1
2.092093230E-1,-2.168107033E-2,1.785888672E-1,-1.270766258E-1
2.172058610E-1,1.047432423E-1,7.257270813E-2,-1.805968285E-1
2.252009380E-1,1.862607002E-1,8.597373962E-4,-2.550830841E-1
2.331960910E-1,2.406263351E-1,8.535861969E-3,-2.975888252E-1
2.411917060E-1,2.768220901E-1,-4.510402679E-2,-2.176117897E-1
2.491877050E-1,2.802712917E-1,-1.336913109E-1,-1.234283447E-1
2.571834740E-1,2.112636566E-1,-1.603183746E-1,-1.737737656E-2
2.652083190E-1,1.106190681E-1,-1.569747925E-1,9.255695343E-2
2.732052410E-1,-3.360486031E-2,-1.326651573E-1,1.672401428E-1
2.812006260E-1,-1.741092205E-1,-1.116051674E-1,2.523531914E-1
2.891967020E-1,-2.557566166E-1,-1.065025330E-1,3.526711464E-1
2.971917790E-1,-2.333936691E-1,-1.326332092E-1,4.004349709E-1
3.051880090E-1,-1.552288532E-1,-1.732239723E-1,4.286069870E-1
3.131834700E-1,-1.369605064E-1,-1.627740860E-1,4.276814461E-1
3.212093160E-1,-8.689951897E-2,-1.442036629E-1,3.897452354E-1
3.292055450E-1,-7.072114944E-2,-1.580162048E-1,3.502173424E-1
3.372003910E-1,-4.147052765E-3,-1.154618263E-1,3.090472221E-1
3.451956980E-1,2.610206604E-3,-1.147203445E-1,2.925696373E-1
3.531923910E-1,4.752874374E-3,-1.032710075E-1,2.453856468E-1
3.611870820E-1,1.932668686E-2,-1.016802788E-1,6.826877594E-2
3.691824660E-1,3.728604317E-2,-7.829761505E-2,-2.519083023E-2
3.772090040E-1,5.672550201E-2,-6.863260269E-2,-5.140352249E-2
3.852040810E-1,8.524656296E-2,-6.792306900E-2,1.809787750E-2
3.932015410E-1,1.322937012E-1,-5.466318130E-2,2.770566940E-2
4.011956940E-1,1.662933826E-1,-6.265783310E-2,1.232829094E-1
4.091907710E-1,1.549537182E-1,-8.034324646E-2,1.707863808E-1
4.171868470E-1,1.166226864E-1,-9.110355377E-2,2.183260918E-1
4.252136160E-1,3.859424591E-2,-1.093416214E-1,2.111825943E-1
4.332083850E-1,-1.499748230E-2,-1.373696327E-1,2.215957642E-1
4.412040000E-1,-9.695172310E-2,-1.365919113E-1,1.615118980E-1
4.491996910E-1,-1.550378799E-1,-1.191678047E-1,1.146802902E-1
4.571960750E-1,-1.819469929E-1,-1.877856255E-1,-2.866840363E-2
4.651908440E-1,-1.532311440E-1,-1.844935417E-1,-2.329988480E-1
4.731870740E-1,-1.472115517E-1,-2.169065475E-1,-3.452615738E-1
4.811824590E-1,-1.100108624E-1,-2.231731415E-1,-4.194593430E-1
4.892083040E-1,-7.640457153E-2,-2.584371567E-1,-4.396185875E-1
4.972043810E-1,-1.008441448E-1,-2.622547150E-1,-4.985175133E-1
5.051993800E-1,-1.688432693E-1,-2.772693634E-1,-5.045013428E-1
5.131959940E-1,-3.092086315E-1,-2.287178040E-1,-4.901123047E-1
5.211904560E-1,-4.453389645E-1,-2.189464569E-1,-5.237402916E-1
5.291862240E-1,-5.771112442E-1,-1.732854843E-1,-5.615410805E-1
5.372123010E-1,-6.955120564E-1,-1.230955124E-1,-6.178698540E-1
5.452086080E-1,-7.184855938E-1,-1.031007767E-1,-6.482000351E-1
5.532033770E-1,-6.818983555E-1,-9.162425995E-2,-6.738295555E-1
5.611993760E-1,-6.190123558E-1,-7.928466797E-2,-6.257710457E-1
5.691947600E-1,-5.849356651E-1,-1.865863800E-2,-5.646114349E-1
5.771910670E-1,-5.967590809E-1,6.321620941E-2,-4.650459290E-1
5.851856050E-1,-6.120200157E-1,9.400463104E-2,-4.066295624E-1
5.932129890E-1,-6.951112747E-1,8.831691742E-2,-4.513449669E-1
6.012070650E-1,-8.121318817E-1,2.980899811E-2,-4.502191544E-1
6.092034500E-1,-8.330471516E-1,-2.606773376E-2,-4.844026566E-1
6.171993720E-1,-8.561807871E-1,-1.028251648E-1,-6.152122021E-1
6.251948330E-1,-8.741525412E-1,-1.307325363E-1,-6.984975338E-1
6.331908330E-1,-8.790370226E-1,-2.051572800E-1,-8.248548508E-1
6.411861390E-1,-8.631716967E-1,-3.015499115E-1,-9.071135521E-1
6.492122930E-1,-8.694990873E-1,-3.406543732E-1,-9.854214191E-1
6.572083690E-1,-8.313976526E-1,-3.633441925E-1,-9.782621861E-1
6.652028310E-1,-7.592391968E-1,-3.033323288E-1,-8.960278034E-1
6.731987530E-1,-6.547784805E-1,-2.640838623E-1,-1.032963753E0
6.811944440E-1,-4.827451706E-1,-2.126197815E-1,-9.850156307E-1
6.891904440E-1,-1.534247398E-1,-2.046413422E-1,-1.051851988E0
6.971855970E-1,9.276938438E-2,-2.166404724E-1,-9.726948738E-1
7.052116740E-1,1.445744038E-1,-2.653503418E-1,-9.038844109E-1
7.132073650E-1,1.995134354E-1,-2.743282318E-1,-8.657648563E-1
7.212022120E-1,1.896948814E-1,-2.602891922E-1,-7.803297043E-1
7.291987490E-1,1.089034081E-1,-1.996459961E-1,-6.396369934E-1
7.371944400E-1,3.199529648E-2,-1.955909729E-1,-4.856226444E-1
7.451895170E-1,-1.411724091E-1,-1.355552673E-1,-5.126411915E-1
7.531855930E-1,-2.594759464E-1,-1.294517517E-1,-4.045534134E-1
7.612116700E-1,-3.305304050E-1,-1.287889481E-1,-5.355160236E-1
7.692073620E-1,-4.235253334E-1,-1.760463715E-1,-5.857484341E-1
7.772027460E-1,-4.546129704E-1,-1.822681427E-1,-6.452872753E-1
7.851984370E-1,-4.407227039E-1,-1.759977341E-1,-7.086443901E-1
7.931938980E-1,-3.895189762E-1,-1.524467468E-1,-7.202677727E-1
8.011895130E-1,-3.799667358E-1,-1.475257874E-1,-7.543077469E-1
8.091852820E-1,-3.501269817E-1,-1.945619583E-1,-7.810850143E-1
8.172114360E-1,-2.714912891E-1,-2.868661880E-1,-4.832842350E-1
8.252065110E-1,6.121444702E-2,-5.102691650E-1,-1.948463917E-1
8.332028190E-1,4.670498371E-1,-6.051054001E-1,-6.807880402E-1
8.411978950E-1,7.899620533E-1,-6.968679428E-1,-1.064869165E0
8.491944330E-1,9.921104908E-1,-7.671394348E-1,-1.057488918E0
8.571898170E-1,1.198674917E0,-7.242908478E-1,-1.190971613E0
8.651846620E-1,1.401978731E0,-5.866508484E-1,-1.332757235E0
8.732116620E-1,1.586447239E0,-4.929265976E-1,-1.320771694E0
8.812068150E-1,1.759425640E0,-4.601221085E-1,-1.321400642E0
8.892022000E-1,1.779112339E0,-4.213209152E-1,-1.255730152E0
8.971978140E-1,1.579777718E0,-2.998428345E-1,-1.129712582E0
9.051932750E-1,1.187795877E0,-2.175016403E-1,-8.849129677E-1
9.131891980E-1,9.182405472E-1,-2.532577515E-1,-5.659277439E-1
9.211852740E-1,7.622861862E-1,-3.419246674E-1,-7.414144278E-1
9.292105050E-1,7.472095490E-1,-4.690933228E-1,-5.720429420E-1
9.372067350E-1,8.898675442E-1,-5.748968124E-1,-7.595529556E-1
9.452012730E-1,1.062318802E0,-5.923185349E-1,-9.485311508E-1
9.531981950E-1,1.223238230E0,-5.166301727E-1,-1.018843293E0
9.611932710E-1,1.428763390E0,-4.938240051E-1,-1.029134870E0
9.691891940E-1,1.563834667E0,-4.258060455E-1,-1.003595948E0
9.771845780E-1,1.602015734E0,-3.532476425E-1,-9.420856237E-1
9.852098850E-1,1.530930758E0,-2.952899933E-1,-9.063385725E-1
9.932064230E-1,1.340126753E0,-2.160272598E-1,-8.665630817E-1
1.001201577E0,1.109326839E0,-9.633827209E-2,-8.325860500E-1
1.009197499E0,8.454759121E-1,-4.131793976E-2,-7.285983562E-1
1.017193190E0,5.349309444E-1,-3.878688812E-2,-5.329250097E-1
1.025189267E0,2.747921944E-1,-1.100902557E-1,-3.421072960E-1
1.033184882E0,7.979726791E-2,-2.577009201E-1,2.464846373E-1
1.041210420E0,1.442718506E-1,-4.629392624E-1,2.911849022E-1
1.049206188E0,2.433118820E-1,-4.915170670E-1,8.546113968E-2
1.057202419E0,3.156874180E-1,-4.249582291E-1,6.881046295E-2
1.065196880E0,3.346090317E-1,-2.681407928E-1,8.336448669E-2
1.073192956E0,4.289402962E-1,-1.216764450E-1,9.346330166E-2
1.081188879E0,4.928383827E-1,-4.333019257E-2,1.604833603E-1
1.089184032E0,5.044238567E-1,3.625106812E-2,4.502689838E-2
1.097210416E0,4.295914173E-1,2.031555176E-1,-5.960345268E-3
1.105204877E0,3.173995018E-1,3.405017853E-1,-6.381750107E-3
1.113201492E0,1.691982746E-1,4.223432541E-1,1.495909691E-2
1.121196876E0,5.574011803E-2,4.898490906E-1,3.690612316E-2
1.129191952E0,-8.371353149E-2,5.481033325E-1,1.614817381E-1
1.137188259E0,-2.267167568E-1,5.175380707E-1,2.816220522E-1
1.145183335E0,-3.435468674E-1,4.432392120E-1,4.597189426E-1
1.153210489E0,-4.465661049E-1,4.007387161E-1,6.298853159E-1
1.161205258E0,-5.444796085E-1,3.583660126E-1,6.720231771E-1
1.169201181E0,-6.657130718E-1,3.640785217E-1,7.202701569E-1
1.177196872E0,-7.123475075E-1,3.700771332E-1,9.073352814E-1
1.193188563E0,-4.657206535E-1,2.592868805E-1,6.029928923E-1
1.201183101E0,-2.866513729E-1,2.856369019E-1,5.172929764E-1
1.209210101E0,-1.201970577E-1,3.495683670E-1,3.871932030E-1
1.217205254E0,9.469747543E-3,4.320631027E-1,3.165514469E-1
1.225201484E0,8.375501633E-2,4.397983551E-1,2.879543304E-1
1.233196868E0,1.153161526E-1,4.159450531E-1,2.624001503E-1
1.241191021E0,1.263713837E-1,3.678255081E-1,2.612054348E-1
1.249188021E0,8.878302574E-2,3.411178589E-1,2.604939938E-1
1.257183328E0,2.972483635E-2,3.528776169E-1,2.653759718E-1
1.265209789E0,9.264469147E-3,3.099031448E-1,2.524509430E-1
1.273205788E0,-4.156398773E-2,2.290477753E-1,3.005576134E-1
1.281200327E0,-1.105272770E-1,1.629581451E-1,3.756768703E-1
1.289196249E0,-1.519865990E-1,8.022880554E-2,5.505009890E-1
1.297192556E0,-1.143434048E-1,-1.509857178E-2,6.720296144E-1
1.305187017E0,2.220654488E-2,-7.597255707E-2,7.673106194E-1
1.313183093E0,1.123147011E-1,-5.006408691E-2,6.957055330E-1
1.321209170E0,1.981568336E-1,2.427291870E-2,6.162608862E-1
1.329205554E0,2.249433994E-1,9.238433838E-2,5.282480717E-1
1.337200631E0,1.680495739E-1,1.910352707E-1,3.999900818E-1
1.345195706E0,1.083662510E-1,2.658529282E-1,3.544254303E-1
1.353192321E0,9.465837479E-2,3.123655319E-1,2.649807930E-1
1.361187321E0,7.510972023E-2,3.236150742E-1,2.129695415E-1
1.369182397E0,1.021137238E-1,3.496217728E-1,2.358529568E-1
1.377209474E0,1.013975143E-1,3.614664078E-1,2.849767208E-1
1.385204627E0,7.760906219E-2,3.424453735E-1,2.936942577E-1
1.393199627E0,5.185985565E-2,2.731637955E-1,3.404955864E-1
1.401195933E0,-8.963346481E-3,1.491127014E-1,3.207440376E-1
1.409191318E0,-5.518698692E-2,7.807826996E-2,3.119053841E-1
1.417186779E0,-1.249177456E-1,1.481819153E-2,2.692575455E-1
1.425212931E0,-1.659657955E-1,-4.757881165E-3,2.411420345E-1
1.433209162E0,-1.762995720E-1,1.686763763E-2,2.036223412E-1
1.441204238E0,-1.466760635E-1,1.260280609E-2,1.615810394E-1
1.449200623E0,-1.109962463E-1,3.974819183E-2,1.410877705E-1
1.457196545E0,-7.621741295E-2,6.201934814E-2,2.265920639E-1
1.465190468E0,-8.153915405E-5,1.414623260E-1,1.428558826E-1
1.473187082E0,7.209181786E-2,2.233324051E-1,-2.283668518E-2
1.481182389E0,1.117086411E-1,3.529977798E-1,-2.211833000E-2
1.489208312E0,1.051936150E-1,4.801635742E-1,-3.307294846E-2
1.497203080E0,1.005780697E-1,5.904893875E-1,-6.054711342E-2
1.505200234E0,8.585143089E-2,7.126970291E-1,-7.340359688E-2
1.513196003E0,3.459286690E-2,8.253240585E-1,-1.262712479E-1
1.521190156E0,-3.366565704E-2,9.260902405E-1,-1.544668674E-1
1.529186386E0,-8.056759834E-2,1.003159523E0,-1.814324856E-1
1.537182078E0,-7.975530624E-2,1.039875984E0,-2.522866726E-1
1.545208231E0,-9.114170074E-2,1.041111946E0,-2.852029800E-1
1.553204307E0,-1.313645840E-1,1.018934250E0,-3.182306290E-1
1.561200000E0,-1.310620308E-1,8.680105209E-1,-3.344588280E-1
1.569194999E0,-6.136155128E-2,6.600570679E-1,-3.081166744E-1
1.577189845E0,7.798218727E-2,3.615398407E-1,-4.573901892E-1
1.585186152E0,1.717281342E-1,1.041584015E-1,-4.753594398E-1
1.593212304E0,2.389845848E-1,-2.149152756E-1,-5.002741814E-1
1.601207920E0,2.656245232E-1,-4.948644638E-1,-4.618268013E-1
1.609203688E0,2.687571049E-1,-6.565694809E-1,-4.029765129E-1
1.617199919E0,3.082368374E-1,-6.305694580E-1,-4.431738853E-1
1.625194456E0,3.547108173E-1,-3.911209106E-1,-3.566045761E-1
1.633190995E0,4.046881199E-1,-8.674621582E-3,-2.396289110E-1
1.641186148E0,4.278881550E-1,3.701114655E-1,-2.270663977E-1
1.649181762E0,4.183659554E-1,7.185468674E-1,-2.328103781E-1
1.657207993E0,3.636851311E-1,9.790439606E-1,-2.855132818E-1
1.665203607E0,3.220789433E-1,1.147154808E0,-3.558441401E-1
1.673199300E0,3.094015121E-1,1.287914276E0,-4.128296375E-1
1.681193529E0,2.629418373E-1,1.356309891E0,-4.808913469E-1
1.689190453E0,2.510125637E-1,1.462791443E0,-5.580214262E-1
1.697186067E0,3.172838688E-1,1.540441513E0,-5.249153376E-1
1.705211604E0,3.779141903E-1,1.570080757E0,-5.397551060E-1
1.713207681E0,3.984897137E-1,1.525155544E0,-5.449070930E-1
1.721202680E0,3.376433849E-1,1.362424374E0,-5.712240934E-1
1.729197527E0,1.779639721E-1,1.067443848E0,-6.348602772E-1
1.737193449E0,2.013444901E-2,7.051525116E-1,-7.177666426E-1
1.745191064E0,-1.039292812E-1,1.828565598E-1,-8.010230064E-1
1.753186371E0,-1.157112122E-1,-4.024658203E-1,-8.289374113E-1
1.761211677E0,-3.169393539E-2,-9.391613007E-1,-8.388672471E-1
1.769207293E0,2.164249420E-1,-1.505253792E0,-7.102543116E-1
1.777203600E0,4.523065090E-1,-1.853938103E0,-5.816583633E-1
1.785198061E0,7.272713184E-1,-2.118537903E0,-4.168038368E-1
1.793194060E0,9.983346462E-1,-2.158452988E0,-3.092517853E-1
1.801188599E0,1.129865646E0,-2.071959496E0,-2.763806581E-1
1.809184905E0,1.166684389E0,-2.012202263E0,-1.801805496E-1
1.817211674E0,1.081414461E0,-1.996035576E0,-1.608358622E-1
1.825206674E0,9.538576603E-1,-1.949522018E0,-2.002683878E-1
1.833203365E0,7.854833603E-1,-1.817736626E0,-2.641553879E-1
1.841197211E0,6.641609669E-1,-1.636655807E0,-2.797579765E-1
1.849193518E0,4.734652042E-1,-1.363512993E0,-4.162784815E-1
1.857190056E0,2.484991550E-1,-1.149242401E0,-5.578957796E-1
1.865184517E0,2.085494995E-2,-9.553499222E-1,-5.679296255E-1
1.873211054E0,-3.925085068E-2,-8.560142517E-1,-5.469886065E-1
1.881206747E0,8.823871613E-3,-7.314357758E-1,-4.786199331E-1
1.889201823E0,1.670458317E-1,-5.986919403E-1,-4.451303482E-1
1.897198053E0,2.225065231E-1,-4.602727890E-1,-4.448422194E-1
1.905192899E0,2.575957775E-1,-3.275747299E-1,-3.873708248E-1
1.913189514E0,2.175738811E-1,-2.222757339E-1,-3.721107244E-1
1.921184513E0,1.278214455E-1,-1.416463852E-1,-3.350859880E-1
1.929211358E0,3.733968735E-2,-5.904102325E-2,-3.795580864E-1
1.937207281E0,-9.091830254E-2,-3.480911255E-4,-3.641313314E-1
1.945202050E0,-2.200081348E-1,4.667282104E-2,-3.803923130E-1
1.953198665E0,-3.939521313E-1,9.220409393E-2,-3.871879578E-1
1.961193125E0,-5.275475979E-1,1.391563416E-1,-3.486603498E-1
1.969188895E0,-6.478288174E-1,2.025251389E-1,-3.127783537E-1
1.977184278E0,-7.418644428E-1,2.345285416E-1,-1.234375238E-1
1.985211585E0,-7.001492977E-1,2.587652206E-1,-5.943191051E-2
1.993206739E0,-5.994365215E-1,2.230358124E-1,-7.414662838E-2
2.001201738E0,-4.960551262E-1,1.606130600E-1,-1.039770842E-1
2.009197430E0,-4.446690083E-1,9.810543060E-2,-1.121498346E-1
2.017193506E0,-4.111399651E-1,1.673030853E-2,-1.431002617E-1
2.025188275E0,-4.073112011E-1,-2.140130997E-1,-2.140548229E-1
2.033184890E0,-3.978273869E-1,-4.591960907E-1,-2.852683067E-1
2.041209735E0,-3.853421211E-1,-7.525339127E-1,-2.543476820E-1
2.049206350E0,-3.303086758E-1,-9.304351807E-1,-1.786977053E-1
2.057202042E0,-3.005003929E-1,-1.041249275E0,3.128540516E-2
2.065196888E0,-2.275958061E-1,-9.872779846E-1,2.050836086E-1
2.073193502E0,-2.578599453E-1,-7.303066254E-1,4.311684370E-1
2.081188579E0,-3.577044010E-1,-3.947830200E-1,5.996049643E-1
2.089184501E0,-4.672889709E-1,-6.926441193E-2,6.531921625E-1
2.097210731E0,-5.926685333E-1,3.160886765E-1,5.514361858E-1
2.105205731E0,-6.478240490E-1,5.361576080E-1,5.122528076E-1
2.113201730E0,-6.189413071E-1,7.272691727E-1,3.923625946E-1
2.121197192E0,-4.941477776E-1,8.039970398E-1,2.427098751E-1
2.129192191E0,-2.990467548E-1,8.384227753E-1,1.564366817E-1
2.137188575E0,-6.858706474E-2,8.403940201E-1,3.728556633E-2
2.145183574E0,9.379243851E-2,8.985662460E-1,-6.050670147E-2
2.153210035E0,1.989111900E-1,9.491472244E-1,-7.710075378E-2
2.161205112E0,2.682552338E-1,9.327592850E-1,-8.631229401E-2
2.169201111E0,2.786235809E-1,9.189023972E-1,-8.935713768E-2
2.177197111E0,2.232272625E-1,8.333864212E-1,-4.146122932E-2
2.185191879E0,1.669809818E-1,7.720432281E-1,4.760932922E-2
2.193187879E0,1.497862339E-1,6.579313278E-1,2.397094965E-1
2.201183340E0,1.904091835E-1,5.482978821E-1,2.206505537E-1
2.209208570E0,2.776005268E-1,4.666023254E-1,1.634329557E-1
2.217204877E0,2.340230942E-1,3.506669998E-1,1.718968153E-1
2.225200569E0,1.325960159E-1,3.063507080E-1,1.440607309E-1
2.233197799E0,-1.106500626E-3,2.481260300E-1,1.429010630E-1
2.241192491E0,-5.385971069E-2,2.121849060E-1,1.255687475E-1
2.249187952E0,-1.070721149E-1,1.842470169E-1,9.974932671E-2
2.257183567E0,-1.824436188E-1,1.476068497E-1,8.046519756E-2
2.265209489E0,-2.303721905E-1,1.499567032E-1,6.554412842E-2
2.273205489E0,-2.683305740E-1,1.288366318E-1,4.320788383E-2
2.281200565E0,-2.632925510E-1,1.223897934E-1,1.484751701E-3
2.289196488E0,-2.490670681E-1,1.280488968E-1,-9.828090668E-3
2.297191256E0,-1.494941711E-1,1.287536621E-1,6.820833683E-2
2.305187564E0,-7.968235016E-2,1.099910736E-1,-2.112460136E-2
2.313183024E0,-1.569342613E-2,1.435899734E-1,-7.667469978E-2
2.321208793E0,-4.774022102E-2,1.411151886E-1,-1.326507330E-1
2.329204485E0,-9.117341042E-2,6.217861176E-2,-1.482464075E-1
2.337200561E0,-1.429376602E-1,7.546424866E-3,-1.953169107E-1
2.345196484E0,-1.950409412E-1,-1.444854736E-1,-2.204419374E-1
2.353192791E0,-2.253155708E-1,-2.618684769E-1,-2.297556400E-1
2.361186406E0,-2.405040264E-1,-3.946208954E-1,-2.057570219E-1
2.369182713E0,-2.308063507E-1,-4.779434204E-1,-1.933324337E-1
2.377209174E0,-2.256610394E-1,-4.978103638E-1,-1.474965811E-1
2.385204250E0,-2.045562267E-1,-4.977712631E-1,-1.095224619E-1
2.393200480E0,-1.352114677E-1,-4.711351395E-1,-4.873740673E-2
2.401195634E0,-5.703330040E-2,-3.991909027E-1,8.562803268E-4
2.409190941E0,1.947450638E-2,-2.870750427E-1,5.407333374E-3
2.417186633E0,8.707451820E-2,-1.755132675E-1,5.551218987E-3
2.425182709E0,1.483983994E-1,-4.292106628E-2,8.712005615E-2
2.433208555E0,2.518198490E-1,7.491588593E-2,1.158335209E-1
2.441203862E0,2.987644672E-1,1.729907990E-1,9.341943264E-2
2.449199630E0,3.115255833E-1,3.008956909E-1,1.479781866E-1
2.457195553E0,2.229547501E-1,3.364267349E-1,1.496510506E-1
2.465192168E0,1.153814793E-1,3.374004364E-1,1.466834545E-1
2.473187245E0,3.374528885E-2,2.877569199E-1,1.565829515E-1
2.481213090E0,-7.354736328E-2,2.668581009E-1,2.081207037E-1
2.489207551E0,-1.343984604E-1,2.533521652E-1,1.871814728E-1
2.497204243E0,-1.897811890E-1,2.855892181E-1,1.425573826E-1
2.505199319E0,-2.540223598E-1,2.487211227E-1,9.627425671E-2
2.513196165E0,-2.746729851E-1,2.048721313E-1,1.125882864E-1
2.521191241E0,-2.898714542E-1,1.037187576E-1,1.500585079E-1
2.529187318E0,-2.541978359E-1,4.815959930E-2,1.438595057E-1
2.537212240E0,-2.014222145E-1,3.567504883E-2,1.558780670E-1
2.545207932E0,-1.583626270E-1,4.463481903E-2,1.219891310E-1
2.553205085E0,-1.180150509E-1,5.102443695E-2,1.354483366E-1
2.561198392E0,-5.425524712E-2,4.519367218E-2,1.387374401E-1
2.569194930E0,-2.456545830E-2,-1.564979553E-3,1.416541338E-1
2.577190621E0,-2.418756485E-2,-1.258277893E-2,1.207125187E-1
2.585186083E0,-3.603386879E-2,9.824752808E-3,1.331821680E-1
2.593092289E0,-3.822398186E-2,1.140594482E-3,1.337584257E-1
2.601117498E0,-2.810335159E-2,2.149581909E-3,1.415957212E-1
2.609112937E0,-1.515102386E-2,-3.020668030E-2,1.471837759E-1
2.617109530E0,-1.160979271E-2,-2.187442780E-2,1.977624893E-1
2.625104815E0,1.517534256E-3,-2.565479279E-2,2.401180267E-1
2.633100793E0,3.126502037E-2,-8.058547974E-4,1.862725019E-1
2.641095847E0,2.311396599E-2,-1.425266266E-2,2.393243313E-1
2.649121671E0,-7.722377777E-3,-4.908180237E-2,3.146580458E-1
2.657117648E0,3.490447998E-2,-1.771688461E-1,4.278442860E-1
2.665113011E0,1.669373512E-1,-2.506303787E-1,6.102319956E-1
2.673108758E0,3.737602234E-1,-2.899732590E-1,9.059662819E-1
2.681104120E0,5.387625694E-1,-3.290863037E-1,1.347660899E0
2.689099098E0,5.374374390E-1,-3.275642395E-1,1.983975530E0
2.697094845E0,3.831336498E-1,-3.259754181E-1,2.789801598E0
2.705122207E0,2.592468262E-1,-3.954792023E-1,3.506565571E0
2.713117800E0,1.664588451E-1,-5.036439896E-1,4.297449112E0
2.721113239E0,7.507276535E-2,-4.315509796E-1,4.698789120E0
2.729107909E0,-2.044105530E-1,-1.592082977E-1,5.151156425E0
2.737103887E0,-6.405212879E-1,-9.857559204E-2,5.961064339E0
2.745099556E0,-9.272866249E-1,-5.324058533E-1,6.609464169E0
2.753095919E0,-1.050275922E0,-1.487971306E0,7.151463985E0
2.761120743E0,-1.074798942E0,-2.386999130E0,7.729339600E0
2.769117105E0,-1.097920537E0,-3.030825615E0,8.314089775E0
2.777112083E0,-9.448606968E-1,-3.268157005E0,8.827411652E0
2.785107830E0,-2.728006840E-1,-3.342979431E0,9.178668976E0
2.793103807E0,5.055050850E-1,-3.407332420E0,9.209036827E0
2.801098785E0,8.763644695E-1,-3.443535805E0,9.304894447E0
2.809094762E0,9.766657352E-1,-3.632399559E0,9.537802696E0
2.817120586E0,8.370213509E-1,-3.819121361E0,9.512643814E0
2.825116872E0,7.427732944E-1,-3.934250832E0,9.233755112E0
2.833112003E0,8.632495403E-1,-4.150347710E0,8.777562141E0
2.841107673E0,1.256582022E0,-4.590376854E0,8.042074203E0
2.849102728E0,1.710531235E0,-5.018263817E0,6.932137489E0
2.857097705E0,1.746467590E0,-5.113193512E0,5.971301079E0
2.865093991E0,1.627568483E0,-4.898394585E0,4.665740013E0
2.873121430E0,1.537270069E0,-4.671702385E0,3.881707668E0
2.881115869E0,1.490836859E0,-4.640254974E0,3.362182617E0
2.889111155E0,1.557320118E0,-4.820318222E0,2.988613129E0
2.897107439E0,1.738759041E0,-5.106641769E0,2.880342007E0
2.905102879E0,1.834319830E0,-5.309327602E0,2.824354172E0
2.913098165E0,1.676552534E0,-5.361486912E0,2.782799721E0
2.921093296E0,1.374720573E0,-5.327909470E0,2.464265823E0
2.929119658E0,1.325132132E0,-5.437846661E0,2.131101608E0
2.937115406E0,1.434959412E0,-5.616775513E0,1.769646645E0
2.945111075E0,1.574238777E0,-5.831342697E0,1.295076370E0
2.953107053E0,1.618098497E0,-5.829639912E0,9.186811447E-1
2.961101491E0,1.602344275E0,-5.659499645E0,8.043580055E-1
2.969097777E0,1.649705887E0,-5.611389160E0,5.045824051E-1
2.977094063E0,1.862809658E0,-5.803292751E0,2.474327087E-1
2.985119271E0,2.029370785E0,-5.849547863E0,-7.876873016E-3
2.993115249E0,2.102984428E0,-5.831298351E0,-9.645032883E-2
3.001110534E0,2.150116205E0,-5.777261257E0,-1.984472275E-1
3.009106204E0,2.167496443E0,-5.760624409E0,-2.966790199E-1
3.017101336E0,2.215779066E0,-5.678099632E0,-3.982076645E-1
3.025096929E0,2.355806351E0,-5.642509937E0,-5.496549606E-1
3.033093829E0,2.536853075E0,-5.698945999E0,-4.991998672E-1
3.041118730E0,2.668586493E0,-5.775106430E0,-4.000124931E-1
3.049114476E0,2.643687963E0,-5.897910595E0,-5.382041931E-1
3.057110070E0,2.417947292E0,-5.945384026E0,-7.350945473E-1
3.065105432E0,2.148347855E0,-5.945477486E0,-1.052363873E0
3.073101179E0,1.954031229E0,-5.943873882E0,-1.325887680E0
3.081096541E0,1.691441536E0,-5.867038250E0,-1.284569263E0
3.089093058E0,1.472593307E0,-5.708889961E0,-1.080957890E0
3.097118573E0,1.261184216E0,-5.551640987E0,-7.528600693E-1
3.105114244E0,1.194109559E0,-5.463274002E0,-3.888111115E-1
3.113110221E0,1.269072652E0,-5.526184082E0,-1.424913406E-1
3.121104660E0,1.508771539E0,-5.761134624E0,3.323364258E-2
3.129100715E0,1.721260071E0,-6.094037056E0,2.011680603E-2
3.137097615E0,1.961036086E0,-6.320853233E0,-1.412973404E-1
3.145091439E0,2.077389479E0,-6.352414608E0,-5.644245148E-1
3.153118187E0,2.123391628E0,-6.102334976E0,-1.112878799E0
3.161113241E0,2.090566874E0,-5.706469536E0,-1.812633038E0
3.169109449E0,1.897988796E0,-5.284595013E0,-2.306038380E0
3.177105426E0,1.615744233E0,-4.815747261E0,-2.767086506E0
3.185100481E0,1.361751080E0,-4.585059166E0,-3.154693127E0
3.193097382E0,1.085756540E0,-4.400103092E0,-3.559257984E0
3.201091821E0,9.190438986E-1,-4.274952888E0,-3.824347019E0
3.209117953E0,7.272400260E-1,-4.091938496E0,-4.161675930E0
3.217114546E0,5.740571022E-1,-3.845189333E0,-4.582633018E0
3.225109062E0,6.113028526E-1,-3.605446815E0,-5.154308796E0
3.233105271E0,7.817616463E-1,-3.363245010E0,-5.909135342E0
3.241099787E0,1.031411648E0,-3.202324152E0,-6.665906906E0
3.249095456E0,1.425635219E0,-3.006858110E0,-7.446854591E0
3.257091127E0,1.811463475E0,-2.756600857E0,-8.180756569E0
3.265116565E0,2.013928413E0,-2.545178890E0,-8.509368896E0
3.273113774E0,2.122200727E0,-2.199660301E0,-8.945841789E0
3.281108290E0,2.138244152E0,-1.907054186E0,-9.307019234E0
3.289103652E0,2.106728554E0,-1.618875504E0,-9.517264366E0
3.297099861E0,1.960363269E0,-1.372445583E0,-9.925451279E0
3.305094993E0,1.834048152E0,-1.189162135E0,-1.017823887E1
3.313091508E0,1.894879222E0,-9.839754105E-1,-1.060014153E1
3.321116717E0,2.266530991E0,-8.559277058E-1,-1.084542274E1
3.329112386E0,2.835963726E0,-7.648766041E-1,-1.090999603E1
3.337108672E0,3.147907495E0,-7.858572006E-1,-1.076556778E1
3.345104112E0,3.019392014E0,-7.224695683E-1,-1.065123177E1
3.353099473E0,2.554045677E0,-5.509452820E-1,-1.030234337E1
3.361094836E0,2.015542984E0,-3.820827007E-1,-9.955820084E0
3.369090429E0,1.470743179E0,-1.533694267E-1,-9.438565254E0
3.377116637E0,1.105908632E0,-6.681609154E-2,-9.083176613E0
3.385111923E0,7.287741303E-1,-6.610870361E-3,-8.774440765E0
3.393108592E0,3.841556907E-1,2.151679993E-2,-8.402318001E0
3.401103032E0,6.046372652E-2,1.667284966E-2,-8.026867867E0
3.409099010E0,-2.530819178E-1,1.522688866E-1,-7.485326290E0
3.417094294E0,-4.781096578E-1,2.794358730E-1,-7.029478550E0
3.425090580E0,-6.610172391E-1,4.952526093E-1,-6.587182522E0
3.433116097E0,-7.152343392E-1,6.725711823E-1,-6.261157990E0
3.441111535E0,-6.846699715E-1,7.503890991E-1,-5.818366051E0
3.449107206E0,-6.562547684E-1,7.217905521E-1,-5.428704262E0
3.457102799E0,-6.426597238E-1,5.556182861E-1,-5.137413025E0
3.465098237E0,-6.503089070E-1,2.723805904E-1,-4.879284382E0
3.473095369E0,-6.294631362E-1,1.813077927E-2,-4.606391907E0
3.481089269E0,-6.025578976E-1,-2.480039597E-1,-4.318638325E0
3.489116555E0,-5.468320251E-1,-4.537117481E-1,-3.987438679E0
3.497110764E0,-4.771794081E-1,-5.557627678E-1,-3.677352905E0
3.505106664E0,-2.894230485E-1,-6.120953560E-1,-3.208341122E0
3.513102411E0,-8.096152544E-2,-6.322619915E-1,-2.922515869E0
3.521098005E0,2.728633285E-1,-6.487460136E-1,-2.684967518E0
3.529093443E0,5.210058689E-1,-5.872440338E-1,-2.612698555E0
3.537089344E0,7.625609636E-1,-5.029919147E-1,-2.616736889E0
3.545115552E0,8.206681013E-1,-4.721376896E-1,-2.486287117E0
3.553111146E0,7.586963177E-1,-5.813508034E-1,-2.407835484E0
3.561106816E0,6.627056003E-1,-6.951050758E-1,-2.225476265E0
3.569102254E0,5.392751098E-1,-7.757962942E-1,-1.965370178E0
3.577097309E0,4.252107441E-1,-8.302224874E-1,-1.780334949E0
3.585093595E0,3.515251875E-1,-7.766190767E-1,-1.680190563E0
3.593119957E0,2.325833142E-1,-7.760529518E-1,-1.614754677E0
3.601114781E0,9.667637944E-2,-8.140125275E-1,-1.553093910E0
3.609110374E0,-9.837076068E-2,-7.318240404E-1,-1.600740433E0
3.617106121E0,-3.286222517E-1,-5.145554543E-1,-1.614091873E0
3.625102099E0,-4.500616193E-1,-2.282375097E-1,-1.574059486E0
3.633097460E0,-4.806708992E-1,-1.806491613E-1,-1.487456322E0
3.641092515E0,-3.650799394E-1,-4.461767077E-1,-1.378113747E0
3.649118647E0,-2.161690593E-1,-7.667279243E-1,-1.265064240E0
3.657114239E0,-1.490680873E-2,-1.104673147E0,-1.026060104E0
3.665110525E0,1.192643940E-1,-1.247470737E0,-8.716745377E-1
3.673106195E0,1.789151728E-1,-1.270572186E0,-6.295681000E-1
3.681101326E0,2.449888140E-1,-1.130079627E0,-6.133918762E-1
3.689096689E0,2.847102284E-1,-8.782109022E-1,-5.813245773E-1
3.697092359E0,3.479432762E-1,-5.763287544E-1,-5.262546539E-1
3.705118721E0,3.698348403E-1,-3.945052326E-1,-5.918540955E-1
3.713114391E0,2.927259803E-1,-3.045466244E-1,-5.554647446E-1
3.721108907E0,5.688959360E-2,-3.216279745E-1,-2.734031677E-1
3.729105500E0,-1.584258676E-1,-4.017349780E-1,-2.005147934E-1
3.737100863E0,-3.190160394E-1,-5.975276828E-1,-4.231357574E-2
3.745095840E0,-3.845382333E-1,-8.140946031E-1,1.389303207E-1
3.753092741E0,-3.923867643E-1,-1.021635652E0,2.210588455E-1
3.761117718E0,-3.601138592E-1,-1.144858122E0,1.658105850E-1
3.769114004E0,-3.153331578E-1,-1.123384237E0,-6.980705261E-2
3.777109905E0,-3.114025593E-1,-9.095709324E-1,-2.151689529E-1
3.785104728E0,-3.562236726E-1,-5.473277569E-1,-2.296504974E-1
3.793101014E0,-3.138788640E-1,-2.549420595E-1,-1.253395081E-1
3.801095761E0,-2.069724798E-1,-8.431470394E-2,8.314609528E-2
3.809091661E0,2.570331097E-2,-1.521819830E-1,2.857027054E-1
3.817118100E0,2.643125653E-1,-3.816107512E-1,5.206232071E-1
3.825113463E0,4.875510335E-1,-6.495516300E-1,7.067298889E-1
3.833109440E0,7.360876203E-1,-9.570186138E-1,8.360385895E-1
3.841104803E0,8.666191101E-1,-1.137084007E0,8.627624512E-1
3.849100472E0,8.980339170E-1,-1.284607887E0,7.097148895E-1
3.857096142E0,7.399276495E-1,-1.302282453E0,4.146614075E-1
3.865090659E0,4.496149421E-1,-1.205112219E0,-4.601955414E-2
3.873117713E0,1.101289988E-1,-1.057050467E0,-4.324111938E-1
3.881113075E0,-4.153108597E-2,-8.700256348E-1,-5.241546631E-1
3.889108130E0,1.796817780E-2,-6.637685299E-1,-5.564346313E-1
3.897104107E0,2.529693842E-1,-4.440650940E-1,-4.457311630E-1
3.905099701E0,6.450216770E-1,-3.819453716E-1,-1.346502304E-1
3.913096910E0,9.523353577E-1,-4.915261269E-1,1.637516022E-1
3.921090810E0,1.102599263E0,-6.137034893E-1,1.543579102E-1
3.929116326E0,1.156904221E0,-7.475135326E-1,7.939720154E-2
3.937113226E0,1.058589220E0,-8.805596828E-1,5.695152283E-2
3.945107666E0,9.133299589E-1,-1.053799868E0,-7.266712189E-2
3.953104182E0,7.850989103E-1,-1.204122066E0,-3.068971634E-1
3.961099236E0,7.384221554E-1,-1.318394423E0,-4.324941635E-1
3.969095214E0,7.616006136E-1,-1.371554613E0,-4.925079346E-1
3.977090038E0,8.490002155E-1,-1.316272497E0,-5.151491165E-1
3.985116400E0,9.370687008E-1,-1.192834854E0,-6.176176071E-1
3.993112993E0,1.019321918E0,-9.430093765E-1,-8.316774368E-1
4.001107509E0,1.103520870E0,-5.755913258E-1,-9.682922363E-1
4.009103410E0,1.107850790E0,-1.478807926E-1,-1.161664486E0
4.017098850E0,1.050184011E0,1.169128418E-1,-1.271077156E0
4.025094211E0,1.023516178E0,1.086187363E-1,-1.090803146E0
4.033090497E0,9.970452785E-1,-3.390555382E-1,-9.035367966E-1
4.041116321E0,1.094545126E0,-1.094221115E0,-5.452852249E-1
4.049111683E0,1.317876577E0,-1.612115860E0,-1.296958923E-1
4.057107276E0,1.554230928E0,-1.773018360E0,1.765832901E-1
4.065102947E0,1.784748793E0,-1.714090824E0,3.235731125E-1
4.073098924E0,1.839086771E0,-1.498115540E0,2.891378403E-1
4.081094286E0,1.670641661E0,-1.161553383E0,1.017022133E-1
4.089089417E0,1.345819473E0,-8.949370384E-1,-8.980131149E-2
4.097116087E0,9.014251232E-1,-6.499037743E-1,-2.799563408E-1
4.105110604E0,5.571897030E-1,-6.107382774E-1,-3.178772926E-1
4.113107735E0,3.106982708E-1,-6.119942665E-1,-2.815494537E-1
4.121102482E0,1.902575493E-1,-6.967344284E-1,1.451597214E-1
4.129097922E0,1.871790886E-1,-8.706350327E-1,4.935750961E-1
4.137093514E0,4.091541767E-1,-1.090578556E0,8.677659035E-1
4.145089184E0,7.358891964E-1,-1.110160828E0,1.052431107E0
4.153116315E0,1.066360474E0,-1.082324028E0,1.183371544E0
4.161110755E0,1.378371477E0,-1.109339714E0,1.263114929E0
4.169105810E0,1.486863375E0,-1.182233810E0,1.237459183E0
4.177102402E0,1.372371435E0,-1.250510693E0,1.151985168E0
4.185097149E0,1.134766102E0,-1.158523560E0,9.996652603E-1
4.193094358E0,7.410159111E-1,-9.529647827E-1,8.877415657E-1
4.201089104E0,4.427211285E-1,-6.435880661E-1,7.214188576E-1
4.209115236E0,2.278604507E-1,-4.532094002E-1,7.556891441E-1
4.217109675E0,7.061123848E-2,-4.833517075E-1,8.854093552E-1
4.225105653E0,-6.510496140E-3,-6.889634132E-1,1.032041073E0
4.233102246E0,3.377199173E-3,-1.055250645E0,1.179549694E0
4.241097223E0,7.462239265E-2,-1.224455357E0,1.261719704E0
4.249092893E0,2.203440666E-1,-1.165052891E0,1.288949013E0
4.257088641E0,5.131723881E-1,-9.678630829E-1,1.266624928E0
4.265114387E0,7.710523605E-1,-7.939143181E-1,1.103892803E0
4.273110750E0,8.917689323E-1,-6.934485435E-1,8.766942024E-1
4.281105497E0,7.943873405E-1,-6.066126823E-1,6.107797623E-1
4.289101397E0,5.342569351E-1,-4.702777863E-1,4.408025742E-1
4.297096837E0,3.101425171E-1,-3.396387100E-1,2.897429466E-1
4.305092429E0,1.566162109E-1,-2.170295715E-1,3.021225929E-1
4.313088176E0,3.042745590E-2,-2.777853012E-1,3.545565605E-1
4.321114000E0,-1.339263916E-1,-5.327219963E-1,4.699501991E-1
4.329110593E0,-1.959395409E-1,-8.356132507E-1,6.713724136E-1
4.337105032E0,-6.472396851E-2,-9.604129791E-1,9.100937843E-1
4.345100933E0,1.666388512E-1,-9.531469345E-1,1.012964725E0
4.353096910E0,3.962869644E-1,-8.772673607E-1,9.822678566E-1
4.361092042E0,4.527015686E-1,-7.763810158E-1,8.763270378E-1
4.369087405E0,3.177499771E-1,-6.693553925E-1,7.519917488E-1
4.377113843E0,7.683372498E-2,-5.435009003E-1,5.488801003E-1
4.385110052E0,-6.668043137E-2,-4.137029648E-1,4.051046371E-1
4.393105414E0,-1.700239182E-1,-3.280963898E-1,3.843383789E-1
4.401100161E0,-2.415285110E-1,-3.224983215E-1,4.611630440E-1
4.409096524E0,-3.291754723E-1,-4.308748245E-1,6.130781174E-1
4.417090962E0,-3.683614731E-1,-6.284866333E-1,7.886366844E-1
4.425086940E0,-3.421325684E-1,-8.164601326E-1,1.017642975E0
4.433113303E0,-2.231416702E-1,-9.348273277E-1,1.167807579E0
4.441109280E0,-4.245662689E-2,-9.217495918E-1,1.202660084E0
4.449104104E0,1.028437614E-1,-8.829627037E-1,1.185182095E0
4.457100620E0,1.687812805E-1,-8.495869637E-1,1.082750082E0
4.465095982E0,1.329183578E-1,-8.125476837E-1,8.855290413E-1
4.473091730E0,-3.890323639E-2,-7.167754173E-1,6.823754311E-1
4.481086707E0,-1.399817467E-1,-5.289611816E-1,4.860265255E-1
4.489112915E0,-2.375144958E-1,-3.879823685E-1,3.705358505E-1
4.497108201E0,-2.349009514E-1,-4.228072166E-1,3.860480785E-1
4.505104255E0,-1.360225677E-1,-5.728683472E-1,3.418891430E-1
4.513099925E0,9.404373169E-2,-6.581048965E-1,4.750478268E-1
4.521094979E0,5.188555717E-1,-6.914243698E-1,5.478196144E-1
4.529090880E0,8.659296036E-1,-7.636337280E-1,6.630680561E-1
4.537117012E0,1.000504971E0,-8.264112473E-1,7.335209846E-1
4.545112143E0,9.747176170E-1,-8.480968475E-1,7.437257767E-1
4.553108660E0,8.042960167E-1,-7.954788208E-1,7.556815147E-1
4.561103715E0,5.615062714E-1,-6.974906921E-1,7.680835724E-1
4.569099461E0,2.912955284E-1,-4.846115112E-1,7.721710205E-1
4.577093900E0,1.253776550E-1,-2.687969208E-1,7.684984207E-1
4.585090494E0,-1.249818802E-1,-9.398841858E-2,7.571938038E-1
4.593116625E0,-2.626299858E-1,-2.523612976E-2,7.342081070E-1
4.601112295E0,-4.170644283E-1,9.478569031E-3,7.479677200E-1
4.609107887E0,-4.038212299E-1,1.544570923E-2,7.803573608E-1
4.617103558E0,-2.350172997E-1,3.368282318E-2,7.461643219E-1
4.625099920E0,7.176017761E-2,2.142333984E-2,6.379156113E-1
4.633095205E0,3.393535614E-1,-3.792285919E-2,5.566067696E-1
4.641090337E0,6.283493042E-1,-1.460285187E-1,4.315614700E-1
4.649116776E0,8.205375671E-1,-1.995038986E-1,3.025603294E-1
4.657111753E0,9.776940346E-1,-2.191333771E-1,2.217674255E-1
4.665107116E0,1.070733070E0,-2.379646301E-1,2.425460815E-1
4.673104016E0,1.095820427E0,-1.962528229E-1,2.863268852E-1
4.681098763E0,1.114835262E0,-2.305488586E-1,2.982983589E-1
4.689094203E0,9.894032478E-1,-3.289861679E-1,5.094757080E-1
4.697090103E0,7.935485840E-1,-4.654121399E-1,7.878208160E-1
4.705115620E0,5.647039413E-1,-6.639757156E-1,1.028690815E0
4.713111905E0,2.840113640E-1,-8.029422760E-1,1.179199457E0
4.721107036E0,-4.607582092E-2,-9.426488876E-1,1.325273514E0
4.729102706E0,-2.840654850E-1,-1.014231682E0,1.339098692E0
4.737097992E0,-4.838485718E-1,-9.679746628E-1,1.287636280E0
4.745093738E0,-5.889475346E-1,-8.357753754E-1,1.205477476E0
4.753090255E0,-6.174836159E-1,-7.180862427E-1,1.069616556E0
4.761115463E0,-5.831718445E-1,-7.176446915E-1,9.395318031E-1
4.769110595E0,-5.016140938E-1,-7.046976089E-1,8.292922974E-1
4.777106803E0,-4.097735882E-1,-6.739034653E-1,7.554185390E-1
4.785101934E0,-3.256113529E-1,-6.199846268E-1,6.913268566E-1
4.793097835E0,-2.335519791E-1,-5.448331833E-1,6.296212673E-1
4.801092583E0,-1.549241543E-1,-5.441360474E-1,6.132857800E-1
4.809089252E0,-8.290982246E-2,-5.509071350E-1,5.709176064E-1
4.817114999E0,-8.487081528E-2,-5.723991394E-1,5.602512360E-1
4.825110130E0,-8.951234818E-2,-5.561304092E-1,5.455815792E-1
4.833107031E0,-8.718657494E-2,-5.450763702E-1,5.391974449E-1
4.841101471E0,-8.986377716E-2,-5.225076675E-1,6.080315113E-1
4.849097063E0,-1.157135963E-1,-4.594726562E-1,6.506342888E-1
4.857092810E0,-2.081513405E-2,-3.991041183E-1,6.161224842E-1
4.865089327E0,2.686452866E-2,-3.893928528E-1,4.999568462E-1
4.873115458E0,-2.032375336E-2,-3.941421509E-1,3.148419857E-1
4.881110205E0,-1.611781120E-1,-3.433761597E-1,2.235760689E-1
4.889106259E0,-3.198568821E-1,-2.626867294E-1,1.352431774E-1
4.897101545E0,-3.973793983E-1,-1.946773529E-1,1.389503479E-1
4.905096600E0,-4.228363037E-1,-1.465644836E-1,1.179547310E-1
4.913092961E0,-3.761546612E-1,-1.475563049E-1,1.425011158E-1
4.921088324E0,-3.213667870E-1,-1.217269897E-1,1.484036446E-1
4.929114994E0,-2.527117729E-1,-1.557722092E-1,1.529295444E-1
4.937109433E0,-2.075414658E-1,-1.974401474E-1,1.352915764E-1
4.945105103E0,-1.838402748E-1,-1.964988708E-1,1.102249622E-1
4.953101466E0,-1.382396221E-1,-1.912155151E-1,8.454871178E-2
4.961096520E0,-1.034064293E-1,-1.646156311E-1,3.848958015E-2
4.969092421E0,2.349281311E-2,-1.407976151E-1,2.190375328E-2
4.977088090E0,1.205329895E-1,-1.796474457E-1,-3.984451294E-2
4.985113991E0,1.694202423E-1,-2.115602493E-1,3.334760666E-3
4.993109661E0,2.091538906E-1,-2.628192902E-1,9.788465500E-2
5.001104715E0,2.734441757E-1,-3.143825531E-1,2.143921852E-1
5.009100001E0,3.958826065E-1,-3.854551315E-1,4.172418118E-1
5.017096364E0,4.843323231E-1,-4.432840347E-1,5.858111382E-1
5.025091725E0,4.801669121E-1,-4.479122162E-1,7.911338806E-1
5.033088550E0,4.213702679E-1,-3.352365494E-1,9.768319130E-1
5.041112603E0,3.511610031E-1,-1.584300995E-1,1.208194971E0
5.049109197E0,3.468005657E-1,-1.780509949E-2,1.451873302E0
5.057104175E0,4.352116585E-1,-2.532005310E-2,1.625455618E0
5.065099844E0,5.852589607E-1,-1.517171860E-1,1.678267717E0
5.073096130E0,6.654157639E-1,-2.672119141E-1,1.695712566E0
5.081091493E0,6.163690090E-1,-2.923870087E-1,1.668856859E0
5.089087470E0,5.255236626E-1,-2.676877975E-1,1.719064713E0
5.097113063E0,4.774167538E-1,-2.505321503E-1,1.680422068E0
5.105109964E0,4.313833714E-1,-2.792348862E-1,1.541049957E0
5.113104710E0,5.365395546E-1,-4.655199051E-1,1.606651783E0
5.121099688E0,7.086770535E-1,-6.607532501E-1,1.349223852E0
5.129094819E0,8.880822659E-1,-8.431158066E-1,1.272119522E0
5.137090413E0,9.465050697E-1,-8.760223389E-1,1.251062155E0
5.145086468E0,8.386459351E-1,-8.626594543E-1,1.280676365E0
5.153113214E0,7.115058899E-1,-8.818674088E-1,1.315168142E0
5.161107653E0,6.562209129E-1,-9.310798645E-1,1.355168581E0
5.169103324E0,7.676506042E-1,-1.060610771E0,1.440154314E0
5.177099531E0,8.616831303E-1,-1.177926064E0,1.632794857E0
5.185094894E0,8.115007877E-1,-1.290928841E0,1.806999207E0
5.193091180E0,7.119755745E-1,-1.416805267E0,1.888553858E0
5.201086234E0,6.712131500E-1,-1.581720352E0,1.992563963E0
5.209112750E0,7.732138634E-1,-1.740571976E0,1.998458147E0
5.217107804E0,9.224152565E-1,-1.809680939E0,2.035317898E0
5.225102551E0,9.536204338E-1,-1.811083794E0,1.975532532E0
5.233098837E0,8.472995758E-1,-1.809004784E0,1.976589203E0
5.241094506E0,7.501173019E-1,-1.860322952E0,2.020746708E0
5.249090100E0,7.459306717E-1,-2.007360458E0,2.045669556E0
5.257116231E0,7.592964172E-1,-2.185532093E0,2.117837906E0
5.265111978E0,7.264058590E-1,-2.339986324E0,2.138627052E0
5.273108571E0,6.273431778E-1,-2.441997051E0,2.221729279E0
5.281102702E0,5.353999138E-1,-2.575848579E0,2.281364441E0
5.289099219E0,4.103784561E-1,-2.603403091E0,2.253578186E0
5.297094351E0,2.999694347E-1,-2.586835861E0,2.190928459E0
5.305090251E0,2.430679798E-1,-2.625104904E0,2.081689358E0
5.313085921E0,2.163338661E-1,-2.632315636E0,1.981858730E0
5.321110899E0,1.584188938E-1,-2.651750565E0,1.803648949E0
5.329106568E0,2.006723881E-1,-2.661262989E0,1.605617523E0
5.337103085E0,3.650586605E-1,-2.619651794E0,1.342712402E0
5.345099062E0,6.003160477E-1,-2.685349464E0,1.162120342E0
5.353094194E0,8.894927502E-1,-2.708727837E0,9.468851089E-1
5.361089172E0,1.172620058E0,-2.718571663E0,7.820277214E-1
5.369084918E0,1.449130297E0,-2.760061741E0,6.455750465E-1
5.377110742E0,1.575093746E0,-2.759004116E0,4.887571335E-1
5.385106413E0,1.645621061E0,-2.788994312E0,2.445979118E-1
5.393102390E0,1.651334524E0,-2.806262493E0,-2.382707596E-2
5.401097137E0,1.663545370E0,-2.875657558E0,-1.941714287E-1
5.409093653E0,1.608554602E0,-2.946291447E0,-2.002210617E-1
5.417088707E0,1.491758823E0,-2.976024628E0,-2.502794266E-1
5.425084993E0,1.435451508E0,-2.972608566E0,-4.012985229E-1
5.433111124E0,1.387840986E0,-2.983887196E0,-5.472583771E-1
5.441105871E0,1.369779110E0,-3.026709557E0,-6.975440979E-1
5.449101926E0,1.439141035E0,-3.000157833E0,-9.310674667E-1
5.457097518E0,1.522604227E0,-2.930514812E0,-1.047029018E0
5.465092650E0,1.668748140E0,-2.900463581E0,-1.128694057E0
5.473089167E0,1.775639772E0,-2.903174400E0,-1.167127609E0
5.481083913E0,1.879998207E0,-2.912128448E0,-1.126557350E0
5.489110353E0,1.945832491E0,-2.927424908E0,-1.131497383E0
5.497105791E0,1.965108395E0,-2.956480503E0,-1.196159840E0
5.505101384E0,1.903023005E0,-2.958555222E0,-1.322509289E0
5.513098055E0,1.815974712E0,-2.962704182E0,-1.371562958E0
5.521092724E0,1.772234917E0,-2.896314144E0,-1.491046906E0
5.529088394E0,1.702157974E0,-2.757058620E0,-1.494275570E0
5.537083526E0,1.742295027E0,-2.606929779E0,-1.467424393E0
5.545109350E0,1.807141781E0,-2.397658587E0,-1.336359978E0
5.553105635E0,1.883189440E0,-2.263252020E0,-1.182756901E0
5.561100921E0,1.959768057E0,-2.237307549E0,-9.974541664E-1
5.569096052E0,2.018953562E0,-2.318449020E0,-9.750947952E-1
5.577092338E0,2.096861601E0,-2.507867336E0,-1.014668465E0
5.585087622E0,2.133873940E0,-2.813502312E0,-1.133256912E0
5.593114446E0,2.120105267E0,-2.988274097E0,-1.258759499E0
5.601109501E0,2.043489456E0,-3.027079582E0,-1.386257172E0
5.609104478E0,1.978347778E0,-2.934603930E0,-1.464795113E0
5.617101149E0,1.884275079E0,-2.867569923E0,-1.571298122E0
5.625096127E0,1.800082564E0,-2.788835049E0,-1.636425018E0
5.633092411E0,1.738272190E0,-2.775620937E0,-1.703215122E0
5.641087466E0,1.593967915E0,-2.747518301E0,-1.626634121E0
5.649113366E0,1.448036075E0,-2.669266224E0,-1.489108086E0
5.657108960E0,1.321704030E0,-2.504882574E0,-1.420685768E0
5.665104707E0,1.278656721E0,-2.288103342E0,-1.271150589E0
5.673100607E0,1.327230692E0,-2.123334885E0,-1.184896469E0
5.681095124E0,1.300207376E0,-1.953604102E0,-1.026729584E0
5.689091717E0,1.257865906E0,-1.764103174E0,-8.168420792E-1
5.697086771E0,1.149169445E0,-1.550614715E0,-6.328372955E-1
5.705112903E0,9.558944702E-1,-1.443415523E0,-5.158376694E-1
5.713108880E0,7.709434032E-1,-1.433879018E0,-3.639860153E-1
5.721104166E0,4.912587404E-1,-1.392647743E0,-2.562599182E-1
5.729100451E0,2.634291649E-1,-1.277723670E0,-2.111797333E-1
5.737095813E0,2.923071384E-2,-1.049989820E0,-2.514162064E-1
5.745090253E0,-2.359347343E-1,-7.898230553E-1,-4.015283585E-1
5.753087538E0,-4.348232746E-1,-6.115802526E-1,-4.266052246E-1
5.761112977E0,-5.685927868E-1,-3.906774521E-1,-4.441080093E-1
5.769108032E0,-5.823976994E-1,-2.511440516E-1,-4.622573853E-1
5.777103471E0,-5.301629305E-1,-1.323368549E-1,-3.424625397E-1
5.785099448E0,-4.602180719E-1,-7.497131824E-2,-3.467998505E-1
5.793095042E0,-4.057614803E-1,-3.076553345E-2,-4.051046371E-1
5.801090403E0,-4.053536654E-1,5.682063103E-2,-4.804878235E-1
5.809086381E0,-4.042562246E-1,7.997190952E-2,-6.109714508E-1
5.817112206E0,-4.110864401E-1,1.051341295E-1,-8.084897995E-1
5.825108798E0,-3.605732918E-1,1.415914297E-1,-9.651117325E-1
5.833103545E0,-3.665809631E-1,1.654499173E-1,-1.162011147E0
5.841098600E0,-4.206242561E-1,1.813524365E-1,-1.367843628E0
5.849095193E0,-4.974702001E-1,2.016099691E-1,-1.457782745E0
5.857090017E0,-6.001426578E-1,2.604880333E-1,-1.696941376E0
5.865085379E0,-7.022203207E-1,2.960916162E-1,-1.983493328E0
5.873111818E0,-8.631518483E-1,4.053617120E-1,-2.262132168E0
5.881107488E0,-9.897660017E-1,5.990294814E-1,-2.583218098E0
5.889103388E0,-1.053267837E0,6.932971478E-1,-2.846374035E0
5.897098443E0,-1.022616386E0,7.966881990E-1,-3.149957180E0
5.905094191E0,-9.341809750E-1,7.652826309E-1,-3.391184330E0
5.913090475E0,-8.010005355E-1,6.904755235E-1,-3.701861382E0
5.921085453E0,-7.797735333E-1,5.982086658E-1,-4.151528358E0
5.929110970E0,-7.995000482E-1,5.486857295E-1,-4.635005474E0
5.937107024E0,-8.856039047E-1,5.665746331E-1,-4.994433403E0
5.945102079E0,-9.012862444E-1,6.769624949E-1,-5.323564529E0
5.953098363E0,-8.898677826E-1,9.112339020E-1,-5.608500481E0
5.961094034E0,-8.541932106E-1,1.081255198E0,-5.797080517E0
5.969089627E0,-8.703618050E-1,1.247905970E0,-5.918643951E0
5.977084989E0,-8.590250611E-1,1.392256618E0,-6.110146523E0
5.985110505E0,-8.377075791E-1,1.461352468E0,-6.304848671E0
5.993106868E0,-8.607241511E-1,1.496182323E0,-6.500619888E0
6.001102229E0,-8.849862218E-1,1.466015697E0,-6.592309952E0
6.009098438E0,-9.524461031E-1,1.461825967E0,-6.577549934E0
6.017093492E0,-1.075956821E0,1.502398610E0,-6.492225647E0
6.025089162E0,-1.214185596E0,1.551330090E0,-6.314673901E0
6.033085448E0,-1.328133941E0,1.563312531E0,-6.095171928E0
6.041110348E0,-1.399106741E0,1.532715797E0,-5.838296890E0
6.049106019E0,-1.458324671E0,1.453794837E0,-5.534276485E0
6.057101766E0,-1.482183099E0,1.411990047E0,-5.307455540E0
6.065097974E0,-1.542350054E0,1.360707521E0,-5.128914833E0
6.073093336E0,-1.613655686E0,1.369218230E0,-4.986676693E0
6.081088160E0,-1.676332355E0,1.444664478E0,-4.897543430E0
6.089083753E0,-1.658065557E0,1.505474806E0,-4.849598885E0
6.097110885E0,-1.514173627E0,1.506862998E0,-4.672992229E0
6.105105862E0,-1.275441527E0,1.436472654E0,-4.449106693E0
6.113101917E0,-1.030170321E0,1.382749677E0,-4.302473068E0
6.121096587E0,-8.001515865E-1,1.371490121E0,-4.043906212E0
6.129092872E0,-7.248157859E-1,1.319316626E0,-3.807587624E0
6.137088927E0,-7.289140224E-1,1.288155317E0,-3.583897591E0
6.145083597E0,-7.770909667E-1,1.304159999E0,-3.396678925E0
6.153110420E0,-8.247057199E-1,1.307685375E0,-3.257839680E0
6.161105398E0,-8.494923115E-1,1.288882971E0,-3.102558613E0
6.169101683E0,-8.769466877E-1,1.305285811E0,-2.985770226E0
6.177096738E0,-9.442520738E-1,1.325504184E0,-2.823511600E0
6.185092177E0,-1.025872350E0,1.312198520E0,-2.627481461E0
6.193088078E0,-1.146564722E0,1.284485340E0,-2.471805096E0
6.201082517E0,-1.203412890E0,1.340322018E0,-2.241481781E0
6.209109957E0,-1.144081712E0,1.491279602E0,-2.046535015E0
6.217105241E0,-9.851473570E-1,1.543090105E0,-2.004208088E0
6.225100989E0,-8.652789593E-1,1.483331561E0,-1.970774174E0
6.233097197E0,-8.466246724E-1,1.357203722E0,-1.974910259E0
6.241091097E0,-9.259786606E-1,1.208274364E0,-1.985527039E0
6.249087922E0,-9.950289726E-1,1.198960662E0,-1.873311996E0
6.257082976E0,-1.044207692E0,1.214437008E0,-1.690907478E0
6.265108569E0,-1.001361728E0,1.211090565E0,-1.546021461E0
6.273106085E0,-9.172542095E-1,1.219451070E0,-1.496039391E0
6.281099524E0,-8.695042729E-1,1.280277610E0,-1.411590576E0
6.289095271E0,-8.878064752E-1,1.384664893E0,-1.407503128E0
6.297091788E0,-9.861158729E-1,1.427310824E0,-1.289821625E0
6.305087457E0,-1.025057316E0,1.387214065E0,-1.183030128E0
6.313083743E0,-9.605915546E-1,1.263480544E0,-1.166169167E0
6.321108643E0,-8.311924338E-1,9.954491258E-1,-1.203288078E0
6.329104390E0,-7.689793110E-1,7.404896021E-1,-1.184206009E0
6.337099753E0,-7.341077328E-1,6.442538500E-1,-1.199812889E0
6.345094807E0,-8.139358163E-1,8.968774676E-1,-1.158926964E0
6.353091323E0,-8.537864685E-1,1.356147528E0,-1.128618240E0
6.361086455E0,-8.592075109E-1,1.695803881E0,-1.065815926E0
6.369083047E0,-7.876194119E-1,1.712445617E0,-1.006588936E0
6.377108564E0,-6.616768837E-1,1.532894611E0,-9.079685211E-1
6.385103849E0,-5.835911036E-1,1.331494331E0,-8.011875153E-1
6.393100211E0,-5.272852182E-1,1.052525759E0,-6.120338440E-1
6.401094651E0,-5.504381657E-1,8.264512420E-1,-5.101900101E-1
6.409090859E0,-6.246697903E-1,7.213827372E-1,-5.360231400E-1
6.417086606E0,-7.042188644E-1,6.919893026E-1,-5.717782974E-1
6.425081584E0,-8.170216084E-1,7.663202286E-1,-5.237731934E-1
6.433108099E0,-9.341695905E-1,1.046976924E0,-5.930671692E-1
6.441103385E0,-1.026970148E0,1.399039149E0,-5.694351196E-1
6.449099132E0,-1.048000097E0,1.635184169E0,-5.487051010E-1
6.457094109E0,-9.535073042E-1,1.622787833E0,-4.522485733E-1
6.465089857E0,-7.203121185E-1,1.506139040E0,-3.010168076E-1
6.473085834E0,-3.667937517E-1,1.305028439E0,-1.992607117E-1
6.481111273E0,-7.926702499E-2,1.073784590E0,-1.786708832E-1
6.489107636E0,1.162149906E-1,7.138818502E-1,-1.576890945E-1
6.497102613E0,3.245663643E-2,3.686410189E-1,-1.167364120E-1
6.505098283E0,-2.282943726E-1,1.283651590E-1,-1.362171173E-1
6.513094646E0,-5.801081657E-1,8.127284050E-2,-1.360511780E-1
6.521090007E0,-8.296101093E-1,2.618652582E-1,-2.064418793E-2
6.529084755E0,-9.951521158E-1,4.309594631E-1,1.307926178E-1
6.537111501E0,-9.297468662E-1,4.829342365E-1,3.028402328E-1
6.545107402E0,-6.219100952E-1,5.085525513E-1,2.991704941E-1
6.553102149E0,-2.609994411E-1,4.903770685E-1,1.209039688E-1
6.561098434E0,-6.775212288E-2,4.975894690E-1,-8.451461792E-2
6.569094104E0,-2.844047546E-2,4.597423077E-1,-3.893117905E-1
6.577089159E0,-6.138420105E-2,4.616141319E-1,-5.752248764E-1
6.585085136E0,-7.030940056E-2,4.107689857E-1,-6.634454727E-1
6.593080499E0,-4.127764702E-2,2.473068237E-1,-6.160240173E-1
6.601105785E0,4.199600220E-2,1.021444798E-1,-2.602977753E-1
6.609102992E0,2.647950649E-1,-4.212570190E-2,2.475795746E-1
6.625093024E0,7.335855961E-1,-2.925262451E-1,8.580112457E-1
6.633090310E0,7.505781651E-1,-5.567693710E-1,7.125530243E-1
6.641083827E0,5.495924950E-1,-7.725861073E-1,4.279012680E-1
6.649080419E0,1.619815826E-1,-8.684053421E-1,5.031013489E-2
6.657106243E0,-1.848630905E-1,-7.317092419E-1,-1.847915649E-1
6.665101529E0,-3.701257706E-1,-4.744780064E-1,-2.545347214E-1
6.673098198E0,-2.881479263E-1,-2.940015793E-1,2.585697174E-2
6.681092945E0,-2.361178398E-2,-3.059618473E-1,3.901872635E-1
6.689088616E0,3.477647305E-1,-3.252830505E-1,8.586349487E-1
6.697084593E0,6.650004387E-1,-3.498654366E-1,1.022076607E0
6.705109802E0,9.449551105E-1,-4.469695091E-1,9.763364792E-1
6.713107009E0,9.158737659E-1,-5.735340118E-1,8.384084702E-1
6.721101449E0,6.556994915E-1,-7.734775543E-1,5.859518051E-1
6.729097427E0,3.403594494E-1,-8.467302322E-1,3.257913589E-1
6.737092712E0,1.686158180E-1,-7.479305267E-1,2.135105133E-1
6.745087844E0,1.684534550E-1,-5.360312462E-1,3.037757874E-1
6.753084129E0,2.687501907E-1,-4.433684349E-1,3.962264061E-1
6.761109568E0,4.408676624E-1,-6.310367584E-1,4.080181122E-1
6.769105854E0,6.024665833E-1,-7.417311668E-1,4.633793831E-1
6.777100984E0,8.436913490E-1,-7.187561989E-1,4.749798775E-1
6.785097809E0,1.032443047E0,-6.694364548E-1,5.186629295E-1
6.793093171E0,1.062195301E0,-6.006159782E-1,5.317144394E-1
6.801087687E0,9.243679047E-1,-6.018509865E-1,5.176944733E-1
6.809083049E0,7.551360130E-1,-5.653915405E-1,4.526991844E-1
6.817109412E0,5.482115746E-1,-4.750680923E-1,4.232606888E-1
6.825105774E0,3.773908615E-1,-3.004245758E-1,6.028456688E-1
6.833101367E0,2.905073166E-1,-2.283854485E-1,7.317771912E-1
6.841096113E0,3.581681252E-1,-3.395667076E-1,8.018550873E-1
6.849092091E0,5.141634941E-1,-5.605387688E-1,8.896656036E-1
6.857087838E0,7.890253067E-1,-7.617292404E-1,9.156103134E-1
6.865083123E0,9.823288918E-1,-7.954120636E-1,9.683628082E-1
6.873109255E0,1.133352757E0,-8.403244019E-1,9.558596611E-1
6.881105310E0,1.143452644E0,-8.580522537E-1,9.173974991E-1
6.889100364E0,9.512724876E-1,-8.167090416E-1,8.934755325E-1
6.897096342E0,6.091914177E-1,-6.438636780E-1,8.822317123E-1
6.905090705E0,2.904763222E-1,-4.008407593E-1,9.980225563E-1
6.913086989E0,1.006488800E-1,-5.506134033E-2,1.085972786E0
6.921082429E0,-5.076408386E-3,1.317248344E-1,1.170025826E0
6.929108483E0,-7.339286804E-2,1.801052094E-1,1.273746967E0
6.937104153E0,-3.312158585E-2,2.967596054E-2,1.349493980E0
6.945099900E0,1.805310249E-1,-2.143740654E-1,1.344644547E0
6.953095800E0,5.485482216E-1,-5.157618523E-1,1.202750206E0
6.961090625E0,8.565492630E-1,-8.136348724E-1,1.171132088E0
6.969086295E0,1.206900120E0,-9.400696754E-1,1.141089439E0
6.977082272E0,1.444900513E0,-8.914532661E-1,1.022207260E0
6.985108096E0,1.517944813E0,-6.196651459E-1,9.221954346E-1
6.993103996E0,1.470012665E0,-2.636761665E-1,7.844691277E-1
7.001099051E0,1.358287811E0,-6.545591354E-2,7.713971138E-1
7.009094491E0,1.131038189E0,-5.423784256E-2,8.569793701E-1
7.017090160E0,9.222440720E-1,-2.930278778E-1,1.073493004E0
7.025086369E0,7.569150925E-1,-5.559315681E-1,1.266675472E0
7.033081732E0,6.174917221E-1,-7.717213631E-1,1.328643322E0
7.041107324E0,5.138788223E-1,-8.067350388E-1,1.306296825E0
7.049103225E0,4.001092911E-1,-8.237113953E-1,1.224034786E0
7.057099280E0,2.929377556E-1,-7.984271049E-1,1.098938942E0
7.065094642E0,1.497879028E-1,-6.583662033E-1,9.578027725E-1
7.073090620E0,-6.188678741E-2,-2.968974113E-1,8.806614876E-1
7.081085366E0,-1.974058151E-1,5.935001373E-2,8.558206558E-1
7.089081882E0,-1.257634163E-1,2.502899170E-1,7.577548027E-1
7.097108014E0,1.244115829E-1,6.459474564E-2,7.859296799E-1
7.105103145E0,4.137659073E-1,-3.012046814E-1,8.090860844E-1
7.113099046E0,6.831264496E-1,-5.839819908E-1,9.407069683E-1
7.121093870E0,8.601841927E-1,-7.418513298E-1,1.046817541E0
7.129089463E0,1.122769356E0,-9.316520691E-1,1.085999250E0
7.137084595E0,1.214497089E0,-1.113004684E0,1.031257868E0
7.145080495E0,1.007477283E0,-1.243226528E0,1.004853964E0
7.153106934E0,5.611062050E-1,-1.207648754E0,9.466712475E-1
7.161102682E0,1.664791107E-1,-1.070765018E0,8.701522350E-1
7.169098274E0,-2.403836250E-1,-8.420472145E-1,8.257193565E-1
7.177093329E0,-5.487365723E-1,-6.004004478E-1,7.778577805E-1
7.185089307E0,-7.933297157E-1,-3.580932617E-1,7.229034901E-1
7.193084976E0,-8.983340263E-1,-2.087287903E-1,6.972019672E-1
7.201080647E0,-8.935227394E-1,-4.336404800E-2,7.443063259E-1
7.209106777E0,-7.121543884E-1,1.169171333E-1,8.798673153E-1
7.217102448E0,-4.005093575E-1,7.857656479E-2,7.348113060E-1
7.225098118E0,-5.202770233E-3,-1.074333191E-1,5.807528496E-1
7.233093557E0,3.278822899E-1,-3.681869507E-1,4.516069889E-1
7.241088535E0,6.431941986E-1,-5.827903748E-1,3.150830269E-1
7.249084205E0,8.662891388E-1,-6.264848709E-1,2.067980766E-1
7.257079874E0,8.799557686E-1,-6.089868546E-1,1.692588329E-1
7.265106314E0,7.212734222E-1,-5.447835922E-1,1.569519043E-1
7.273102369E0,4.631805420E-1,-5.342025757E-1,1.972341537E-1
7.281096807E0,1.188864708E-1,-4.629087448E-1,2.304446697E-1
7.289092401E0,-1.891603470E-1,-3.078079224E-1,2.431662083E-1
7.297088993E0,-5.033812523E-1,-1.534690857E-1,2.862420082E-1
7.305083817E0,-7.021660805E-1,-1.170778275E-1,4.207615852E-1
7.313080718E0,-6.998796463E-1,-1.603832245E-1,4.918634892E-1
7.321105926E0,-5.145702362E-1,-2.930927277E-1,4.774990082E-1
7.329101520E0,-2.795186043E-1,-3.312406540E-1,4.008445740E-1
7.337096575E0,-1.954364777E-2,-3.134603500E-1,2.958662510E-1
7.345092859E0,1.817879677E-1,-2.400102615E-1,3.167951107E-1
7.353088837E0,3.567757607E-1,-1.684293747E-1,4.130904675E-1
7.361083354E0,5.515799522E-1,-8.923625946E-2,6.020448208E-1
7.369079946E0,6.427469254E-1,-7.639122009E-2,6.620898247E-1
7.377105463E0,6.618146896E-1,-1.175394058E-1,6.535072327E-1
7.385100517E0,6.002154350E-1,-2.334432602E-1,6.705379486E-1
7.393097033E0,4.824275970E-1,-3.255443573E-1,7.710218430E-1
7.401092703E0,4.352817535E-1,-4.295101166E-1,7.501251698E-1
7.409088988E0,4.389047623E-1,-4.642210007E-1,7.709751129E-1
7.417083735E0,4.758863449E-1,-5.207653046E-1,7.913455963E-1
7.425078560E0,5.311274529E-1,-5.778093338E-1,7.424411774E-1
7.433105306E0,5.422024727E-1,-6.543998718E-1,6.872661114E-1
7.441100899E0,4.899654388E-1,-7.074127197E-1,6.379051208E-1
7.449095953E0,4.230518341E-1,-7.006845474E-1,6.057984829E-1
7.457091316E0,4.157810211E-1,-6.485900879E-1,6.338007450E-1
7.465087063E0,4.598846436E-1,-4.824533463E-1,6.323662996E-1
7.473083578E0,5.325083733E-1,-2.676963806E-1,5.816711187E-1
7.481109403E0,6.136059761E-1,-1.605052948E-1,5.552822351E-1
7.489104535E0,7.249226570E-1,-1.248168945E-1,4.886983633E-1
7.497100127E0,8.237214088E-1,-1.125946045E-1,3.913100958E-1
7.505096105E0,8.555464745E-1,-7.095146179E-2,3.321434259E-1
7.513092082E0,8.619575500E-1,-3.782558441E-2,2.510983944E-1
7.521087137E0,8.223075867E-1,-5.120372772E-2,2.433955669E-1
7.529083115E0,7.969951630E-1,-1.274385452E-1,1.827532053E-1
7.537078169E0,6.955971718E-1,-2.518386841E-1,1.939350367E-1
7.545104301E0,5.684361458E-1,-3.214302063E-1,2.338421345E-1
7.553099971E0,3.747897148E-1,-3.552618027E-1,2.407733202E-1
7.561095102E0,1.674742699E-1,-4.081001282E-1,1.846253872E-1
7.569091695E0,-1.753473282E-2,-3.935022354E-1,1.406085491E-1
7.577086981E0,-1.462154388E-1,-3.538675308E-1,8.912611008E-2
7.585082420E0,-1.899380684E-1,-2.985219955E-1,3.606081009E-4
7.593108167E0,-1.574497223E-1,-2.090167999E-1,-1.517704725E-1
7.601103605E0,-7.359027863E-2,-1.361932755E-1,-2.696347237E-1
7.609099507E0,4.458856583E-2,-1.354885101E-1,-3.685749769E-1
7.617094869E0,2.063946724E-1,-1.425800323E-1,-4.853297472E-1
7.625090846E0,3.827142715E-1,-1.168479919E-1,-6.169838905E-1
7.633086901E0,4.846434593E-1,-1.443462372E-1,-7.118961811E-1
7.641081571E0,5.432987213E-1,-1.387214661E-1,-7.428969145E-1
7.649107702E0,5.671844482E-1,-1.547489166E-1,-7.617676258E-1
7.657103142E0,5.052180290E-1,-1.490974426E-1,-7.422183752E-1
7.665099042E0,4.268274307E-1,-1.073141098E-1,-7.532663345E-1
7.673094789E0,2.797050476E-1,-7.945156097E-2,-7.061252594E-1
7.681089460E0,1.285080910E-1,-3.899002075E-2,-7.196428776E-1
7.689085744E0,-2.875757217E-2,4.797935486E-3,-6.903167963E-1
7.697080799E0,-1.291923523E-1,-5.078029633E-2,-6.471370459E-1
7.705106700E0,-2.012042999E-1,-9.795665741E-2,-5.739579201E-1
7.713103831E0,-2.399430275E-1,-1.224880219E-1,-5.241717100E-1
7.721098348E0,-2.598228455E-1,-9.818935394E-2,-4.505044222E-1
7.729093633E0,-2.394495010E-1,-9.707546234E-2,-3.990460634E-1
7.737089918E0,-2.010107040E-1,-7.639408112E-2,-3.914783001E-1
7.745085973E0,-1.733503342E-1,-1.392736435E-1,-3.447002172E-1
7.753081642E0,-1.898903847E-1,-1.731033325E-1,-3.399626017E-1
7.761106851E0,-1.786522865E-1,-2.018089294E-1,-3.058412075E-1
7.769103368E0,-1.782994270E-1,-2.641572952E-1,-2.248111963E-1
7.777097883E0,-1.321697235E-1,-3.345384598E-1,-1.990532875E-2
7.785094476E0,-3.871250153E-2,-4.133253098E-1,1.102939844E-1
7.793090378E0,1.057229042E-1,-4.652194977E-1,3.114198446E-1
7.801084816E0,2.006511688E-1,-5.164098740E-1,5.672941208E-1
7.809080486E0,1.973361969E-1,-6.162061691E-1,8.791285753E-1
7.817106694E0,7.461738586E-2,-8.067836761E-1,1.189340115E0
7.825101441E0,-4.786157608E-2,-9.228267670E-1,1.837125540E0
7.833098650E0,-1.055154800E-1,-8.501987457E-1,2.459141254E0
7.841093089E0,-1.236491203E-1,-7.425575256E-1,3.114701748E0
7.849088990E0,-1.095099449E-1,-7.558803558E-1,3.598055124E0
7.857085276E0,-7.607698441E-2,-8.949518204E-1,4.099682808E0
7.865080099E0,-1.000041962E-1,-9.765157700E-1,4.465299606E0
7.873106461E0,-1.919050217E-1,-9.823102951E-1,4.735209465E0
7.881101515E0,-3.864998817E-1,-9.645776749E-1,4.981085777E0
7.889096570E0,-5.238611698E-1,-9.180021286E-1,5.182561398E0
7.897093164E0,-5.828778744E-1,-9.019050598E-1,5.333840847E0
7.905087987E0,-5.476148129E-1,-1.059764862E0,5.538756371E0
7.913085426E0,-4.530723095E-1,-1.355551720E0,5.672807217E0
7.921079635E0,-3.761157990E-1,-1.717678070E0,5.708215237E0
7.929106074E0,-4.677040577E-1,-1.923846245E0,5.628531456E0
7.937101052E0,-6.442337036E-1,-2.040933609E0,5.500720978E0
7.945096722E0,-6.975612640E-1,-2.112048149E0,5.340497971E0
7.953093007E0,-5.856494904E-1,-2.173263550E0,5.166684151E0
7.961088139E0,-3.790538311E-1,-2.304405212E0,4.983932495E0
7.969083731E0,-2.352051735E-1,-2.451121330E0,4.659266949E0
7.977079786E0,-2.980041504E-2,-2.601688385E0,4.259817123E0
7.985105841E0,1.846933365E-1,-2.701092720E0,3.936518908E0
7.993101280E0,4.564774036E-1,-2.842856407E0,3.590977907E0
8.001096027E0,7.218935490E-1,-2.995975494E0,3.217564106E0
8.009092543E0,9.333856106E-1,-3.088737488E0,2.854638815E0
8.017087905E0,1.156135559E0,-3.118971825E0,2.544954062E0
8.025082960E0,1.265599489E0,-3.129487991E0,2.323373318E0
8.033079015E0,1.310159445E0,-3.118122101E0,2.029142380E0
8.041104761E0,1.366654873E0,-3.137585163E0,1.818237305E0
8.049101354E0,1.434947729E0,-3.111041069E0,1.660608768E0
8.057096408E0,1.469452620E0,-3.072198391E0,1.453527927E0
8.065091848E0,1.484583855E0,-3.119362354E0,1.213922977E0
8.073087518E0,1.535418510E0,-3.219283581E0,9.202642441E-1
8.081082880E0,1.441655397E0,-3.313654423E0,6.920375824E-1
8.089078550E0,1.274851799E0,-3.311950207E0,5.217885971E-1
8.097104913E0,1.137645960E0,-3.405625820E0,3.549685478E-1
8.105099659E0,1.108043194E0,-3.537293434E0,1.443758011E-1
8.113095714E0,1.079922676E0,-3.553483963E0,2.492237091E-2
8.121091306E0,1.136859417E0,-3.458570957E0,-2.912616730E-2
8.129086669E0,1.315528393E0,-3.382092953E0,-8.315467834E-2
8.137082109E0,1.544444323E0,-3.502838135E0,-1.771731377E-1
8.145078393E0,1.771331787E0,-3.660903454E0,-2.233505249E-1
8.153104141E0,1.921931267E0,-3.792006016E0,-2.602581978E-1
8.161099580E0,1.957496405E0,-3.781329155E0,-2.565622330E-1
8.169095173E0,1.862741232E0,-3.614743233E0,-3.316760063E-1
8.177090612E0,1.737025261E0,-3.507548809E0,-4.656963348E-1
8.185086821E0,1.618519783E0,-3.454919815E0,-5.292296410E-1
8.193083413E0,1.528124332E0,-3.378634930E0,-6.212964058E-1
8.201077314E0,1.511809826E0,-3.377538204E0,-8.073887825E-1
8.209103676E0,1.522698879E0,-3.374411583E0,-9.175124168E-1
8.217099654E0,1.514726400E0,-3.368397236E0,-9.542026520E-1
8.225095401E0,1.540943623E0,-3.227453709E0,-9.613890648E-1
8.233091378E0,1.639893055E0,-2.990142345E0,-1.093383312E0
8.241085818E0,1.726066828E0,-2.786457062E0,-1.222423077E0
8.249081796E0,1.745115757E0,-2.623568058E0,-1.329586506E0
8.257077388E0,1.716847181E0,-2.520302773E0,-1.381351948E0
8.265102905E0,1.590665102E0,-2.426452160E0,-1.360844612E0
8.273099497E0,1.511467695E0,-2.408822536E0,-1.325012684E0
8.281094321E0,1.373786449E0,-2.426843405E0,-1.242070675E0
8.289090530E0,1.275980473E0,-2.443325996E0,-1.171827316E0
8.297085584E0,1.183430910E0,-2.505353212E0,-1.249576092E0
8.305080947E0,1.060692310E0,-2.532315254E0,-1.283833981E0
8.313077232E0,9.903974533E-1,-2.500131845E0,-1.341512680E0
8.321103056E0,9.752500057E-1,-2.442532301E0,-1.325377941E0
8.329098803E0,1.076690674E0,-2.317045927E0,-1.270934582E0
8.337093857E0,1.210910201E0,-2.206337929E0,-1.256884575E0
8.345089219E0,1.305337906E0,-2.045672417E0,-1.229370594E0
8.353085198E0,1.391443014E0,-1.948834419E0,-1.228351593E0
8.361081098E0,1.484271884E0,-1.854914188E0,-1.316442966E0
8.369076153E0,1.480411530E0,-1.811077595E0,-1.500972271E0
8.377102054E0,1.384867072E0,-1.829806089E0,-1.704699993E0
8.385097415E0,1.148540854E0,-1.828393459E0,-1.855428219E0
8.393094624E0,8.667399883E-1,-1.768174648E0,-1.911170483E0
8.401089064E0,5.869505405E-1,-1.588050842E0,-1.745886803E0
8.417080403E0,4.094805717E-1,-1.013728857E0,-1.211949348E0
8.425075765E0,4.273338318E-1,-7.330608368E-1,-1.039603233E0
8.433102435E0,4.986861944E-1,-6.218423843E-1,-9.066171646E-1
8.441097490E0,5.796592236E-1,-6.570641994E-1,-9.905872345E-1
8.449093775E0,5.811289549E-1,-8.177034855E-1,-1.174520493E0
8.457088830E0,5.092988014E-1,-9.759254456E-1,-1.464631081E0
8.465085116E0,4.483711720E-1,-1.040850639E0,-1.753896713E0
8.473080246E0,3.431369066E-1,-1.013788819E0,-1.956767559E0
8.481106378E0,2.962867022E-1,-8.377897739E-1,-1.983878136E0
8.489101663E0,2.839405537E-1,-6.653721333E-1,-1.854844093E0
8.497097410E0,3.102774620E-1,-4.475225210E-1,-1.629680634E0
8.505092773E0,4.396991730E-1,-3.581707478E-1,-1.519269943E0
8.513088442E0,5.282093287E-1,-3.562393188E-1,-1.676971912E0
8.521084036E0,5.467958450E-1,-4.500162601E-1,-1.843880653E0
8.529079167E0,4.174551964E-1,-5.843109488E-1,-2.060754776E0
8.537075375E0,1.982294321E-1,-6.339941025E-1,-2.377814293E0
8.545100584E0,-2.175796032E-2,-6.057161689E-1,-2.737568855E0
8.553096639E0,-2.600740194E-1,-4.597923756E-1,-3.295417786E0
8.561092539E0,-5.374832153E-1,-2.256944925E-1,-3.905090809E0
8.569087594E0,-7.786713839E-1,-2.469711006E-2,-4.437257290E0
8.577083879E0,-1.066707015E0,3.087686002E-1,-5.116987705E0
8.585079241E0,-1.248314619E0,6.281527281E-1,-5.542439461E0
8.593106604E0,-1.400887728E0,1.040495157E0,-6.061419487E0
8.601101043E0,-1.397889853E0,1.311094522E0,-6.332330227E0
8.609097098E0,-1.313614845E0,1.583964586E0,-6.679108620E0
8.617091229E0,-1.136660814E0,1.695419788E0,-6.712194920E0
8.625088053E0,-9.546312094E-1,1.699469328E0,-6.843755245E0
8.633083415E0,-8.068287373E-1,1.665481210E0,-6.870446682E0
8.641078777E0,-7.389835119E-1,1.596149921E0,-6.828415871E0
8.649074216E0,-7.326416969E-1,1.598541617E0,-6.823061943E0
8.657101194E0,-7.572979331E-1,1.601341605E0,-6.624685287E0
8.665095710E0,-7.906882763E-1,1.619725823E0,-6.462945938E0
8.673092226E0,-8.489029408E-1,1.624016523E0,-6.404746532E0
8.681087358E0,-9.237856865E-1,1.560812473E0,-6.311141491E0
8.689082951E0,-1.031565189E0,1.454529762E0,-6.153159142E0
8.697077698E0,-1.125921726E0,1.335185409E0,-6.047999382E0
8.705104521E0,-1.306136966E0,1.297566295E0,-6.029113770E0
8.713100191E0,-1.477634192E0,1.260204434E0,-5.897818089E0
8.721095862E0,-1.566011310E0,1.248914242E0,-5.728348255E0
8.729091454E0,-1.563836098E0,1.248768926E0,-5.573366165E0
8.737087432E0,-1.500162125E0,1.226685882E0,-5.349139690E0
8.745082256E0,-1.403582454E0,1.264479518E0,-5.132328510E0
8.753078464E0,-1.266580105E0,1.319747448E0,-4.877487183E0
8.761103981E0,-1.145698309E0,1.306233525E0,-4.670762062E0
8.769100035E0,-1.011222482E0,1.170569420E0,-4.365981102E0
8.777095628E0,-8.943942785E-1,9.720810652E-1,-4.070742607E0
8.785090683E0,-7.015078068E-1,7.644287944E-1,-3.710619926E0
8.793086121E0,-5.639005899E-1,7.265968919E-1,-3.500972748E0
8.801082022E0,-4.263210893E-1,8.968026638E-1,-3.180842876E0
8.809076770E0,-3.794403374E-1,1.103018045E0,-2.867620468E0
8.817103901E0,-3.704304695E-1,1.237193346E0,-2.669099331E0
8.825100186E0,-4.168037772E-1,1.316468835E0,-2.513536930E0
8.833095780E0,-5.134183168E-1,1.281113267E0,-2.391359806E0
8.841090295E0,-6.297962666E-1,1.176391840E0,-2.319261551E0
8.849085658E0,-7.586820126E-1,1.071424007E0,-2.215676308E0
8.857081944E0,-8.983939886E-1,9.417377710E-1,-2.042075157E0
8.865077305E0,-1.022132158E0,7.990474105E-1,-1.700142860E0
8.873103129E0,-1.112531543E0,8.271157742E-1,-1.374076843E0
8.881099106E0,-1.110013962E0,9.846574068E-1,-1.037467957E0
8.889095315E0,-1.031395197E0,1.178309202E0,-8.530673981E-1
8.897090062E0,-8.924946785E-1,1.260234237E0,-7.993240356E-1
8.905085501E0,-7.895976901E-1,1.302881718E0,-7.996730804E-1
8.913082094E0,-7.507575750E-1,1.353722453E0,-8.686628342E-1
8.921077072E0,-7.622016668E-1,1.458619714E0,-1.051897049E0
8.929102280E0,-8.623023629E-1,1.605647445E0,-1.208100319E0
8.937098951E0,-1.077006936E0,1.636386991E0,-1.133600235E0
8.945094851E0,-1.288602114E0,1.182432652E0,-9.670324326E-1
8.953090290E0,-1.361696959E0,6.051506400E-1,-5.981140137E-1
8.961085268E0,-1.327139854E0,5.774229765E-2,-1.000690460E-2
8.969080707E0,-1.251615047E0,-1.186481714E-1,3.159761429E-1
8.985102201E0,-1.004731178E0,4.239509702E-1,2.005300522E-1
8.993099024E0,-1.030104041E0,8.640806079E-1,-4.876232147E-2
9.001093156E0,-1.106809258E0,1.297655940E0,-3.860063553E-1
9.009089133E0,-1.242875099E0,1.469020844E0,-7.335004807E-1
9.017084881E0,-1.383742452E0,1.355601072E0,-1.197032928E0
9.025080243E0,-1.432718277E0,1.066124320E0,-1.335301399E0
9.033077374E0,-1.341375709E0,5.263993740E-1,-1.153632164E0
9.041101967E0,-1.052276611E0,6.940746307E-2,-7.259740829E-1
9.049097715E0,-7.159013748E-1,-1.487752199E-1,-3.012371063E-1
9.057093922E0,-3.256400824E-1,-1.019181013E-1,-4.087257385E-2
9.065088439E0,-8.927285671E-2,1.245890856E-1,4.961013794E-3
9.073085648E0,4.718577862E-2,3.765372038E-1,-4.097461700E-2
9.081080317E0,-4.388308525E-2,5.440914631E-1,-3.548946381E-1
9.089075449E0,-2.025719881E-1,5.839400291E-1,-7.510452271E-1
9.097102118E0,-4.446927309E-1,5.241869688E-1,-1.101328850E0
9.105096635E0,-6.296668053E-1,3.989721537E-1,-1.154386520E0
9.113093459E0,-8.112355471E-1,1.821961403E-1,-1.083117485E0
9.121088282E0,-8.862780333E-1,-4.411435127E-2,-7.428302765E-1
9.129084876E0,-8.644175529E-1,-2.554218769E-1,-2.571544647E-1
9.137079930E0,-6.924078465E-1,-3.375046253E-1,1.951036453E-1
9.145074984E0,-5.251797438E-1,-2.065057755E-1,3.699245453E-1
9.153101732E0,-3.409302235E-1,7.945179939E-2,4.183263779E-1
9.161097093E0,-2.351627350E-1,3.721082211E-1,3.383436203E-1
9.169092148E0,-2.303378582E-1,5.668517351E-1,-1.006784439E-1
9.177087511E0,-3.401796818E-1,5.497665405E-1,-5.806713104E-1
9.185084026E0,-5.019869804E-1,3.872544765E-1,-6.540946960E-1
9.193080697E0,-6.265439987E-1,3.437852859E-2,-4.483938217E-1
9.201075444E0,-6.322352886E-1,-2.872438431E-1,-1.560268402E-1
9.209101190E0,-4.629719257E-1,-6.811380386E-1,2.290649414E-1
9.217096245E0,-2.299268246E-1,-9.667010307E-1,5.750837326E-1
9.225091377E0,9.600090981E-2,-1.020232677E0,7.178335190E-1
9.233088816E0,3.528275490E-1,-9.096605778E-1,8.286523819E-1
9.241083024E0,4.036958218E-1,-7.694375515E-1,6.528654099E-1
9.249078617E0,2.121248245E-1,-5.120625496E-1,2.472896576E-1
9.257074364E0,-9.418392181E-2,-2.886393070E-1,-1.791467667E-1
9.265101034E0,-4.021685123E-1,-4.007196426E-2,-5.302667618E-1
9.273096781E0,-5.066595078E-1,-1.472215652E-1,-6.078319550E-1
9.281091759E0,-3.936679363E-1,-3.947129250E-1,-3.372039795E-1
9.289087737E0,-2.333021164E-2,-7.087090015E-1,7.047748566E-2
9.297083098E0,4.115250111E-1,-8.290793896E-1,6.170616150E-1
9.305078153E0,9.310288429E-1,-8.581359386E-1,9.997844696E-1
9.313074208E0,1.268528223E0,-8.492522240E-1,1.131790161E0
9.321100570E0,1.376307487E0,-8.338618279E-1,9.666614532E-1
9.329095702E0,1.185309172E0,-8.294281960E-1,6.036701202E-1
9.337091063E0,7.913038731E-1,-7.813134193E-1,2.451829910E-1
9.345086041E0,3.079071045E-1,-6.599674225E-1,-1.855096817E-1
9.353082404E0,-6.114721298E-3,-5.298051834E-1,-5.543823242E-1
9.361077766E0,-1.742291451E-1,-4.540324211E-1,-6.732397079E-1
9.369073667E0,-1.106219292E-1,-6.153330803E-1,-4.993143082E-1
9.377099567E0,5.301356316E-2,-7.688198090E-1,-3.135886192E-1
9.385095237E0,3.905060291E-1,-8.672761917E-1,6.592655182E-2
9.393091215E0,7.609641552E-1,-8.725357056E-1,3.600544930E-1
9.401087115E0,1.202982187E0,-8.818273544E-1,4.577479362E-1
9.409081939E0,1.378235817E0,-8.993897438E-1,4.528903961E-1
9.417077302E0,1.312327862E0,-8.606562614E-1,2.823276520E-1
9.425074125E0,1.050185204E0,-7.868275642E-1,-1.169581413E-1
9.433099642E0,7.341215611E-1,-6.461100578E-1,-3.070516586E-1
9.441095004E0,4.042487144E-1,-5.359144211E-1,-4.668741226E-1
9.449090751E0,1.770029068E-1,-4.787144661E-1,-6.668529510E-1
9.457086344E0,5.445981026E-2,-6.159348488E-1,-6.010928154E-1
9.465081167E0,1.262302399E-1,-7.806291580E-1,-4.512310028E-1
9.473078068E0,2.733645439E-1,-8.502440453E-1,-1.656355858E-1
9.481103277E0,6.388814449E-1,-7.807245255E-1,3.242349625E-2
9.489098639E0,1.041086197E0,-7.060408592E-1,1.649661064E-1
9.497094540E0,1.415942192E0,-8.163032532E-1,7.520437241E-2
9.505090518E0,1.594459057E0,-9.483561516E-1,-3.609514236E-2
9.513086879E0,1.569780827E0,-9.592094421E-1,-1.379261017E-1
9.521080934E0,1.360584021E0,-7.865920067E-1,-2.003893852E-1
9.529077220E0,1.112155676E0,-4.757261276E-1,-1.214408875E-1
9.537102812E0,8.819613457E-1,-2.045884132E-1,2.160549164E-3
9.545099021E0,7.524828911E-1,-1.675362587E-1,2.065033913E-1
9.553095383E0,5.824055672E-1,-3.521623611E-1,4.192004204E-1
9.561090130E0,4.008951187E-1,-6.755251884E-1,7.316508293E-1
9.569085108E0,3.254394531E-1,-8.875761032E-1,1.031637192E0
9.577081470E0,3.686881065E-1,-1.058109760E0,1.277069569E0
9.585076755E0,4.691224098E-1,-1.095792770E0,1.342579365E0
9.593102657E0,5.771040916E-1,-1.050608635E0,1.302079678E0
9.601097634E0,5.890049934E-1,-9.417681694E-1,1.147091389E0
9.609094535E0,6.126270294E-1,-8.788838387E-1,9.817080498E-1
9.617089281E0,5.826673508E-1,-7.918500900E-1,7.789759636E-1
9.625084644E0,5.485014915E-1,-6.629629135E-1,8.739762306E-1
9.633081545E0,5.661735535E-1,-5.283012390E-1,9.447154999E-1
9.641075676E0,5.279822350E-1,-5.409650803E-1,1.089261532E0
9.649102730E0,4.810314178E-1,-6.244888306E-1,1.238412380E0
9.657097555E0,3.168067932E-1,-6.688022614E-1,1.361406326E0
9.665094378E0,1.515746117E-1,-6.736822128E-1,1.416219234E0
9.673089433E0,-3.680229187E-3,-7.225394249E-1,1.452088833E0
9.681084795E0,-9.453201294E-2,-8.079733849E-1,1.453143120E0
9.689080542E0,-1.433792114E-1,-9.185314178E-1,1.371505737E0
9.697076135E0,-1.680479050E-1,-9.755020142E-1,1.308289051E0
9.705101651E0,-1.450414658E-1,-1.022197247E0,1.285172939E0
9.713098013E0,-5.495595932E-2,-9.961833954E-1,1.244848251E0
9.721092991E0,4.544019699E-2,-8.325982094E-1,1.256530762E0
9.729088430E0,2.272429466E-1,-6.033096313E-1,1.237112999E0
9.737084100E0,3.485698700E-1,-4.971523285E-1,1.326500893E0
9.745079770E0,4.349265099E-1,-5.550374985E-1,1.362046242E0
9.753076286E0,4.368109703E-1,-6.473431587E-1,1.443786144E0
9.761101187E0,4.028449059E-1,-6.947445869E-1,1.487396717E0
9.769097241E0,2.964010239E-1,-6.683821678E-1,1.460144043E0
9.777092527E0,1.308240891E-1,-5.921783447E-1,1.360637426E0
9.785087889E0,-5.458402634E-2,-5.548520088E-1,1.221223354E0
9.793084559E0,-2.203593254E-1,-5.660557747E-1,1.086245775E0
9.801079613E0,-3.320479393E-1,-5.928168297E-1,9.826073647E-1
9.809074668E0,-3.999347687E-1,-6.781086922E-1,9.377915859E-1
9.817101030E0,-4.004282951E-1,-7.021818161E-1,9.332435131E-1
9.825096393E0,-2.896237373E-1,-5.957355499E-1,1.017958879E0
9.833092062E0,-8.347702026E-2,-4.548654556E-1,1.118226528E0
9.841087425E0,1.320095062E-1,-3.945865631E-1,1.161619902E0
9.849084018E0,3.738899231E-1,-3.551349640E-1,1.113795996E0
9.857078764E0,4.654440880E-1,-3.821792603E-1,1.078769207E0
9.865074435E0,3.697428703E-1,-3.605184555E-1,9.735708237E-1
9.873101797E0,2.009596825E-1,-3.470802307E-1,8.878443241E-1
9.881096005E0,1.981782913E-2,-3.317193985E-1,8.358476162E-1
9.889091675E0,-5.198621750E-2,-3.525066376E-1,8.066272736E-1
9.897088192E0,-9.955024719E-2,-3.521461487E-1,7.656049728E-1
9.905083323E0,-1.868505478E-1,-3.357782364E-1,7.310693264E-1
9.913079608E0,-2.597436905E-1,-2.511663437E-1,7.653169632E-1
9.921074585E0,-2.586822510E-1,-9.610080719E-2,7.317173481E-1
9.929099871E0,-1.910762787E-1,7.221221924E-3,7.140254974E-1
9.937095465E0,-2.860450745E-2,-7.896423340E-4,7.423233986E-1
9.945091519E0,1.781673431E-1,-1.149778366E-1,6.959989071E-1
9.953088420E0,3.194603920E-1,-2.343654633E-1,7.242178917E-1
9.961082244E0,4.581704140E-1,-4.060907364E-1,6.773965359E-1
9.969078221E0,4.684896469E-1,-5.627775192E-1,6.386966705E-1
9.977073507E0,4.087138176E-1,-6.538467407E-1,6.700105667E-1
9.985099945E0,3.031182289E-1,-7.871065140E-1,7.371189594E-1
9.993096000E0,2.415728569E-1,-8.817176819E-1,7.059898376E-1
1.000109136E1,9.066963196E-2,-8.882541656E-1,6.269598007E-1
1.000908611E1,-3.326511383E-2,-7.451057434E-1,5.354413986E-1
1.001708209E1,-1.686596870E-1,-5.076608658E-1,5.741467476E-1
1.002507745E1,-1.861028671E-1,-3.175354004E-1,6.458213329E-1
1.003307366E1,-1.094737053E-1,-2.155580521E-1,7.019371986E-1
1.004109956E1,-4.196882248E-2,-1.706829071E-1,7.305769920E-1
1.004909484E1,-5.073022842E-2,-1.659326553E-1,7.062449455E-1
1.005708990E1,-8.722877502E-2,-1.863431931E-1,6.801297665E-1
1.006508626E1,-4.331731796E-2,-3.006582260E-1,6.443133354E-1
1.007308216E1,1.195049286E-2,-3.910961151E-1,6.021382809E-1
1.008107752E1,7.888412476E-2,-4.430932999E-1,5.393996239E-1
1.008907358E1,2.079010010E-1,-4.374437332E-1,4.776086807E-1
1.009709909E1,3.391270638E-1,-3.624362946E-1,3.991420269E-1
1.010509438E1,4.794287682E-1,-3.189153671E-1,3.657879829E-1
1.011309044E1,5.589470863E-1,-2.713928223E-1,2.929868698E-1
1.012108549E1,4.850034714E-1,-2.795858383E-1,2.279081345E-1
1.012908177E1,3.488383293E-1,-1.999664307E-1,1.768548489E-1
1.013707767E1,1.963586807E-1,-1.041183472E-1,1.710739136E-1
1.014507342E1,8.443212509E-2,6.750965118E-2,1.578397751E-1
1.015309894E1,-6.589651108E-2,1.980428696E-1,9.073472023E-2
1.016109368E1,-2.061896324E-1,1.951246262E-1,5.882024765E-3
1.016908958E1,-3.025627136E-1,1.071519852E-1,-3.332066536E-2
1.017708533E1,-3.144502640E-1,-7.537555695E-2,-7.218837738E-3
1.018508039E1,-2.809004784E-1,-2.068147659E-1,-4.045343399E-2
1.019307667E1,-1.617870331E-1,-3.473768234E-1,-1.834821701E-2
1.020107196E1,-7.733631134E-2,-4.088191986E-1,-2.739310265E-2
1.020909786E1,6.201267242E-3,-4.057178497E-1,4.861283302E-2
1.021709353E1,5.787801743E-2,-3.311405182E-1,1.696157455E-2
1.022508974E1,8.055877686E-2,-2.713670731E-1,3.694248199E-2
1.023308548E1,1.415882111E-1,-2.263231277E-1,1.487898827E-2
1.024107992E1,1.550302505E-1,-1.648397446E-1,-8.796930313E-3
1.024907590E1,1.405038834E-1,-7.483386993E-2,-2.016949654E-2
1.025707211E1,1.341996193E-1,-2.798557281E-2,-5.033040047E-2
1.026509793E1,9.800338745E-2,-9.786605835E-3,-4.643225670E-2
1.027309399E1,3.885698318E-2,3.760337830E-3,-8.686232567E-2
1.028108904E1,-3.371667862E-2,-3.511714935E-2,-1.184608936E-1
1.028908471E1,-9.590625763E-2,-7.835197449E-2,-1.379220486E-1
1.029708007E1,-7.368564606E-2,-1.522150040E-1,-9.919285774E-2
1.030507598E1,2.746009827E-2,-2.068204880E-1,1.429986954E-2
1.031307172E1,1.085968018E-1,-2.618751526E-1,3.669095039E-2
1.032109716E1,1.360621452E-1,-2.697925568E-1,4.136729240E-2
1.032909322E1,1.390242577E-1,-2.663555145E-1,3.521394730E-2
1.033708881E1,8.480262756E-2,-2.250223160E-1,2.470135689E-2
1.034508417E1,-4.062175751E-3,-1.406764984E-1,2.847504616E-2
1.035308046E1,-9.698390961E-3,-1.711492538E-1,5.823779106E-2
1.036107551E1,-3.987741470E-2,-1.967248917E-1,1.380546093E-1
1.036907034E1,-1.049685478E-1,-1.817512512E-1,2.396605015E-1
1.037709708E1,-1.762371063E-1,-1.478157043E-1,4.060480595E-1
1.038509306E1,-2.482943535E-1,-2.265567780E-1,6.244566441E-1
1.039308873E1,-2.700879574E-1,-3.584051132E-1,8.472313881E-1
1.040108409E1,-2.746956348E-1,-5.173921585E-1,9.983611107E-1
1.040907915E1,-2.505996227E-1,-6.318931580E-1,1.068630695E0
1.041707536E1,-1.976120472E-1,-5.995883942E-1,1.119544744E0
1.042507072E1,-1.424186230E-1,-5.714359283E-1,1.259222031E0
1.043309693E1,-1.070237160E-2,-6.170234680E-1,1.393892765E0
1.044109221E1,5.444288254E-2,-6.402702332E-1,1.440235853E0
1.044908757E1,-3.636050224E-2,-5.618314743E-1,1.490715742E0
1.045708324E1,-2.762119770E-1,-4.842557907E-1,1.678155184E0
1.046507891E1,-5.014920235E-1,-5.337572098E-1,1.879540682E0
1.047307458E1,-6.288733482E-1,-7.576866150E-1,2.190878153E0
1.048110041E1,-8.431184292E-1,-9.955635071E-1,2.544303656E0
1.048909608E1,-1.053211451E0,-1.041533470E0,2.916088343E0
1.049709175E1,-1.120713472E0,-1.102476120E0,3.305910110E0
1.050508711E1,-1.146348000E0,-1.258122444E0,3.673930407E0
1.051308432E1,-1.255152225E0,-1.413147926E0,3.852261782E0
1.052107883E1,-1.322983503E0,-1.442866325E0,3.942516565E0
1.052907481E1,-1.179757595E0,-1.488619804E0,3.901460409E0
1.053709994E1,-1.017443657E0,-1.579492569E0,3.894067287E0
1.054509600E1,-9.814052582E-1,-1.680100441E0,3.885172367E0
1.055309228E1,-9.330577850E-1,-1.739849091E0,3.909823179E0
1.056108703E1,-8.585193157E-1,-1.882938385E0,3.910007954E0
1.056908301E1,-7.926566601E-1,-2.080806732E0,3.846802711E0
1.057707829E1,-6.618385315E-1,-2.328680038E0,3.929651260E0
1.058507335E1,-5.077099800E-1,-2.569754601E0,3.971868038E0
1.059310140E1,-3.586087227E-1,-2.764139175E0,3.952429295E0
1.060109553E1,-2.210593224E-1,-2.929097176E0,3.855357170E0
1.060909120E1,-7.508420944E-2,-3.074982643E0,3.707032681E0
1.061708656E1,5.896830559E-2,-3.149312973E0,3.472323418E0
1.062508285E1,1.739170551E-1,-3.198129654E0,3.236779213E0
1.063307906E1,3.395876884E-1,-3.270963669E0,2.987356663E0
1.064107296E1,6.600458622E-1,-3.404358387E0,2.816119671E0
1.064909994E1,9.969439507E-1,-3.520037651E0,2.585669041E0
1.065709507E1,1.197652102E0,-3.632236004E0,2.423351765E0
1.066509043E1,1.323107481E0,-3.733695030E0,2.329324245E0
1.067308664E1,1.436210632E0,-3.833923817E0,2.098065376E0
1.068108169E1,1.506252050E0,-3.906885147E0,1.712839603E0
1.068907775E1,1.517972946E0,-3.953964710E0,1.429643631E0
1.069707280E1,1.470499277E0,-3.960677147E0,1.117642403E0
1.070509916E1,1.444081068E0,-3.974700928E0,8.424153328E-1
1.071309553E1,1.497018099E0,-3.974154472E0,6.050362587E-1
1.072108958E1,1.510658979E0,-3.925181389E0,4.494376183E-1
1.072908625E1,1.664605856E0,-3.961567879E0,3.279685974E-1
1.073708154E1,2.014350653E0,-4.007680416E0,1.868338585E-1
1.074507636E1,2.322694540E0,-4.086808205E0,-2.589321136E-2
1.075307326E1,2.598150253E0,-4.122388840E0,-3.225755692E-1
1.076109839E1,2.728296041E0,-4.008462429E0,-3.632712364E-1
1.076909383E1,2.747195959E0,-3.867093086E0,-3.425016403E-1
1.077708973E1,2.716974020E0,-3.820610046E0,-5.001959801E-1
1.078508486E1,2.606155157E0,-3.871301174E0,-6.275954247E-1
1.079308138E1,2.304515600E0,-3.881038666E0,-6.549906731E-1
1.080107644E1,2.010752201E0,-3.903991699E0,-7.390465736E-1
1.080907241E1,1.750867724E0,-3.806448460E0,-8.003950119E-1
1.081709854E1,1.680123448E0,-3.666300297E0,-8.449997902E-1
1.082509421E1,1.758120418E0,-3.556772709E0,-8.604831696E-1
1.083308958E1,2.013793945E0,-3.392725468E0,-7.054266930E-1
1.084108502E1,2.351832867E0,-3.309169769E0,-5.069370270E-1
1.084908061E1,2.804410458E0,-3.280259609E0,-3.787965775E-1
1.085707574E1,3.059823513E0,-3.326629162E0,-3.521919250E-1
1.086507295E1,3.083740234E0,-3.442615509E0,-2.123727798E-1
1.087309777E1,2.868776560E0,-3.624440908E0,-2.425765991E-2
1.088109321E1,2.580266476E0,-3.785922050E0,9.945869446E-2
1.088908850E1,2.168805122E0,-3.938139915E0,2.360277176E-1
1.089708478E1,1.851356864E0,-4.051247597E0,2.328128815E-1
1.090508015E1,1.428331614E0,-4.027331829E0,1.310892105E-1
1.091307582E1,9.717358351E-1,-3.923500776E0,6.602573395E-2
1.092107118E1,7.262253761E-1,-3.787699461E0,-9.210491180E-2
1.092909708E1,5.138668418E-1,-3.686611176E0,-3.531036377E-1
1.093709244E1,4.905084670E-1,-3.696522951E0,-6.357021332E-1
1.094508834E1,6.521660089E-1,-3.764651060E0,-8.657503128E-1
1.095308409E1,9.444290400E-1,-3.918819427E0,-1.081376076E0
1.096107968E1,1.324420691E0,-4.075554848E0,-1.148602486E0
1.096907597E1,1.555890441E0,-4.110988617E0,-1.083943367E0
1.097707133E1,1.685688972E0,-4.102204800E0,-1.153302193E0
1.098509684E1,1.801081777E0,-4.070807457E0,-1.275298119E0
1.099309313E1,1.916945457E0,-4.144239902E0,-1.444251060E0
1.100108857E1,1.926730037E0,-4.185473442E0,-1.557108879E0
1.100908385E1,1.928155899E0,-4.059514523E0,-1.703796387E0
1.101707983E1,1.913003802E0,-3.865942240E0,-2.041076660E0
1.102507558E1,1.902166009E0,-3.480509996E0,-2.572098255E0
1.103307156E1,1.835247278E0,-3.189098835E0,-2.960873127E0
1.104109669E1,1.767413735E0,-2.900590897E0,-3.512733936E0
1.104909274E1,1.704865456E0,-2.676946640E0,-4.031669617E0
1.105708780E1,1.541357994E0,-2.527530193E0,-4.666097641E0
1.106508370E1,1.330438018E0,-2.366834402E0,-5.293943405E0
1.107307875E1,1.188293338E0,-2.275197983E0,-5.714656353E0
1.108107419E1,1.095861673E0,-1.957195640E0,-6.146894455E0
1.108907009E1,1.126535654E0,-1.684477925E0,-6.282460690E0
1.109709630E1,1.255118608E0,-1.338796616E0,-6.323003292E0
1.110509189E1,1.483846426E0,-1.080994129E0,-6.343007565E0
1.111308726E1,1.627019405E0,-9.938241839E-1,-6.474205017E0
1.112108208E1,1.656814098E0,-9.234087467E-1,-6.570506096E0
1.112907836E1,1.570580959E0,-9.111679792E-1,-6.746861935E0
1.113707396E1,1.300702691E0,-9.709046483E-1,-6.879380226E0
1.114506901E1,1.082891941E0,-9.234932065E-1,-6.903846741E0
1.115309584E1,7.555766106E-1,-8.360812664E-1,-6.789692879E0
1.116109112E1,4.222751260E-1,-6.460509300E-1,-6.520713329E0
1.116908748E1,2.794680595E-1,-4.125666618E-1,-6.224228382E0
1.117708254E1,2.206282616E-1,-1.801410913E-1,-5.785147667E0
1.118507813E1,2.477188110E-1,-1.311891079E-1,-5.411931515E0
1.119307480E1,2.831996679E-1,-1.672604084E-1,-5.082882881E0
1.120106893E1,2.327923775E-1,-2.461565733E-1,-5.040258884E0
1.120909530E1,1.490775347E-1,-3.679393530E-1,-4.868028164E0
1.121709097E1,2.783417702E-3,-4.495289326E-1,-4.765028000E0
1.122508633E1,-7.831656933E-2,-5.197005272E-1,-4.597582817E0
1.123308323E1,-1.292778254E-1,-5.936452150E-1,-4.351125717E0
1.124107828E1,-1.097272635E-1,-5.780069828E-1,-4.214537621E0
1.124907365E1,5.849599838E-4,-4.222539663E-1,-4.125100136E0
1.125706908E1,1.731792688E-1,-2.409975529E-1,-3.922061920E0
1.126509514E1,2.284070253E-1,-9.579515457E-2,-3.746480942E0
1.127309150E1,1.801873446E-1,-1.022124290E-2,-3.531092644E0
1.128108625E1,6.845617294E-2,1.309800148E-2,-3.294723034E0
1.128908192E1,1.037926674E-1,-5.038022995E-3,-3.140145779E0
1.129707697E1,3.069195747E-1,-9.411573410E-3,-2.974138737E0
1.130507295E1,5.497995615E-1,-1.194298267E-1,-2.813694477E0
1.131306893E1,7.434124947E-1,-2.567372322E-1,-2.543778419E0
1.132109506E1,8.063374162E-1,-4.770555496E-1,-2.293497562E0
1.132909042E1,7.738605738E-1,-6.924383640E-1,-2.125032902E0
1.133708571E1,6.997230649E-1,-8.819293976E-1,-2.021698952E0
1.134508138E1,6.841027737E-1,-8.806698322E-1,-1.966712475E0
1.135307797E1,6.817691326E-1,-7.462815046E-1,-1.991105556E0
1.136107310E1,6.956807375E-1,-5.720231533E-1,-2.054089069E0
1.136906693E1,6.452667713E-1,-4.077281952E-1,-2.160377979E0
1.137709490E1,6.035609245E-1,-2.982742786E-1,-2.070436001E0
1.138508957E1,5.492302179E-1,-2.661539316E-1,-1.973135948E0
1.139308532E1,4.406669140E-1,-1.873905659E-1,-1.985828876E0
1.140108068E1,3.380968571E-1,-1.527711153E-1,-2.001167774E0
1.140907635E1,2.155088186E-1,-1.865736246E-1,-1.990730286E0
1.141707194E1,1.213572025E-1,-3.081935644E-1,-1.914108753E0
1.142506762E1,9.272384644E-2,-4.987385273E-1,-1.843307018E0
1.143309405E1,9.008073807E-2,-5.476846695E-1,-1.847945690E0
1.144108857E1,7.661271095E-2,-5.393564701E-1,-1.940049171E0
1.144908455E1,9.285581112E-2,-4.832135439E-1,-1.995123863E0
1.145708053E1,1.187990904E-1,-3.595199585E-1,-2.006157398E0
1.146507589E1,1.307663918E-1,-2.596238852E-1,-2.075886726E0
1.147307240E1,1.839972734E-1,-1.367497444E-1,-2.127720356E0
1.148109730E1,3.189979792E-1,-3.047072887E-2,-2.276210785E0
1.148909328E1,5.293115973E-1,-1.646852493E-2,-2.374786377E0
1.149708903E1,7.218287587E-1,-6.295394897E-2,-2.396324158E0
1.150508401E1,9.296750426E-1,-2.825945616E-1,-2.289865017E0
1.151308091E1,1.025376201E0,-5.084514022E-1,-2.222710133E0
1.152107573E1,1.018734574E0,-7.921558619E-1,-2.053481102E0
1.152907140E1,9.219976068E-1,-9.838398695E-1,-1.909306049E0
1.153706707E1,7.271404266E-1,-1.075294733E0,-1.764168739E0
1.154509351E1,4.923867583E-1,-1.076988339E0,-1.637668610E0
1.155308941E1,2.663301229E-1,-9.557149410E-1,-1.532657623E0
1.156108416E1,2.224755287E-2,-8.290665150E-1,-1.446996689E0
1.156907952E1,-1.731671095E-1,-7.614470720E-1,-1.469483376E0
1.157707558E1,-3.109340668E-1,-6.732456088E-1,-1.475536346E0
1.158507094E1,-3.287323117E-1,-6.375225782E-1,-1.575101852E0
1.159309761E1,-2.565362453E-1,-5.839339495E-1,-1.679244041E0
1.160109212E1,-1.296041608E-1,-3.872552514E-1,-1.763514519E0
1.160908833E1,6.111592054E-2,-1.369603276E-1,-1.829842091E0
1.161708316E1,3.269270062E-1,6.942109764E-2,-1.829990387E0
1.162507975E1,5.913284421E-1,1.276762187E-1,-1.672845840E0
1.163307503E1,7.995647192E-1,4.204104096E-2,-1.525909424E0
1.164107016E1,8.426654935E-1,-2.509174347E-1,-1.336597443E0
1.164906637E1,6.822900176E-1,-5.916306973E-1,-1.270188332E0
1.165709281E1,4.314647317E-1,-1.043975711E0,-1.161516190E0
1.166508756E1,2.262315154E-1,-1.492040277E0,-1.146976471E0
1.167308384E1,7.290965319E-2,-1.670169353E0,-1.290956497E0
1.168107859E1,8.557531238E-2,-1.423741102E0,-1.255463600E0
1.168907434E1,2.488090396E-1,-9.488543868E-1,-1.327526093E0
1.169706993E1,4.932392836E-1,-4.691792727E-1,-1.416033745E0
1.170509606E1,6.556678414E-1,-2.304273248E-1,-1.494711876E0
1.171309273E1,7.967848778E-1,-1.943683028E-1,-1.592524529E0
1.172108771E1,8.802571297E-1,-3.343792558E-1,-1.575631142E0
1.172908246E1,8.663363457E-1,-5.644016266E-1,-1.544572830E0
1.173707844E1,8.383600712E-1,-1.048593163E0,-1.374453545E0
1.174507449E1,8.635939360E-1,-1.471740961E0,-1.115607262E0
1.175306978E1,1.079976916E0,-1.960539460E0,-8.160524368E-1
1.176109591E1,1.218666077E0,-2.206448555E0,-7.801637650E-1
1.176909073E1,1.195620537E0,-2.167986870E0,-9.160718918E-1
1.177708694E1,9.920643568E-1,-1.866402745E0,-1.081543922E0
1.178508207E1,7.726706266E-1,-1.386644125E0,-1.161896706E0
1.179307859E1,6.672698259E-1,-8.713101149E-1,-9.848661423E-1
1.180107341E1,6.704747677E-1,-5.648765564E-1,-7.977972031E-1
1.180906816E1,7.403428555E-1,-4.752850533E-1,-6.920566559E-1
1.181709544E1,8.743317127E-1,-6.289300919E-1,-5.455312729E-1
1.182509234E1,9.446020126E-1,-9.369175434E-1,-2.807178497E-1
1.183308771E1,1.030020475E0,-1.435184002E0,6.282806396E-3
1.184108215E1,1.070208788E0,-1.761441469E0,3.001575470E-1
1.184907751E1,1.138111830E0,-1.946125269E0,5.448122025E-1
1.185707387E1,1.139631748E0,-1.992220879E0,6.834259033E-1
1.186506892E1,1.091634274E0,-1.817502737E0,7.275772095E-1
1.187309529E1,1.035410404E0,-1.521506786E0,7.487058640E-1
1.188109096E1,9.957890511E-1,-1.256077766E0,7.537193298E-1
1.188908601E1,9.961180687E-1,-9.933531284E-1,7.286062241E-1
1.189708137E1,9.548358917E-1,-8.943614960E-1,6.291236877E-1
1.190507712E1,7.710967064E-1,-9.762861729E-1,5.909519196E-1
1.191307402E1,6.407444477E-1,-1.329980612E0,7.435646057E-1
1.192106815E1,6.473054886E-1,-1.647850513E0,1.008585930E0
1.192909452E1,8.349041939E-1,-1.755983829E0,1.215254784E0
1.193709018E1,1.050891876E0,-1.694214821E0,1.345760345E0
1.194508562E1,1.309337378E0,-1.626075268E0,1.296747208E0
1.195308222E1,1.329878330E0,-1.638556480E0,1.108408928E0
1.196107696E1,1.126949072E0,-1.608671665E0,9.175004959E-1
1.196907263E1,8.021955490E-1,-1.456849098E0,8.267068863E-1
1.197706823E1,5.951325893E-1,-1.240167618E0,8.480434418E-1
1.198509405E1,4.512417316E-1,-1.028814793E0,9.840970039E-1
1.199309041E1,3.045156002E-1,-1.072508812E0,1.221581459E0
1.200108508E1,1.594033241E-1,-1.167515278E0,1.372698784E0
1.200908206E1,7.214069366E-2,-1.192103863E0,1.416273594E0
1.201707612E1,7.697558403E-2,-1.035483360E0,1.292668819E0
1.202507186E1,2.397148609E-1,-8.098707199E-1,1.108228207E0
1.203306815E1,3.814818859E-1,-7.297010422E-1,9.747061729E-1
1.204109328E1,4.733438492E-1,-8.183541298E-1,8.147230148E-1
1.204908895E1,5.408253670E-1,-9.675483704E-1,6.444940567E-1
1.205708470E1,5.068466663E-1,-1.009436607E0,4.667301178E-1
1.206508067E1,4.610311985E-1,-9.584426880E-1,6.004652977E-1
1.207307696E1,4.375813007E-1,-9.607205391E-1,8.310604095E-1
1.208107140E1,4.334082603E-1,-1.033819199E0,1.062487602E0
1.208906638E1,4.816799164E-1,-1.101422787E0,1.141456604E0
1.209709281E1,5.413675308E-1,-1.049777985E0,1.174840927E0
1.210508887E1,4.881811142E-1,-9.389901161E-1,1.013764381E0
1.211308477E1,2.872014046E-1,-8.424181938E-1,9.096760750E-1
1.212107990E1,1.483135223E-1,-8.475751877E-1,8.217501640E-1
1.212907550E1,1.112508774E-1,-8.888421059E-1,7.594423294E-1
1.213707063E1,1.258864403E-1,-9.019246101E-1,6.216278076E-1
1.214506683E1,1.553230286E-1,-8.770713806E-1,4.976396561E-1
1.215309389E1,1.141562462E-1,-9.359774590E-1,5.565934181E-1
1.216108894E1,5.927467346E-2,-1.099396229E0,6.633234024E-1
1.216908400E1,1.112337112E-1,-1.159197330E0,8.171172142E-1
1.217708067E1,2.797594070E-1,-1.087376595E0,1.062592983E0
1.218507511E1,3.732371330E-1,-1.026870251E0,1.242251396E0
1.219307139E1,3.262052536E-1,-1.009699821E0,1.278951645E0
1.220106637E1,1.768441200E-1,-1.052633286E0,1.261209011E0
1.220909227E1,-6.290006638E-2,-1.047789574E0,1.181875229E0
1.221708756E1,-2.315168381E-1,-9.271516800E-1,1.124877453E0
1.222508361E1,-4.051365852E-1,-7.119565010E-1,9.464030266E-1
1.223307990E1,-4.955739975E-1,-5.693116188E-1,8.603973389E-1
1.224107487E1,-5.617556572E-1,-4.653830528E-1,8.613653183E-1
1.224907116E1,-6.261916161E-1,-3.687586784E-1,8.835911751E-1
1.225706629E1,-4.711709023E-1,-2.383852005E-1,9.470844269E-1
1.226509204E1,-2.102437019E-1,-1.847438812E-1,9.566526413E-1
1.227308778E1,1.675662994E-1,-2.293276787E-1,8.725700378E-1
1.228108346E1,5.423283577E-1,-3.097176552E-1,7.503404617E-1
1.228907851E1,8.114390373E-1,-3.916225433E-1,7.057213783E-1
1.229707449E1,1.022859097E0,-5.011949539E-1,7.581362724E-1
1.230507008E1,9.982957840E-1,-6.398124695E-1,9.893622398E-1
1.231306606E1,9.430799484E-1,-8.002643585E-1,1.101523399E0
1.232109134E1,8.637108803E-1,-8.617119789E-1,1.179188251E0
1.232908701E1,5.735006332E-1,-8.828749657E-1,1.222465038E0
1.233708207E1,3.278541565E-2,-7.586388588E-1,1.162704468E0
1.234507797E1,-3.691949844E-1,-5.481934547E-1,1.100151062E0
1.235307433E1,-7.491178513E-1,-3.898606300E-1,1.030478477E0
1.236106962E1,-9.866812229E-1,-3.520269394E-1,8.666009903E-1
1.236906536E1,-1.117937803E0,-2.952075005E-1,7.193117142E-1
1.237709088E1,-8.506965637E-1,-1.417689323E-1,6.476624012E-1
1.238508647E1,-3.043904305E-1,-1.850843430E-2,5.896480083E-1
1.239308314E1,4.029483795E-1,6.891775131E-2,4.922575951E-1
1.240107843E1,9.800839424E-1,1.009168625E-1,3.661227226E-1
1.240907410E1,1.511820793E0,-5.733013153E-3,2.088139057E-1
1.241706915E1,1.757653713E0,-1.104745865E-1,-4.069018364E-2
1.242506551E1,1.879307270E0,-2.066359520E-1,-2.467412949E-1
1.243309126E1,1.889350414E0,-2.883787155E-1,-3.200719357E-1
1.244108662E1,1.710869789E0,-3.697957993E-1,-3.228044510E-1
1.244908175E1,1.398186207E0,-4.542927742E-1,-2.562580109E-1
1.245707735E1,1.112267971E0,-5.381698608E-1,-1.898720264E-1
1.246507332E1,6.383609772E-1,-6.206312180E-1,-1.672644615E-1
1.247306907E1,1.408329010E-1,-5.470914841E-1,-1.792657375E-1
1.248106505E1,-2.623753548E-1,-3.989434242E-1,-2.138834000E-1
1.248909110E1,-5.801458359E-1,-2.470083237E-1,-2.146520615E-1
1.249708654E1,-6.643776894E-1,-1.466455460E-1,-3.014285564E-1
1.250508160E1,-6.192402840E-1,-1.178722382E-1,-2.970819473E-1
1.251307811E1,-3.962059021E-1,-2.524271011E-1,-2.843165398E-1
1.252107317E1,-9.674453735E-2,-3.554525375E-1,-2.770378590E-1
1.252906853E1,2.960882187E-1,-3.946104050E-1,-2.136545181E-1
1.253709436E1,6.893043518E-1,-4.192619324E-1,-3.642916679E-2
1.254509041E1,1.092473984E0,-5.120077133E-1,-1.227784157E-2
1.255308577E1,1.242867947E0,-5.176420212E-1,-3.374743462E-2
1.256108167E1,1.129514217E0,-5.224933624E-1,-7.169795036E-2
1.256907680E1,7.707624435E-1,-5.090103149E-1,-7.659578323E-2
1.257707270E1,3.557534218E-1,-4.935016632E-1,4.279613495E-4
1.258506838E1,-1.392998695E-1,-4.462699890E-1,7.569670677E-2
1.259309397E1,-5.166983604E-1,-3.909072876E-1,1.520235538E-1
1.260108964E1,-8.338458538E-1,-3.137769699E-1,2.001700401E-1
1.260908592E1,-1.022130728E0,-2.611141205E-1,2.910289764E-1
1.261708090E1,-1.014454126E0,-2.895698547E-1,4.084079266E-1
1.262507726E1,-8.397095203E-1,-3.705635071E-1,5.516874790E-1
1.263307255E1,-5.462260246E-1,-3.784399033E-1,5.568301678E-1
1.264106706E1,-1.312532425E-1,-4.220533371E-1,5.795288086E-1
1.264906304E1,2.180924416E-1,-4.467821121E-1,4.514076710E-1
1.265709002E1,5.413393974E-1,-3.997678757E-1,3.144524097E-1
1.266508454E1,6.945056915E-1,-3.596372604E-1,2.138724327E-1
1.267308021E1,7.115912437E-1,-2.991123199E-1,1.448276043E-1
1.268107611E1,6.065144539E-1,-2.007846832E-1,1.558125019E-1
1.268907147E1,4.571976662E-1,-1.480541229E-1,1.902883053E-1
1.269706714E1,2.086405754E-1,-1.453876495E-1,2.587106228E-1
1.270509327E1,-4.121446609E-2,-1.496725082E-1,3.806610107E-1
1.271308986E1,-2.980175018E-1,-1.537561417E-1,4.668016434E-1
1.272108492E1,-5.996050835E-1,-1.689958572E-1,5.089607239E-1
1.272908059E1,-7.734434605E-1,-1.399784088E-1,5.321605206E-1
1.273707572E1,-8.455002308E-1,-1.116466522E-1,4.731752872E-1
1.274507162E1,-7.786929607E-1,-7.483005524E-2,4.096961021E-1
1.275306729E1,-6.485123634E-1,1.064395905E-2,3.112444878E-1
1.276109196E1,-4.750428200E-1,5.336952209E-2,2.307863235E-1
1.276908878E1,-2.834148407E-1,2.894115448E-2,1.210515499E-1
1.277708415E1,-3.112316132E-3,-7.272624969E-2,1.141524315E-2
1.278507989E1,1.878752708E-1,-1.730070114E-1,-2.618479729E-2
1.279307618E1,3.384222984E-1,-2.384977341E-1,-6.846666336E-2
1.280107031E1,3.789591789E-1,-3.335618973E-1,-1.428303719E-1
1.280906652E1,3.468403816E-1,-3.909435272E-1,-1.939017773E-1
1.281709326E1,1.803460121E-1,-4.010019302E-1,-2.321071625E-1
1.282508778E1,1.826858521E-2,-4.021215439E-1,-1.834101677E-1
1.283308460E1,-1.732230186E-1,-3.056306839E-1,-8.756375313E-2
1.284107935E1,-3.247470856E-1,-2.166528702E-1,8.513331413E-2
1.284907564E1,-3.308401108E-1,-2.213039398E-1,2.461440563E-1
1.285707038E1,-1.586909294E-1,-2.577905655E-1,3.998672962E-1
1.286506575E1,7.678937912E-2,-2.696504593E-1,4.154646397E-1
1.287309280E1,3.812680244E-1,-2.336168289E-1,3.986508846E-1
1.288108786E1,6.183948517E-1,-2.024269104E-1,3.058698177E-1
1.288908383E1,8.253583908E-1,-1.517362595E-1,1.601088047E-1
1.289707896E1,9.817543030E-1,-1.051921844E-1,-9.001111984E-2
1.290507425E1,1.063762188E0,-1.029872894E-2,-3.185205460E-1
1.291307092E1,1.037357807E0,3.487682343E-2,-5.741689205E-1
1.292106536E1,9.371352196E-1,8.394718170E-2,-7.211884260E-1
1.292909203E1,7.701392174E-1,9.759044647E-2,-8.400743008E-1
1.293708747E1,6.043658257E-1,7.640933990E-2,-8.346581459E-1
1.294508283E1,4.879603386E-1,2.544689178E-2,-8.122076988E-1
1.295307912E1,3.700623512E-1,2.595424652E-2,-7.936165333E-1
1.296107409E1,2.457609177E-1,1.558399200E-2,-7.262971401E-1
1.296906984E1,1.394290924E-1,-6.531620026E-2,-6.845406294E-1
1.297706543E1,9.945440292E-2,-1.616840363E-1,-6.335778236E-1
1.298509187E1,6.390857697E-2,-2.016344070E-1,-6.145861149E-1
1.299308731E1,3.015232086E-2,-1.662788391E-1,-6.089923382E-1
1.300108236E1,4.834270477E-2,-1.253299713E-1,-5.746726990E-1
1.300907834E1,4.691886902E-2,-1.674280167E-1,-5.700427294E-1
1.301707371E1,2.147197723E-3,-1.848649979E-1,-5.240210295E-1
1.302506930E1,-9.924173355E-2,-2.418603897E-1,-4.279630184E-1
1.303306558E1,-1.892356873E-1,-3.046216965E-1,-2.544984818E-1
1.304109079E1,-2.032632828E-1,-3.900279999E-1,-9.748375416E-2
1.304908623E1,-1.885333061E-1,-3.632669449E-1,1.352810860E-1
1.305708306E1,-1.949448586E-1,-2.998332977E-1,4.404804707E-1
1.306507749E1,-1.496353149E-1,-3.172636032E-1,7.703921795E-1
1.307307347E1,-6.638431549E-2,-4.339170456E-1,1.002877593E0
1.308106891E1,1.338291168E-2,-4.961528778E-1,1.250641823E0
1.308906550E1,1.502881050E-1,-4.497795105E-1,1.713777184E0
1.309709010E1,2.247877121E-1,-4.797735214E-1,2.196888447E0
1.310508608E1,3.781838417E-1,-5.881872177E-1,2.740237713E0
1.311308205E1,4.498996735E-1,-6.714353561E-1,3.170289993E0
1.312107772E1,4.631509781E-1,-7.501630783E-1,3.617221117E0
1.312907270E1,4.291863441E-1,-8.676052094E-1,3.986074924E0
1.313706906E1,3.033776283E-1,-1.033508301E0,4.221428871E0
1.314506412E1,1.914882660E-2,-1.247778893E0,4.325766563E0
1.315309079E1,-2.326054573E-1,-1.359069824E0,4.492236137E0
1.316108615E1,-3.973603249E-1,-1.388019562E0,4.675988674E0
1.316908151E1,-4.190859795E-1,-1.430156708E0,4.788487434E0
1.317707657E1,-4.445648193E-1,-1.507489204E0,4.804244995E0
1.318507224E1,-5.487470627E-1,-1.598565102E0,4.785073280E0
1.319306829E1,-5.310168266E-1,-1.691608429E0,4.777497768E0
1.320106365E1,-4.593486786E-1,-1.784532547E0,4.737280369E0
1.320908979E1,-3.985867500E-1,-1.860965729E0,4.659402847E0
1.321708568E1,-3.317070007E-1,-2.028695107E0,4.589410782E0
1.322508051E1,-2.891893387E-1,-2.331246376E0,4.415808678E0
1.323307795E1,-2.821974754E-1,-2.644272804E0,4.209781647E0
1.324107208E1,-3.792672157E-1,-2.974844933E0,4.038410664E0
1.324906783E1,-4.698655605E-1,-3.123769760E0,3.764343739E0
1.325706280E1,-6.253306866E-1,-3.174803734E0,3.464466572E0
1.326509024E1,-7.211146355E-1,-3.091937542E0,3.206699133E0
1.327308553E1,-7.192554474E-1,-3.016287327E0,2.977915764E0
1.328108066E1,-5.964393616E-1,-2.988489151E0,2.736215115E0
1.328907656E1,-3.382892609E-1,-3.018322945E0,2.567747116E0
1.329707192E1,8.546686172E-2,-3.027410984E0,2.446171284E0
1.330506736E1,4.697108269E-1,-3.135796070E0,2.334275246E0
1.331306365E1,7.543575764E-1,-3.315616608E0,2.180775166E0
1.332108909E1,1.004149199E0,-3.569900513E0,1.877210617E0
1.332908568E1,1.113667488E0,-3.733541965E0,1.483752251E0
1.333708050E1,1.090650797E0,-3.815642357E0,1.204567432E0
1.334507525E1,1.031943560E0,-3.804488182E0,1.024587631E0
1.335307208E1,9.355957508E-1,-3.742022514E0,8.041896820E-1
1.336106682E1,8.954050541E-1,-3.654606819E0,6.080045700E-1
1.336906257E1,9.440121651E-1,-3.585137367E0,4.753437042E-1
1.337708893E1,1.070450068E0,-3.552881241E0,4.069695473E-1
1.338508437E1,1.199259520E0,-3.582102776E0,3.026623726E-1
1.339308027E1,1.356242895E0,-3.564737797E0,3.138604164E-1
1.340107563E1,1.566051960E0,-3.529870033E0,1.956467628E-1
1.340907107E1,1.718409777E0,-3.562645912E0,9.278774261E-2
1.341706674E1,1.859117746E0,-3.624955177E0,-7.061481476E-3
1.342506203E1,1.950309515E0,-3.700242996E0,-1.234149933E-1
1.343308916E1,1.997664213E0,-3.683226109E0,-1.704144478E-1
1.344108360E1,2.008646488E0,-3.691077709E0,-2.796196938E-1
1.344907927E1,1.964126587E0,-3.666304588E0,-4.892168045E-1
1.345707517E1,1.890557528E0,-3.534943104E0,-5.862469673E-1
1.346507030E1,1.820385218E0,-3.357684612E0,-5.523829460E-1
1.347306628E1,1.871475220E0,-3.196505547E0,-4.690494537E-1
1.348109233E1,1.991768360E0,-3.089549541E0,-3.531017303E-1
1.348908800E1,2.122698784E0,-3.025238037E0,-2.601881027E-1
1.349708336E1,2.172921181E0,-3.061154842E0,-3.727250099E-1
1.350507965E1,2.185948372E0,-3.199700832E0,-4.607672691E-1
1.351307447E1,2.027945518E0,-3.426464081E0,-5.672140121E-1
1.352106984E1,1.848786354E0,-3.756394863E0,-5.949277878E-1
1.352906581E1,1.784638405E0,-4.096299171E0,-4.529066086E-1
1.353706172E1,1.978822708E0,-4.238804340E0,-2.680139542E-1
1.354508723E1,2.248044968E0,-4.077689171E0,-1.673412323E-1
1.355308329E1,2.347187519E0,-3.717514753E0,-9.140586853E-2
1.356107834E1,2.281337738E0,-3.415218353E0,-1.960067749E-1
1.356907424E1,2.000642061E0,-3.224338770E0,-3.666877747E-1
1.357706968E1,1.687093258E0,-3.171659231E0,-5.572118759E-1
1.358506527E1,1.411826491E0,-3.134756804E0,-7.078094482E-1
1.359309210E1,1.246963859E0,-3.218713999E0,-8.495588303E-1
1.360108677E1,1.213836908E0,-3.374947548E0,-7.954998016E-1
1.360908251E1,1.324189186E0,-3.415488958E0,-8.086891174E-1
1.361707841E1,1.542090774E0,-3.375652552E0,-8.028917313E-1
1.362507447E1,1.859829426E0,-3.184059858E0,-9.076871872E-1
1.363306952E1,2.066288471E0,-3.072882175E0,-1.096276283E0
1.364106519E1,2.163786888E0,-3.079002142E0,-1.299589157E0
1.364906025E1,2.021659851E0,-3.163861513E0,-1.550921440E0
1.365708630E1,1.766710639E0,-3.234227657E0,-1.690903664E0
1.366508228E1,1.513359785E0,-3.127775908E0,-1.940737247E0
1.367307864E1,1.355473757E0,-2.962960720E0,-2.028695583E0
1.368107308E1,1.189923048E0,-2.783845425E0,-2.046870232E0
1.368906906E1,1.012000561E0,-2.526615143E0,-2.155175686E0
1.369706404E1,8.898733854E-1,-2.298264027E0,-2.363914967E0
1.370509048E1,8.056281209E-1,-1.984778404E0,-2.658725739E0
1.371308645E1,7.452381849E-1,-1.810378432E0,-2.957219124E0
1.372108182E1,7.211006284E-1,-1.670732260E0,-3.345066071E0
1.372907726E1,7.311860323E-1,-1.551813960E0,-3.688416958E0
1.373707316E1,8.120418787E-1,-1.489774346E0,-4.025820732E0
1.374506883E1,9.199924469E-1,-1.434498191E0,-4.362229824E0
1.375306511E1,1.002475142E0,-1.383176565E0,-4.611768723E0
1.376109009E1,1.038445711E0,-1.285377145E0,-4.927976131E0
1.376908545E1,1.002188921E0,-1.174085975E0,-5.153126240E0
1.377708197E1,9.875894785E-1,-9.553234577E-1,-5.364143848E0
1.378507702E1,1.014561772E0,-7.480424047E-1,-5.479938507E0
1.379307308E1,1.043569922E0,-5.744548440E-1,-5.596507072E0
1.380106775E1,1.080498934E0,-3.881964982E-1,-5.702147007E0
1.380906403E1,1.083943367E0,-2.439171076E-1,-5.832978249E0
1.381708986E1,1.049762249E0,-1.724216938E-1,-5.905449390E0
1.382508522E1,1.009442568E0,-1.634781361E-1,-5.859990597E0
1.383308150E1,9.894278049E-1,-1.361053586E-1,-5.763815880E0
1.384107633E1,9.244095683E-1,-1.220422983E-1,-5.653014660E0
1.384907230E1,8.850374222E-1,-1.123843193E-1,-5.542133331E0
1.385706797E1,8.141900301E-1,-9.801959991E-2,-5.407503128E0
1.386506303E1,7.228160501E-1,-6.775462627E-2,-5.275605202E0
1.387309039E1,6.078619957E-1,-4.636406898E-2,-5.103425503E0
1.388108506E1,4.445768595E-1,-9.604811668E-3,-4.872062683E0
1.388908050E1,2.852868438E-1,2.571225166E-2,-4.706167698E0
1.389707640E1,1.636576056E-1,8.283579350E-2,-4.478835106E0
1.390507176E1,1.302666664E-1,1.135113239E-1,-4.290619850E0
1.391306874E1,1.875774860E-1,1.320806742E-1,-4.014690399E0
1.392106218E1,2.316546440E-1,1.577498913E-1,-3.768262386E0
1.392908900E1,3.084797263E-1,1.850688457E-1,-3.625427246E0
1.393708490E1,3.292947412E-1,2.185504436E-1,-3.519153595E0
1.394507996E1,2.552087307E-1,2.244654894E-1,-3.423172474E0
1.395307632E1,2.292058468E-1,1.162446737E-1,-3.292045593E0
1.396107130E1,2.122000456E-1,4.231750965E-2,-3.116323471E0
1.396906766E1,2.233240604E-1,-9.796738625E-3,-2.991712093E0
1.397706295E1,2.702995539E-1,2.691400051E-2,-2.860687256E0
1.398508877E1,3.083821535E-1,1.213228703E-1,-2.737519741E0
1.399308452E1,3.175534010E-1,2.950259447E-1,-2.660311222E0
1.400107950E1,3.498822451E-1,4.260874987E-1,-2.566578865E0
1.400907493E1,3.227529526E-1,4.497774839E-1,-2.424997330E0
1.401707122E1,2.869014740E-1,3.973282576E-1,-2.343231201E0
1.402506627E1,2.029476166E-1,3.208649158E-1,-2.357232094E0
1.403306248E1,7.443153858E-2,2.563048601E-1,-2.337875366E0
1.404108861E1,-1.351284981E-2,3.022992611E-1,-2.321297169E0
1.404908405E1,-7.873570919E-2,2.982472181E-1,-2.314801216E0
1.405707942E1,-6.037116051E-2,3.086217642E-1,-2.280261517E0
1.406507447E1,-3.801119328E-2,3.021308184E-1,-2.224922657E0
1.407307076E1,-3.413903713E-2,2.599474192E-1,-2.151372433E0
1.408106604E1,-2.772903442E-2,2.172002792E-1,-2.128996849E0
1.408906171E1,-1.399886608E-2,1.424620152E-1,-2.176900864E0
1.409708761E1,-1.433897018E-2,1.098167896E-1,-2.199251652E0
1.410508351E1,-3.545832634E-2,6.150424480E-2,-2.152820110E0
1.411307949E1,-7.675015926E-2,4.990720749E-2,-2.123640060E0
1.412107462E1,-7.122278214E-2,7.236301899E-2,-2.116450310E0
1.412907052E1,-9.770023823E-2,1.842162609E-1,-2.136022091E0
1.413706558E1,-8.437550068E-2,2.802890539E-1,-2.172772884E0
1.414506094E1,-4.854857922E-2,4.065285921E-1,-2.324965000E0
1.415308738E1,-3.649795055E-2,3.938673735E-1,-2.398834229E0
1.416108313E1,2.269148827E-3,3.385030031E-1,-2.444595814E0
1.416907902E1,7.973933220E-2,2.234892845E-1,-2.452566147E0
1.417707446E1,1.435858011E-1,1.186835170E-1,-2.391517639E0
1.418506975E1,3.201957941E-1,7.158786058E-2,-2.332893848E0
1.419306573E1,4.432222247E-1,7.274907827E-2,-2.369844437E0
1.420106055E1,5.402576327E-1,8.576112986E-2,-2.368042469E0
1.420908668E1,5.003588200E-1,6.323373318E-2,-2.363211155E0
1.421708235E1,4.419959188E-1,1.323824525E-1,-2.360002518E0
1.422507895E1,3.245083094E-1,1.977885365E-1,-2.346433163E0
1.423307423E1,2.146002650E-1,2.528704405E-1,-2.365623474E0
1.424106929E1,2.404588461E-1,1.952692568E-1,-2.410465240E0
1.424906434E1,3.081453443E-1,3.417080641E-2,-2.516819954E0
1.425706009E1,4.017046690E-1,-1.280702502E-1,-2.663187981E0
1.426508645E1,3.920414448E-1,-3.226293325E-1,-2.820939064E0
1.427308312E1,3.026324511E-1,-4.772633314E-1,-2.851340771E0
1.428107756E1,1.373096704E-1,-5.554094315E-1,-2.629784584E0
1.428907346E1,8.276247978E-2,-5.328934789E-1,-2.428979397E0
1.429706859E1,2.275071144E-1,-4.881894290E-1,-2.219822407E0
1.430506449E1,4.894444942E-1,-4.855581820E-1,-1.975676537E0
1.431306170E1,6.756641865E-1,-4.854100347E-1,-1.897343636E0
1.432108576E1,7.773131728E-1,-5.026714206E-1,-1.941530228E0
1.432908173E1,7.931294441E-1,-4.968740344E-1,-1.926239014E0
1.433707733E1,6.424409151E-1,-5.404748917E-1,-1.854018688E0
1.434507300E1,4.249459803E-1,-7.937377095E-1,-1.562193871E0
1.435306836E1,2.055380940E-1,-1.138400078E0,-1.410103798E0
1.436106410E1,1.351258904E-1,-1.519944429E0,-1.165631294E0
1.436905947E1,1.144668758E-1,-1.709787369E0,-9.965972900E-1
1.437708552E1,1.252230406E-1,-1.739097595E0,-9.460668564E-1
1.438508119E1,1.936155707E-1,-1.501710296E0,-8.126716614E-1
1.439307755E1,1.930517703E-1,-1.123309493E0,-6.846008301E-1
1.440107322E1,2.146725357E-1,-7.003884315E-1,-6.044826508E-1
1.440906820E1,2.702523172E-1,-4.075114727E-1,-4.764060974E-1
1.441706356E1,3.673296571E-1,-2.922961712E-1,-4.415807724E-1
1.442505993E1,4.391791224E-1,-2.823314667E-1,-4.472913742E-1
1.443308506E1,4.423640072E-1,-3.651957512E-1,-4.341611862E-1
1.444108042E1,2.982822657E-1,-5.419175625E-1,-1.797742844E-1
1.444907678E1,8.877646923E-2,-8.740231991E-1,1.365251541E-1
1.445707184E1,-6.452649832E-2,-1.256542444E0,4.912242889E-1
1.446506843E1,-3.721916676E-2,-1.367130280E0,7.426958084E-1
1.447306379E1,1.227347255E-1,-1.305492401E0,8.379526138E-1
1.448108985E1,1.609565616E-1,-1.139358997E0,7.566995621E-1
1.448908429E1,8.660858870E-2,-8.757829666E-1,4.701681137E-1
1.449708096E1,-1.678351164E-1,-4.562146664E-1,1.769418716E-1
1.450507632E1,-3.312985897E-1,-9.731364250E-2,-8.670806885E-3
1.451307260E1,-3.050829172E-1,-1.909160614E-2,1.025915146E-1
1.452106704E1,-1.438920498E-1,-3.349499702E-1,3.208055496E-1
1.452906325E1,2.710429430E-1,-7.630975246E-1,6.528635025E-1
1.453705861E1,7.902666330E-1,-1.046012878E0,9.192447662E-1
1.454508451E1,1.176254869E0,-1.225353003E0,9.903287888E-1
1.455308080E1,1.417167425E0,-1.337178469E0,9.090127945E-1
1.456107647E1,1.314711094E0,-1.359853745E0,8.267745972E-1
1.456907122E1,9.884380102E-1,-1.255515575E0,6.136255264E-1
1.457706719E1,6.011883020E-1,-1.041181087E0,4.076499939E-1
1.458506256E1,2.600027323E-1,-8.021616936E-1,3.935174942E-1
1.459308892E1,1.281622648E-1,-7.229948044E-1,3.582773209E-1
1.460108405E1,1.243684292E-1,-8.024845123E-1,3.819456100E-1
1.460907964E1,2.078845501E-1,-8.721380234E-1,6.523122787E-1
1.461707570E1,3.753530979E-1,-9.051322937E-1,8.324050903E-1
1.462507129E1,6.148827076E-1,-9.396162033E-1,8.913307190E-1
1.463306704E1,8.202650547E-1,-9.985594749E-1,8.830900192E-1
1.464106232E1,9.384958744E-1,-1.041525364E0,8.165683746E-1
1.464905892E1,9.472980499E-1,-1.114337444E0,5.593528748E-1
1.465708389E1,8.556780815E-1,-1.056415558E0,4.077548981E-1
1.466507956E1,7.436497211E-1,-9.058947563E-1,3.733763695E-1
1.467307577E1,6.037154198E-1,-7.087965012E-1,3.815689087E-1
1.468107052E1,5.194823742E-1,-6.427836418E-1,4.303116798E-1
1.468906565E1,3.496348858E-1,-9.024095535E-1,5.486493111E-1
1.469706132E1,1.850414276E-1,-1.204268456E0,6.566495895E-1
1.470508838E1,1.160488129E-1,-1.383080006E0,7.331094742E-1
1.471308397E1,2.192671299E-1,-1.343060493E0,7.182703018E-1
1.472107910E1,4.426498413E-1,-1.210682869E0,6.338343620E-1
1.472907446E1,6.213557720E-1,-1.067463398E0,4.581155777E-1
1.473707013E1,6.272115707E-1,-9.297113419E-1,2.509269714E-1
1.474506580E1,6.303834915E-1,-6.943449974E-1,3.044223785E-2
1.475306270E1,6.204299927E-1,-4.613299370E-1,2.386474609E-2
1.476108753E1,6.108963490E-1,-2.509264946E-1,1.863207817E-1
1.476908320E1,6.511344910E-1,-2.244858742E-1,4.549822807E-1
1.477707856E1,6.742005348E-1,-5.825839043E-1,7.810025215E-1
1.478507392E1,5.788908005E-1,-1.259457111E0,9.035496712E-1
1.479307082E1,4.081113338E-1,-1.703825474E0,9.863376617E-1
1.480106557E1,2.422130108E-1,-1.717626095E0,9.872927666E-1
1.480906162E1,1.994028091E-1,-1.549075603E0,9.065871239E-1
1.481708683E1,2.226934433E-1,-1.336789131E0,7.273483276E-1
1.482508212E1,1.319663525E-1,-1.099692822E0,6.032743454E-1
1.483307879E1,-1.297521591E-2,-7.987194061E-1,5.878152847E-1
1.484107407E1,-2.487969398E-2,-3.971633911E-1,7.533507347E-1
1.484906913E1,7.222151756E-2,-1.394176483E-1,9.010415077E-1
1.485706518E1,2.212994099E-1,-5.321025848E-2,9.212908745E-1
1.486506047E1,3.303487301E-1,-2.663569450E-1,8.997969627E-1
1.487308691E1,2.952475548E-1,-5.466179848E-1,1.012036324E0
1.488108227E1,1.209783554E-1,-1.034347057E0,1.045819759E0
1.488907763E1,-5.428838730E-2,-1.278478146E0,1.056149006E0
1.489707330E1,-6.351852417E-2,-1.321930885E0,9.843664169E-1
1.490506843E1,1.685142517E-2,-1.243614674E0,7.992110252E-1
1.491306526E1,-6.222724915E-4,-1.118368149E0,7.109794617E-1
1.492105946E1,-1.743669510E-1,-8.118767738E-1,7.637434006E-1
1.492908613E1,-2.960267067E-1,-4.985575676E-1,9.411439896E-1
1.493708211E1,-2.957539558E-1,-3.124308586E-1,9.220337868E-1
1.494507786E1,-2.122097015E-1,-3.448286057E-1,9.958529472E-1
1.495307407E1,-2.102484703E-1,-4.150390625E-1,1.081298828E0
1.496106828E1,-2.812333107E-1,-4.776129723E-1,1.121495724E0
1.496906394E1,-3.942728043E-1,-5.111579895E-1,1.130590439E0
1.497706015E1,-5.042619705E-1,-6.512947083E-1,1.062265873E0
1.498508575E1,-5.037655830E-1,-8.038215637E-1,9.588079453E-1
1.499308195E1,-4.527888298E-1,-9.205775261E-1,8.208827972E-1
1.500107732E1,-3.127884865E-1,-9.105076790E-1,6.795673370E-1
1.500907330E1,-1.928081512E-1,-7.354364395E-1,5.694522858E-1
1.501706812E1,2.795267105E-2,-4.313688278E-1,4.891681671E-1
1.502506317E1,2.442007065E-1,-2.696642876E-1,4.585547447E-1
1.503305969E1,4.122877121E-1,-2.886905670E-1,3.845200539E-1
1.504108551E1,4.821786880E-1,-4.496645927E-1,3.608722687E-1
1.504908118E1,5.402417183E-1,-6.797132492E-1,3.510489464E-1
1.505707693E1,6.633319855E-1,-9.038763046E-1,3.275039196E-1
1.506507222E1,7.454223633E-1,-1.040711403E0,3.175635338E-1
1.507306819E1,7.782855034E-1,-1.207742691E0,2.168922424E-1
1.508106332E1,6.987309456E-1,-1.291087627E0,1.419003010E-1
1.508905953E1,5.809526443E-1,-1.329893112E0,-2.649998665E-2
1.509708605E1,4.479265213E-1,-1.367549419E0,-1.129460335E-1
1.510508080E1,4.209237099E-1,-1.361210823E0,-1.073129177E-1
1.511307700E1,3.744220734E-1,-1.359183311E0,-1.719524860E-1
1.512107152E1,3.078947067E-1,-1.325944901E0,-4.125595093E-2
1.512906742E1,1.859784126E-1,-1.273482323E0,2.791922092E-1
1.513706255E1,1.429758072E-1,-1.106543541E0,4.620313644E-1
1.514505876E1,2.050662041E-1,-7.556848526E-1,6.822066307E-1
1.515308582E1,2.327289581E-1,-3.433446884E-1,7.529792786E-1
1.516107995E1,1.979575157E-1,-1.688690186E-1,7.853512764E-1
1.516907531E1,2.085924149E-1,-1.528387070E-1,8.094401360E-1
1.517707136E1,1.566290855E-1,-1.792545319E-1,9.175922871E-1
1.518506726E1,1.227431297E-1,-1.417169571E-1,1.071171522E0
1.519306301E1,1.177339554E-1,-5.401325226E-2,1.156595230E0
1.520105807E1,1.314272881E-1,-2.853488922E-2,1.256286621E0
1.520908443E1,1.813893318E-1,-8.221244812E-2,1.391557693E0
1.521707987E1,1.823434830E-1,-1.768856049E-1,1.521513462E0
1.522507608E1,1.360034943E-1,-2.264680862E-1,1.661408663E0
1.523307182E1,1.376967430E-1,-1.762056351E-1,1.743899345E0
1.524106680E1,2.015223503E-1,-1.149673462E-1,1.658273935E0
1.524906224E1,2.939453125E-1,-1.194810867E-1,1.574006319E0
1.525705791E1,3.488502502E-1,-1.699981689E-1,1.474440098E0
1.526508366E1,3.787636757E-1,-2.206668854E-1,1.400318146E0
1.527308002E1,3.629913330E-1,-2.255496979E-1,1.344181061E0
1.528107538E1,3.043017387E-1,-1.870908737E-1,1.331270695E0
1.528906982E1,2.387552261E-1,-2.557821274E-1,1.340990782E0
1.529706610E1,2.419633865E-1,-3.647174835E-1,1.355879068E0
1.530506116E1,2.001857758E-1,-5.475025177E-1,1.366353750E0
1.531305737E1,1.221032143E-1,-6.488809586E-1,1.282028437E0
1.532108319E1,4.053163528E-2,-7.385702133E-1,1.211084366E0
1.532907832E1,-1.565933228E-2,-7.448253632E-1,1.054733515E0
1.533707422E1,-5.796575546E-2,-7.179307938E-1,9.196333885E-1
1.534506966E1,-2.849388123E-2,-6.196985245E-1,6.965770721E-1
1.535306626E1,-8.318901062E-3,-4.621963501E-1,6.094565392E-1
1.536106154E1,5.323314667E-2,-1.283941269E-1,5.485072136E-1
1.536905752E1,1.751627922E-1,7.029247284E-2,4.942367077E-1
1.537708280E1,3.491177559E-1,8.567142487E-2,4.026157856E-1
1.538507817E1,4.191060066E-1,-1.027297974E-2,3.253991604E-1
1.539307476E1,3.928103447E-1,-8.308315277E-2,2.773749828E-1
1.540106912E1,3.759384155E-1,-1.299562454E-1,2.569808960E-1
1.540906518E1,3.588895798E-1,-1.435604095E-1,2.026081085E-1
1.541706023E1,2.934737206E-1,-2.029514313E-1,2.153086662E-1
1.542505767E1,2.108054161E-1,-2.888898849E-1,1.374049187E-1
1.543308288E1,1.137132645E-1,-4.081773758E-1,1.226270199E-1
1.544107801E1,2.893972397E-2,-4.451675415E-1,1.081798077E-1
1.544907422E1,-3.692674637E-2,-4.339599609E-1,9.069037437E-2
1.545706997E1,-1.391029358E-1,-3.723592758E-1,2.662014961E-2
1.546506410E1,-1.984543800E-1,-3.393659592E-1,-2.442884445E-2
1.547306092E1,-2.338829041E-1,-2.918071747E-1,-8.902621269E-2
1.548105598E1,-2.286310196E-1,-1.673917770E-1,-1.622526646E-1
1.548908211E1,-1.873207092E-1,-8.331203461E-2,-2.200438976E-1
1.549707755E1,-1.291999817E-1,-3.968620300E-2,-2.004082203E-1
1.550507314E1,-5.438137054E-2,-1.181144714E-1,-1.086311340E-1
1.551306981E1,-8.091926575E-3,-2.302122116E-1,8.515620232E-2
1.552106448E1,1.256418228E-2,-3.641119003E-1,2.742195129E-1
1.552906046E1,2.722644806E-2,-4.408683777E-1,4.837086201E-1
1.553708605E1,-1.564455032E-2,-5.249567032E-1,8.221633434E-1
1.554508164E1,-6.678390503E-2,-5.567550659E-1,1.166438580E0
1.555307793E1,-1.254553795E-1,-5.607242584E-1,1.583058357E0
1.556107237E1,-1.842412949E-1,-5.206680298E-1,1.847303391E0
1.556906896E1,-2.478470802E-1,-5.321321487E-1,2.144649744E0
1.557706371E1,-3.303918839E-1,-6.233100891E-1,2.448216200E0
1.558505945E1,-3.941049576E-1,-7.770309448E-1,2.696065903E0
1.559308551E1,-5.026502609E-1,-9.545507431E-1,3.062211514E0
1.560108126E1,-6.579465866E-1,-1.047897339E0,3.406821966E0
1.560907754E1,-8.563220501E-1,-1.146819115E0,3.866241932E0
1.561707260E1,-9.706873894E-1,-1.294938087E0,4.137344360E0
1.562506857E1,-9.942283630E-1,-1.466367722E0,4.258235931E0
1.563306455E1,-1.054487944E0,-1.584465981E0,4.309514046E0
1.564105991E1,-1.133898020E0,-1.567772865E0,4.278671265E0
1.564908512E1,-1.123201609E0,-1.504255295E0,4.223272324E0
1.565708079E1,-1.066465616E0,-1.518033028E0,4.135832787E0
1.566507677E1,-9.747726917E-1,-1.618284225E0,3.981008053E0
1.567307298E1,-8.643677235E-1,-1.802616119E0,3.885813951E0
1.568106719E1,-7.229599953E-1,-1.985402107E0,3.825407028E0
1.568906339E1,-5.593140125E-1,-2.174582481E0,3.800741196E0
1.569705883E1,-4.361534119E-1,-2.399788857E0,3.703414202E0
1.570508558E1,-4.098904133E-1,-2.642577171E0,3.581996202E0
1.571308125E1,-5.453577042E-1,-2.778737068E0,3.427239895E0
1.572107630E1,-6.459710598E-1,-2.908802986E0,3.251629353E0
1.572907198E1,-6.664364338E-1,-3.008604050E0,3.046848774E0
1.573706664E1,-5.710282326E-1,-3.135973454E0,2.879955292E0
1.574506270E1,-4.097046852E-1,-3.231282711E0,2.747845650E0
1.575305929E1,-2.213494778E-1,-3.328760147E0,2.626062870E0
1.576108419E1,3.055334091E-3,-3.397413254E0,2.388177872E0
1.576908048E1,2.870266438E-1,-3.377200603E0,2.164274216E0
1.577707638E1,4.965775013E-1,-3.363868237E0,2.043070316E0
1.578507113E1,7.070331573E-1,-3.439007759E0,1.904145718E0
1.579306772E1,9.272370338E-1,-3.574504375E0,1.851425171E0
1.580106247E1,1.194823265E0,-3.794186115E0,1.706332684E0
1.580905852E1,1.396677017E0,-3.897936344E0,1.631056786E0
1.581708434E1,1.495742321E0,-3.981567860E0,1.365527153E0
1.582508002E1,1.580263138E0,-4.085643291E0,1.037292004E0
1.583307507E1,1.692552805E0,-4.145419121E0,6.877460480E-1
1.584107035E1,1.770118713E0,-4.208359241E0,3.152613640E-1
1.584906664E1,1.856572390E0,-4.204931259E0,1.258144379E-1
1.585706231E1,2.051963568E0,-4.217504978E0,-9.202957153E-4
1.586505736E1,2.368404388E0,-4.325595379E0,-9.185647964E-2
1.587308473E1,2.681696653E0,-4.515783787E0,-1.664528847E-1
1.588107986E1,2.857865095E0,-4.654404163E0,-3.034930229E-1
1.588907461E1,2.942770481E0,-4.652942181E0,-5.121674538E-1
1.589707058E1,2.893158913E0,-4.473023891E0,-9.025807381E-1
1.590506618E1,2.849096775E0,-4.213002205E0,-1.175870895E0
1.591306277E1,2.982756138E0,-4.049136162E0,-1.260170937E0
1.592105759E1,3.189624310E0,-3.868133068E0,-1.273031712E0
1.592908334E1,3.412906170E0,-3.715143204E0,-1.317844391E0
1.593707909E1,3.647155523E0,-3.561253071E0,-1.504990101E0
1.594507445E1,3.716273308E0,-3.484744072E0,-1.748007774E0
1.595307104E1,3.632365704E0,-3.482886791E0,-1.853191853E0
1.596106571E1,3.478817463E0,-3.444255829E0,-2.046530724E0
1.596906169E1,3.351382732E0,-3.449314594E0,-2.090308189E0
1.597705705E1,3.150030613E0,-3.379011631E0,-2.159359932E0
1.598508264E1,2.963088036E0,-3.245049000E0,-2.107135296E0
1.599307954E1,2.785430193E0,-3.138518333E0,-1.933450699E0
1.600107391E1,2.732441902E0,-3.042860985E0,-1.760427475E0
1.600906996E1,2.750449657E0,-3.029719830E0,-1.566469193E0
1.601706563E1,2.746532202E0,-3.063543081E0,-1.260923862E0
1.602506092E1,2.740720510E0,-3.155037403E0,-8.936786652E-1
1.603305759E1,2.661309719E0,-3.269096613E0,-6.041641235E-1
1.604108241E1,2.690321684E0,-3.313293934E0,-5.029659271E-1
1.604907839E1,2.706818104E0,-3.367293596E0,-5.208005905E-1
1.605707406E1,2.619106531E0,-3.373149633E0,-6.740646362E-1
1.606506919E1,2.445096731E0,-3.346823215E0,-8.139333725E-1
1.607306571E1,2.134213924E0,-3.197231531E0,-8.612270355E-1
1.608106015E1,1.943301320E0,-3.083383799E0,-7.842264175E-1
1.608905620E1,1.836141944E0,-3.147561550E0,-6.716136932E-1
1.609708141E1,1.823693991E0,-3.256335020E0,-6.742639542E-1
