"Time (s)","Gyroscope x (rad/s)","Gyroscope y (rad/s)","Gyroscope z (rad/s)"
6.226863000E-3,3.054326167E-3,-6.230825558E-2,-9.773843922E-3
8.332948000E-3,3.054326167E-3,-6.230825558E-2,-9.773843922E-3
1.031641800E-2,3.054326167E-3,-6.230825558E-2,-9.773843922E-3
1.233111800E-2,3.054326167E-3,-6.230825558E-2,-9.773843922E-3
1.431389500E-2,3.054326167E-3,-6.230825558E-2,-9.773843922E-3
1.632836500E-2,3.054326167E-3,-6.230825558E-2,-9.773843922E-3
1.831121900E-2,3.054326167E-3,-6.230825558E-2,-9.773843922E-3
2.032599600E-2,3.054326167E-3,-6.230825558E-2,-9.773843922E-3
2.231062000E-2,3.054326167E-3,-6.230825558E-2,-9.773843922E-3
2.432409000E-2,3.054326167E-3,-6.230825558E-2,-9.773843922E-3
2.630817500E-2,3.054326167E-3,-6.230825558E-2,-9.773843922E-3
2.832164500E-2,3.054326167E-3,-6.230825558E-2,-9.773843922E-3
3.030626800E-2,3.054326167E-3,-6.230825558E-2,-9.773843922E-3
3.231896800E-2,3.054326167E-3,-6.230825558E-2,-9.773843922E-3
3.433374600E-2,3.054326167E-3,-6.230825558E-2,-9.773843922E-3
3.631683100E-2,3.054326167E-3,-6.230825558E-2,-9.773843922E-3
3.833214600E-2,3.054326167E-3,-6.230825558E-2,-9.773843922E-3
4.031523100E-2,3.054326167E-3,-6.230825558E-2,-9.773843922E-3
4.232977800E-2,3.054326167E-3,-6.230825558E-2,-9.773843922E-3
4.431286300E-2,3.054326167E-3,-6.230825558E-2,-9.773843922E-3
4.632725500E-2,3.054326167E-3,-6.230825558E-2,-9.773843922E-3
4.831064800E-2,3.054326167E-3,-6.230825558E-2,-9.773843922E-3
5.032511700E-2,3.054326167E-3,-6.230825558E-2,-9.773843922E-3
5.230920200E-2,3.054326167E-3,-6.230825558E-2,-9.773843922E-3
5.432205600E-2,3.054326167E-3,-6.230825558E-2,-9.773843922E-3
5.630637200E-2,3.054326167E-3,-6.230825558E-2,-9.773843922E-3
5.831991900E-2,3.054326167E-3,-6.230825558E-2,-9.773843922E-3
6.033469600E-2,3.054326167E-3,-6.230825558E-2,-9.773843922E-3
6.231993500E-2,3.054326167E-3,-6.230825558E-2,-9.773843922E-3
6.433202000E-2,3.054326167E-3,-6.230825558E-2,-9.773843922E-3
6.631625800E-2,3.054326167E-3,-6.230825558E-2,-9.773843922E-3
6.833080600E-2,3.054326167E-3,-6.230825558E-2,-9.773843922E-3
7.031442900E-2,2.443460980E-3,-8.552113548E-3,7.941247895E-3
7.232805300E-2,3.054326167E-3,-4.886921961E-3,7.941247895E-3
7.431136800E-2,1.221730490E-3,-6.108652451E-4,8.552113548E-3
7.632614500E-2,-1.221730490E-3,2.443460980E-3,6.719517522E-3
7.831046100E-2,0.000000000E0,6.108652335E-3,6.108652335E-3
8.032277700E-2,-2.443460980E-3,7.941247895E-3,6.719517522E-3
8.230801600E-2,-1.221730490E-3,6.108652335E-3,7.330383174E-3
8.432156200E-2,-1.832595794E-3,9.162978269E-3,7.330383174E-3
8.630557000E-2,-5.497787148E-3,1.404990070E-2,6.719517522E-3
8.831919400E-2,-6.719517522E-3,1.404990070E-2,6.108652335E-3
9.033335500E-2,-7.330383174E-3,1.832595654E-2,6.108652335E-3
9.231759400E-2,-6.719517522E-3,2.443460934E-2,7.330383174E-3
9.433152500E-2,-9.162978269E-3,2.443460934E-2,4.276056774E-3
9.631514900E-2,-9.162978269E-3,2.871066704E-2,5.497787148E-3
9.832877200E-2,-1.221730467E-2,3.054326214E-2,5.497787148E-3
1.003130110E-1,-1.282817032E-2,3.176499158E-2,6.719517522E-3
1.023284030E-1,-1.282817032E-2,3.420845419E-2,7.330383174E-3
1.043114880E-1,-1.649336144E-2,3.726277873E-2,7.941247895E-3
1.063253420E-1,-1.710422710E-2,3.970624134E-2,6.719517522E-3
1.083085040E-1,-1.710422710E-2,4.153883830E-2,6.719517522E-3
1.103228970E-1,-1.893682219E-2,4.092797264E-2,9.162978269E-3
1.123065970E-1,-2.199114859E-2,4.398229718E-2,8.552113548E-3
1.143210680E-1,-1.954768784E-2,4.398229718E-2,7.941247895E-3
1.163047680E-1,-1.710422710E-2,4.276056588E-2,6.108652335E-3
1.183193150E-1,-1.588249579E-2,4.092797264E-2,7.941247895E-3
1.203328610E-1,-1.588249579E-2,4.153883830E-2,6.108652335E-3
1.223177150E-1,-1.466076635E-2,4.092797264E-2,7.330383174E-3
1.243306460E-1,-1.221730467E-2,4.153883830E-2,7.330383174E-3
1.263140390E-1,-1.221730467E-2,4.031710699E-2,6.108652335E-3
1.283282010E-1,-1.038470957E-2,4.214970022E-2,7.941247895E-3
1.303119780E-1,-4.886921961E-3,4.276056588E-2,8.552113548E-3
1.323258320E-1,-4.886921961E-3,4.398229718E-2,9.773843922E-3
1.343098400E-1,-4.276056774E-3,4.398229718E-2,7.941247895E-3
1.363240020E-1,-3.054326167E-3,4.703662544E-2,7.330383174E-3
1.383073950E-1,-6.108652451E-4,4.825835302E-2,8.552113548E-3
1.403220950E-1,1.832595794E-3,4.825835302E-2,1.038470957E-2
1.423070260E-1,3.054326167E-3,5.131268129E-2,1.038470957E-2
1.443188030E-1,3.054326167E-3,5.375614017E-2,8.552113548E-3
1.463341960E-1,5.497787148E-3,5.558873713E-2,1.221730467E-2
1.483175120E-1,1.099557430E-2,5.986479297E-2,1.282817032E-2
1.503320580E-1,1.099557430E-2,6.047565863E-2,1.221730467E-2
1.523148350E-1,1.282817032E-2,6.230825558E-2,1.588249579E-2
1.543289970E-1,1.282817032E-2,6.597344577E-2,1.649336144E-2
1.563132360E-1,1.282817032E-2,6.902777404E-2,1.404990070E-2
1.583274760E-1,1.343903504E-2,7.269296050E-2,1.710422710E-2
1.603110990E-1,1.221730467E-2,7.696902007E-2,1.832595654E-2
1.623261840E-1,1.221730467E-2,7.941248268E-2,1.710422710E-2
1.643090380E-1,1.282817032E-2,8.613199741E-2,1.466076635E-2
1.663231230E-1,1.404990070E-2,8.552113175E-2,1.771509275E-2
1.683062850E-1,1.404990070E-2,8.979719132E-2,1.466076635E-2
1.703212930E-1,1.527163107E-2,9.346238524E-2,1.649336144E-2
1.723043780E-1,1.404990070E-2,9.590584040E-2,1.282817032E-2
1.743182320E-1,1.466076635E-2,1.032362282E-1,1.343903504E-2
1.763323940E-1,1.527163107E-2,1.081231460E-1,1.099557430E-2
1.783157860E-1,1.588249579E-2,1.117883399E-1,1.221730467E-2
1.803300250E-1,1.527163107E-2,1.209513173E-1,1.099557430E-2
1.823154950E-1,1.404990070E-2,1.301143020E-1,9.773843922E-3
1.843290410E-1,1.527163107E-2,1.325577646E-1,9.773843922E-3
1.863122030E-1,1.649336144E-2,1.417207420E-1,7.941247895E-3
1.883262880E-1,1.466076635E-2,1.459967941E-1,8.552113548E-3
1.903097580E-1,1.649336144E-2,1.441642046E-1,1.099557430E-2
1.923235350E-1,1.893682219E-2,1.490511149E-1,9.162978269E-3
1.943078510E-1,1.710422710E-2,1.521054506E-1,9.162978269E-3
1.963223200E-1,1.771509275E-2,1.527163088E-1,1.221730467E-2
1.983063280E-1,1.588249579E-2,1.557706445E-1,1.099557430E-2
2.003199510E-1,1.649336144E-2,1.533271819E-1,9.773843922E-3
2.023346530E-1,1.649336144E-2,1.557706445E-1,1.404990070E-2
2.043174300E-1,1.649336144E-2,1.569923609E-1,1.282817032E-2
2.063319000E-1,1.710422710E-2,1.606575549E-1,1.404990070E-2
2.083146770E-1,1.649336144E-2,1.594358236E-1,1.221730467E-2
2.103291460E-1,1.588249579E-2,1.606575549E-1,1.160643995E-2
2.123128470E-1,1.649336144E-2,1.594358236E-1,1.099557430E-2
2.143270080E-1,1.710422710E-2,1.612684280E-1,1.282817032E-2
2.163107090E-1,1.649336144E-2,1.569923609E-1,1.099557430E-2
2.183251780E-1,1.710422710E-2,1.545489132E-1,1.404990070E-2
2.203080330E-1,1.404990070E-2,1.490511149E-1,1.160643995E-2
2.223212710E-1,1.404990070E-2,1.490511149E-1,1.160643995E-2
2.243058180E-1,1.404990070E-2,1.490511149E-1,1.160643995E-2
2.263206720E-1,1.649336144E-2,1.466076523E-1,1.099557430E-2
2.283344490E-1,1.282817032E-2,1.447750628E-1,1.221730467E-2
2.303185340E-1,1.527163107E-2,1.411098689E-1,1.099557430E-2
2.323329270E-1,1.343903504E-2,1.380555481E-1,1.221730467E-2
2.343163190E-1,1.466076635E-2,1.343903542E-1,1.038470957E-2
2.363307890E-1,9.773843922E-3,1.301143020E-1,1.099557430E-2
2.383151050E-1,1.038470957E-2,1.264491081E-1,1.038470957E-2
2.403283430E-1,7.330383174E-3,1.240056455E-1,9.162978269E-3
2.423129670E-1,4.276056774E-3,1.221730486E-1,7.941247895E-3
2.443262050E-1,1.832595794E-3,1.142318025E-1,7.330383174E-3
2.463096750E-1,6.108652451E-4,1.117883399E-1,7.941247895E-3
2.483231460E-1,-2.443460980E-3,1.111774743E-1,6.719517522E-3
2.503078460E-1,-4.276056774E-3,1.044579595E-1,6.108652335E-3
2.523219310E-1,-6.719517522E-3,1.026253626E-1,6.108652335E-3
2.543057080E-1,-9.773843922E-3,9.834930301E-2,1.832595794E-3
2.563191780E-1,-1.099557430E-2,9.285151958E-2,2.443460980E-3
2.583334160E-1,-1.099557430E-2,8.918632567E-2,0.000000000E0
2.603170400E-1,-1.343903504E-2,8.307767659E-2,6.108652451E-4
2.623321250E-1,-1.160643995E-2,7.880161703E-2,6.108652451E-4
2.643158250E-1,-1.404990070E-2,7.208210230E-2,1.221730490E-3
2.663300640E-1,-1.282817032E-2,6.780604273E-2,-6.108652451E-4
2.683131490E-1,-1.160643995E-2,6.352998316E-2,-3.054326167E-3
2.703275410E-1,-1.404990070E-2,5.986479297E-2,-3.665191587E-3
2.723110110E-1,-1.160643995E-2,5.619960278E-2,-4.886921961E-3
2.743251730E-1,-9.162978269E-3,5.314527452E-2,-5.497787148E-3
2.763085650E-1,-7.330383174E-3,4.825835302E-2,-6.108652335E-3
2.783233430E-1,-4.886921961E-3,4.520402849E-2,-6.719517522E-3
2.803061200E-1,-7.941247895E-3,4.276056588E-2,-7.330383174E-3
2.823215120E-1,6.108652451E-4,3.909537569E-2,-7.330383174E-3
2.843054440E-1,6.108652451E-4,3.604105115E-2,-7.941247895E-3
2.863186820E-1,3.054326167E-3,3.359758854E-2,-6.108652335E-3
2.883323070E-1,8.552113548E-3,2.993239649E-2,-7.330383174E-3
2.903160060E-1,1.466076635E-2,2.626720630E-2,-3.665191587E-3
2.923304000E-1,1.710422710E-2,2.321287990E-2,-4.276056774E-3
2.943141770E-1,2.138028294E-2,2.076941915E-2,-4.886921961E-3
2.963276460E-1,2.199114859E-2,1.954768784E-2,-3.665191587E-3
2.983111160E-1,2.504547499E-2,1.649336144E-2,0.000000000E0
3.003268160E-1,2.932153270E-2,1.771509275E-2,1.221730490E-3
3.023108240E-1,3.054326214E-2,1.404990070E-2,6.108652451E-4
3.043233710E-1,3.054326214E-2,1.832595654E-2,1.221730490E-3
3.063086090E-1,3.115412779E-2,1.893682219E-2,3.054326167E-3
3.083216170E-1,3.237585723E-2,2.199114859E-2,3.665191587E-3
3.103053180E-1,3.359758854E-2,2.199114859E-2,6.108652335E-3
3.123184800E-1,3.176499158E-2,2.321287990E-2,6.108652335E-3
3.143335650E-1,3.359758854E-2,2.382374369E-2,7.941247895E-3
3.163179570E-1,3.481931984E-2,2.260201424E-2,9.162978269E-3
3.183320420E-1,3.420845419E-2,2.565634064E-2,1.038470957E-2
3.203154350E-1,3.665191308E-2,2.260201424E-2,8.552113548E-3
3.223302120E-1,3.787364438E-2,2.321287990E-2,6.719517522E-3
3.243132970E-1,3.787364438E-2,2.138028294E-2,7.941247895E-3
3.263265360E-1,3.909537569E-2,2.260201424E-2,8.552113548E-3
3.283105440E-1,3.665191308E-2,2.076941915E-2,7.330383174E-3
3.303243980E-1,3.787364438E-2,2.138028294E-2,4.886921961E-3
3.323084060E-1,3.787364438E-2,1.832595654E-2,4.886921961E-3
3.343226460E-1,3.787364438E-2,1.649336144E-2,6.108652335E-3
3.363060370E-1,3.420845419E-2,1.649336144E-2,1.221730490E-3
3.383204310E-1,3.481931984E-2,1.343903504E-2,6.108652451E-4
3.403339770E-1,3.665191308E-2,9.773843922E-3,1.832595794E-3
3.423192930E-1,3.726277873E-2,6.719517522E-3,6.108652451E-4
3.443334550E-1,3.604105115E-2,2.443460980E-3,-1.832595794E-3
3.463164630E-1,3.665191308E-2,-3.054326167E-3,-6.108652451E-4
3.483303940E-1,3.604105115E-2,-5.497787148E-3,-1.832595794E-3
3.503137870E-1,3.665191308E-2,-1.038470957E-2,-1.832595794E-3
3.523281790E-1,3.787364438E-2,-1.710422710E-2,-3.054326167E-3
3.543118800E-1,3.848451003E-2,-1.832595654E-2,-3.665191587E-3
3.563255030E-1,4.092797264E-2,-2.382374369E-2,-5.497787148E-3
3.583101260E-1,4.276056588E-2,-2.504547499E-2,-7.330383174E-3
3.603235960E-1,4.337143153E-2,-3.237585723E-2,-9.773843922E-3
3.623076040E-1,4.764748737E-2,-3.665191308E-2,-7.941247895E-3
3.643221500E-1,4.948008433E-2,-3.726277873E-2,-1.099557430E-2
3.663054660E-1,5.314527452E-2,-4.153883830E-2,-1.038470957E-2
3.683193200E-1,5.619960278E-2,-4.642575979E-2,-1.160643995E-2
3.703337900E-1,5.619960278E-2,-5.009094998E-2,-1.099557430E-2
3.723172590E-1,6.169738993E-2,-5.192354694E-2,-1.527163107E-2
3.743316520E-1,6.536258012E-2,-5.497787148E-2,-1.649336144E-2
3.763153520E-1,6.719517708E-2,-5.681046844E-2,-1.771509275E-2
3.783285920E-1,7.391469181E-2,-5.742133409E-2,-2.138028294E-2
3.803129840E-1,7.635815442E-2,-6.230825558E-2,-2.076941915E-2
3.823292230E-1,7.941248268E-2,-6.108652428E-2,-2.199114859E-2
3.843099240E-1,8.552113175E-2,-6.169738993E-2,-2.321287990E-2
3.863243160E-1,8.979719132E-2,-6.291911751E-2,-2.382374369E-2
3.883084010E-1,9.162978828E-2,-6.230825558E-2,-2.626720630E-2
3.903227940E-1,9.590584040E-2,-6.291911751E-2,-2.687807009E-2
3.923058790E-1,9.957103431E-2,-6.108652428E-2,-2.626720630E-2
3.943207330E-1,1.026253626E-1,-5.925392732E-2,-2.809980139E-2
3.963342790E-1,1.056796908E-1,-5.619960278E-2,-2.809980139E-2
3.983185180E-1,1.087340117E-1,-5.803219974E-2,-2.932153270E-2
4.003324490E-1,1.050688252E-1,-5.497787148E-2,-2.748893574E-2
4.023179960E-1,1.050688252E-1,-5.253441259E-2,-2.748893574E-2
4.043306190E-1,1.014036313E-1,-5.192354694E-2,-2.809980139E-2
4.063142420E-1,1.001819000E-1,-4.886921868E-2,-2.443460934E-2
4.083280970E-1,9.773843735E-2,-5.070181563E-2,-2.015855350E-2
4.103118740E-1,9.529497474E-2,-4.764748737E-2,-1.649336144E-2
4.123260360E-1,8.979719132E-2,-4.520402849E-2,-1.404990070E-2
4.143097360E-1,8.613199741E-2,-4.276056588E-2,-6.719517522E-3
4.163244360E-1,8.002334833E-2,-4.214970022E-2,-4.276056774E-3
4.183069830E-1,7.819075137E-2,-3.848451003E-2,1.221730490E-3
4.203217600E-1,7.452555746E-2,-3.359758854E-2,4.886921961E-3
4.223059990E-1,7.086037099E-2,-3.176499158E-2,8.552113548E-3
4.243202390E-1,6.658431143E-2,-2.626720630E-2,1.282817032E-2
4.263340160E-1,6.352998316E-2,-2.199114859E-2,1.771509275E-2
4.283171010E-1,6.108652428E-2,-1.466076635E-2,1.954768784E-2
4.303318780E-1,5.803219974E-2,-5.497787148E-3,2.076941915E-2
4.323146550E-1,5.742133409E-2,-1.221730490E-3,2.138028294E-2
4.343294320E-1,5.375614017E-2,8.552113548E-3,2.199114859E-2
4.363128250E-1,5.009094998E-2,1.832595654E-2,2.382374369E-2
4.383267560E-1,4.825835302E-2,2.382374369E-2,2.382374369E-2
4.403104560E-1,4.520402849E-2,3.115412779E-2,2.565634064E-2
4.423254640E-1,4.276056588E-2,3.970624134E-2,2.626720630E-2
4.443094730E-1,4.214970022E-2,4.153883830E-2,2.321287990E-2
4.463227110E-1,3.726277873E-2,5.009094998E-2,2.443460934E-2
4.483064890E-1,3.604105115E-2,5.925392732E-2,2.504547499E-2
4.503206500E-1,3.604105115E-2,6.108652428E-2,2.504547499E-2
4.523341200E-1,3.176499158E-2,7.024950534E-2,2.138028294E-2
4.543182050E-1,3.176499158E-2,7.513642311E-2,2.565634064E-2
4.563325970E-1,3.115412779E-2,7.880161703E-2,2.565634064E-2
4.583157590E-1,3.359758854E-2,8.246681094E-2,2.687807009E-2
4.603302290E-1,3.115412779E-2,9.285151958E-2,2.687807009E-2
4.623123140E-1,3.115412779E-2,9.285151958E-2,2.687807009E-2
4.643277830E-1,3.298672289E-2,9.346238524E-2,2.748893574E-2
4.663114840E-1,3.481931984E-2,9.529497474E-2,2.626720630E-2
4.683256460E-1,3.848451003E-2,9.346238524E-2,2.748893574E-2
4.703092700E-1,3.970624134E-2,9.529497474E-2,2.626720630E-2
4.723238160E-1,4.337143153E-2,9.468411654E-2,2.809980139E-2
4.743074400E-1,4.764748737E-2,9.040805697E-2,2.748893574E-2
4.763216020E-1,5.009094998E-2,9.040805697E-2,2.260201424E-2
4.783373020E-1,5.375614017E-2,8.613199741E-2,2.321287990E-2
4.803194640E-1,5.803219974E-2,8.735372871E-2,2.260201424E-2
4.823348560E-1,5.986479297E-2,8.796459436E-2,2.199114859E-2
4.843170950E-1,6.230825558E-2,8.918632567E-2,2.260201424E-2
4.863308720E-1,6.841690838E-2,9.040805697E-2,2.076941915E-2
4.883148800E-1,7.147123665E-2,9.224065393E-2,1.954768784E-2
4.903290420E-1,7.513642311E-2,9.224065393E-2,2.138028294E-2
4.923134350E-1,7.452555746E-2,9.285151958E-2,1.954768784E-2
4.943269810E-1,7.819075137E-2,9.346238524E-2,1.893682219E-2
4.963106050E-1,8.185594529E-2,9.346238524E-2,1.710422710E-2
4.983236130E-1,8.368854225E-2,9.162978828E-2,1.771509275E-2
5.003087750E-1,8.307767659E-2,9.162978828E-2,1.527163107E-2
5.023233210E-1,8.674286306E-2,9.162978828E-2,1.282817032E-2
5.043067140E-1,8.368854225E-2,9.101892263E-2,1.160643995E-2
5.063201830E-1,8.429940045E-2,8.979719132E-2,1.282817032E-2
5.083350370E-1,8.307767659E-2,8.979719132E-2,1.282817032E-2
5.103183530E-1,7.941248268E-2,8.918632567E-2,1.038470957E-2
5.123319770E-1,7.819075137E-2,8.918632567E-2,9.162978269E-3
5.143162930E-1,7.147123665E-2,8.613199741E-2,1.038470957E-2
5.163301470E-1,6.719517708E-2,8.735372871E-2,1.160643995E-2
5.183140780E-1,6.291911751E-2,8.552113175E-2,1.160643995E-2
5.203282400E-1,5.681046844E-2,8.124507964E-2,1.160643995E-2
5.223128640E-1,5.131268129E-2,8.246681094E-2,1.221730467E-2
5.243261790E-1,4.398229718E-2,7.941248268E-2,1.343903504E-2
5.263098030E-1,3.909537569E-2,8.002334833E-2,1.343903504E-2
5.283239650E-1,3.481931984E-2,8.002334833E-2,1.466076635E-2
5.303073570E-1,2.626720630E-2,7.452555746E-2,1.649336144E-2
5.323218270E-1,1.954768784E-2,7.269296050E-2,1.282817032E-2
5.343356810E-1,1.466076635E-2,7.391469181E-2,1.099557430E-2
5.363200730E-1,7.941247895E-3,6.902777404E-2,1.038470957E-2
5.383330050E-1,0.000000000E0,6.841690838E-2,1.160643995E-2
5.403179360E-1,-4.276056774E-3,6.719517708E-2,1.038470957E-2
5.423339440E-1,-9.773843922E-3,6.414084882E-2,6.719517522E-3
5.443151060E-1,-1.649336144E-2,6.291911751E-2,3.054326167E-3
5.463290370E-1,-2.015855350E-2,6.047565863E-2,1.221730490E-3
5.483130450E-1,-2.321287990E-2,5.619960278E-2,6.108652451E-4
5.503259760E-1,-3.115412779E-2,5.436700583E-2,-3.054326167E-3
5.523114450E-1,-3.420845419E-2,5.375614017E-2,-4.276056774E-3
5.543246840E-1,-3.848451003E-2,5.253441259E-2,-3.054326167E-3
5.563087690E-1,-3.848451003E-2,5.131268129E-2,-6.108652335E-3
5.583229320E-1,-4.337143153E-2,4.886921868E-2,-6.719517522E-3
5.603068630E-1,-4.520402849E-2,4.825835302E-2,-8.552113548E-3
5.623210250E-1,-4.703662544E-2,4.703662544E-2,-7.330383174E-3
5.643351870E-1,-4.886921868E-2,4.337143153E-2,-7.941247895E-3
5.663176560E-1,-4.703662544E-2,4.092797264E-2,-6.719517522E-3
5.683318950E-1,-4.764748737E-2,3.787364438E-2,-6.108652335E-3
5.703161340E-1,-4.581489414E-2,3.604105115E-2,-4.886921961E-3
5.723303720E-1,-4.703662544E-2,3.420845419E-2,-3.054326167E-3
5.743139960E-1,-4.398229718E-2,2.993239649E-2,-5.497787148E-3
5.763273120E-1,-4.337143153E-2,2.871066704E-2,-1.832595794E-3
5.783112430E-1,-3.909537569E-2,2.809980139E-2,-6.108652451E-4
5.803263280E-1,-4.153883830E-2,2.626720630E-2,-1.832595794E-3
5.823112590E-1,-3.848451003E-2,2.809980139E-2,-2.443460980E-3
5.843245740E-1,-3.665191308E-2,2.504547499E-2,-6.108652451E-4
5.863079670E-1,-3.543018550E-2,2.504547499E-2,-3.665191587E-3
5.883217440E-1,-3.420845419E-2,2.260201424E-2,-1.221730490E-3
5.903355980E-1,-3.176499158E-2,2.076941915E-2,-5.497787148E-3
5.923189910E-1,-2.809980139E-2,1.588249579E-2,-4.276056774E-3
5.943334600E-1,-2.504547499E-2,1.404990070E-2,-5.497787148E-3
5.963169300E-1,-2.321287990E-2,1.221730467E-2,-4.886921961E-3
5.983313230E-1,-1.893682219E-2,1.099557430E-2,-6.719517522E-3
6.003156380E-1,-1.466076635E-2,1.038470957E-2,-9.773843922E-3
6.023295700E-1,-1.160643995E-2,7.941247895E-3,-9.773843922E-3
6.043129630E-1,-6.108652335E-3,7.941247895E-3,-1.038470957E-2
6.063270480E-1,-2.443460980E-3,7.330383174E-3,-1.099557430E-2
6.083105180E-1,-1.221730490E-3,7.330383174E-3,-1.099557430E-2
6.103249100E-1,1.832595794E-3,1.038470957E-2,-1.038470957E-2
6.123089950E-1,5.497787148E-3,1.282817032E-2,-9.162978269E-3
6.143224650E-1,7.941247895E-3,1.282817032E-2,-1.099557430E-2
6.163061650E-1,6.108652335E-3,1.343903504E-2,-1.038470957E-2
6.183200960E-1,5.497787148E-3,1.893682219E-2,-9.162978269E-3
6.203347960E-1,7.330383174E-3,1.710422710E-2,-9.162978269E-3
6.223197270E-1,3.665191587E-3,1.893682219E-2,-9.773843922E-3
6.243314280E-1,1.221730490E-3,2.015855350E-2,-7.941247895E-3
6.263161280E-1,-3.054326167E-3,1.954768784E-2,-9.773843922E-3
6.283315210E-1,-8.552113548E-3,1.710422710E-2,-7.330383174E-3
6.303139130E-1,-1.099557430E-2,1.527163107E-2,-7.941247895E-3
6.323277670E-1,-1.588249579E-2,1.404990070E-2,-7.941247895E-3
6.343111600E-1,-2.260201424E-2,9.773843922E-3,-1.099557430E-2
6.363265530E-1,-2.687807009E-2,7.941247895E-3,-8.552113548E-3
6.383097150E-1,-3.298672289E-2,8.552113548E-3,-7.941247895E-3
6.403237990E-1,-3.787364438E-2,6.108652335E-3,-9.162978269E-3
6.423075770E-1,-4.214970022E-2,5.497787148E-3,-9.162978269E-3
6.443220460E-1,-5.009094998E-2,4.886921961E-3,-1.221730467E-2
6.463359010E-1,-5.619960278E-2,6.108652335E-3,-1.099557430E-2
6.483198320E-1,-5.864306539E-2,6.719517522E-3,-1.527163107E-2
6.503340710E-1,-6.169738993E-2,5.497787148E-3,-1.649336144E-2
6.523173870E-1,-6.719517708E-2,8.552113548E-3,-1.832595654E-2
6.543315490E-1,-6.719517708E-2,9.773843922E-3,-2.199114859E-2
6.563152490E-1,-7.024950534E-2,8.552113548E-3,-2.321287990E-2
6.583245650E-1,-7.147123665E-2,9.162978269E-3,-2.382374369E-2
6.603121880E-1,-7.452555746E-2,9.162978269E-3,-2.565634064E-2
6.623279650E-1,-7.696902007E-2,8.552113548E-3,-2.871066704E-2
6.643103580E-1,-7.880161703E-2,7.941247895E-3,-2.504547499E-2
6.663249040E-1,-8.124507964E-2,1.160643995E-2,-2.626720630E-2
6.683085280E-1,-8.124507964E-2,1.160643995E-2,-2.565634064E-2
6.703227670E-1,-8.063421398E-2,1.282817032E-2,-2.687807009E-2
6.723060820E-1,-8.246681094E-2,1.466076635E-2,-2.626720630E-2
6.743200130E-1,-8.002334833E-2,1.282817032E-2,-2.748893574E-2
6.763347140E-1,-8.002334833E-2,1.404990070E-2,-2.687807009E-2
6.783187990E-1,-8.063421398E-2,1.221730467E-2,-2.809980139E-2
6.803323450E-1,-7.574728876E-2,1.099557430E-2,-2.565634064E-2
6.823166610E-1,-7.635815442E-2,9.162978269E-3,-2.626720630E-2
6.843304380E-1,-7.391469181E-2,6.719517522E-3,-2.993239649E-2
6.863139080E-1,-6.902777404E-2,6.108652335E-3,-2.748893574E-2
6.883276850E-1,-6.536258012E-2,3.665191587E-3,-2.748893574E-2
6.903114620E-1,-6.352998316E-2,4.276056774E-3,-3.054326214E-2
6.923255480E-1,-5.986479297E-2,4.886921961E-3,-3.298672289E-2
6.943092480E-1,-5.742133409E-2,2.443460980E-3,-3.298672289E-2
6.963241020E-1,-5.131268129E-2,1.832595794E-3,-3.726277873E-2
6.983065720E-1,-5.009094998E-2,3.665191587E-3,-3.665191308E-2
7.003209650E-1,-4.337143153E-2,4.276056774E-3,-4.214970022E-2
7.023338960E-1,-4.337143153E-2,4.276056774E-3,-4.214970022E-2
7.043188270E-1,-4.276056588E-2,6.719517522E-3,-4.520402849E-2
7.063339890E-1,-3.909537569E-2,3.665191587E-3,-4.825835302E-2
7.083169970E-1,-3.848451003E-2,2.443460980E-3,-5.070181563E-2
7.103311590E-1,-3.420845419E-2,1.221730490E-3,-5.681046844E-2
7.123149360E-1,-3.237585723E-2,1.221730490E-3,-5.986479297E-2
7.143287900E-1,-3.298672289E-2,-6.108652451E-4,-6.047565863E-2
7.163127980E-1,-3.481931984E-2,-2.443460980E-3,-6.414084882E-2
7.183278830E-1,-3.359758854E-2,-1.221730490E-3,-6.414084882E-2
7.203111990E-1,-3.298672289E-2,-1.832595794E-3,-6.475171447E-2
7.223250530E-1,-3.604105115E-2,-3.665191587E-3,-6.536258012E-2
7.243090610E-1,-3.665191308E-2,-1.221730490E-3,-6.963863969E-2
7.263226840E-1,-3.604105115E-2,-1.221730490E-3,-6.841690838E-2
7.283365380E-1,-4.092797264E-2,-6.108652451E-4,-6.658431143E-2
7.303207770E-1,-4.214970022E-2,3.054326167E-3,-6.963863969E-2
7.323347090E-1,-4.520402849E-2,5.497787148E-3,-6.902777404E-2
7.343184080E-1,-4.520402849E-2,9.162978269E-3,-6.963863969E-2
7.363322640E-1,-5.070181563E-2,1.649336144E-2,-6.963863969E-2
7.383156560E-1,-5.497787148E-2,1.954768784E-2,-6.841690838E-2
7.403304330E-1,-5.619960278E-2,2.443460934E-2,-6.658431143E-2
7.423149800E-1,-5.742133409E-2,2.871066704E-2,-6.352998316E-2
7.443279110E-1,-5.925392732E-2,3.298672289E-2,-6.291911751E-2
7.463116880E-1,-5.864306539E-2,3.604105115E-2,-5.925392732E-2
7.483257730E-1,-5.986479297E-2,4.276056588E-2,-5.436700583E-2
7.503095500E-1,-5.864306539E-2,4.581489414E-2,-5.253441259E-2
7.523240200E-1,-5.803219974E-2,4.581489414E-2,-4.948008433E-2
7.543079510E-1,-5.497787148E-2,4.642575979E-2,-4.581489414E-2
7.563221900E-1,-5.192354694E-2,5.131268129E-2,-4.092797264E-2
7.583366590E-1,-5.131268129E-2,5.742133409E-2,-3.604105115E-2
7.603199750E-1,-4.825835302E-2,5.681046844E-2,-3.115412779E-2
7.623341370E-1,-4.642575979E-2,6.414084882E-2,-2.809980139E-2
7.643184530E-1,-4.214970022E-2,7.269296050E-2,-2.199114859E-2
7.663316910E-1,-4.214970022E-2,7.696902007E-2,-1.893682219E-2
7.683145460E-1,-3.909537569E-2,8.552113175E-2,-1.466076635E-2
7.703290150E-1,-3.543018550E-2,9.529497474E-2,-1.099557430E-2
7.723127150E-1,-3.237585723E-2,9.651670605E-2,-9.162978269E-3
7.743277230E-1,-3.054326214E-2,1.038470939E-1,-4.276056774E-3
7.763102700E-1,-2.382374369E-2,1.093448773E-1,-4.276056774E-3
7.783238160E-1,-2.321287990E-2,1.117883399E-1,-3.665191587E-3
7.803093630E-1,-1.832595654E-2,1.160643995E-1,-2.443460980E-3
7.823243720E-1,-1.282817032E-2,1.185078546E-1,2.443460980E-3
7.843059180E-1,-1.038470957E-2,1.215621829E-1,0.000000000E0
7.863206950E-1,-4.276056774E-3,1.276708394E-1,4.276056774E-3
7.883342420E-1,-2.443460980E-3,1.288925707E-1,3.665191587E-3
7.903183270E-1,-6.108652451E-4,1.368338168E-1,4.886921961E-3
7.923324890E-1,1.221730490E-3,1.423316002E-1,4.886921961E-3
7.943164200E-1,3.054326167E-3,1.472185254E-1,4.886921961E-3
7.963305820E-1,3.054326167E-3,1.527163088E-1,4.276056774E-3
7.983145900E-1,4.886921961E-3,1.557706445E-1,4.276056774E-3
8.003285210E-1,6.108652335E-3,1.588249654E-1,4.886921961E-3
8.023122210E-1,3.665191587E-3,1.631010175E-1,6.108652335E-3
8.043260750E-1,8.552113548E-3,1.661553532E-1,6.719517522E-3
8.063096990E-1,4.886921961E-3,1.679879427E-1,5.497787148E-3
8.083235530E-1,7.941247895E-3,1.643227488E-1,3.665191587E-3
8.103072530E-1,7.941247895E-3,1.667662114E-1,3.665191587E-3
8.123221070E-1,8.552113548E-3,1.673770845E-1,4.276056774E-3
8.143358840E-1,7.941247895E-3,1.692096740E-1,6.719517522E-3
8.163187390E-1,3.054326167E-3,1.716531366E-1,4.276056774E-3
8.183332080E-1,2.443460980E-3,1.698205322E-1,7.941247895E-3
8.203171390E-1,1.832595794E-3,1.710422635E-1,6.108652335E-3
8.223319940E-1,1.832595794E-3,1.710422635E-1,7.330383174E-3
8.243153090E-1,-3.665191587E-3,1.716531366E-1,8.552113548E-3
8.263288570E-1,-5.497787148E-3,1.704314053E-1,1.038470957E-2
8.283125570E-1,-8.552113548E-3,1.734857261E-1,9.162978269E-3
8.303270260E-1,-1.649336144E-2,1.728748679E-1,1.099557430E-2
8.323107270E-1,-2.321287990E-2,1.728748679E-1,1.038470957E-2
8.343248890E-1,-2.626720630E-2,1.734857261E-1,1.038470957E-2
8.363083580E-1,-3.481931984E-2,1.753183305E-1,1.221730467E-2
8.383234430E-1,-4.276056588E-2,1.753183305E-1,1.343903504E-2
8.403369900E-1,-4.337143153E-2,1.753183305E-1,1.343903504E-2
8.423216130E-1,-5.009094998E-2,1.795943826E-1,1.221730467E-2
8.443354670E-1,-5.253441259E-2,1.777617931E-1,1.221730467E-2
8.463187830E-1,-5.375614017E-2,1.777617931E-1,1.404990070E-2
8.483323290E-1,-5.619960278E-2,1.704314053E-1,1.221730467E-2
8.503157990E-1,-5.558873713E-2,1.649336219E-1,1.404990070E-2
8.523301910E-1,-5.253441259E-2,1.576032341E-1,1.466076635E-2
8.543139690E-1,-5.070181563E-2,1.490511149E-1,1.466076635E-2
8.563277460E-1,-4.825835302E-2,1.441642046E-1,1.466076635E-2
8.583106000E-1,-4.276056588E-2,1.362229437E-1,1.343903504E-2
8.603265310E-1,-3.970624134E-2,1.325577646E-1,1.221730467E-2
8.623109240E-1,-3.604105115E-2,1.301143020E-1,1.282817032E-2
8.643229320E-1,-3.054326214E-2,1.276708394E-1,1.221730467E-2
8.663385560E-1,-2.504547499E-2,1.301143020E-1,1.160643995E-2
8.683214100E-1,-2.321287990E-2,1.301143020E-1,1.221730467E-2
8.703348800E-1,-1.954768784E-2,1.319468915E-1,1.282817032E-2
8.723191960E-1,-1.710422710E-2,1.350012124E-1,1.160643995E-2
8.743330500E-1,-1.343903504E-2,1.368338168E-1,1.038470957E-2
8.763174420E-1,-1.099557430E-2,1.356120855E-1,8.552113548E-3
8.783312960E-1,-9.773843922E-3,1.392772794E-1,9.773843922E-3
8.803146890E-1,-8.552113548E-3,1.380555481E-1,9.162978269E-3
8.823296970E-1,-4.886921961E-3,1.386664063E-1,8.552113548E-3
8.843133970E-1,-7.330383174E-3,1.368338168E-1,7.941247895E-3
8.863267130E-1,-5.497787148E-3,1.362229437E-1,6.719517522E-3
8.883104130E-1,-3.665191587E-3,1.325577646E-1,9.162978269E-3
8.903241910E-1,-1.832595794E-3,1.295034289E-1,6.719517522E-3
8.923085060E-1,-1.832595794E-3,1.264491081E-1,3.665191587E-3
8.943226680E-1,0.000000000E0,1.215621829E-1,5.497787148E-3
8.963368300E-1,-1.832595794E-3,1.209513173E-1,3.054326167E-3
8.983202230E-1,-1.221730490E-3,1.154535338E-1,1.832595794E-3
9.003338460E-1,-6.108652451E-4,1.154535338E-1,0.000000000E0
9.023190080E-1,1.832595794E-3,1.123992056E-1,-6.108652451E-4
9.043326310E-1,-1.832595794E-3,1.099557430E-1,-2.443460980E-3
9.063163320E-1,-1.832595794E-3,1.087340117E-1,-1.832595794E-3
9.083307240E-1,-1.832595794E-3,1.056796908E-1,-4.276056774E-3
9.103141170E-1,-4.886921961E-3,1.020144969E-1,-5.497787148E-3
9.123280490E-1,-9.162978269E-3,9.957103431E-2,-4.886921961E-3
9.143111340E-1,-9.162978269E-3,9.834930301E-2,-6.719517522E-3
9.163261420E-1,-1.221730467E-2,9.346238524E-2,-7.330383174E-3
9.183096110E-1,-1.527163107E-2,9.407325089E-2,-7.330383174E-3
9.203236960E-1,-1.588249579E-2,8.979719132E-2,-6.108652335E-3
9.223384740E-1,-1.710422710E-2,8.552113175E-2,-6.108652335E-3
9.243218660E-1,-1.710422710E-2,8.002334833E-2,-7.941247895E-3
9.263354130E-1,-1.527163107E-2,7.391469181E-2,-7.941247895E-3
9.283191130E-1,-1.160643995E-2,6.963863969E-2,-5.497787148E-3
9.303332750E-1,-1.221730467E-2,6.475171447E-2,-4.886921961E-3
9.323166670E-1,-6.108652335E-3,5.619960278E-2,-5.497787148E-3
9.343309060E-1,-1.832595794E-3,5.192354694E-2,-1.832595794E-3
9.363149140E-1,-6.108652451E-4,5.070181563E-2,-1.221730490E-3
9.383284610E-1,1.832595794E-3,4.886921868E-2,1.221730490E-3
9.403118530E-1,1.527163107E-2,4.520402849E-2,5.497787148E-3
9.423253230E-1,2.015855350E-2,4.276056588E-2,5.497787148E-3
9.443084080E-1,2.015855350E-2,4.276056588E-2,6.719517522E-3
9.463244160E-1,2.687807009E-2,3.970624134E-2,6.108652335E-3
9.483084240E-1,2.809980139E-2,3.848451003E-2,6.108652335E-3
9.503223550E-1,3.359758854E-2,3.604105115E-2,5.497787148E-3
9.523371320E-1,3.909537569E-2,3.176499158E-2,9.773843922E-3
9.543204480E-1,4.825835302E-2,2.504547499E-2,1.160643995E-2
9.563346110E-1,5.986479297E-2,2.321287990E-2,1.404990070E-2
9.583183110E-1,6.291911751E-2,2.076941915E-2,1.343903504E-2
9.603325500E-1,7.269296050E-2,1.649336144E-2,1.771509275E-2
9.623167890E-1,8.002334833E-2,1.954768784E-2,1.893682219E-2
9.643306430E-1,8.368854225E-2,2.015855350E-2,1.893682219E-2
9.663141120E-1,8.613199741E-2,2.260201424E-2,2.076941915E-2
9.683278890E-1,8.979719132E-2,2.565634064E-2,2.015855350E-2
9.703119740E-1,8.796459436E-2,2.565634064E-2,2.076941915E-2
9.723252130E-1,8.796459436E-2,3.237585723E-2,2.015855350E-2
9.743092210E-1,8.429940045E-2,3.115412779E-2,1.649336144E-2
9.763230750E-1,8.429940045E-2,3.054326214E-2,1.588249579E-2
9.783371600E-1,8.185594529E-2,2.809980139E-2,1.404990070E-2
9.803227840E-1,7.941248268E-2,1.893682219E-2,1.160643995E-2
9.823365610E-1,7.635815442E-2,1.404990070E-2,7.941247895E-3
9.843193380E-1,7.269296050E-2,6.108652335E-3,5.497787148E-3
9.863332690E-1,7.147123665E-2,3.054326167E-3,4.886921961E-3
9.883169690E-1,6.597344577E-2,-1.832595794E-3,3.054326167E-3
9.903313620E-1,6.169738993E-2,-7.941247895E-3,-6.108652451E-4
9.923150620E-1,6.230825558E-2,-9.162978269E-3,-1.221730490E-3
9.943289940E-1,5.681046844E-2,-1.221730467E-2,-5.497787148E-3
9.963126170E-1,5.253441259E-2,-1.282817032E-2,-9.162978269E-3
9.983273940E-1,5.009094998E-2,-1.771509275E-2,-7.941247895E-3
1.000310171E0,4.337143153E-2,-2.015855350E-2,-7.330383174E-3
1.002325565E0,3.787364438E-2,-2.382374369E-2,-1.343903504E-2
1.004308035E0,3.726277873E-2,-2.809980139E-2,-1.221730467E-2
1.006322889E0,2.993239649E-2,-2.871066704E-2,-1.404990070E-2
1.008336666E0,2.076941915E-2,-3.298672289E-2,-1.649336144E-2
1.010320443E0,1.832595654E-2,-3.604105115E-2,-1.649336144E-2
1.012334528E0,1.404990070E-2,-4.092797264E-2,-1.771509275E-2
1.014317690E0,1.038470957E-2,-4.214970022E-2,-1.710422710E-2
1.016332083E0,2.443460980E-3,-4.398229718E-2,-1.771509275E-2
1.018315860E0,6.108652451E-4,-5.070181563E-2,-1.527163107E-2
1.020330560E0,-1.221730490E-3,-4.948008433E-2,-1.649336144E-2
1.022315568E0,-3.665191587E-3,-5.131268129E-2,-1.466076635E-2
1.024326961E0,-5.497787148E-3,-5.070181563E-2,-1.466076635E-2
1.026312200E0,-4.276056774E-3,-4.886921868E-2,-1.160643995E-2
1.028325746E0,-6.108652335E-3,-4.703662544E-2,-1.221730467E-2
1.030309062E0,-5.497787148E-3,-3.848451003E-2,-1.160643995E-2
1.032323608E0,-3.665191587E-3,-3.665191308E-2,-1.282817032E-2
1.034338078E0,-4.886921961E-3,-2.748893574E-2,-7.941247895E-3
1.036320547E0,-4.276056774E-3,-1.710422710E-2,-8.552113548E-3
1.038336555E0,-1.832595794E-3,-1.221730467E-2,-1.038470957E-2
1.040318717E0,-1.832595794E-3,-4.276056774E-3,-9.162978269E-3
1.042334648E0,-6.108652451E-4,5.497787148E-3,-7.941247895E-3
1.044317425E0,-2.443460980E-3,7.941247895E-3,-9.162978269E-3
1.046331665E0,1.221730490E-3,1.343903504E-2,-6.108652335E-3
1.048314750E0,1.832595794E-3,1.771509275E-2,-6.719517522E-3
1.050328835E0,3.054326167E-3,2.199114859E-2,-5.497787148E-3
1.052312843E0,3.054326167E-3,2.687807009E-2,-3.665191587E-3
1.054326697E0,2.443460980E-3,3.054326214E-2,-3.054326167E-3
1.056311013E0,1.221730490E-3,3.604105115E-2,-6.108652451E-4
1.058324329E0,-1.832595794E-3,4.214970022E-2,6.108652451E-4
1.060339106E0,-3.665191587E-3,4.642575979E-2,-1.221730490E-3
1.062323729E0,-5.497787148E-3,5.070181563E-2,-1.221730490E-3
1.064337276E0,-7.941247895E-3,5.742133409E-2,-3.665191587E-3
1.066320284E0,-8.552113548E-3,5.803219974E-2,-4.276056774E-3
1.068334446E0,-1.466076635E-2,6.108652428E-2,-5.497787148E-3
1.070317915E0,-1.404990070E-2,6.291911751E-2,-9.162978269E-3
1.072332077E0,-1.954768784E-2,6.414084882E-2,-1.099557430E-2
1.074316316E0,-2.321287990E-2,6.475171447E-2,-1.099557430E-2
1.076329862E0,-2.321287990E-2,6.414084882E-2,-1.282817032E-2
1.078314255E0,-2.382374369E-2,6.291911751E-2,-1.466076635E-2
1.080327724E0,-2.809980139E-2,6.414084882E-2,-1.343903504E-2
1.082313040E0,-2.748893574E-2,6.291911751E-2,-1.527163107E-2
1.084325356E0,-2.809980139E-2,6.414084882E-2,-1.649336144E-2
1.086309287E0,-2.993239649E-2,6.352998316E-2,-1.832595654E-2
1.088323449E0,-2.993239649E-2,6.352998316E-2,-1.954768784E-2
1.090337919E0,-2.993239649E-2,5.925392732E-2,-2.138028294E-2
1.092321312E0,-3.176499158E-2,5.986479297E-2,-2.260201424E-2
1.094336089E0,-2.993239649E-2,5.986479297E-2,-2.321287990E-2
1.096318943E0,-3.054326214E-2,5.742133409E-2,-2.687807009E-2
1.098333336E0,-2.993239649E-2,5.253441259E-2,-2.809980139E-2
1.100317421E0,-2.993239649E-2,5.070181563E-2,-2.993239649E-2
1.102333121E0,-3.176499158E-2,5.009094998E-2,-3.115412779E-2
1.104314283E0,-3.420845419E-2,4.520402849E-2,-3.054326214E-2
1.106329445E0,-3.176499158E-2,4.520402849E-2,-3.420845419E-2
1.108312530E0,-3.176499158E-2,3.970624134E-2,-3.481931984E-2
1.110327307E0,-3.481931984E-2,3.787364438E-2,-3.543018550E-2
1.112310084E0,-3.420845419E-2,3.787364438E-2,-3.848451003E-2
1.114324784E0,-3.543018550E-2,3.359758854E-2,-3.726277873E-2
1.116307946E0,-3.787364438E-2,3.298672289E-2,-3.909537569E-2
1.118323339E0,-3.970624134E-2,3.176499158E-2,-3.787364438E-2
1.120336885E0,-3.848451003E-2,2.932153270E-2,-4.031710699E-2
1.122320893E0,-3.909537569E-2,2.932153270E-2,-3.726277873E-2
1.124335055E0,-4.092797264E-2,2.871066704E-2,-3.604105115E-2
1.126317833E0,-4.214970022E-2,2.382374369E-2,-3.481931984E-2
1.128332610E0,-4.337143153E-2,2.199114859E-2,-3.115412779E-2
1.130315925E0,-4.520402849E-2,1.893682219E-2,-2.748893574E-2
1.132329857E0,-4.703662544E-2,1.466076635E-2,-2.626720630E-2
1.134313865E0,-4.703662544E-2,1.466076635E-2,-2.321287990E-2
1.136327950E0,-5.070181563E-2,9.773843922E-3,-1.710422710E-2
1.138310805E0,-5.375614017E-2,8.552113548E-3,-1.466076635E-2
1.140325582E0,-5.009094998E-2,4.886921961E-3,-1.099557430E-2
1.142309821E0,-5.436700583E-2,4.276056774E-3,-7.330383174E-3
1.144324290E0,-5.375614017E-2,1.832595794E-3,-3.665191587E-3
1.146337914E0,-5.558873713E-2,-3.054326167E-3,-1.221730490E-3
1.148321229E0,-5.742133409E-2,-4.276056774E-3,0.000000000E0
1.150335083E0,-5.681046844E-2,-4.886921961E-3,6.108652451E-4
1.152319168E0,-5.742133409E-2,-6.108652335E-3,1.832595794E-3
1.154332715E0,-5.314527452E-2,-6.108652335E-3,4.886921961E-3
1.156316646E0,-5.375614017E-2,-4.886921961E-3,3.665191587E-3
1.158331731E0,-5.619960278E-2,-1.221730490E-3,2.443460980E-3
1.160314893E0,-5.497787148E-2,0.000000000E0,1.832595794E-3
1.162330208E0,-5.436700583E-2,1.221730490E-3,3.054326167E-3
1.164313063E0,-5.375614017E-2,6.108652335E-3,1.832595794E-3
1.166327455E0,-5.314527452E-2,7.330383174E-3,3.054326167E-3
1.168310232E0,-5.375614017E-2,9.162978269E-3,4.276056774E-3
1.170324163E0,-5.131268129E-2,8.552113548E-3,4.886921961E-3
1.172338941E0,-4.764748737E-2,9.773843922E-3,4.276056774E-3
1.174322026E0,-5.131268129E-2,1.221730467E-2,6.108652335E-3
1.176336726E0,-4.764748737E-2,1.527163107E-2,4.886921961E-3
1.178319811E0,-4.764748737E-2,1.771509275E-2,4.276056774E-3
1.180334897E0,-4.398229718E-2,2.076941915E-2,6.108652335E-3
1.182316212E0,-4.276056588E-2,2.321287990E-2,6.108652335E-3
1.184333067E0,-4.276056588E-2,2.321287990E-2,6.108652335E-3
1.186316844E0,-4.276056588E-2,2.871066704E-2,6.108652335E-3
1.188330698E0,-4.276056588E-2,3.237585723E-2,4.276056774E-3
1.190314398E0,-4.153883830E-2,3.726277873E-2,4.886921961E-3
1.192327637E0,-4.153883830E-2,4.092797264E-2,2.443460980E-3
1.194311876E0,-4.031710699E-2,4.581489414E-2,4.276056774E-3
1.196325192E0,-4.153883830E-2,5.070181563E-2,3.054326167E-3
1.198310353E0,-4.459316283E-2,5.925392732E-2,4.276056774E-3
1.200323592E0,-4.581489414E-2,6.719517708E-2,1.832595794E-3
1.202338985E0,-4.825835302E-2,7.452555746E-2,1.221730490E-3
1.204321224E0,-4.948008433E-2,8.735372871E-2,1.221730490E-3
1.206335616E0,-4.886921868E-2,1.007927656E-1,0.000000000E0
1.208319393E0,-5.009094998E-2,1.062905490E-1,1.221730490E-3
1.210333478E0,-5.742133409E-2,1.233947799E-1,-6.108652451E-4
1.212316948E0,-5.681046844E-2,1.313360333E-1,1.832595794E-3
1.214330110E0,-5.986479297E-2,1.478293836E-1,6.108652451E-4
1.216314733E0,-6.291911751E-2,1.612684280E-1,0.000000000E0
1.218328587E0,-6.230825558E-2,1.685988009E-1,1.221730490E-3
1.220313211E0,-6.414084882E-2,1.814269722E-1,-1.221730490E-3
1.222327450E0,-6.414084882E-2,1.942551434E-1,-3.665191587E-3
1.224310458E0,-6.658431143E-2,1.985312104E-1,-3.054326167E-3
1.226324697E0,-6.291911751E-2,2.138028294E-1,-7.941247895E-3
1.228339167E0,-6.658431143E-2,2.266310006E-1,-1.099557430E-2
1.230322483E0,-6.841690838E-2,2.339613885E-1,-1.343903504E-2
1.232336337E0,-6.352998316E-2,2.467895597E-1,-1.282817032E-2
1.234320037E0,-6.475171447E-2,2.651155293E-1,-1.588249579E-2
1.236333891E0,-6.536258012E-2,2.724458873E-1,-1.954768784E-2
1.238319438E0,-6.536258012E-2,2.889392674E-1,-2.015855350E-2
1.240332676E0,-6.719517708E-2,3.042109013E-1,-2.504547499E-2
1.242316684E0,-6.902777404E-2,3.109304011E-1,-2.871066704E-2
1.244330308E0,-7.147123665E-2,3.286454976E-1,-3.420845419E-2
1.246313623E0,-7.330382615E-2,3.359758854E-1,-3.481931984E-2
1.248327478E0,-7.880161703E-2,3.488040566E-1,-3.787364438E-2
1.250311870E0,-8.429940045E-2,3.579670191E-1,-4.337143153E-2
1.252325340E0,-8.674286306E-2,3.634648323E-1,-4.398229718E-2
1.254308809E0,-9.651670605E-2,3.714060783E-1,-4.459316283E-2
1.256323587E0,-1.044579595E-1,3.781255782E-1,-4.948008433E-2
1.258337364E0,-1.069014147E-1,3.805690408E-1,-4.886921868E-2
1.260321680E0,-1.160643995E-1,3.830125034E-1,-4.948008433E-2
1.262336226E0,-1.252273768E-1,3.860668242E-1,-5.681046844E-2
1.264318619E0,-1.301143020E-1,3.866777122E-1,-5.314527452E-2
1.266333705E0,-1.374446750E-1,3.830125034E-1,-5.375614017E-2
1.268317173E0,-1.472185254E-1,3.787364662E-1,-5.619960278E-2
1.270331259E0,-1.478293836E-1,3.720169365E-1,-5.619960278E-2
1.272314344E0,-1.557706445E-1,3.604104817E-1,-5.925392732E-2
1.274328583E0,-1.582140923E-1,3.408628106E-1,-5.803219974E-2
1.276312898E0,-1.600466967E-1,3.310889602E-1,-5.986479297E-2
1.278327060E0,-1.624901593E-1,3.066543639E-1,-6.047565863E-2
1.280310761E0,-1.612684280E-1,2.950479090E-1,-5.986479297E-2
1.282325153E0,-1.624901593E-1,2.773328125E-1,-5.986479297E-2
1.284339084E0,-1.600466967E-1,2.547308207E-1,-6.230825558E-2
1.286322477E0,-1.576032341E-1,2.474004179E-1,-6.047565863E-2
1.288336562E0,-1.527163088E-1,2.333505303E-1,-6.414084882E-2
1.290320647E0,-1.484402567E-1,2.266310006E-1,-6.597344577E-2
1.292334193E0,-1.459967941E-1,2.223549485E-1,-6.658431143E-2
1.294317817E0,-1.386664063E-1,2.193006277E-1,-7.086037099E-2
1.296332055E0,-1.282816976E-1,2.131919712E-1,-7.452555746E-2
1.298315448E0,-1.282816976E-1,2.162462920E-1,-7.635815442E-2
1.300329918E0,-1.203404516E-1,2.138028294E-1,-7.819075137E-2
1.302314233E0,-1.136209369E-1,2.125810981E-1,-8.307767659E-2
1.304328318E0,-1.081231460E-1,2.083050460E-1,-8.552113175E-2
1.306311480E0,-1.087340117E-1,2.046398520E-1,-8.857546002E-2
1.308325642E0,-1.075122803E-1,2.003637999E-1,-9.468411654E-2
1.310309265E0,-1.081231460E-1,1.948660165E-1,-1.001819000E-1
1.312323505E0,-1.093448773E-1,1.857030392E-1,-1.044579595E-1
1.314337282E0,-1.062905490E-1,1.808161139E-1,-1.081231460E-1
1.316320752E0,-1.117883399E-1,1.771509200E-1,-1.087340117E-1
1.318336452E0,-1.154535338E-1,1.740965992E-1,-1.093448773E-1
1.320319537E0,-1.185078546E-1,1.728748679E-1,-1.099557430E-1
1.322334237E0,-1.233947799E-1,1.673770845E-1,-1.105666086E-1
1.324317399E0,-1.288925707E-1,1.600466967E-1,-1.087340117E-1
1.326331484E0,-1.313360333E-1,1.527163088E-1,-1.026253626E-1
1.328313954E0,-1.356120855E-1,1.374446750E-1,-9.712757170E-2
1.330328808E0,-1.362229437E-1,1.264491081E-1,-8.735372871E-2
1.332312431E0,-1.417207420E-1,1.221730486E-1,-8.063421398E-2
1.334326978E0,-1.502728462E-1,1.142318025E-1,-6.780604273E-2
1.336310063E0,-1.606575549E-1,1.099557430E-1,-5.375614017E-2
1.338324532E0,-1.618792862E-1,1.087340117E-1,-4.825835302E-2
1.340339002E0,-1.661553532E-1,1.050688252E-1,-3.481931984E-2
1.342324779E0,-1.692096740E-1,1.056796908E-1,-2.260201424E-2
1.344336172E0,-1.704314053E-1,1.044579595E-1,-1.466076635E-2
1.346320872E0,-1.728748679E-1,1.056796908E-1,-3.054326167E-3
1.348334418E0,-1.728748679E-1,1.056796908E-1,2.443460980E-3
1.350317734E0,-1.759291887E-1,1.117883399E-1,1.221730467E-2
1.352331896E0,-1.747074574E-1,1.185078546E-1,2.260201424E-2
1.354315904E0,-1.716531366E-1,1.215621829E-1,2.565634064E-2
1.356330451E0,-1.679879427E-1,1.301143020E-1,3.054326214E-2
1.358314767E0,-1.612684280E-1,1.313360333E-1,3.420845419E-2
1.360328006E0,-1.576032341E-1,1.343903542E-1,3.604105115E-2
1.362312322E0,-1.484402567E-1,1.380555481E-1,3.420845419E-2
1.364326099E0,-1.404990107E-1,1.380555481E-1,3.420845419E-2
1.366309799E0,-1.325577646E-1,1.350012124E-1,3.115412779E-2
1.368323422E0,-1.203404516E-1,1.374446750E-1,2.687807009E-2
1.370337584E0,-1.014036313E-1,1.313360333E-1,2.382374369E-2
1.372320977E0,-8.979719132E-2,1.288925707E-1,2.321287990E-2
1.374334831E0,-6.108652428E-2,1.258382350E-1,1.954768784E-2
1.376319378E0,-4.764748737E-2,1.258382350E-1,1.893682219E-2
1.378333001E0,-2.871066704E-2,1.270599663E-1,1.527163107E-2
1.380316932E0,-1.160643995E-2,1.307251602E-1,1.221730467E-2
1.382331709E0,-2.443460980E-3,1.331686229E-1,1.466076635E-2
1.384315410E0,1.099557430E-2,1.472185254E-1,1.099557430E-2
1.386328725E0,2.260201424E-2,1.557706445E-1,7.330383174E-3
1.388312118E0,2.504547499E-2,1.624901593E-1,6.719517522E-3
1.390326895E0,3.359758854E-2,1.685988009E-1,4.276056774E-3
1.392310211E0,3.543018550E-2,1.740965992E-1,2.443460980E-3
1.394324450E0,3.543018550E-2,1.771509200E-1,1.221730490E-3
1.396338535E0,3.420845419E-2,1.826487035E-1,6.108652451E-4
1.398323235E0,3.237585723E-2,1.844813079E-1,-6.108652451E-4
1.400337090E0,3.665191308E-2,1.795943826E-1,-4.886921961E-3
1.402321329E0,3.420845419E-2,1.783726513E-1,-9.162978269E-3
1.404334337E0,2.993239649E-2,1.734857261E-1,-9.773843922E-3
1.406318652E0,2.565634064E-2,1.710422635E-1,-1.099557430E-2
1.408332507E0,2.504547499E-2,1.600466967E-1,-1.404990070E-2
1.410315284E0,2.382374369E-2,1.569923609E-1,-1.588249579E-2
1.412330600E0,2.138028294E-2,1.447750628E-1,-1.771509275E-2
1.414313146E0,1.343903504E-2,1.350012124E-1,-1.832595654E-2
1.416327846E0,1.160643995E-2,1.295034289E-1,-1.710422710E-2
1.418310931E0,3.054326167E-3,1.197295859E-1,-1.954768784E-2
1.420325709E0,-9.773843922E-3,1.007927656E-1,-2.260201424E-2
1.422338024E0,-9.773843922E-3,1.007927656E-1,-2.260201424E-2
1.424323571E0,-1.038470957E-2,9.896016866E-2,-2.382374369E-2
1.426338656E0,-1.771509275E-2,9.773843735E-2,-2.443460934E-2
1.428321202E0,-2.015855350E-2,1.014036313E-1,-2.504547499E-2
1.430335364E0,-2.321287990E-2,1.062905490E-1,-2.626720630E-2
1.432319295E0,-2.932153270E-2,1.142318025E-1,-2.932153270E-2
1.434333226E0,-3.176499158E-2,1.166752651E-1,-3.176499158E-2
1.436316849E0,-3.848451003E-2,1.252273768E-1,-3.481931984E-2
1.438331088E0,-4.581489414E-2,1.392772794E-1,-3.787364438E-2
1.440315096E0,-4.581489414E-2,1.429424733E-1,-3.665191308E-2
1.442329566E0,-5.009094998E-2,1.551597714E-1,-3.909537569E-2
1.444312266E0,-5.314527452E-2,1.624901593E-1,-3.970624134E-2
1.446327121E0,-5.619960278E-2,1.673770845E-1,-3.970624134E-2
1.448310514E0,-5.986479297E-2,1.753183305E-1,-4.276056588E-2
1.450324368E0,-6.047565863E-2,1.789835095E-1,-4.214970022E-2
1.452338761E0,-5.742133409E-2,1.808161139E-1,-4.214970022E-2
1.454322230E0,-5.558873713E-2,1.826487035E-1,-4.031710699E-2
1.456336700E0,-5.314527452E-2,1.789835095E-1,-3.970624134E-2
1.458319477E0,-5.192354694E-2,1.771509200E-1,-3.726277873E-2
1.460334562E0,-4.764748737E-2,1.759291887E-1,-3.543018550E-2
1.462318493E0,-4.337143153E-2,1.722639948E-1,-3.420845419E-2
1.464332655E0,-3.604105115E-2,1.685988009E-1,-3.176499158E-2
1.466315817E0,-2.687807009E-2,1.698205322E-1,-2.932153270E-2
1.468330209E0,-2.260201424E-2,1.673770845E-1,-2.748893574E-2
1.470313371E0,-1.527163107E-2,1.673770845E-1,-2.382374369E-2
1.472327841E0,-1.221730467E-2,1.685988009E-1,-2.199114859E-2
1.474311464E0,-5.497787148E-3,1.685988009E-1,-1.588249579E-2
1.476325088E0,0.000000000E0,1.698205322E-1,-1.832595654E-2
1.478340480E0,3.054326167E-3,1.692096740E-1,-1.527163107E-2
1.480324488E0,1.160643995E-2,1.661553532E-1,-1.160643995E-2
1.482338035E0,1.588249579E-2,1.637118906E-1,-7.330383174E-3
1.484321735E0,1.771509275E-2,1.624901593E-1,-9.773843922E-3
1.486335589E0,2.321287990E-2,1.588249654E-1,-6.108652335E-3
1.488318982E0,2.382374369E-2,1.539380401E-1,-3.054326167E-3
1.490333145E0,2.199114859E-2,1.539380401E-1,-1.221730490E-3
1.492316537E0,2.565634064E-2,1.472185254E-1,-3.054326167E-3
1.494330930E0,2.382374369E-2,1.429424733E-1,0.000000000E0
1.496314707E0,2.443460934E-2,1.417207420E-1,-1.832595794E-3
1.498328484E0,2.076941915E-2,1.356120855E-1,0.000000000E0
1.500313108E0,1.343903504E-2,1.295034289E-1,1.832595794E-3
1.502329116E0,1.160643995E-2,1.240056455E-1,0.000000000E0
1.504309431E0,3.054326167E-3,1.185078546E-1,6.108652451E-4
1.506324901E0,-1.832595794E-3,1.130100712E-1,0.000000000E0
1.508338370E0,-9.162978269E-3,1.038470939E-1,1.221730490E-3
1.510322455E0,-1.893682219E-2,9.529497474E-2,1.832595794E-3
1.512336617E0,-2.382374369E-2,8.918632567E-2,1.832595794E-3
1.514319702E0,-3.237585723E-2,7.941248268E-2,6.108652451E-4
1.516334710E0,-4.153883830E-2,7.024950534E-2,3.665191587E-3
1.518319026E0,-4.642575979E-2,6.536258012E-2,6.108652451E-4
1.520331957E0,-5.497787148E-2,5.314527452E-2,0.000000000E0
1.522316350E0,-6.169738993E-2,4.459316283E-2,-1.221730490E-3
1.524329896E0,-6.719517708E-2,3.848451003E-2,-6.108652451E-4
1.526313596E0,-7.269296050E-2,2.871066704E-2,-5.497787148E-3
1.528327143E0,-8.002334833E-2,2.076941915E-2,-5.497787148E-3
1.530311689E0,-8.368854225E-2,1.832595654E-2,-6.108652335E-3
1.532326159E0,-8.491026610E-2,6.719517522E-3,-6.108652335E-3
1.534339783E0,-8.796459436E-2,-6.108652451E-4,-9.162978269E-3
1.536323099E0,-8.857546002E-2,-1.221730490E-3,-6.719517522E-3
1.538337030E0,-8.735372871E-2,-1.038470957E-2,-7.941247895E-3
1.540321576E0,-8.613199741E-2,-1.466076635E-2,-9.162978269E-3
1.542336661E0,-8.185594529E-2,-2.076941915E-2,-8.552113548E-3
1.544319746E0,-7.819075137E-2,-2.260201424E-2,-7.330383174E-3
1.546332370E0,-7.696902007E-2,-2.443460934E-2,-6.719517522E-3
1.548317070E0,-7.024950534E-2,-2.443460934E-2,-7.941247895E-3
1.550331463E0,-6.536258012E-2,-2.199114859E-2,-4.886921961E-3
1.552314932E0,-5.986479297E-2,-1.893682219E-2,-5.497787148E-3
1.554329094E0,-5.558873713E-2,-1.527163107E-2,-7.941247895E-3
1.556312487E0,-4.948008433E-2,-1.343903504E-2,-4.886921961E-3
1.558326648E0,-4.398229718E-2,-9.162978269E-3,-1.221730490E-3
1.560310580E0,-3.481931984E-2,-9.773843922E-3,-3.054326167E-3
1.562325434E0,-2.871066704E-2,-9.162978269E-3,0.000000000E0
1.564338365E0,-2.565634064E-2,-7.941247895E-3,1.221730490E-3
1.566322911E0,-1.893682219E-2,-7.941247895E-3,3.054326167E-3
1.568336765E0,-1.710422710E-2,-8.552113548E-3,6.108652335E-3
1.570320543E0,-1.527163107E-2,-6.108652335E-3,7.330383174E-3
1.572334705E0,-1.527163107E-2,-3.054326167E-3,6.108652335E-3
1.574317713E0,-1.527163107E-2,-2.443460980E-3,7.941247895E-3
1.576332259E0,-1.588249579E-2,2.443460980E-3,7.330383174E-3
1.578315344E0,-1.404990070E-2,6.719517522E-3,6.108652335E-3
1.580330968E0,-1.649336144E-2,9.162978269E-3,7.330383174E-3
1.582315284E0,-1.710422710E-2,1.038470957E-2,6.108652335E-3
1.584327907E0,-1.832595654E-2,9.162978269E-3,3.665191587E-3
1.586311300E0,-2.199114859E-2,1.160643995E-2,3.054326167E-3
1.588325539E0,-2.382374369E-2,1.038470957E-2,3.665191587E-3
1.590339931E0,-2.382374369E-2,7.941247895E-3,3.665191587E-3
1.592323401E0,-2.504547499E-2,7.330383174E-3,3.054326167E-3
1.594337794E0,-2.565634064E-2,6.108652335E-3,3.054326167E-3
1.596320955E0,-2.504547499E-2,4.886921961E-3,3.054326167E-3
1.598335963E0,-2.626720630E-2,1.221730490E-3,1.832595794E-3
1.600319664E0,-2.321287990E-2,1.221730490E-3,4.886921961E-3
1.602334518E0,-2.443460934E-2,3.054326167E-3,7.330383174E-3
1.604317911E0,-2.504547499E-2,3.054326167E-3,6.719517522E-3
1.606331380E0,-2.199114859E-2,1.221730490E-3,5.497787148E-3
1.608314773E0,-2.138028294E-2,1.221730490E-3,7.330383174E-3
1.610328319E0,-2.076941915E-2,3.054326167E-3,7.941247895E-3
1.612312327E0,-1.893682219E-2,5.497787148E-3,6.719517522E-3
1.614326489E0,-1.710422710E-2,4.886921961E-3,6.108652335E-3
1.616310497E0,-1.404990070E-2,9.162978269E-3,9.162978269E-3
1.618324659E0,-1.282817032E-2,1.466076635E-2,9.162978269E-3
1.620339436E0,-9.773843922E-3,1.771509275E-2,7.941247895E-3
1.622323444E0,-7.330383174E-3,2.076941915E-2,1.038470957E-2
1.624336684E0,-3.054326167E-3,2.809980139E-2,1.221730467E-2
1.626320153E0,0.000000000E0,3.176499158E-2,1.282817032E-2
1.628334238E0,3.665191587E-3,3.970624134E-2,1.710422710E-2
1.630317400E0,8.552113548E-3,4.520402849E-2,1.954768784E-2
1.632332177E0,9.162978269E-3,4.703662544E-2,1.893682219E-2
1.634316493E0,1.588249579E-2,5.131268129E-2,1.954768784E-2
1.636329732E0,1.771509275E-2,5.253441259E-2,2.199114859E-2
1.638314586E0,1.954768784E-2,5.497787148E-2,2.260201424E-2
1.640327902E0,2.015855350E-2,5.986479297E-2,2.199114859E-2
1.642311602E0,2.199114859E-2,5.986479297E-2,2.260201424E-2
1.644325379E0,2.260201424E-2,6.108652428E-2,2.076941915E-2
1.646339618E0,1.954768784E-2,6.108652428E-2,1.954768784E-2
1.648323011E0,1.893682219E-2,6.291911751E-2,1.893682219E-2
1.650337480E0,1.527163107E-2,6.536258012E-2,1.588249579E-2
1.652321488E0,1.221730467E-2,6.414084882E-2,1.404990070E-2
1.654335035E0,1.099557430E-2,6.352998316E-2,1.282817032E-2
1.656318966E0,5.497787148E-3,6.352998316E-2,1.343903504E-2
1.658333435E0,7.330383174E-3,6.108652428E-2,9.773843922E-3
1.660316289E0,3.054326167E-3,5.681046844E-2,7.330383174E-3
1.662329221E0,3.054326167E-3,5.558873713E-2,6.719517522E-3
1.664316229E0,6.108652451E-4,5.436700583E-2,7.330383174E-3
1.666329160E0,1.221730490E-3,5.314527452E-2,6.108652335E-3
1.668312245E0,6.108652451E-4,5.070181563E-2,4.886921961E-3
1.670326407E0,-1.832595794E-3,5.131268129E-2,7.330383174E-3
1.672340877E0,0.000000000E0,5.070181563E-2,6.719517522E-3
1.674324039E0,-1.221730490E-3,4.948008433E-2,4.276056774E-3
1.676338508E0,-6.108652451E-4,4.825835302E-2,4.276056774E-3
1.678322439E0,-1.221730490E-3,4.825835302E-2,6.108652335E-3
1.680336063E0,-6.108652451E-4,4.825835302E-2,5.497787148E-3
1.682321225E0,0.000000000E0,4.520402849E-2,4.276056774E-3
1.684335387E0,0.000000000E0,4.398229718E-2,3.665191587E-3
1.686318241E0,4.276056774E-3,4.337143153E-2,7.941247895E-3
1.688332326E0,6.108652451E-4,4.276056588E-2,6.719517522E-3
1.690316103E0,1.832595794E-3,3.848451003E-2,4.886921961E-3
1.692330803E0,1.832595794E-3,3.604105115E-2,6.108652335E-3
1.694313657E0,1.221730490E-3,3.481931984E-2,6.719517522E-3
1.696328050E0,1.832595794E-3,3.176499158E-2,5.497787148E-3
1.698310904E0,1.832595794E-3,3.115412779E-2,8.552113548E-3
1.700326527E0,1.832595794E-3,2.932153270E-2,7.941247895E-3
1.702341305E0,4.886921961E-3,2.748893574E-2,8.552113548E-3
1.704323159E0,3.665191587E-3,2.504547499E-2,9.773843922E-3
1.706337705E0,4.276056774E-3,2.015855350E-2,7.941247895E-3
1.708321406E0,3.054326167E-3,1.588249579E-2,7.941247895E-3
1.710335492E0,5.497787148E-3,1.527163107E-2,9.162978269E-3
1.712319191E0,7.330383174E-3,9.773843922E-3,7.941247895E-3
1.714333969E0,7.941247895E-3,6.719517522E-3,8.552113548E-3
1.716316823E0,8.552113548E-3,6.719517522E-3,6.108652335E-3
1.718331601E0,8.552113548E-3,3.054326167E-3,6.108652335E-3
1.720315609E0,8.552113548E-3,0.000000000E0,7.941247895E-3
1.722329770E0,6.108652335E-3,0.000000000E0,8.552113548E-3
1.724312471E0,6.719517522E-3,-2.443460980E-3,6.719517522E-3
1.726326940E0,9.162978269E-3,-6.719517522E-3,6.719517522E-3
1.728340564E0,5.497787148E-3,-4.276056774E-3,4.276056774E-3
1.730324264E0,6.719517522E-3,-9.162978269E-3,5.497787148E-3
1.732338733E0,4.886921961E-3,-9.773843922E-3,6.719517522E-3
1.734322742E0,5.497787148E-3,-1.038470957E-2,4.276056774E-3
1.736336211E0,1.832595794E-3,-1.160643995E-2,3.054326167E-3
1.738320219E0,0.000000000E0,-1.099557430E-2,3.665191587E-3
1.740334996E0,-1.832595794E-3,-1.221730467E-2,1.832595794E-3
1.742319697E0,-4.886921961E-3,-1.649336144E-2,0.000000000E0
1.744331935E0,-7.330383174E-3,-1.466076635E-2,1.221730490E-3
1.746315713E0,-9.162978269E-3,-1.893682219E-2,-1.221730490E-3
1.748330721E0,-1.160643995E-2,-2.138028294E-2,-1.221730490E-3
1.750312959E0,-1.527163107E-2,-2.321287990E-2,-2.443460980E-3
1.752328275E0,-1.771509275E-2,-2.626720630E-2,-1.832595794E-3
1.754311437E0,-1.954768784E-2,-2.687807009E-2,-3.054326167E-3
1.756325291E0,-2.076941915E-2,-2.565634064E-2,-4.276056774E-3
1.758339685E0,-2.321287990E-2,-2.626720630E-2,-1.221730490E-3
1.760323077E0,-2.504547499E-2,-2.565634064E-2,-3.054326167E-3
1.762337547E0,-2.565634064E-2,-2.748893574E-2,-3.054326167E-3
1.764321632E0,-2.748893574E-2,-2.260201424E-2,-1.221730490E-3
1.766335178E0,-2.565634064E-2,-2.748893574E-2,-1.832595794E-3
1.768318263E0,-2.565634064E-2,-2.687807009E-2,-6.108652451E-4
1.770332656E0,-2.321287990E-2,-2.993239649E-2,0.000000000E0
1.772316741E0,-2.138028294E-2,-2.993239649E-2,-6.108652451E-4
1.774331210E0,-2.076941915E-2,-3.115412779E-2,1.832595794E-3
1.776314218E0,-1.710422710E-2,-2.993239649E-2,3.054326167E-3
1.778327842E0,-1.710422710E-2,-2.932153270E-2,3.054326167E-3
1.780312465E0,-9.773843922E-3,-2.687807009E-2,6.719517522E-3
1.782328088E0,-3.665191587E-3,-2.565634064E-2,6.108652335E-3
1.784310943E0,-2.443460980E-3,-2.321287990E-2,3.665191587E-3
1.786324489E0,1.221730490E-3,-2.076941915E-2,4.886921961E-3
1.788338343E0,5.497787148E-3,-1.893682219E-2,6.719517522E-3
1.790322274E0,9.162978269E-3,-1.832595654E-2,7.941247895E-3
1.792335513E0,1.343903504E-2,-1.527163107E-2,7.941247895E-3
1.794319829E0,1.588249579E-2,-1.221730467E-2,9.162978269E-3
1.796334068E0,1.527163107E-2,-1.160643995E-2,8.552113548E-3
1.798318383E0,2.076941915E-2,-8.552113548E-3,1.038470957E-2
1.800331623E0,1.954768784E-2,-4.276056774E-3,9.162978269E-3
1.802316476E0,2.015855350E-2,-3.054326167E-3,7.330383174E-3
1.804330408E0,2.015855350E-2,1.221730490E-3,7.330383174E-3
1.806313724E0,1.893682219E-2,4.886921961E-3,5.497787148E-3
1.808327886E0,1.954768784E-2,7.941247895E-3,7.330383174E-3
1.810311663E0,1.649336144E-2,9.162978269E-3,9.162978269E-3
1.812325748E0,1.710422710E-2,1.343903504E-2,7.941247895E-3
1.814340218E0,1.404990070E-2,1.466076635E-2,6.719517522E-3
1.816323379E0,1.527163107E-2,1.832595654E-2,6.719517522E-3
1.818336541E0,1.160643995E-2,1.954768784E-2,9.162978269E-3
1.820321857E0,9.162978269E-3,1.954768784E-2,6.108652335E-3
1.822337250E0,7.330383174E-3,2.260201424E-2,7.941247895E-3
1.824318719E0,6.719517522E-3,2.260201424E-2,8.552113548E-3
1.826333266E0,2.443460980E-3,2.260201424E-2,5.497787148E-3
1.828316658E0,-3.054326167E-3,2.443460934E-2,4.886921961E-3
1.830330435E0,-3.665191587E-3,2.687807009E-2,6.719517522E-3
1.832314828E0,-7.330383174E-3,2.565634064E-2,4.276056774E-3
1.834328990E0,-7.330383174E-3,2.565634064E-2,3.054326167E-3
1.836311998E0,-1.282817032E-2,2.626720630E-2,2.443460980E-3
1.838327467E0,-1.649336144E-2,2.504547499E-2,1.832595794E-3
1.840309629E0,-1.649336144E-2,2.199114859E-2,0.000000000E0
1.842325560E0,-1.832595654E-2,2.321287990E-2,1.832595794E-3
1.844338877E0,-1.954768784E-2,1.832595654E-2,-6.108652451E-4
1.846322500E0,-1.893682219E-2,1.771509275E-2,1.221730490E-3
1.848335816E0,-2.015855350E-2,1.527163107E-2,1.221730490E-3
1.850319824E0,-2.015855350E-2,1.466076635E-2,0.000000000E0
1.852333678E0,-2.076941915E-2,1.343903504E-2,1.832595794E-3
1.854317994E0,-1.832595654E-2,1.038470957E-2,4.276056774E-3
1.856332156E0,-1.649336144E-2,4.276056774E-3,3.054326167E-3
1.858314933E0,-1.404990070E-2,2.443460980E-3,2.443460980E-3
1.860330326E0,-1.160643995E-2,1.221730490E-3,6.108652335E-3
1.862314565E0,-9.162978269E-3,-1.221730490E-3,4.886921961E-3
1.864328419E0,-7.330383174E-3,-2.443460980E-3,5.497787148E-3
1.866311196E0,-2.443460980E-3,-2.443460980E-3,6.108652335E-3
1.868325358E0,-2.443460980E-3,-6.108652451E-4,5.497787148E-3
1.870339904E0,1.221730490E-3,-2.443460980E-3,8.552113548E-3
1.872323297E0,6.108652335E-3,0.000000000E0,7.330383174E-3
1.874337459E0,7.330383174E-3,-6.108652451E-4,7.330383174E-3
1.876321082E0,1.038470957E-2,3.054326167E-3,6.719517522E-3
1.878336167E0,1.221730467E-2,5.497787148E-3,7.941247895E-3
1.880318944E0,1.160643995E-2,8.552113548E-3,7.330383174E-3
1.882334029E0,1.527163107E-2,7.941247895E-3,6.719517522E-3
1.884317499E0,1.343903504E-2,1.282817032E-2,9.773843922E-3
1.886330430E0,1.466076635E-2,1.404990070E-2,1.160643995E-2
1.888314669E0,1.282817032E-2,1.527163107E-2,1.099557430E-2
1.890328831E0,1.160643995E-2,1.771509275E-2,1.160643995E-2
1.892312301E0,1.343903504E-2,1.832595654E-2,1.282817032E-2
1.894325847E0,1.099557430E-2,2.199114859E-2,1.099557430E-2
1.896340240E0,1.221730467E-2,2.382374369E-2,9.162978269E-3
1.898323402E0,1.099557430E-2,2.565634064E-2,1.221730467E-2
1.900338102E0,6.719517522E-3,3.176499158E-2,1.160643995E-2
1.902320572E0,5.497787148E-3,3.237585723E-2,1.099557430E-2
1.904338118E0,5.497787148E-3,3.237585723E-2,1.099557430E-2
1.906320588E0,5.497787148E-3,3.665191308E-2,1.038470957E-2
1.908334442E0,6.719517522E-3,3.787364438E-2,1.221730467E-2
1.910318219E0,4.276056774E-3,3.848451003E-2,1.038470957E-2
1.912331150E0,2.443460980E-3,4.031710699E-2,1.343903504E-2
1.914315466E0,1.832595794E-3,4.092797264E-2,1.343903504E-2
1.916329628E0,6.108652451E-4,4.337143153E-2,1.282817032E-2
1.918314482E0,2.443460980E-3,4.214970022E-2,1.588249579E-2
1.920327721E0,1.832595794E-3,4.092797264E-2,1.588249579E-2
1.922311806E0,3.054326167E-3,4.153883830E-2,1.893682219E-2
1.924325891E0,2.443460980E-3,3.970624134E-2,1.893682219E-2
1.926339129E0,4.886921961E-3,3.848451003E-2,1.954768784E-2
1.928323214E0,3.665191587E-3,3.909537569E-2,2.076941915E-2
1.930337684E0,4.886921961E-3,3.909537569E-2,1.832595654E-2
1.932321384E0,3.054326167E-3,4.031710699E-2,2.015855350E-2
1.934335239E0,6.108652335E-3,3.726277873E-2,1.893682219E-2
1.936318940E0,4.886921961E-3,3.848451003E-2,2.015855350E-2
1.938332486E0,5.497787148E-3,3.665191308E-2,2.015855350E-2
1.940317340E0,6.108652335E-3,3.298672289E-2,1.771509275E-2
1.942332810E0,7.941247895E-3,3.543018550E-2,1.832595654E-2
1.944315510E0,7.941247895E-3,3.298672289E-2,1.710422710E-2
1.946328518E0,9.162978269E-3,3.176499158E-2,1.710422710E-2
1.948312449E0,1.038470957E-2,3.237585723E-2,1.710422710E-2
1.950326611E0,1.099557430E-2,3.359758854E-2,2.015855350E-2
1.952340234E0,1.221730467E-2,3.543018550E-2,2.015855350E-2
1.954324473E0,1.282817032E-2,3.604105115E-2,2.076941915E-2
1.956338404E0,1.343903504E-2,3.726277873E-2,1.954768784E-2
1.958323566E0,1.221730467E-2,4.214970022E-2,2.199114859E-2
1.960335574E0,1.343903504E-2,4.337143153E-2,2.260201424E-2
1.962321736E0,1.221730467E-2,4.520402849E-2,2.321287990E-2
1.964333744E0,1.099557430E-2,4.948008433E-2,2.321287990E-2
1.966318444E0,1.099557430E-2,5.497787148E-2,2.504547499E-2
1.968331914E0,8.552113548E-3,5.986479297E-2,2.076941915E-2
1.970315383E0,7.330383174E-3,6.230825558E-2,2.321287990E-2
1.972330161E0,7.330383174E-3,6.597344577E-2,1.893682219E-2
1.974313476E0,4.276056774E-3,6.597344577E-2,1.954768784E-2
1.976328023E0,4.276056774E-3,6.841690838E-2,1.649336144E-2
1.978310723E0,-1.832595794E-3,7.024950534E-2,1.893682219E-2
1.980326501E0,-6.108652335E-3,7.086037099E-2,1.710422710E-2
1.982340894E0,-7.330383174E-3,7.147123665E-2,1.466076635E-2
1.984322440E0,-1.343903504E-2,6.963863969E-2,1.343903504E-2
1.986337602E0,-1.771509275E-2,6.902777404E-2,1.099557430E-2
1.988320687E0,-1.832595654E-2,6.536258012E-2,9.773843922E-3
1.990334157E0,-2.260201424E-2,5.986479297E-2,8.552113548E-3
1.992319088E0,-2.809980139E-2,5.925392732E-2,7.330383174E-3
1.994332711E0,-2.932153270E-2,5.864306539E-2,4.276056774E-3
1.996316642E0,-3.176499158E-2,5.131268129E-2,1.832595794E-3
1.998331420E0,-3.481931984E-2,4.886921868E-2,3.054326167E-3
2.000314812E0,-3.665191308E-2,4.581489414E-2,-1.832595794E-3
2.002330282E0,-3.543018550E-2,3.848451003E-2,-4.886921961E-3
2.004313059E0,-3.665191308E-2,3.420845419E-2,-3.665191587E-3
2.006326528E0,-3.726277873E-2,2.687807009E-2,-4.276056774E-3
2.008340460E0,-3.665191308E-2,1.588249579E-2,-9.162978269E-3
2.010324698E0,-3.848451003E-2,9.773843922E-3,-7.941247895E-3
2.012338937E0,-4.214970022E-2,4.276056774E-3,-7.941247895E-3
2.014322330E0,-4.581489414E-2,-2.443460980E-3,-8.552113548E-3
2.016336184E0,-4.703662544E-2,-5.497787148E-3,-9.162978269E-3
2.018318961E0,-4.886921868E-2,-1.099557430E-2,-6.719517522E-3
2.020334584E0,-4.948008433E-2,-1.527163107E-2,-4.886921961E-3
2.022318669E0,-5.314527452E-2,-1.710422710E-2,-1.221730490E-3
2.024331909E0,-5.497787148E-2,-2.321287990E-2,-1.832595794E-3
2.026315533E0,-5.803219974E-2,-2.809980139E-2,-1.832595794E-3
2.028330002E0,-6.414084882E-2,-2.993239649E-2,3.054326167E-3
2.030313472E0,-7.391469181E-2,-3.787364438E-2,6.108652335E-3
2.032327557E0,-7.880161703E-2,-4.214970022E-2,9.162978269E-3
2.034341411E0,-8.918632567E-2,-4.642575979E-2,1.038470957E-2
2.036325111E0,-1.032362282E-1,-4.764748737E-2,1.771509275E-2
2.038341196E0,-1.117883399E-1,-4.703662544E-2,1.649336144E-2
2.040323589E0,-1.221730486E-1,-5.131268129E-2,2.199114859E-2
2.042338135E0,-1.319468915E-1,-5.619960278E-2,2.504547499E-2
2.044321528E0,-1.343903542E-1,-5.497787148E-2,2.748893574E-2
2.046334766E0,-1.398881376E-1,-6.169738993E-2,2.809980139E-2
2.048319698E0,-1.435533315E-1,-7.147123665E-2,2.871066704E-2
2.050332936E0,-1.435533315E-1,-7.696902007E-2,2.871066704E-2
2.052316944E0,-1.417207420E-1,-8.307767659E-2,3.115412779E-2
2.054330798E0,-1.362229437E-1,-8.979719132E-2,3.054326214E-2
2.056314499E0,-1.331686229E-1,-9.346238524E-2,3.298672289E-2
2.058328276E0,-1.233947799E-1,-9.651670605E-2,3.481931984E-2
2.060343669E0,-1.056796908E-1,-1.007927656E-1,3.909537569E-2
2.062327754E0,-9.773843735E-2,-1.007927656E-1,3.909537569E-2
2.064339992E0,-7.880161703E-2,-9.407325089E-2,4.398229718E-2
2.066324385E0,-6.780604273E-2,-8.735372871E-2,4.886921868E-2
2.068338548E0,-5.070181563E-2,-6.658431143E-2,5.803219974E-2
2.070321325E0,-3.726277873E-2,-3.787364438E-2,7.330382615E-2
2.072336333E0,-3.115412779E-2,-2.443460934E-2,8.185594529E-2
2.074320110E0,-2.015855350E-2,1.588249579E-2,9.712757170E-2
2.076333580E0,-6.719517522E-3,6.719517708E-2,1.148426682E-1
2.078318819E0,-1.221730490E-3,9.040805697E-2,1.215621829E-1
2.080331750E0,9.162978269E-3,1.435533315E-1,1.423316002E-1
2.082316681E0,1.710422710E-2,1.930334121E-1,1.588249654E-1
2.084329996E0,2.138028294E-2,2.131919712E-1,1.667662114E-1
2.086313697E0,2.565634064E-2,2.541199327E-1,1.832595766E-1
2.088327474E0,2.565634064E-2,2.950479090E-1,1.960877478E-1
2.090341713E0,2.687807009E-2,3.115412891E-1,2.046398520E-1
2.092325029E0,2.260201424E-2,3.475823104E-1,2.138028294E-1
2.094339498E0,2.382374369E-2,3.591887653E-1,2.241875380E-1
2.096322352E0,2.260201424E-2,3.756821156E-1,2.339613885E-1
2.098337053E0,2.443460934E-2,3.885102868E-1,2.327396572E-1
2.100321984E0,2.199114859E-2,3.891211748E-1,2.370157093E-1
2.102335915E0,2.138028294E-2,3.891211748E-1,2.351831198E-1
2.104318923E0,2.138028294E-2,3.762930036E-1,2.315179259E-1
2.106333161E0,2.260201424E-2,3.677408695E-1,2.296853364E-1
2.108317093E0,2.565634064E-2,3.506366611E-1,2.260201424E-1
2.110331639E0,3.359758854E-2,3.219259977E-1,2.168571651E-1
2.112314955E0,3.604105115E-2,3.384193480E-1,2.162462920E-1
2.114328271E0,4.703662544E-2,3.274237812E-1,2.089159191E-1
2.116342664E0,5.681046844E-2,2.968805134E-1,2.015855312E-1
2.118327287E0,6.597344577E-2,2.809980214E-1,1.985312104E-1
2.120341218E0,8.063421398E-2,2.498438805E-1,1.918116808E-1
2.122325765E0,9.773843735E-2,2.083050460E-1,1.863138974E-1
2.124338081E0,1.056796908E-1,1.863138974E-1,1.814269722E-1
2.126322473E0,1.191187203E-1,1.423316002E-1,1.747074574E-1
2.128335943E0,1.246165112E-1,1.178969890E-1,1.740965992E-1
2.130320259E0,1.313360333E-1,7.696902007E-2,1.692096740E-1
2.132333882E0,1.350012124E-1,4.031710699E-2,1.692096740E-1
2.134317582E0,1.307251602E-1,2.932153270E-2,1.673770845E-1
2.136331359E0,1.319468915E-1,5.497787148E-3,1.710422635E-1
2.138314829E0,1.404990107E-1,-5.497787148E-3,1.820378453E-1
2.140329222E0,1.795943826E-1,-1.466076635E-2,2.064724565E-1
2.142311768E0,1.795943826E-1,-1.466076635E-2,2.064724565E-1
2.144326853E0,1.887573600E-1,-1.099557430E-2,2.119702399E-1
2.146341553E0,2.021963894E-1,-1.038470957E-2,2.211332172E-1
2.148325638E0,2.254092693E-1,6.108652451E-4,2.449569702E-1
2.150339800E0,2.443460971E-1,1.221730467E-2,2.681698501E-1
2.152323116E0,2.528982162E-1,1.588249579E-2,2.809980214E-1
2.154337278E0,2.669481039E-1,2.565634064E-2,3.072652221E-1
2.156321286E0,2.785545588E-1,2.993239649E-2,3.371976018E-1
2.158335525E0,2.816088796E-1,3.176499158E-2,3.518583775E-1
2.160319149E0,2.895501256E-1,3.237585723E-2,3.817907870E-1
2.162334311E0,2.926044464E-1,2.871066704E-2,4.001167417E-1
2.164316780E0,3.005456924E-1,1.893682219E-2,4.318817258E-1
2.166331173E0,3.090978265E-1,1.099557430E-2,4.618141353E-1
2.168314642E0,3.145956099E-1,3.054326167E-3,4.789183438E-1
2.170329035E0,3.274237812E-1,-9.773843922E-3,5.119050741E-1
2.172312428E0,3.371976018E-1,-1.893682219E-2,5.406157374E-1
2.174326666E0,3.390302062E-1,-2.321287990E-2,5.558874011E-1
2.176340521E0,3.481931984E-1,-2.871066704E-2,5.888741016E-1
2.178323298E0,3.543018401E-1,-3.298672289E-2,6.181956530E-1
2.180338613E0,3.567453027E-1,-3.359758854E-2,6.328563690E-1
2.182323929E0,3.585779071E-1,-3.481931984E-2,6.640105247E-1
2.184336168E0,3.634648323E-1,-3.359758854E-2,6.945537925E-1
2.186319638E0,3.652974069E-1,-3.298672289E-2,7.104362845E-1
2.188334338E0,3.640756905E-1,-3.237585723E-2,7.373143435E-1
2.190317730E0,3.652974069E-1,-2.871066704E-2,7.519751191E-1
2.192332277E0,3.628539443E-1,-2.871066704E-2,7.812966704E-1
2.194314746E0,3.597996235E-1,-2.932153270E-2,8.081747293E-1
2.196329524E0,3.579670191E-1,-2.871066704E-2,8.191702962E-1
2.198313762E0,3.518583775E-1,-3.420845419E-2,8.484918475E-1
2.200327617E0,3.494149148E-1,-3.970624134E-2,8.698720932E-1
2.202342164E0,3.463605940E-1,-4.153883830E-2,8.827002645E-1
2.204326403E0,3.420845270E-1,-5.314527452E-2,9.077457786E-1
2.206340026E0,3.329215646E-1,-6.414084882E-2,9.321803451E-1
2.208322496E0,3.304781020E-1,-7.452555746E-2,9.443976879E-1
2.210336658E0,3.188716471E-1,-8.979719132E-2,9.639453292E-1
2.212320666E0,3.060434759E-1,-1.117883399E-1,9.865473509E-1
2.214334827E0,2.968805134E-1,-1.203404516E-1,9.975429177E-1
2.216318835E0,2.779437006E-1,-1.417207420E-1,1.016479731E0
2.218332997E0,2.510656118E-1,-1.618792862E-1,1.039081812E0
2.220316390E0,2.406809032E-1,-1.728748679E-1,1.048244715E0
2.222331783E0,2.144137025E-1,-1.924225539E-1,1.068403363E0
2.224313637E0,1.979203373E-1,-2.015855312E-1,1.076955438E0
2.226328414E0,1.710422635E-1,-2.162462920E-1,1.098335743E0
2.228342884E0,1.453859210E-1,-2.339613885E-1,1.117883444E0
2.230326276E0,1.325577646E-1,-2.406809032E-1,1.125213742E0
2.232340053E0,1.130100712E-1,-2.516764700E-1,1.143539786E0
2.234324138E0,8.674286306E-2,-2.620611787E-1,1.158200502E0
2.236337685E0,7.819075137E-2,-2.663372457E-1,1.166752577E0
2.238322308E0,5.497787148E-2,-2.712241709E-1,1.181413412E0
2.240336162E0,3.420845419E-2,-2.773328125E-1,1.191187263E0
2.242320478E0,2.260201424E-2,-2.779437006E-1,1.198517561E0
2.244334025E0,1.832595794E-3,-2.803871334E-1,1.206458807E0
2.246317417E0,-1.771509275E-2,-2.779437006E-1,1.213178396E0
2.248332503E0,-2.626720630E-2,-2.797762752E-1,1.216843605E0
2.250315819E0,-4.520402849E-2,-2.748893499E-1,1.219897866E0
2.252329673E0,-6.414084882E-2,-2.693915665E-1,1.221730471E0
2.254313681E0,-7.452555746E-2,-2.669481039E-1,1.225395679E0
2.256327612E0,-9.468411654E-2,-2.620611787E-1,1.227228284E0
2.258340774E0,-1.166752651E-1,-2.571742535E-1,1.229671717E0
2.260324859E0,-1.246165112E-1,-2.553416789E-1,1.232726097E0
2.262339944E0,-1.478293836E-1,-2.541199327E-1,1.233336926E0
2.264323259E0,-1.600466967E-1,-2.522873580E-1,1.232726097E0
2.266337190E0,-1.850921661E-1,-2.553416789E-1,1.237002134E0
2.268320891E0,-2.076941878E-1,-2.620611787E-1,1.240667343E0
2.270334976E0,-2.217440903E-1,-2.632829249E-1,1.241278172E0
2.272319368E0,-2.455678284E-1,-2.724458873E-1,1.247386813E0
2.274332607E0,-2.700024247E-1,-2.846632004E-1,1.251662850E0
2.276316923E0,-2.797762752E-1,-2.926044464E-1,1.253495455E0
2.278331392E0,-3.036000133E-1,-3.060434759E-1,1.265101910E0
2.280314477E0,-3.255911767E-1,-3.219259977E-1,1.271821499E0
2.282330485E0,-3.371976018E-1,-3.292563558E-1,1.274875760E0
2.284312032E0,-3.555235863E-1,-3.439171314E-1,1.282206178E0
2.286326809E0,-3.756821156E-1,-3.579670191E-1,1.290758252E0
2.288340280E0,-3.842342496E-1,-3.640756905E-1,1.298088670E0
2.290324903E0,-4.050036669E-1,-3.726277947E-1,1.308473349E0
2.292338142E0,-4.159992337E-1,-3.744603992E-1,1.313360333E0
2.294322842E0,-4.324925840E-1,-3.781255782E-1,1.321301579E0
2.296336081E0,-4.526511431E-1,-3.787364662E-1,1.331686258E0
2.298319396E0,-4.618141353E-1,-3.781255782E-1,1.337184072E0
2.300334558E0,-4.789183438E-1,-3.744603992E-1,1.347568750E0
2.302319720E0,-4.984660447E-1,-3.640756905E-1,1.356731653E0
2.304331728E0,-5.082398653E-1,-3.579670191E-1,1.362840414E0
2.306315198E0,-5.326744914E-1,-3.426954150E-1,1.372003317E0
2.308330513E0,-5.540547967E-1,-3.231477141E-1,1.385442376E0
2.310312983E0,-5.687155724E-1,-3.097086847E-1,1.389718413E0
2.312327222E0,-5.949827433E-1,-2.834414840E-1,1.404379249E0
2.314341922E0,-6.224716902E-1,-2.486221492E-1,1.417207360E0
2.316325084E0,-6.359107494E-1,-2.284636050E-1,1.422094345E0
2.318339784E0,-6.609562039E-1,-1.875356287E-1,1.435533285E0
2.320323254E0,-6.866125464E-1,-1.392772794E-1,1.449583173E0
2.322338031E0,-6.994407177E-1,-1.117883399E-1,1.454470158E0
2.324321347E0,-7.208209634E-1,-5.558873713E-2,1.468520045E0
2.326335278E0,-7.324274182E-1,-2.565634064E-2,1.475850463E0
2.328319209E0,-7.513642311E-1,3.909537569E-2,1.491732955E0
2.330333448E0,-7.703011036E-1,1.044579595E-1,1.505172014E0
2.332316456E0,-7.800748944E-1,1.368338168E-1,1.510669708E0
2.334330618E0,-7.990117669E-1,2.064724565E-1,1.526552200E0
2.336314395E0,-8.087855577E-1,2.724458873E-1,1.541213036E0
2.338327250E0,-8.173376918E-1,3.090978265E-1,1.547321677E0
2.340342642E0,-8.326093554E-1,3.714060783E-1,1.560760736E0
2.342326650E0,-8.442157507E-1,4.312708676E-1,1.572978020E0
2.344341428E0,-8.472700715E-1,4.569272101E-1,1.577254057E0
2.346324820E0,-8.576548100E-1,5.088507533E-1,1.587638736E0
2.348338136E0,-8.607091308E-1,5.503895879E-1,1.592525721E0
2.350321144E0,-8.631525636E-1,5.681046844E-1,1.595579982E0
2.352336306E0,-8.662069440E-1,5.962044597E-1,1.596801758E0
2.354319314E0,-8.686503768E-1,6.053674817E-1,1.598023534E0
2.356333860E0,-8.686503768E-1,6.194173694E-1,1.596801758E0
2.358318715E0,-8.674286604E-1,6.230825782E-1,1.591914773E0
2.360332030E0,-8.649851680E-1,6.236934066E-1,1.588249683E0
2.362315731E0,-8.631525636E-1,6.175847650E-1,1.578475833E0
2.364330431E0,-8.613200188E-1,6.017022729E-1,1.566869378E0
2.366313208E0,-8.582656980E-1,5.955936313E-1,1.558317184E0
2.368327678E0,-8.564330935E-1,5.742133260E-1,1.544878244E0
2.370341839E0,-8.515461683E-1,5.497786999E-1,1.529606581E0
2.372325001E0,-8.509352803E-1,5.363397002E-1,1.522887111E0
2.374339394E0,-8.472700715E-1,5.082398653E-1,1.503339410E0
2.376323402E0,-8.429940343E-1,4.776966274E-1,1.486235142E0
2.378336719E0,-8.405506015E-1,4.599815309E-1,1.478293896E0
2.380319727E0,-8.319984674E-1,3.946189582E-1,1.441641927E0
2.382333581E0,-8.319984674E-1,3.946189582E-1,1.441641927E0
2.384318281E0,-8.246681094E-1,3.732386529E-1,1.433089852E0
2.386332674E0,-8.197811842E-1,3.341432810E-1,1.415985584E0
2.388316989E0,-8.155050874E-1,3.158173263E-1,1.404990077E0
2.390330305E0,-8.087855577E-1,2.748893499E-1,1.387274981E0
2.392313929E0,-7.984008789E-1,2.284636050E-1,1.367727280E0
2.394328167E0,-7.922922373E-1,2.064724565E-1,1.361007810E0
2.396342560E0,-7.819074988E-1,1.637118906E-1,1.341460109E0
2.398327260E0,-7.751879692E-1,1.209513173E-1,1.321912408E0
2.400340807E0,-7.709119320E-1,1.007927656E-1,1.311527729E0
2.402325045E0,-7.641924024E-1,6.719517708E-2,1.296256065E0
2.404338669E0,-7.525860071E-1,3.909537569E-2,1.276097536E0
2.406321985E0,-7.476990819E-1,2.687807009E-2,1.268767118E0
2.408336454E0,-7.379252315E-1,9.773843922E-3,1.255328059E0
2.410319924E0,-7.263187766E-1,1.832595794E-3,1.238834739E0
2.412333470E0,-7.214318514E-1,1.221730490E-3,1.229671717E0
2.414317401E0,-7.086036801E-1,7.330383174E-3,1.217454433E0
2.416331948E0,-6.933320761E-1,2.076941915E-2,1.202182770E0
2.418314725E0,-6.841690540E-1,2.932153270E-2,1.198517561E0
2.420330348E0,-6.670648456E-1,5.742133409E-2,1.185689449E0
2.422314972E0,-6.566801667E-1,7.330382615E-2,1.179580808E0
2.424327904E0,-6.334672570E-1,1.081231460E-1,1.169806957E0
2.426342143E0,-6.035348773E-1,1.508837193E-1,1.160033107E0
2.428325535E0,-5.858197808E-1,1.685988009E-1,1.155757070E0
2.430339620E0,-5.442809463E-1,2.125810981E-1,1.142928839E0
2.432323090E0,-4.899139404E-1,2.547308207E-1,1.133154988E0
2.434337251E0,-4.587597847E-1,2.742784917E-1,1.130100727E0
2.436321798E0,-3.909537494E-1,3.139847219E-1,1.112996459E0
2.438335960E0,-3.127630055E-1,3.469714522E-1,1.097724795E0
2.440319045E0,-2.718350291E-1,3.616322279E-1,1.089172721E0
2.442334130E0,-1.802052408E-1,3.781255782E-1,1.069625020E0
2.444316676E0,-9.040805697E-2,3.848451078E-1,1.041525245E0
2.446330761E0,-4.459316283E-2,3.799581826E-1,1.026253581E0
2.448314846E0,3.726277873E-2,3.616322279E-1,9.944885969E-1
2.450328392E0,1.038470939E-1,3.347541690E-1,9.523389339E-1
2.452342170E0,1.307251602E-1,3.158173263E-1,9.327912331E-1
2.454326485E0,1.692096740E-1,2.736676335E-1,8.839219809E-1
2.456340109E0,1.747074574E-1,2.516764700E-1,8.607091308E-1
2.458323424E0,1.802052408E-1,2.089159191E-1,8.057312369E-1
2.460339509E0,1.728748679E-1,1.783726513E-1,7.489207983E-1
2.462323825E0,1.661553532E-1,1.643227488E-1,7.195992470E-1
2.464335833E0,1.478293836E-1,1.521054506E-1,6.652322412E-1
2.466319841E0,1.325577646E-1,1.569923609E-1,6.139195561E-1
2.468333927E0,1.252273768E-1,1.685988009E-1,5.894849896E-1
2.470317012E0,1.197295859E-1,2.003637999E-1,5.424483418E-1
2.472332097E0,1.191187203E-1,2.498438805E-1,5.027421117E-1
2.474315259E0,1.215621829E-1,2.816088796E-1,4.868595898E-1
2.476330651E0,1.282816976E-1,3.512475193E-1,4.587597847E-1
2.478313736E0,1.380555481E-1,4.251621962E-1,4.379903674E-1
2.480327898E0,1.411098689E-1,4.636467099E-1,4.282165468E-1
2.482342983E0,1.484402567E-1,5.381723046E-1,4.178318381E-1
2.484325376E0,1.594358236E-1,6.059783101E-1,4.129449129E-1
2.486339922E0,1.594358236E-1,6.414085031E-1,4.147774875E-1
2.488322930E0,1.637118906E-1,7.049384713E-1,4.184426963E-1
2.490337477E0,1.667662114E-1,7.330383062E-1,4.202753007E-1
2.492321408E0,1.716531366E-1,7.904596329E-1,4.331034720E-1
2.494334646E0,1.771509200E-1,8.423831463E-1,4.428772926E-1
2.496319270E0,1.832595766E-1,8.686503768E-1,4.483750761E-1
2.498331970E0,1.899790913E-1,9.199630618E-1,4.612032473E-1
2.500316824E0,1.960877478E-1,9.682214260E-1,4.740314186E-1
2.502331909E0,2.015855312E-1,9.926560521E-1,4.807509482E-1
2.504315686E0,2.083050460E-1,1.042136073E0,4.862487316E-1
2.506329233E0,2.125810981E-1,1.094059706E0,4.911356568E-1
2.508342703E0,2.162462920E-1,1.119716048E0,4.929682612E-1
2.510326787E0,2.223549485E-1,1.170417786E0,4.948008358E-1
2.512340643E0,2.254092693E-1,1.222341299E0,4.941899776E-1
2.514324035E0,2.272418737E-1,1.246165156E0,4.923573732E-1
2.516338428E0,2.315179259E-1,1.293201685E0,4.880813360E-1
2.518322744E0,2.345722616E-1,1.317636371E0,4.874704778E-1
2.520335982E0,2.364048511E-1,1.365283847E0,4.795292318E-1
2.522320683E0,2.382374406E-1,1.409876943E0,4.746423066E-1
2.524335383E0,2.394591719E-1,1.431868076E0,4.703662395E-1
2.526317314E0,2.406809032E-1,1.469130874E0,4.624249935E-1
2.528331476E0,2.406809032E-1,1.507615447E0,4.532620013E-1
2.530315099E0,2.419026345E-1,1.524108768E0,4.471533597E-1
2.532329953E0,2.357939780E-1,1.555262923E0,4.373795092E-1
2.534343423E0,2.247984111E-1,1.582751870E0,4.251621962E-1
2.536327431E0,2.193006277E-1,1.597412586E0,4.233296216E-1
2.538340747E0,2.003637999E-1,1.615738630E0,4.092797041E-1
2.540325678E0,1.759291887E-1,1.629177570E0,3.958406746E-1
2.542341686E0,1.637118906E-1,1.633453608E0,3.921754956E-1
2.544322540E0,1.313360333E-1,1.637729764E0,3.787364662E-1
2.546337625E0,1.020144969E-1,1.632842779E0,3.659082949E-1
2.548320710E0,8.491026610E-2,1.630399346E0,3.579670191E-1
2.550334949E0,5.192354694E-2,1.614516854E0,3.463605940E-1
2.552318572E0,3.359758854E-2,1.607186437E0,3.414736688E-1
2.554332734E0,6.108652451E-4,1.587027907E0,3.310889602E-1
2.556316434E0,-3.054326214E-2,1.554041147E0,3.219259977E-1
2.558331597E0,-4.520402849E-2,1.536326051E0,3.182607889E-1
2.560314374E0,-7.147123665E-2,1.494787216E0,3.127630055E-1
2.562329690E0,-9.407325089E-2,1.449583173E0,3.090978265E-1
2.564343852E0,-1.069014147E-1,1.424537778E0,3.072652221E-1
2.566326090E0,-1.264491081E-1,1.367116451E0,3.042109013E-1
2.568340868E0,-1.441642046E-1,1.302364707E0,3.060434759E-1
2.570323953E0,-1.502728462E-1,1.271210551E0,3.036000133E-1
2.572338422E0,-1.643227488E-1,1.199739337E0,3.042109013E-1
2.574322353E0,-1.740965992E-1,1.128878951E0,3.029891551E-1
2.576335900E0,-1.771509200E-1,1.091616154E0,3.023782969E-1
2.578318754E0,-1.844813079E-1,1.013425469E0,3.042109013E-1
2.580334147E0,-1.869247705E-1,9.376781583E-1,3.048217595E-1
2.582318385E0,-1.875356287E-1,8.998045325E-1,3.060434759E-1
2.584331932E0,-1.863138974E-1,8.246681094E-1,3.036000133E-1
2.586315324E0,-1.869247705E-1,7.886270285E-1,3.029891551E-1
2.588329563E0,-1.814269722E-1,7.177666426E-1,2.987131178E-1
2.590343956E0,-1.740965992E-1,6.493497491E-1,2.987131178E-1
2.592327118E0,-1.722639948E-1,6.163630486E-1,2.962696552E-1
2.594341587E0,-1.637118906E-1,5.558874011E-1,2.938261926E-1
2.596325211E0,-1.618792862E-1,5.027421117E-1,2.871066630E-1
2.598340295E0,-1.612684280E-1,4.776966274E-1,2.852740586E-1
2.600323150E0,-1.588249654E-1,4.331034720E-1,2.816088796E-1
2.602337620E0,-1.588249654E-1,3.958406746E-1,2.718350291E-1
2.604320705E0,-1.563815027E-1,3.793473244E-1,2.742784917E-1
2.606335405E0,-1.582140923E-1,3.543018401E-1,2.657263875E-1
2.608318875E0,-1.545489132E-1,3.353650272E-1,2.583959997E-1
2.610333345E0,-1.514945775E-1,3.286454976E-1,2.559525371E-1
2.612316353E0,-1.502728462E-1,3.170390725E-1,2.480112910E-1
2.614330514E0,-1.459967941E-1,3.109304011E-1,2.455678284E-1
2.616344445E0,-1.392772794E-1,3.078760803E-1,2.388483137E-1
2.618328069E0,-1.331686229E-1,3.042109013E-1,2.333505303E-1
2.620342308E0,-1.221730486E-1,2.852740586E-1,2.144137025E-1
2.622324700E0,-1.221730486E-1,2.852740586E-1,2.144137025E-1
2.624339862E0,-1.197295859E-1,2.797762752E-1,2.095267773E-1
2.626324409E0,-1.154535338E-1,2.724458873E-1,2.034181207E-1
2.628338647E0,-1.123992056E-1,2.535090744E-1,1.912008226E-1
2.630322578E0,-1.099557430E-1,2.241875380E-1,1.765400618E-1
2.632336125E0,-1.111774743E-1,2.113593817E-1,1.679879427E-1
2.634319517E0,-1.069014147E-1,1.673770845E-1,1.484402567E-1
2.636333679E0,-9.773843735E-2,1.191187203E-1,1.288925707E-1
2.638319226E0,-9.407325089E-2,9.162978828E-2,1.191187203E-1
2.640331618E0,-8.796459436E-2,2.993239649E-2,9.468411654E-2
2.642315857E0,-7.819075137E-2,-4.214970022E-2,7.086037099E-2
2.644330096E0,-7.513642311E-2,-7.941248268E-2,5.314527452E-2
2.646343874E0,-6.841690838E-2,-1.631010175E-1,2.504547499E-2
2.648327344E0,-5.131268129E-2,-2.480112910E-1,-5.497787148E-3
2.650341198E0,-3.604105115E-2,-2.901609838E-1,-1.954768784E-2
2.652326052E0,7.330383174E-3,-3.762930036E-1,-4.948008433E-2
2.654339060E0,3.298672289E-2,-4.147774875E-1,-6.291911751E-2
2.656323299E0,9.224065393E-2,-4.886921942E-1,-9.162978828E-2
2.658336307E0,1.423316002E-1,-5.503895879E-1,-1.209513173E-1
2.660321161E0,1.631010175E-1,-5.797111392E-1,-1.325577646E-1
2.662336246E0,1.875356287E-1,-6.200281978E-1,-1.582140923E-1
2.664318792E0,1.924225539E-1,-6.469063163E-1,-1.802052408E-1
2.666332570E0,1.905899495E-1,-6.542366743E-1,-1.924225539E-1
2.668316270E0,1.808161139E-1,-6.554583907E-1,-2.107485086E-1
2.670331355E0,1.747074574E-1,-6.420193911E-1,-2.278527319E-1
2.672313824E0,1.771509200E-1,-6.291912198E-1,-2.345722616E-1
2.674328986E0,1.783726513E-1,-5.931501389E-1,-2.425135076E-1
2.676342148E0,1.857030392E-1,-5.497786999E-1,-2.516764700E-1
2.678327156E0,1.905899495E-1,-5.241223574E-1,-2.553416789E-1
2.680340318E0,1.930334121E-1,-4.691445231E-1,-2.590068579E-1
2.682324634E0,1.930334121E-1,-4.416555762E-1,-2.614503205E-1
2.684338796E0,1.899790913E-1,-3.805690408E-1,-2.632829249E-1
2.686321880E0,1.789835095E-1,-3.176499307E-1,-2.657263875E-1
2.688335736E0,1.716531366E-1,-2.834414840E-1,-2.657263875E-1
2.690320435E0,1.527163088E-1,-2.168571651E-1,-2.638937831E-1
2.692333675E0,1.288925707E-1,-1.508837193E-1,-2.608394623E-1
2.694317990E0,1.154535338E-1,-1.197295859E-1,-2.602286041E-1
2.696332075E0,8.674286306E-2,-5.253441259E-2,-2.559525371E-1
2.698315160E0,5.375614017E-2,1.343903504E-2,-2.516764700E-1
2.700330322E0,3.787364438E-2,4.703662544E-2,-2.474004179E-1
2.702345638E0,1.221730490E-3,1.105666086E-1,-2.394591719E-1
2.704327261E0,-4.153883830E-2,1.740965992E-1,-2.296853364E-1
2.706341962E0,-6.291911751E-2,2.021963894E-1,-2.254092693E-1
2.708325123E0,-1.044579595E-1,2.565633953E-1,-2.156354338E-1
2.710338978E0,-1.496619880E-1,3.084869385E-1,-2.046398520E-1
2.712323216E0,-1.747074574E-1,3.316998184E-1,-1.991420686E-1
2.714337378E0,-2.156354338E-1,3.762930036E-1,-1.826487035E-1
2.716320540E0,-2.376265824E-1,3.964515328E-1,-1.759291887E-1
2.718335240E0,-2.712241709E-1,4.331034720E-1,-1.600466967E-1
2.720318325E0,-3.017674387E-1,4.691445231E-1,-1.417207420E-1
2.722333102E0,-3.170390725E-1,4.868595898E-1,-1.288925707E-1
2.724316264E0,-3.390302062E-1,5.149593949E-1,-1.007927656E-1
2.726330965E0,-3.567453027E-1,5.369505286E-1,-6.719517708E-2
2.728313742E0,-3.622430861E-1,5.448917747E-1,-5.070181563E-2
2.730328596E0,-3.640756905E-1,5.497786999E-1,-1.527163107E-2
2.732342143E0,-3.604104817E-1,5.510004759E-1,2.138028294E-2
2.734325843E0,-3.500257730E-1,5.436700583E-1,3.726277873E-2
2.736340852E0,-3.304781020E-1,5.180137157E-1,7.269296050E-2
2.738323398E0,-3.029891551E-1,4.795292318E-1,1.001819000E-1
2.740337791E0,-2.840523422E-1,4.563163519E-1,1.142318025E-1
2.742323107E0,-2.431243658E-1,4.025602043E-1,1.386664063E-1
2.744336884E0,-1.979203373E-1,3.408628106E-1,1.600466967E-1
2.746320584E0,-1.728748679E-1,3.084869385E-1,1.667662114E-1
2.748334515E0,-1.319468915E-1,2.406809032E-1,1.795943826E-1
2.750317831E0,-1.099557430E-1,2.064724565E-1,1.826487035E-1
2.752331685E0,-7.208210230E-2,1.356120855E-1,1.820378453E-1
2.754315385E0,-3.359758854E-2,6.902777404E-2,1.771509200E-1
2.756329240E0,-1.649336144E-2,3.726277873E-2,1.679879427E-1
2.758344709E0,1.404990070E-2,-1.954768784E-2,1.447750628E-1
2.760327179E0,3.970624134E-2,-7.269296050E-2,1.130100712E-1
2.762342494E0,5.009094998E-2,-9.773843735E-2,9.407325089E-2
2.764324733E0,6.352998316E-2,-1.350012124E-1,5.192354694E-2
2.766338895E0,6.841690838E-2,-1.692096740E-1,-6.108652451E-4
2.768323441E0,6.963863969E-2,-1.893682331E-1,-2.687807009E-2
2.770336988E0,7.147123665E-2,-2.302961946E-1,-8.429940045E-2
2.772320996E0,7.269296050E-2,-2.730567753E-1,-1.429424733E-1
2.774334312E0,7.208210230E-2,-2.956587672E-1,-1.710422635E-1
2.776318550E0,7.635815442E-2,-3.420845270E-1,-2.241875380E-1
2.778332175E0,7.391469181E-2,-3.824016452E-1,-2.718350291E-1
2.780317413E0,7.696902007E-2,-4.068362415E-1,-2.895501256E-1
2.782331883E0,7.208210230E-2,-4.392121136E-1,-3.243694305E-1
2.784313430E0,6.902777404E-2,-4.538728893E-1,-3.359758854E-1
2.786328130E0,5.864306539E-2,-4.734205604E-1,-3.536909819E-1
2.788342292E0,5.253441259E-2,-4.825835526E-1,-3.597996235E-1
2.790325684E0,4.520402849E-2,-4.825835526E-1,-3.579670191E-1
2.792339923E0,4.153883830E-2,-4.764748812E-1,-3.488040566E-1
2.794323623E0,4.153883830E-2,-4.618141353E-1,-3.298672438E-1
2.796338093E0,4.153883830E-2,-4.544837475E-1,-3.176499307E-1
2.798323255E0,4.337143153E-2,-4.337143302E-1,-2.901609838E-1
2.800336186E0,4.276056588E-2,-4.098905921E-1,-2.559525371E-1
2.802321117E0,3.726277873E-2,-3.970624208E-1,-2.370157093E-1
2.804334663E0,2.626720630E-2,-3.707951903E-1,-2.021963894E-1
2.806317210E0,2.015855350E-2,-3.488040566E-1,-1.631010175E-1
2.808331603E0,1.893682219E-2,-3.402519524E-1,-1.472185254E-1
2.810315303E0,1.710422710E-2,-3.188716471E-1,-1.166752651E-1
2.812329157E0,1.282817032E-2,-3.017674387E-1,-1.026253626E-1
2.814344011E0,1.038470957E-2,-2.919935882E-1,-7.819075137E-2
2.816327019E0,5.497787148E-3,-2.822197378E-1,-5.864306539E-2
2.818341181E0,0.000000000E0,-2.755002379E-1,-5.009094998E-2
2.820325497E0,0.000000000E0,-2.620611787E-1,-3.787364438E-2
2.822340044E0,1.832595794E-3,-2.498438805E-1,-2.626720630E-2
2.824322821E0,3.665191587E-3,-2.419026345E-1,-2.076941915E-2
2.826337599E0,4.276056774E-3,-2.260201424E-1,-1.099557430E-2
2.828320991E0,7.941247895E-3,-2.095267773E-1,-6.108652335E-3
2.830334538E0,7.941247895E-3,-2.021963894E-1,-2.443460980E-3
2.832318161E0,5.497787148E-3,-1.826487035E-1,1.221730490E-3
2.834332708E0,3.054326167E-3,-1.612684280E-1,4.886921961E-3
2.836316716E0,-1.221730490E-3,-1.502728462E-1,7.330383174E-3
2.838330801E0,-1.038470957E-2,-1.264491081E-1,8.552113548E-3
2.840345347E0,-2.015855350E-2,-1.093448773E-1,1.282817032E-2
2.842329278E0,-2.687807009E-2,-9.896016866E-2,1.282817032E-2
2.844342286E0,-3.848451003E-2,-7.941248268E-2,2.382374369E-2
2.846325986E0,-4.520402849E-2,-6.963863969E-2,2.565634064E-2
2.848339841E0,-4.886921868E-2,-5.558873713E-2,3.298672289E-2
2.850324156E0,-5.009094998E-2,-4.092797264E-2,4.581489414E-2
2.852338549E0,-4.886921868E-2,-3.604105115E-2,5.253441259E-2
2.854321634E0,-4.642575979E-2,-2.993239649E-2,6.352998316E-2
2.856335796E0,-4.092797264E-2,-3.054326214E-2,7.941248268E-2
2.858319573E0,-3.787364438E-2,-3.298672289E-2,8.674286306E-2
2.860333427E0,-3.176499158E-2,-6.108652428E-2,1.087340117E-1
2.862316435E0,-3.176499158E-2,-6.108652428E-2,1.087340117E-1
2.864331212E0,-3.176499158E-2,-7.024950534E-2,1.154535338E-1
2.866345760E0,-2.932153270E-2,-9.346238524E-2,1.221730486E-1
2.868329152E0,-2.443460934E-2,-1.185078546E-1,1.246165112E-1
2.870344468E0,-2.138028294E-2,-1.325577646E-1,1.258382350E-1
2.872326630E0,-1.649336144E-2,-1.563815027E-1,1.215621829E-1
2.874341176E0,-9.773843922E-3,-1.875356287E-1,1.154535338E-1
2.876324569E0,-7.941247895E-3,-1.979203373E-1,1.099557430E-1
2.878339577E0,-5.497787148E-3,-2.217440903E-1,9.773843735E-2
2.880322739E0,-4.886921961E-3,-2.321287990E-1,8.735372871E-2
2.882338131E0,-2.443460980E-3,-2.486221492E-1,7.330382615E-2
2.884321139E0,-4.886921961E-3,-2.571742535E-1,5.497787148E-2
2.886334763E0,-6.108652451E-4,-2.614503205E-1,4.459316283E-2
2.888318386E0,-1.221730490E-3,-2.590068579E-1,2.687807009E-2
2.890332933E0,1.221730490E-3,-2.547308207E-1,9.162978269E-3
2.892315633E0,-6.108652451E-4,-2.504547536E-1,6.108652451E-4
2.894330410E0,-1.099557430E-2,-2.382374406E-1,-1.954768784E-2
2.896344880E0,-2.382374369E-2,-2.211332172E-1,-3.054326214E-2
2.898328042E0,-3.115412779E-2,-2.076941878E-1,-3.543018550E-2
2.900342819E0,-4.337143153E-2,-1.814269722E-1,-4.459316283E-2
2.902326519E0,-5.497787148E-2,-1.459967941E-1,-5.314527452E-2
2.904340604E0,-6.047565863E-2,-1.227839142E-1,-5.558873713E-2
2.906324381E0,-7.391469181E-2,-7.330382615E-2,-5.131268129E-2
2.908338466E0,-8.979719132E-2,-1.527163107E-2,-4.581489414E-2
2.910321859E0,-9.957103431E-2,1.954768784E-2,-4.092797264E-2
2.912335714E0,-1.166752651E-1,8.918632567E-2,-3.237585723E-2
2.914319722E0,-1.197295859E-1,1.215621829E-1,-2.504547499E-2
2.916333961E0,-1.288925707E-1,1.869247705E-1,-1.588249579E-2
2.918318892E0,-1.319468915E-1,2.516764700E-1,-6.108652451E-4
2.920331746E0,-1.337794960E-1,2.822197378E-1,3.665191587E-3
2.922346523E0,-1.362229437E-1,3.371976018E-1,1.527163107E-2
2.924329993E0,-1.392772794E-1,3.903428912E-1,2.687807009E-2
2.926343539E0,-1.398881376E-1,4.135557711E-1,3.115412779E-2
2.928327163E0,-1.386664063E-1,4.563163519E-1,4.276056588E-2
2.930341632E0,-1.374446750E-1,4.948008358E-1,5.192354694E-2
2.932325025E0,-1.350012124E-1,5.076290369E-1,5.497787148E-2
2.934339571E0,-1.282816976E-1,5.320636034E-1,5.864306539E-2
2.936323810E0,-1.215621829E-1,5.540547967E-1,6.169738993E-2
2.938336434E0,-1.191187203E-1,5.626068711E-1,6.291911751E-2
2.940321134E0,-1.148426682E-1,5.748242140E-1,6.108652428E-2
2.942337373E0,-1.105666086E-1,5.791002512E-1,5.803219974E-2
2.944318073E0,-1.093448773E-1,5.833762884E-1,5.619960278E-2
2.946332542E0,-1.081231460E-1,5.833762884E-1,5.497787148E-2
2.948316550E0,-1.069014147E-1,5.821545720E-1,4.948008433E-2
2.950330635E0,-1.099557430E-1,5.803219676E-1,4.459316283E-2
2.952345182E0,-1.130100712E-1,5.784893632E-1,4.031710699E-2
2.954328267E0,-1.136209369E-1,5.742133260E-1,3.970624134E-2
2.956342968E0,-1.166752651E-1,5.693264008E-1,4.092797264E-2
2.958326130E0,-1.197295859E-1,5.632177591E-1,3.604105115E-2
2.960340523E0,-1.172861308E-1,5.595525503E-1,3.726277873E-2
2.962325454E0,-1.172861308E-1,5.516113043E-1,3.787364438E-2
2.964338385E0,-1.185078546E-1,5.393940210E-1,4.337143153E-2
2.966322700E0,-1.191187203E-1,5.357288122E-1,4.520402849E-2
2.968335016E0,-1.178969890E-1,5.174028873E-1,4.520402849E-2
2.970319716E0,-1.203404516E-1,4.972442985E-1,4.948008433E-2
2.972334109E0,-1.221730486E-1,4.825835526E-1,5.070181563E-2
2.974317579E0,-1.240056455E-1,4.563163519E-1,5.558873713E-2
2.976331664E0,-1.246165112E-1,4.196644127E-1,5.619960278E-2
2.978345210E0,-1.246165112E-1,4.007275999E-1,5.803219974E-2
2.980330141E0,-1.258382350E-1,3.610213697E-1,5.803219974E-2
2.982345303E0,-1.233947799E-1,3.390302062E-1,5.986479297E-2
2.984327772E0,-1.215621829E-1,2.895501256E-1,5.864306539E-2
2.986341242E0,-1.209513173E-1,2.382374406E-1,5.681046844E-2
2.988325019E0,-1.197295859E-1,2.150245607E-1,5.558873713E-2
2.990339181E0,-1.185078546E-1,1.624901593E-1,5.009094998E-2
2.992322805E0,-1.130100712E-1,1.081231460E-1,4.825835302E-2
2.994337351E0,-1.117883399E-1,8.246681094E-2,4.581489414E-2
2.996320974E0,-1.069014147E-1,2.932153270E-2,3.787364438E-2
2.998336136E0,-1.038470939E-1,-2.199114859E-2,2.871066704E-2
3.000318529E0,-9.896016866E-2,-4.703662544E-2,2.809980139E-2
3.002333922E0,-9.468411654E-2,-9.896016866E-2,1.832595654E-2
3.004317007E0,-9.285151958E-2,-1.459967941E-1,1.160643995E-2
3.006329938E0,-8.857546002E-2,-1.710422635E-1,6.719517522E-3
3.008345100E0,-8.368854225E-2,-2.156354338E-1,-1.832595794E-3
3.010328108E0,-8.246681094E-2,-2.388483137E-1,-2.443460980E-3
3.012342270E0,-8.063421398E-2,-2.785545588E-1,-7.941247895E-3
3.014326355E0,-7.635815442E-2,-3.158173263E-1,-1.343903504E-2
3.016340440E0,-7.330382615E-2,-3.329215646E-1,-1.466076635E-2
3.018323525E0,-6.780604273E-2,-3.652974069E-1,-1.588249579E-2
3.020338071E0,-5.925392732E-2,-3.946189582E-1,-1.893682219E-2
3.022323926E0,-5.803219974E-2,-4.092797041E-1,-1.954768784E-2
3.024335241E0,-5.375614017E-2,-4.355469346E-1,-1.771509275E-2
3.026320172E0,-4.642575979E-2,-4.593706727E-1,-1.771509275E-2
3.028333488E0,-4.398229718E-2,-4.679227769E-1,-1.710422710E-2
3.030317496E0,-3.604105115E-2,-4.856378734E-1,-1.710422710E-2
3.032331889E0,-3.543018550E-2,-4.941899776E-1,-1.710422710E-2
3.034345204E0,-3.298672289E-2,-4.990769029E-1,-1.710422710E-2
3.036329212E0,-3.115412779E-2,-5.039638281E-1,-1.588249579E-2
3.038344297E0,-3.543018550E-2,-4.996877611E-1,-1.527163107E-2
3.040327075E0,-4.031710699E-2,-4.911356568E-1,-1.404990070E-2
3.042342159E0,-4.398229718E-2,-4.776966274E-1,-1.343903504E-2
3.044325475E0,-5.009094998E-2,-4.654793143E-1,-1.160643995E-2
3.046339715E0,-5.681046844E-2,-4.337143302E-1,-6.719517522E-3
3.048322492E0,-6.047565863E-2,-3.952298164E-1,-4.276056774E-3
3.050336577E0,-6.414084882E-2,-3.732386529E-1,-1.221730490E-3
3.052320662E0,-6.719517708E-2,-3.225368559E-1,4.276056774E-3
3.054335055E0,-7.024950534E-2,-2.693915665E-1,1.343903504E-2
3.056319063E0,-6.902777404E-2,-2.412917763E-1,1.710422710E-2
3.058331994E0,-6.658431143E-2,-1.863138974E-1,2.626720630E-2
3.060347386E0,-6.719517708E-2,-1.307251602E-1,3.970624134E-2
3.062331164E0,-6.597344577E-2,-1.038470939E-1,4.581489414E-2
3.064345018E0,-6.719517708E-2,-5.436700583E-2,5.253441259E-2
3.066328410E0,-6.352998316E-2,-9.773843922E-3,6.597344577E-2
3.068342265E0,-6.414084882E-2,1.038470957E-2,6.902777404E-2
3.070325965E0,-6.352998316E-2,4.276056588E-2,8.124507964E-2
3.072339742E0,-6.169738993E-2,7.147123665E-2,8.796459436E-2
3.074323519E0,-6.230825558E-2,8.429940045E-2,8.979719132E-2
3.076337989E0,-5.864306539E-2,1.038470939E-1,9.651670605E-2
3.078322612E0,-5.742133409E-2,1.105666086E-1,9.651670605E-2
3.080335851E0,-5.497787148E-2,1.203404516E-1,1.032362282E-1
3.082320474E0,-4.764748737E-2,1.282816976E-1,1.007927656E-1
3.084334944E0,-4.642575979E-2,1.270599663E-1,1.007927656E-1
3.086318029E0,-4.337143153E-2,1.295034289E-1,1.001819000E-1
3.088331806E0,-3.970624134E-2,1.258382350E-1,9.529497474E-2
3.090345431E0,-4.092797264E-2,1.252273768E-1,9.468411654E-2
3.092329669E0,-3.726277873E-2,1.185078546E-1,8.979719132E-2
3.094344523E0,-3.543018550E-2,1.136209369E-1,8.307767659E-2
3.096326608E0,-3.298672289E-2,1.093448773E-1,8.002334833E-2
3.098341386E0,-2.504547499E-2,1.014036313E-1,7.391469181E-2
3.100325086E0,-1.588249579E-2,8.307767659E-2,5.925392732E-2
3.102337709E0,-1.588249579E-2,8.002334833E-2,5.497787148E-2
3.104323871E0,-1.588249579E-2,8.002334833E-2,5.497787148E-2
3.106337187E0,-1.038470957E-2,7.208210230E-2,4.825835302E-2
3.108320810E0,-1.038470957E-2,6.719517708E-2,4.703662544E-2
3.110334357E0,-5.497787148E-3,5.314527452E-2,4.092797264E-2
3.112318672E0,-3.665191587E-3,4.825835302E-2,3.848451003E-2
3.114331603E0,-2.443460980E-3,3.970624134E-2,3.298672289E-2
3.116346688E0,1.832595794E-3,2.382374369E-2,3.054326214E-2
3.118330696E0,1.832595794E-3,1.832595654E-2,3.176499158E-2
3.120344551E0,4.276056774E-3,6.108652335E-3,2.687807009E-2
3.122329559E0,3.054326167E-3,-8.552113548E-3,2.382374369E-2
3.124342182E0,2.443460980E-3,-1.466076635E-2,2.504547499E-2
3.126326498E0,3.054326167E-3,-2.687807009E-2,2.443460934E-2
3.128340044E0,4.276056774E-3,-3.848451003E-2,2.443460934E-2
3.130324975E0,3.665191587E-3,-4.276056588E-2,2.443460934E-2
3.132338137E0,4.886921961E-3,-5.070181563E-2,2.565634064E-2
3.134321607E0,2.443460980E-3,-5.681046844E-2,2.687807009E-2
3.136335385E0,2.443460980E-3,-5.742133409E-2,2.748893574E-2
3.138319393E0,2.443460980E-3,-6.475171447E-2,2.687807009E-2
3.140334247E0,1.832595794E-3,-6.536258012E-2,2.993239649E-2
3.142317870E0,2.443460980E-3,-6.841690838E-2,3.176499158E-2
3.144332417E0,1.832595794E-3,-7.086037099E-2,3.359758854E-2
3.146345040E0,1.832595794E-3,-7.086037099E-2,3.726277873E-2
3.148329971E0,6.108652451E-4,-7.024950534E-2,3.970624134E-2
3.150343825E0,3.665191587E-3,-7.513642311E-2,4.153883830E-2
3.152327218E0,2.443460980E-3,-7.452555746E-2,4.276056588E-2
3.154340765E0,5.497787148E-3,-7.391469181E-2,4.520402849E-2
3.156325003E0,4.886921961E-3,-7.513642311E-2,4.948008433E-2
3.158339242E0,4.276056774E-3,-7.574728876E-2,5.070181563E-2
3.160323173E0,7.330383174E-3,-7.757988572E-2,5.009094998E-2
3.162337950E0,9.162978269E-3,-7.696902007E-2,5.375614017E-2
3.164321035E0,8.552113548E-3,-7.452555746E-2,5.436700583E-2
3.166334966E0,1.099557430E-2,-7.391469181E-2,5.436700583E-2
3.168318667E0,9.162978269E-3,-7.147123665E-2,5.619960278E-2
3.170332521E0,8.552113548E-3,-7.208210230E-2,5.619960278E-2
3.172346606E0,6.719517522E-3,-7.024950534E-2,5.436700583E-2
3.174330691E0,6.108652335E-3,-7.024950534E-2,5.803219974E-2
3.176344238E0,6.719517522E-3,-6.841690838E-2,5.803219974E-2
3.178327630E0,5.497787148E-3,-6.597344577E-2,5.803219974E-2
3.180342947E0,4.276056774E-3,-6.475171447E-2,5.864306539E-2
3.182327031E0,7.330383174E-3,-6.169738993E-2,6.169738993E-2
3.184339347E0,9.773843922E-3,-5.925392732E-2,6.291911751E-2
3.186323586E0,1.038470957E-2,-5.986479297E-2,6.169738993E-2
3.188337825E0,1.099557430E-2,-5.619960278E-2,6.352998316E-2
3.190322064E0,1.160643995E-2,-5.619960278E-2,6.475171447E-2
3.192336302E0,1.038470957E-2,-5.681046844E-2,6.719517708E-2
3.194319387E0,1.160643995E-2,-5.375614017E-2,6.536258012E-2
3.196333472E0,1.160643995E-2,-5.131268129E-2,6.780604273E-2
3.198318096E0,9.773843922E-3,-4.948008433E-2,6.841690838E-2
3.200331719E0,1.038470957E-2,-4.581489414E-2,6.841690838E-2
3.202346804E0,1.038470957E-2,-4.398229718E-2,7.086037099E-2
3.204329196E0,1.221730467E-2,-4.153883830E-2,6.963863969E-2
3.206343974E0,1.099557430E-2,-3.970624134E-2,6.963863969E-2
3.208326828E0,9.162978269E-3,-3.420845419E-2,7.086037099E-2
3.210341297E0,9.773843922E-3,-3.420845419E-2,7.024950534E-2
3.212325228E0,1.038470957E-2,-3.359758854E-2,7.147123665E-2
3.214338467E0,7.330383174E-3,-3.176499158E-2,7.147123665E-2
3.216322783E0,7.330383174E-3,-2.993239649E-2,6.963863969E-2
3.218336406E0,4.276056774E-3,-2.748893574E-2,7.086037099E-2
3.220321337E0,6.108652335E-3,-2.809980139E-2,6.902777404E-2
3.222336116E0,4.276056774E-3,-2.565634064E-2,7.024950534E-2
3.224318507E0,1.221730490E-3,-2.504547499E-2,7.147123665E-2
3.226332747E0,5.497787148E-3,-2.809980139E-2,6.902777404E-2
3.228345986E0,6.108652451E-4,-2.504547499E-2,6.841690838E-2
3.230330302E0,-6.108652451E-4,-2.626720630E-2,6.658431143E-2
3.232344079E0,-6.108652451E-4,-2.565634064E-2,6.963863969E-2
3.234328164E0,-4.276056774E-3,-2.565634064E-2,6.902777404E-2
3.236342326E0,-4.276056774E-3,-2.565634064E-2,6.841690838E-2
3.238326334E0,-4.886921961E-3,-2.871066704E-2,6.963863969E-2
3.240340726E0,-7.941247895E-3,-2.871066704E-2,6.780604273E-2
3.242324811E0,-9.162978269E-3,-2.932153270E-2,6.963863969E-2
3.244338588E0,-1.038470957E-2,-2.871066704E-2,6.963863969E-2
3.246321442E0,-1.527163107E-2,-3.054326214E-2,6.841690838E-2
3.248335604E0,-1.160643995E-2,-2.932153270E-2,6.780604273E-2
3.250318997E0,-1.588249579E-2,-2.993239649E-2,6.902777404E-2
3.252334082E0,-1.832595654E-2,-2.809980139E-2,7.024950534E-2
3.254316782E0,-1.771509275E-2,-2.687807009E-2,6.902777404E-2
3.256331636E0,-2.015855350E-2,-2.748893574E-2,7.147123665E-2
3.258345183E0,-2.504547499E-2,-2.626720630E-2,6.780604273E-2
3.260330422E0,-2.504547499E-2,-2.687807009E-2,6.780604273E-2
3.262345430E0,-2.504547499E-2,-2.443460934E-2,6.414084882E-2
3.264326130E0,-3.054326214E-2,-1.893682219E-2,6.719517708E-2
3.266341447E0,-2.932153270E-2,-1.771509275E-2,6.536258012E-2
3.268325224E0,-2.932153270E-2,-1.466076635E-2,6.352998316E-2
3.270339309E0,-2.993239649E-2,-1.160643995E-2,6.108652428E-2
3.272322471E0,-2.932153270E-2,-9.162978269E-3,6.169738993E-2
3.274336940E0,-2.748893574E-2,-6.719517522E-3,5.619960278E-2
3.276320640E0,-2.932153270E-2,-3.665191587E-3,5.314527452E-2
3.278335725E0,-2.626720630E-2,-6.108652451E-4,5.314527452E-2
3.280318118E0,-2.260201424E-2,5.497787148E-3,4.948008433E-2
3.282333588E0,-2.138028294E-2,9.162978269E-3,4.764748737E-2
3.284316596E0,-2.260201424E-2,1.160643995E-2,4.092797264E-2
3.286330834E0,-2.199114859E-2,1.771509275E-2,3.787364438E-2
3.288344689E0,-2.199114859E-2,2.138028294E-2,3.237585723E-2
3.290328081E0,-2.443460934E-2,2.871066704E-2,2.993239649E-2
3.292341858E0,-2.565634064E-2,3.543018550E-2,2.626720630E-2
3.294326174E0,-2.443460934E-2,3.787364438E-2,2.321287990E-2
3.296340028E0,-2.504547499E-2,4.581489414E-2,2.382374369E-2
3.298323421E0,-2.626720630E-2,5.192354694E-2,2.076941915E-2
3.300337967E0,-2.748893574E-2,5.436700583E-2,2.076941915E-2
3.302322206E0,-2.504547499E-2,5.986479297E-2,2.015855350E-2
3.304335522E0,-2.565634064E-2,6.047565863E-2,2.015855350E-2
3.306319761E0,-2.443460934E-2,6.414084882E-2,2.199114859E-2
3.308333692E0,-2.809980139E-2,6.475171447E-2,2.382374369E-2
3.310317084E0,-2.871066704E-2,6.536258012E-2,2.687807009E-2
3.312331478E0,-2.748893574E-2,6.597344577E-2,3.054326214E-2
3.314345947E0,-2.687807009E-2,6.536258012E-2,3.115412779E-2
3.316329648E0,-2.565634064E-2,6.536258012E-2,3.237585723E-2
3.318343810E0,-2.565634064E-2,6.169738993E-2,3.543018550E-2
3.320327587E0,-2.321287990E-2,5.619960278E-2,3.787364438E-2
3.322342672E0,-2.321287990E-2,5.375614017E-2,3.726277873E-2
3.324324757E0,-2.199114859E-2,4.948008433E-2,4.153883830E-2
3.326339226E0,-2.443460934E-2,4.642575979E-2,4.031710699E-2
3.328323542E0,-2.321287990E-2,4.153883830E-2,3.970624134E-2
3.330337088E0,-2.565634064E-2,3.665191308E-2,4.153883830E-2
3.332320481E0,-2.382374369E-2,3.298672289E-2,4.092797264E-2
3.334334643E0,-2.260201424E-2,3.115412779E-2,4.153883830E-2
3.336318112E0,-2.138028294E-2,2.626720630E-2,4.031710699E-2
3.338332197E0,-2.015855350E-2,2.260201424E-2,3.909537569E-2
3.340346051E0,-1.710422710E-2,1.343903504E-2,4.031710699E-2
3.342329136E0,-1.893682219E-2,1.527163107E-2,3.604105115E-2
3.344345144E0,-1.893682219E-2,1.527163107E-2,3.604105115E-2
3.346328306E0,-1.710422710E-2,5.497787148E-3,3.481931984E-2
3.348342776E0,-1.710422710E-2,1.221730490E-3,3.298672289E-2
3.350325861E0,-1.649336144E-2,1.832595794E-3,3.359758854E-2
3.352340023E0,-1.832595654E-2,-5.497787148E-3,3.115412779E-2
3.354323415E0,-1.649336144E-2,-9.162978269E-3,3.054326214E-2
3.356338117E0,-1.466076635E-2,-1.160643995E-2,3.115412779E-2
3.358322125E0,-1.404990070E-2,-1.466076635E-2,3.115412779E-2
3.360336286E0,-9.773843922E-3,-1.221730467E-2,3.054326214E-2
3.362320602E0,-9.162978269E-3,-1.160643995E-2,3.054326214E-2
3.364334764E0,-8.552113548E-3,-8.552113548E-3,3.359758854E-2
3.366317926E0,-7.330383174E-3,-8.552113548E-3,3.359758854E-2
3.368331395E0,-1.282817032E-2,-6.719517522E-3,3.604105115E-2
3.370345557E0,-1.343903504E-2,-6.108652451E-4,3.543018550E-2
3.372329873E0,-9.773843922E-3,-1.221730490E-3,3.848451003E-2
3.374343419E0,-1.038470957E-2,4.276056774E-3,3.970624134E-2
3.376326581E0,-8.552113548E-3,1.038470957E-2,3.909537569E-2
3.378340435E0,-6.719517522E-3,1.038470957E-2,4.031710699E-2
3.380324982E0,-6.719517522E-3,1.038470957E-2,4.337143153E-2
3.382340144E0,-6.719517522E-3,1.710422710E-2,4.337143153E-2
3.384322844E0,-6.108652335E-3,1.710422710E-2,4.337143153E-2
3.386337314E0,-1.832595794E-3,1.771509275E-2,4.581489414E-2
3.388321091E0,-1.832595794E-3,2.260201424E-2,4.581489414E-2
3.390335560E0,-2.443460980E-3,2.504547499E-2,4.825835302E-2
3.392318338E0,-1.221730490E-3,2.687807009E-2,4.581489414E-2
3.394332730E0,6.108652451E-4,3.176499158E-2,4.703662544E-2
3.396347277E0,1.221730490E-3,3.298672289E-2,4.825835302E-2
3.398330669E0,3.054326167E-3,3.665191308E-2,4.520402849E-2
3.400344524E0,4.886921961E-3,3.787364438E-2,4.398229718E-2
3.402328763E0,7.330383174E-3,3.909537569E-2,4.459316283E-2
3.404343617E0,7.330383174E-3,4.092797264E-2,4.153883830E-2
3.406326395E0,8.552113548E-3,3.970624134E-2,4.153883830E-2
3.408340864E0,6.719517522E-3,4.276056588E-2,4.092797264E-2
3.410323949E0,3.665191587E-3,4.398229718E-2,4.153883830E-2
3.412338111E0,2.443460980E-3,4.398229718E-2,3.726277873E-2
3.414321504E0,3.054326167E-3,4.398229718E-2,3.543018550E-2
3.416335665E0,6.108652335E-3,4.398229718E-2,3.237585723E-2
3.418318366E0,6.108652335E-3,4.337143153E-2,3.298672289E-2
3.420334451E0,9.162978269E-3,4.276056588E-2,3.176499158E-2
3.422318689E0,1.282817032E-2,4.092797264E-2,3.176499158E-2
3.424331390E0,1.160643995E-2,4.031710699E-2,3.176499158E-2
3.426346475E0,8.552113548E-3,3.787364438E-2,3.359758854E-2
3.428329483E0,4.886921961E-3,3.420845419E-2,3.359758854E-2
3.430343106E0,4.276056774E-3,3.298672289E-2,3.298672289E-2
3.432327037E0,2.443460980E-3,3.115412779E-2,3.420845419E-2
3.434340891E0,7.330383174E-3,2.748893574E-2,3.604105115E-2
3.436324668E0,6.719517522E-3,2.809980139E-2,3.481931984E-2
3.438339138E0,9.162978269E-3,2.565634064E-2,3.665191308E-2
3.440323454E0,1.099557430E-2,2.565634064E-2,3.909537569E-2
3.442337231E0,1.221730467E-2,2.321287990E-2,3.726277873E-2
3.444320931E0,1.282817032E-2,2.199114859E-2,3.848451003E-2
3.446335402E0,1.160643995E-2,1.954768784E-2,4.092797264E-2
3.448318487E0,8.552113548E-3,1.832595654E-2,3.970624134E-2
3.450332956E0,5.497787148E-3,1.404990070E-2,4.092797264E-2
3.452346580E0,3.054326167E-3,1.404990070E-2,3.848451003E-2
3.454330203E0,5.497787148E-3,1.343903504E-2,3.909537569E-2
3.456344673E0,3.665191587E-3,9.773843922E-3,3.665191308E-2
3.458327527E0,3.054326167E-3,8.552113548E-3,3.726277873E-2
3.460342612E0,4.886921961E-3,6.719517522E-3,3.543018550E-2
3.462326927E0,5.497787148E-3,3.054326167E-3,3.237585723E-2
3.464340089E0,4.886921961E-3,2.443460980E-3,3.115412779E-2
3.466323790E0,3.665191587E-3,3.054326167E-3,2.871066704E-2
3.468338259E0,3.054326167E-3,3.665191587E-3,2.871066704E-2
3.470322036E0,1.221730490E-3,4.276056774E-3,2.443460934E-2
3.472335583E0,-6.108652451E-4,8.552113548E-3,1.954768784E-2
3.474319514E0,-1.832595794E-3,1.160643995E-2,1.893682219E-2
3.476333753E0,1.221730490E-3,1.404990070E-2,1.466076635E-2
3.478318607E0,5.497787148E-3,1.771509275E-2,7.941247895E-3
3.480331307E0,4.276056774E-3,2.260201424E-2,6.108652335E-3
3.482346623E0,7.330383174E-3,2.565634064E-2,0.000000000E0
3.484330092E0,7.330383174E-3,3.054326214E-2,-6.719517522E-3
3.486343331E0,6.108652335E-3,3.237585723E-2,-9.162978269E-3
3.488327339E0,6.719517522E-3,4.031710699E-2,-1.649336144E-2
3.490341194E0,5.497787148E-3,4.703662544E-2,-2.138028294E-2
3.492324895E0,7.330383174E-3,5.009094998E-2,-2.076941915E-2
3.494338672E0,7.330383174E-3,5.497787148E-2,-2.321287990E-2
3.496322372E0,8.552113548E-3,6.230825558E-2,-2.871066704E-2
3.498336303E0,8.552113548E-3,6.780604273E-2,-3.054326214E-2
3.500320850E0,1.282817032E-2,7.574728876E-2,-3.420845419E-2
3.502336550E0,1.221730467E-2,8.491026610E-2,-3.604105115E-2
3.504317789E0,1.466076635E-2,8.979719132E-2,-3.359758854E-2
3.506332643E0,1.527163107E-2,9.529497474E-2,-3.420845419E-2
3.508346728E0,1.588249579E-2,1.044579595E-1,-3.359758854E-2
3.510330428E0,1.588249579E-2,1.142318025E-1,-3.176499158E-2
3.512344898E0,1.649336144E-2,1.240056455E-1,-3.237585723E-2
3.514328983E0,1.649336144E-2,1.307251602E-1,-3.176499158E-2
3.516342145E0,1.832595654E-2,1.417207420E-1,-3.054326214E-2
3.518327153E0,1.893682219E-2,1.490511149E-1,-2.932153270E-2
3.520340007E0,1.832595654E-2,1.527163088E-1,-2.748893574E-2
3.522324707E0,2.138028294E-2,1.624901593E-1,-2.748893574E-2
3.524339484E0,2.443460934E-2,1.698205322E-1,-2.687807009E-2
3.526321646E0,2.321287990E-2,1.704314053E-1,-2.687807009E-2
3.528335731E0,2.382374369E-2,1.765400618E-1,-2.687807009E-2
3.530320354E0,2.626720630E-2,1.826487035E-1,-2.809980139E-2
3.532333055E0,2.748893574E-2,1.857030392E-1,-2.809980139E-2
3.534348141E0,3.237585723E-2,1.924225539E-1,-2.809980139E-2
3.536330918E0,3.115412779E-2,1.930334121E-1,-2.871066704E-2
3.538344695E0,3.298672289E-2,2.015855312E-1,-2.809980139E-2
3.540329319E0,4.031710699E-2,2.070833147E-1,-2.687807009E-2
3.542344480E0,4.031710699E-2,2.089159191E-1,-2.504547499E-2
3.544326950E0,4.092797264E-2,2.083050460E-1,-2.443460934E-2
3.546341419E0,3.970624134E-2,2.150245607E-1,-2.504547499E-2
3.548325427E0,3.909537569E-2,2.168571651E-1,-2.382374369E-2
3.550338282E0,3.848451003E-2,2.156354338E-1,-2.382374369E-2
3.552322290E0,3.543018550E-2,2.144137025E-1,-2.199114859E-2
3.554336759E0,3.543018550E-2,2.101376504E-1,-2.199114859E-2
3.556320459E0,4.031710699E-2,2.009746730E-1,-2.199114859E-2
3.558335621E0,4.886921868E-2,1.905899495E-1,-2.260201424E-2
3.560318091E0,5.009094998E-2,1.850921661E-1,-1.954768784E-2
3.562332868E0,5.314527452E-2,1.716531366E-1,-1.649336144E-2
3.564347645E0,5.375614017E-2,1.576032341E-1,-1.527163107E-2
3.566330346E0,5.436700583E-2,1.502728462E-1,-1.282817032E-2
3.568345200E0,5.192354694E-2,1.331686229E-1,-9.773843922E-3
3.570327669E0,5.253441259E-2,1.282816976E-1,-9.773843922E-3
3.572341831E0,5.314527452E-2,1.123992056E-1,-6.719517522E-3
3.574326070E0,5.619960278E-2,9.590584040E-2,-4.886921961E-3
3.576339924E0,5.864306539E-2,8.613199741E-2,-4.886921961E-3
3.578323317E0,6.108652428E-2,6.902777404E-2,-1.832595794E-3
3.580337480E0,7.086037099E-2,3.909537569E-2,-3.665191587E-3
3.582319949E0,6.902777404E-2,3.420845419E-2,-1.832595794E-3
3.584332880E0,6.902777404E-2,2.687807009E-2,-1.832595794E-3
3.586350196E0,6.963863969E-2,2.015855350E-2,-3.054326167E-3
3.588332973E0,6.963863969E-2,1.404990070E-2,-4.886921961E-3
3.590347443E0,6.475171447E-2,7.330383174E-3,-9.162978269E-3
3.592330835E0,5.864306539E-2,-6.108652451E-4,-1.404990070E-2
3.594345920E0,5.253441259E-2,-1.832595794E-3,-1.649336144E-2
3.596329621E0,4.642575979E-2,-3.665191587E-3,-2.138028294E-2
3.598344321E0,4.276056588E-2,-5.497787148E-3,-2.382374369E-2
3.600327406E0,3.787364438E-2,-6.108652335E-3,-2.626720630E-2
3.602341568E0,3.176499158E-2,-3.665191587E-3,-2.993239649E-2
3.604324729E0,2.932153270E-2,-4.276056774E-3,-2.809980139E-2
3.606339430E0,2.321287990E-2,-1.221730490E-3,-2.626720630E-2
3.608322284E0,1.466076635E-2,3.054326167E-3,-2.076941915E-2
3.610337061E0,1.404990070E-2,6.108652335E-3,-2.076941915E-2
3.612320992E0,7.941247895E-3,7.330383174E-3,-1.343903504E-2
3.614334231E0,7.941247895E-3,9.162978269E-3,-3.054326167E-3
3.616348470E0,8.552113548E-3,7.330383174E-3,3.665191587E-3
3.618332093E0,9.162978269E-3,1.832595794E-3,9.773843922E-3
3.620346641E0,1.221730467E-2,-2.443460980E-3,1.893682219E-2
3.622331571E0,1.221730467E-2,-7.330383174E-3,2.443460934E-2
3.624345041E0,1.343903504E-2,-1.038470957E-2,3.298672289E-2
3.626328126E0,1.771509275E-2,-1.466076635E-2,4.214970022E-2
3.628342288E0,2.015855350E-2,-2.015855350E-2,4.703662544E-2
3.630325758E0,1.832595654E-2,-2.199114859E-2,5.558873713E-2
3.632340150E0,2.015855350E-2,-2.382374369E-2,5.986479297E-2
3.634323312E0,2.382374369E-2,-2.871066704E-2,6.414084882E-2
3.636337474E0,2.748893574E-2,-4.031710699E-2,6.902777404E-2
3.638322328E0,3.420845419E-2,-4.459316283E-2,6.902777404E-2
3.640336490E0,4.398229718E-2,-6.047565863E-2,7.513642311E-2
3.642320498E0,5.681046844E-2,-8.246681094E-2,7.696902007E-2
3.644334352E0,6.230825558E-2,-9.529497474E-2,7.880161703E-2
3.646348206E0,7.513642311E-2,-1.172861308E-1,7.941248268E-2
3.648331060E0,9.040805697E-2,-1.447750628E-1,7.696902007E-2
3.650345453E0,1.007927656E-1,-1.557706445E-1,7.391469181E-2
3.652328923E0,1.111774743E-1,-1.826487035E-1,6.414084882E-2
3.654343315E0,1.160643995E-1,-2.125810981E-1,4.948008433E-2
3.656327092E0,1.160643995E-1,-2.247984111E-1,3.970624134E-2
3.658340331E0,1.117883399E-1,-2.492330223E-1,2.076941915E-2
3.660325262E0,1.044579595E-1,-2.718350291E-1,-3.665191587E-3
3.662340886E0,9.957103431E-2,-2.773328125E-1,-1.343903504E-2
3.664322201E0,8.979719132E-2,-2.919935882E-1,-3.787364438E-2
3.666336903E0,8.491026610E-2,-2.981022298E-1,-4.886921868E-2
3.668320064E0,7.819075137E-2,-3.017674387E-1,-7.330382615E-2
3.670334765E0,6.902777404E-2,-2.956587672E-1,-9.773843735E-2
3.672318465E0,6.352998316E-2,-2.919935882E-1,-1.093448773E-1
3.674332396E0,5.070181563E-2,-2.761110961E-1,-1.301143020E-1
3.676346481E0,3.543018550E-2,-2.565633953E-1,-1.496619880E-1
3.678330874E0,2.748893574E-2,-2.400700450E-1,-1.588249654E-1
3.680344728E0,1.038470957E-2,-2.083050460E-1,-1.747074574E-1
3.682328736E0,-1.221730490E-3,-1.685988009E-1,-1.857030392E-1
3.684342821E0,-9.162978269E-3,-1.453859210E-1,-1.887573600E-1
3.686326290E0,-1.893682219E-2,-9.834930301E-2,-1.960877478E-1
3.688340145E0,-2.504547499E-2,-5.070181563E-2,-1.997529417E-1
3.690323460E0,-2.321287990E-2,-2.382374369E-2,-1.991420686E-1
3.692337314E0,-2.748893574E-2,3.054326214E-2,-1.936442852E-1
3.694320784E0,-2.809980139E-2,8.246681094E-2,-1.881465018E-1
3.696335177E0,-2.932153270E-2,1.105666086E-1,-1.850921661E-1
3.698319185E0,-2.932153270E-2,1.582140923E-1,-1.740965992E-1
3.700333423E0,-3.054326214E-2,1.832595766E-1,-1.673770845E-1
3.702348124E0,-3.359758854E-2,2.272418737E-1,-1.527163088E-1
3.704330978E0,-3.420845419E-2,2.718350291E-1,-1.386664063E-1
3.706346294E0,-3.481931984E-2,2.889392674E-1,-1.264491081E-1
3.708328840E0,-3.176499158E-2,3.249803185E-1,-1.075122803E-1
3.710343311E0,-2.932153270E-2,3.591887653E-1,-8.552113175E-2
3.712326625E0,-2.565634064E-2,3.750712574E-1,-7.452555746E-2
3.714340480E0,-1.282817032E-2,4.031710625E-1,-5.009094998E-2
3.716324565E0,-3.665191587E-3,4.214970171E-1,-2.748893574E-2
3.718339343E0,6.108652335E-3,4.288274050E-1,-1.221730467E-2
3.720322966E0,1.527163107E-2,4.386012554E-1,1.160643995E-2
3.722338666E0,2.565634064E-2,4.471533597E-1,3.665191308E-2
3.724320290E0,2.748893574E-2,4.483750761E-1,5.070181563E-2
3.726334682E0,3.298672289E-2,4.526511431E-1,7.635815442E-2
3.728348844E0,3.054326214E-2,4.514294267E-1,9.957103431E-2
3.730332544E0,2.809980139E-2,4.502076805E-1,1.117883399E-1
3.732346706E0,2.015855350E-2,4.453207552E-1,1.319468915E-1
3.734330484E0,1.099557430E-2,4.447098970E-1,1.392772794E-1
3.736344569E0,-6.108652451E-4,4.337143302E-1,1.594358236E-1
3.738327346E0,-5.497787148E-3,4.214970171E-1,1.734857261E-1
3.740343123E0,-4.276056774E-3,4.135557711E-1,1.765400618E-1
3.742327669E0,-2.443460980E-3,3.940080702E-1,1.832595766E-1
3.744339754E0,6.108652335E-3,3.622430861E-1,1.802052408E-1
3.746323455E0,9.162978269E-3,3.457497358E-1,1.789835095E-1
3.748337847E0,1.221730467E-2,3.054326177E-1,1.649336219E-1
3.750321625E0,9.162978269E-3,2.583959997E-1,1.472185254E-1
3.752336094E0,1.160643995E-2,2.333505303E-1,1.368338168E-1
3.754319102E0,7.330383174E-3,1.783726513E-1,1.136209369E-1
3.756333650E0,6.719517522E-3,1.191187203E-1,8.857546002E-2
3.758347811E0,6.719517522E-3,8.735372871E-2,7.208210230E-2
3.760330589E0,4.276056774E-3,2.260201424E-2,4.337143153E-2
3.762346904E0,4.276056774E-3,-4.031710699E-2,1.466076635E-2
3.764329605E0,3.054326167E-3,-7.147123665E-2,2.443460980E-3
3.766342843E0,7.330383174E-3,-1.264491081E-1,-2.871066704E-2
3.768326851E0,1.527163107E-2,-1.502728462E-1,-4.092797264E-2
3.770341090E0,2.871066704E-2,-1.930334121E-1,-6.414084882E-2
3.772324714E0,4.153883830E-2,-2.272418737E-1,-8.368854225E-2
3.774339568E0,4.398229718E-2,-2.400700450E-1,-9.224065393E-2
3.776321730E0,4.398229718E-2,-2.559525371E-1,-1.032362282E-1
3.778335815E0,3.543018550E-2,-2.614503205E-1,-1.123992056E-1
3.780320746E0,2.871066704E-2,-2.620611787E-1,-1.160643995E-1
3.782335600E0,1.710422710E-2,-2.510656118E-1,-1.209513173E-1
3.784318992E0,9.773843922E-3,-2.339613885E-1,-1.215621829E-1
3.786333154E0,5.497787148E-3,-2.199114859E-1,-1.185078546E-1
3.788346008E0,-3.665191587E-3,-1.875356287E-1,-1.123992056E-1
3.790330401E0,-9.162978269E-3,-1.539380401E-1,-1.075122803E-1
3.792344255E0,-1.099557430E-2,-1.319468915E-1,-1.020144969E-1
3.794328571E0,-1.954768784E-2,-9.285151958E-2,-9.590584040E-2
3.796342117E0,-2.565634064E-2,-4.948008433E-2,-8.979719132E-2
3.798326048E0,-3.420845419E-2,-2.626720630E-2,-8.063421398E-2
3.800340211E0,-3.909537569E-2,1.588249579E-2,-7.024950534E-2
3.802324296E0,-4.214970022E-2,4.031710699E-2,-6.414084882E-2
3.804338381E0,-4.825835302E-2,8.124507964E-2,-5.436700583E-2
3.806322389E0,-5.009094998E-2,1.288925707E-1,-4.153883830E-2
3.808335936E0,-5.070181563E-2,1.508837193E-1,-3.787364438E-2
3.810319713E0,-5.375614017E-2,1.893682331E-1,-2.382374369E-2
3.812333259E0,-5.803219974E-2,2.272418737E-1,-1.466076635E-2
3.814347421E0,-6.047565863E-2,2.467895597E-1,-9.162978269E-3
3.816331352E0,-6.475171447E-2,2.840523422E-1,-6.108652451E-4
3.818344668E0,-6.780604273E-2,3.188716471E-1,1.160643995E-2
3.820328676E0,-7.574728876E-2,3.683517575E-1,2.809980139E-2
3.822341838E0,-8.002334833E-2,3.824016452E-1,3.481931984E-2
3.824327692E0,-8.491026610E-2,4.001167417E-1,3.726277873E-2
3.826341623E0,-8.918632567E-2,4.141666293E-1,4.153883830E-2
3.828324708E0,-9.651670605E-2,4.459316432E-1,5.314527452E-2
3.830339408E0,-1.001819000E-1,4.630358517E-1,5.681046844E-2
3.832322801E0,-1.050688252E-1,4.917465150E-1,6.963863969E-2
3.834336424E0,-1.075122803E-1,5.149593949E-1,8.063421398E-2
3.836320355E0,-1.105666086E-1,5.265658498E-1,8.552113175E-2
3.838335210E0,-1.160643995E-1,5.412266254E-1,1.020144969E-1
3.840348371E0,-1.191187203E-1,5.528330207E-1,1.111774743E-1
3.842332764E0,-1.215621829E-1,5.552765131E-1,1.185078546E-1
3.844346927E0,-1.276708394E-1,5.522221923E-1,1.325577646E-1
3.846330243E0,-1.325577646E-1,5.436700583E-1,1.478293836E-1
3.848344712E0,-1.337794960E-1,5.363397002E-1,1.563815027E-1
3.850327797E0,-1.325577646E-1,5.186246037E-1,1.698205322E-1
3.852342343E0,-1.258382350E-1,4.929682612E-1,1.887573600E-1
3.854325659E0,-1.209513173E-1,4.801400900E-1,1.979203373E-1
3.856340513E0,-1.203404516E-1,4.495968223E-1,2.107485086E-1
3.858322367E0,-1.209513173E-1,4.147774875E-1,2.260201424E-1
3.860337375E0,-1.240056455E-1,3.976732790E-1,2.290744632E-1
3.862322383E0,-1.270599663E-1,3.579670191E-1,2.345722616E-1
3.864335545E0,-1.301143020E-1,3.359758854E-1,2.388483137E-1
3.866319630E0,-1.258382350E-1,2.864958048E-1,2.400700450E-1
3.868333484E0,-1.093448773E-1,2.290744632E-1,2.315179259E-1
3.870347262E0,-9.957103431E-2,1.960877478E-1,2.266310006E-1
3.872331039E0,-7.452555746E-2,1.295034289E-1,2.089159191E-1
3.874345739E0,-4.214970022E-2,5.070181563E-2,1.857030392E-1
3.876328901E0,-2.809980139E-2,1.038470957E-2,1.710422635E-1
3.878343909E0,-3.054326167E-3,-7.086037099E-2,1.374446750E-1
3.880326456E0,1.343903504E-2,-1.539380401E-1,1.007927656E-1
3.882342079E0,2.076941915E-2,-1.954768747E-1,8.185594529E-2
3.884325779E0,3.054326214E-2,-2.742784917E-1,3.848451003E-2
3.886339326E0,3.237585723E-2,-3.494149148E-1,-3.054326167E-3
3.888322488E0,2.993239649E-2,-3.854559660E-1,-2.199114859E-2
3.890336881E0,3.054326214E-2,-4.495968223E-1,-6.169738993E-2
3.892320889E0,3.054326214E-2,-4.807509482E-1,-8.063421398E-2
3.894334743E0,2.565634064E-2,-5.332853794E-1,-1.117883399E-1
3.896348290E0,2.076941915E-2,-5.766568184E-1,-1.411098689E-1
3.898331990E0,1.832595654E-2,-5.962044597E-1,-1.496619880E-1
3.900347152E0,1.893682219E-2,-6.249151230E-1,-1.679879427E-1
3.902331468E0,1.649336144E-2,-6.426302195E-1,-1.783726513E-1
3.904343399E0,1.710422710E-2,-6.475171447E-1,-1.808161139E-1
3.906327484E0,2.015855350E-2,-6.548475623E-1,-1.838704348E-1
3.908342569E0,2.321287990E-2,-6.511823535E-1,-1.795943826E-1
3.910326577E0,2.504547499E-2,-6.481280327E-1,-1.795943826E-1
3.912339508E0,3.481931984E-2,-6.340781450E-1,-1.685988009E-1
3.914324054E0,4.153883830E-2,-6.151412725E-1,-1.600466967E-1
3.916337678E0,4.337143153E-2,-6.053674817E-1,-1.533271819E-1
3.918321993E0,5.070181563E-2,-5.821545720E-1,-1.423316002E-1
3.920335847E0,6.291911751E-2,-5.540547967E-1,-1.331686229E-1
3.922320778E0,6.902777404E-2,-5.400048494E-1,-1.258382350E-1
3.924333710E0,8.857546002E-2,-5.082398653E-1,-1.130100712E-1
3.926347564E0,9.651670605E-2,-4.685336351E-1,-1.062905490E-1
3.928331264E0,1.117883399E-1,-4.483750761E-1,-8.979719132E-2
3.930345734E0,1.258382350E-1,-4.013384581E-1,-6.780604273E-2
3.932329126E0,1.295034289E-1,-3.756821156E-1,-5.986479297E-2
3.934342674E0,1.423316002E-1,-3.213151097E-1,-3.909537569E-2
3.936326297E0,1.521054506E-1,-2.614503205E-1,-1.954768784E-2
3.938340536E0,1.624901593E-1,-2.309070677E-1,-1.038470957E-2
3.940324852E0,1.734857261E-1,-1.710422635E-1,6.108652335E-3
3.942339321E0,1.863138974E-1,-1.069014147E-1,2.199114859E-2
3.944323021E0,1.924225539E-1,-7.880161703E-2,2.993239649E-2
3.946336876E0,2.058615834E-1,-2.382374369E-2,4.214970022E-2
3.948319653E0,2.211332172E-1,1.832595654E-2,5.070181563E-2
3.950334353E0,2.254092693E-1,3.665191308E-2,5.375614017E-2
3.952349130E0,2.296853364E-1,6.108652428E-2,6.291911751E-2
3.954331984E0,2.309070677E-1,6.841690838E-2,6.841690838E-2
3.956347069E0,2.278527319E-1,7.086037099E-2,7.208210230E-2
3.958330770E0,2.193006277E-1,6.108652428E-2,7.086037099E-2
3.960344239E0,2.119702399E-1,5.192354694E-2,7.330382615E-2
3.962328632E0,2.070833147E-1,2.932153270E-2,7.574728876E-2
3.964342486E0,2.015855312E-1,3.054326167E-3,7.330382615E-2
3.966325494E0,2.015855312E-1,-1.038470957E-2,7.208210230E-2
3.968340579E0,2.034181207E-1,-3.420845419E-2,6.902777404E-2
3.970324049E0,2.052507252E-1,-6.230825558E-2,6.291911751E-2
3.972337826E0,2.046398520E-1,-7.513642311E-2,6.230825558E-2
3.974321218E0,1.899790913E-1,-9.834930301E-2,5.558873713E-2
3.976335073E0,1.704314053E-1,-1.221730486E-1,4.948008433E-2
