"Time (s)","Linear Acceleration x (m/s^2)","Linear Acceleration y (m/s^2)","Linear Acceleration z (m/s^2)"
1.431389500E-2,-3.126084805E-3,-6.819725037E-3,5.972385406E-2
2.231062000E-2,1.827615499E-2,-1.898872852E-2,8.099269867E-2
3.030626800E-2,7.559087873E-2,-5.749440193E-2,7.113838196E-2
3.833214600E-2,8.784708381E-2,-3.637373447E-2,1.050319672E-1
4.632725500E-2,1.009714901E-1,1.417756081E-3,2.532005310E-2
5.432205600E-2,1.309612691E-1,2.844679356E-2,1.192474365E-2
6.231993500E-2,1.301135719E-1,1.000785828E-2,6.045341492E-3
7.031442900E-2,8.447542787E-2,-4.561781883E-3,-1.376152039E-3
7.831046100E-2,6.863716245E-2,-3.047227859E-2,2.239131927E-2
8.630557000E-2,5.490472913E-2,-2.799296379E-2,-1.587963104E-2
9.433152500E-2,6.623578072E-2,2.754795551E-2,-5.244445801E-2
1.023284030E-1,1.585826278E-2,2.038359642E-3,-4.028701782E-2
1.103228970E-1,2.847012877E-2,2.240490913E-2,-4.960250854E-2
1.183193150E-1,2.976652980E-2,-2.806913853E-2,5.520153046E-2
1.263140390E-1,9.110867977E-3,-4.609942436E-2,9.137344360E-2
1.343098400E-1,1.183640957E-2,-4.121673107E-2,1.134986877E-1
1.423070260E-1,2.514028549E-2,-3.873014450E-2,1.423845291E-1
1.503320580E-1,-5.571842194E-4,-4.973340034E-2,1.501731873E-1
1.583274760E-1,2.374473214E-2,-2.919185162E-2,7.603359222E-2
1.663231230E-1,7.272791862E-2,1.707446575E-2,1.223564148E-3
1.743182320E-1,1.088186949E-1,-3.837990761E-2,-5.603408813E-2
1.823154950E-1,1.182464212E-1,8.268356323E-4,-5.890083313E-2
1.903097580E-1,6.722617149E-2,1.073622704E-2,3.149795532E-2
1.983063280E-1,-3.356814384E-2,1.652491093E-2,2.932548523E-2
2.063319000E-1,-7.882151008E-2,2.000999451E-2,8.573532104E-4
2.143270080E-1,-1.763871014E-1,3.305780888E-2,2.508926392E-2
2.223212710E-1,-2.040959001E-1,2.955639362E-2,2.763557434E-2
2.303185340E-1,-2.194359601E-1,1.822662354E-2,6.681060791E-2
2.383151050E-1,-2.118074000E-1,2.113890648E-2,5.575942993E-2
2.463096750E-1,-2.066703439E-1,6.609559059E-2,1.043319702E-3
2.543057080E-1,-1.796513796E-1,3.907275200E-2,-2.453899384E-2
2.623321250E-1,-1.714709401E-1,-1.905798912E-3,2.704620361E-2
2.703275410E-1,-1.495532393E-1,-3.248846531E-2,1.004371643E-1
2.783233430E-1,-1.152860522E-1,-4.908120632E-2,1.018800735E-1
2.863186820E-1,-9.731924534E-2,-7.240319252E-2,1.370801926E-1
2.943141770E-1,-7.063019276E-2,-7.351398468E-2,1.913356781E-1
3.023108240E-1,-6.919801235E-2,-2.033889294E-2,1.600790024E-1
3.103053180E-1,-4.381114244E-2,-1.223564148E-3,1.143960953E-1
3.183320420E-1,-1.323336363E-2,-1.464366913E-3,5.913829803E-2
3.263265360E-1,1.258933544E-2,-1.871931553E-2,2.061367035E-2
3.343226460E-1,1.426237822E-2,2.379524708E-2,-5.962371826E-3
3.423192930E-1,-8.561849594E-3,9.011030197E-3,1.054382324E-2
3.503137870E-1,-8.514863253E-2,-8.167266846E-3,3.895473480E-2
3.583101260E-1,-1.222846508E-1,-4.696178436E-2,9.361553192E-2
3.663054660E-1,-1.102049351E-1,-8.377528191E-2,1.625308990E-1
3.743316520E-1,-4.892641306E-2,-8.299386501E-2,1.762332916E-1
3.823292230E-1,2.100241184E-2,-8.555817604E-2,1.969585419E-1
3.903227940E-1,7.846879959E-2,-7.488524914E-2,1.504936218E-1
3.983185180E-1,1.119584739E-1,-3.418374062E-2,5.363178253E-2
4.063142420E-1,6.202757359E-2,9.220087528E-2,-1.931285858E-2
4.143097360E-1,7.874548435E-3,1.519866586E-1,-2.273654938E-2
4.223059990E-1,2.416729927E-3,1.553673148E-1,-2.359676361E-2
4.303318780E-1,9.167826176E-2,9.274172783E-2,-1.128444672E-1
4.383267560E-1,1.926441789E-1,7.158958912E-2,-1.923065186E-1
4.463227110E-1,2.569882870E-1,6.791961193E-2,-1.782140732E-1
4.543182050E-1,2.697132826E-1,5.293035507E-2,-1.496229172E-1
4.623123140E-1,2.232676744E-1,-7.975101471E-5,6.579017639E-2
4.703092700E-1,1.459497809E-1,-6.744778156E-2,3.147392273E-1
4.783373020E-1,4.732048512E-2,-1.042366028E-1,3.529577255E-1
4.863308720E-1,-4.851341248E-2,-1.059250832E-1,2.833776474E-1
4.943269810E-1,-4.060918093E-2,-9.417235851E-2,2.233295441E-1
5.023233210E-1,2.960604429E-2,-3.993022442E-2,4.351806641E-2
5.103183530E-1,6.498873234E-3,3.551876545E-2,-5.491828918E-2
5.183140780E-1,-2.843827009E-2,1.329889297E-1,-6.949138641E-2
5.263098030E-1,-1.158940792E-1,1.766325235E-1,-1.437749863E-1
5.343356810E-1,-1.005155444E-1,1.692998409E-1,-2.442226410E-1
5.423339440E-1,-5.928188562E-2,1.327553988E-1,-3.157691956E-1
5.503259760E-1,3.334879875E-4,1.384952068E-1,-2.363662720E-1
5.583229320E-1,3.043788671E-2,1.023721099E-1,-2.280807495E-2
5.663176560E-1,-2.253115177E-3,4.062569141E-2,2.267007828E-1
5.743139960E-1,-7.386928797E-2,2.882480621E-3,3.349199295E-1
5.823112590E-1,-1.244085431E-1,-4.938590527E-2,2.611331940E-1
5.903355980E-1,-1.008698344E-1,-7.078135014E-2,1.849184036E-1
5.983313230E-1,-5.414414406E-2,-9.271228313E-2,1.373271942E-1
6.063270480E-1,3.980219364E-3,-9.168803692E-2,1.446628571E-1
6.143224650E-1,4.293912649E-2,-6.297385693E-2,8.484935760E-2
6.223197270E-1,2.731573582E-2,4.668664932E-2,-5.638217926E-2
6.303139130E-1,-3.831785917E-2,1.138278842E-1,-1.424684525E-1
6.383097150E-1,-7.330328226E-2,1.342567205E-1,-1.781835556E-1
6.463359010E-1,-5.832946301E-2,1.130622029E-1,-1.754598618E-1
6.543315490E-1,3.557795286E-2,7.897949219E-2,-8.878707886E-2
6.623279650E-1,8.874183893E-2,5.040752888E-2,1.232814789E-2
6.703227670E-1,8.908551931E-2,4.152226448E-2,8.476161957E-2
6.783187990E-1,6.564772129E-2,-1.269507408E-2,1.715917587E-1
6.863139080E-1,3.469991684E-2,-3.361773491E-2,2.080993652E-1
6.943092480E-1,-3.959453106E-2,-9.587883949E-2,2.038230896E-1
7.003209650E-1,-5.411243439E-2,-8.954882622E-2,1.467800140E-1
7.023338960E-1,-5.411243439E-2,-8.954882622E-2,1.467800140E-1
7.103311590E-1,-5.179667473E-2,-6.227004528E-2,5.376434326E-2
7.183278830E-1,-7.144641876E-2,-6.744623184E-3,-4.411888123E-2
7.263226840E-1,-4.814660549E-2,1.057481766E-2,-1.156635284E-1
7.343184080E-1,2.089524269E-2,4.273498058E-2,-1.464376450E-1
7.423149800E-1,9.108072519E-2,1.043015718E-1,-1.339616776E-1
7.503095500E-1,1.743802428E-1,8.947265148E-2,-1.364421844E-2
7.583366590E-1,2.746522129E-1,3.568065166E-2,1.138010025E-1
7.663316910E-1,2.983776331E-1,9.532094002E-3,1.884574890E-1
7.743277230E-1,3.035829663E-1,-6.769347191E-2,2.750415802E-1
7.823243720E-1,2.068303525E-1,-7.392239571E-2,2.754096985E-1
7.903183270E-1,1.041620970E-1,-8.345317841E-2,1.799983978E-1
7.983145900E-1,1.329296827E-2,-3.363692760E-2,6.074714661E-2
8.063096990E-1,-4.673522711E-2,-7.985949516E-3,2.542304993E-2
8.143358840E-1,-1.053773761E-1,8.772611618E-4,-6.246757507E-2
8.223319940E-1,-1.151117682E-1,5.304288864E-2,-1.286983490E-1
8.303270260E-1,-1.075186133E-1,1.319501400E-1,-2.187700272E-1
8.383234430E-1,-6.368649006E-2,1.715326905E-1,-2.607622147E-1
8.463187830E-1,-1.007968187E-2,1.191803217E-1,-1.110258102E-1
8.543139690E-1,3.055500984E-2,-3.552007675E-2,1.727943420E-1
8.623109240E-1,-5.519109964E-2,-9.487605095E-2,3.223562241E-1
8.703348800E-1,-1.341638565E-1,-1.192944050E-1,3.736238480E-1
8.783312960E-1,-1.932229996E-1,-6.560134888E-2,2.668437958E-1
8.863267130E-1,-1.609188318E-1,-1.962041855E-2,1.121644974E-1
8.943226680E-1,-1.028164029E-1,-2.685904503E-3,3.163433075E-2
9.023190080E-1,-8.160948753E-2,2.135157585E-3,-4.658889771E-2
9.103141170E-1,-1.042698026E-1,4.289138317E-2,-8.656120300E-2
9.183096110E-1,-1.301391125E-1,6.268882751E-2,-1.361064911E-1
9.263354130E-1,-1.615159512E-1,2.792739868E-2,4.898166656E-2
9.343309060E-1,-1.871900558E-1,-7.661318779E-2,2.243280411E-1
9.423253230E-1,-1.899970174E-1,-7.936179638E-2,3.826904297E-1
9.503223550E-1,-1.669474244E-1,-1.171078682E-1,4.187421799E-1
9.583183110E-1,-2.306986451E-1,-1.539726257E-1,5.742778778E-1
9.663141120E-1,-2.443216443E-1,-1.329793930E-1,2.315845490E-1
9.743092210E-1,-1.637197733E-1,4.344105721E-3,3.251361847E-2
9.823365610E-1,-1.356263161E-1,6.781470776E-2,-8.269977570E-2
9.903313620E-1,-1.782199740E-1,5.078887939E-2,-1.596136093E-1
9.983273940E-1,-1.807883382E-1,3.728902340E-2,-2.029409409E-1
1.006322889E0,-1.004732251E-1,1.061995029E-1,-2.007493973E-1
1.014317690E0,-3.824132681E-2,1.428663135E-1,-1.985368729E-1
1.022315568E0,7.716017962E-2,9.454154968E-2,-8.144378662E-2
1.030309062E0,2.102884054E-1,-9.219646454E-4,5.475616455E-2
1.038336555E0,2.940859795E-1,1.858115196E-3,9.767723083E-2
1.046331665E0,3.008141518E-1,1.627540588E-2,1.718635559E-1
1.054326697E0,2.200298905E-1,1.111137867E-2,1.144161224E-1
1.062323729E0,1.308332682E-1,2.284300327E-2,-2.431297302E-2
1.070317915E0,2.633225918E-2,5.435454845E-2,-5.749607086E-2
1.078314255E0,-6.767636538E-2,1.739490032E-2,-4.978656769E-2
1.086309287E0,-8.719688654E-2,-1.171803474E-2,-1.803684235E-2
1.094336089E0,-6.844240427E-2,-1.412320137E-2,-1.018714905E-2
1.102333121E0,-5.495131016E-2,2.723932266E-4,-2.375602722E-3
1.110327307E0,-5.899143219E-2,3.163373470E-2,2.995491028E-3
1.118323339E0,-1.092230082E-1,3.690636158E-2,1.790714264E-2
1.126317833E0,-1.669074893E-1,6.150341034E-2,5.436420441E-2
1.134313865E0,-2.176662683E-1,9.086346626E-2,1.417922974E-2
1.142309821E0,-2.134533525E-1,5.565190315E-2,7.513999939E-3
1.150335083E0,-1.235284209E-1,8.736848831E-3,7.026767731E-2
1.158331731E0,-4.376858473E-2,-3.083288670E-2,8.031368256E-2
1.166327455E0,2.889454365E-2,-4.384160042E-2,9.518146515E-2
1.174322026E0,8.977359533E-2,-6.690025330E-3,7.414245605E-2
1.182316212E0,1.438120604E-1,-2.956259251E-2,5.790710449E-2
1.190314398E0,1.936604977E-1,-3.604638577E-2,7.041645050E-2
1.198310353E0,2.537671924E-1,2.182233334E-2,2.310466766E-2
1.206335616E0,3.195263147E-1,8.121371269E-3,-6.719017029E-2
1.214330110E0,4.099891186E-1,2.095508575E-2,-1.071081161E-1
1.222327450E0,4.527770877E-1,-1.830315590E-2,-4.638004303E-2
1.230322483E0,4.210551381E-1,-7.612025738E-2,7.210731506E-3
1.238319438E0,3.068871498E-1,-9.501886368E-2,1.791191101E-2
1.246313623E0,2.366478443E-1,-5.590689182E-2,-6.198024750E-2
1.254308809E0,1.273292303E-1,4.830861092E-2,-9.112930298E-2
1.262336226E0,-4.429084063E-2,1.129235029E-1,-1.076784134E-1
1.270331259E0,-2.285989523E-1,9.555435181E-2,-3.842353821E-3
1.278327060E0,-4.330791235E-1,1.064491272E-2,1.770401001E-1
1.286322477E0,-6.253230572E-1,-9.671688080E-2,2.406272888E-1
1.294317817E0,-6.818994284E-1,-2.762085199E-1,3.062810898E-1
1.302314233E0,-5.521118641E-1,-3.683477640E-1,3.143253326E-1
1.310309265E0,-3.979380131E-1,-4.796752930E-1,5.191516876E-2
1.318336452E0,-3.107423782E-1,-5.067481995E-1,-3.896465302E-1
1.326331484E0,-3.206446171E-1,-5.409196615E-1,-3.850774765E-1
1.334326978E0,-5.573244095E-1,-5.636593103E-1,-6.760730743E-1
1.342324779E0,-4.957104921E-1,-4.131568670E-1,-5.856590271E-1
1.350317734E0,-3.738255501E-1,-3.770819902E-1,-2.795028687E-1
1.358314767E0,-3.492569923E-2,-2.985352278E-1,1.744031906E-1
1.366309799E0,2.776335478E-1,-3.580868244E-1,3.854160309E-1
1.374334831E0,4.078088999E-1,-2.456138134E-1,9.825935364E-1
1.382331709E0,3.225935102E-1,-9.995627403E-2,7.045221329E-1
1.390326895E0,2.072080374E-1,5.250334740E-2,3.899202347E-1
1.398323235E0,6.287264824E-2,2.332197428E-1,1.294994354E-2
1.406318652E0,-7.571291924E-2,3.817921877E-1,-2.850189209E-1
1.414313146E0,-1.746788025E-1,5.277740955E-1,-3.748502731E-1
1.422338024E0,-1.757692099E-1,5.273451805E-1,-2.687616348E-1
1.430335364E0,-8.499979973E-2,5.753689408E-1,-1.798954010E-1
1.438331088E0,1.208915710E-1,4.922659993E-1,-8.886623383E-2
1.446327121E0,3.171716928E-1,3.937535286E-1,1.159667969E-2
1.454322230E0,3.443356752E-1,3.933238983E-1,1.737565994E-1
1.462318493E0,2.797681093E-1,3.960317373E-1,3.516817093E-1
1.470313371E0,9.266364574E-2,3.682973385E-1,4.814443588E-1
1.478340480E0,-9.674775600E-2,2.927218676E-1,4.870901108E-1
1.486335589E0,-2.947901487E-1,2.611391544E-1,3.640670776E-1
1.494330930E0,-4.305213690E-1,2.826519012E-1,1.289510727E-1
1.502329116E0,-4.473190308E-1,2.477360964E-1,-1.560420990E-1
1.510322455E0,-4.536023140E-1,2.028926611E-1,-2.610330582E-1
1.518319026E0,-4.170234203E-1,1.229286194E-1,-2.626600266E-1
1.526313596E0,-3.815129995E-1,4.649317265E-2,-1.562242508E-1
1.534339783E0,-3.789290190E-1,-9.774327278E-2,2.949333191E-2
1.542336661E0,-3.309372663E-1,-2.077805996E-1,2.391958237E-1
1.550331463E0,-2.162548304E-1,-2.543121576E-1,3.337364197E-1
1.558326648E0,-8.155977726E-2,-2.005797625E-1,3.681592941E-1
1.566322911E0,1.616728306E-2,-1.743787527E-1,2.897396088E-1
1.574317713E0,7.479226589E-2,-9.178602695E-2,1.952552795E-2
1.582315284E0,6.664979458E-2,-4.271006584E-2,-1.500892639E-1
1.590339931E0,2.278435230E-2,-3.626644611E-2,-1.328687668E-1
1.598335963E0,-4.294657707E-2,-6.767582893E-2,-7.493400574E-2
1.606331380E0,1.292300224E-2,-8.946514130E-2,-3.143215179E-2
1.614326489E0,7.815396786E-2,-9.241127968E-2,1.678466797E-2
1.622323444E0,1.127281189E-1,-1.437191963E-1,1.488056183E-1
1.630317400E0,1.173813343E-1,-1.670265198E-1,2.593641281E-1
1.638314586E0,1.016888618E-1,-1.481180191E-1,1.808452606E-1
1.646339618E0,1.967179775E-2,-8.186399937E-2,1.809120178E-3
1.654335035E0,-2.841019630E-2,-3.679215908E-2,-1.531715393E-1
1.662329221E0,-8.609092236E-2,-5.560827255E-2,-7.342147827E-2
1.670326407E0,-9.397089481E-2,-8.347678185E-2,-3.916263580E-2
1.678322439E0,-9.239542484E-2,-7.286632061E-2,-9.686470032E-3
1.686318241E0,-1.196829081E-1,-7.427465916E-2,4.610061646E-2
1.694313657E0,-1.352832317E-1,-9.258913994E-2,8.506774902E-2
1.702341305E0,-1.679772139E-1,-1.059147120E-1,6.176090240E-2
1.710335492E0,-1.675708294E-1,-1.168534756E-1,9.106349945E-2
1.718331601E0,-1.606767178E-1,-8.250105381E-2,8.671283722E-2
1.726326940E0,-1.876426935E-1,-6.487500668E-2,5.358314514E-2
1.734322742E0,-1.288677454E-1,-4.245340824E-2,1.080894470E-2
1.742319697E0,-1.205412149E-1,-1.494479179E-2,-5.110549927E-2
1.750312959E0,-9.833407402E-2,-1.203060150E-3,-7.231235504E-2
1.758339685E0,-7.920038700E-2,-3.618836403E-3,-3.369140625E-2
1.766335178E0,-6.028616428E-2,-6.781911850E-2,6.242084503E-2
1.774331210E0,-3.474485874E-2,-1.082133055E-1,1.656112671E-1
1.782328088E0,4.733800888E-3,-1.420660019E-1,2.399196625E-1
1.790322274E0,3.250336647E-2,-1.698821783E-1,2.063751221E-1
1.798318383E0,8.214890957E-2,-9.582412243E-2,7.696819305E-2
1.806313724E0,1.155872345E-1,-4.629671574E-2,-2.849006653E-2
1.814340218E0,1.090756655E-1,-2.299678326E-2,-7.156944275E-2
1.822337250E0,3.379344940E-2,-2.328312397E-2,-8.576583862E-2
1.830330435E0,-3.734827042E-4,-1.099383831E-2,-1.093931198E-1
1.838327467E0,-1.131587029E-1,-2.662634850E-2,-7.778358459E-2
1.846322500E0,-1.805217266E-1,-2.710366249E-2,-1.974010468E-2
1.854317994E0,-1.715434790E-1,-6.805205345E-2,1.077241898E-1
1.862314565E0,-1.034480333E-1,-8.545327187E-2,1.703758240E-1
1.870339904E0,-2.874815464E-2,-1.346578598E-1,2.089042664E-1
1.878336167E0,2.673792839E-2,-8.188128471E-2,1.443405151E-1
1.886330430E0,4.203474522E-2,-5.364525318E-2,7.019901276E-2
1.894325847E0,7.607579231E-3,-1.360321045E-2,3.442955017E-2
1.900338102E0,-1.414227486E-2,-9.333729744E-3,3.579139709E-3
1.902320572E0,-1.653647423E-2,-9.333729744E-3,-3.603935242E-3
1.910318219E0,-3.519821167E-2,-5.018949509E-2,6.405830383E-3
1.918314482E0,-8.685517311E-2,-5.248737335E-2,7.638835907E-2
1.926339129E0,-1.550047398E-1,-9.539890289E-2,7.938861847E-2
1.934335239E0,-1.106045246E-1,-9.760785103E-2,2.732563019E-2
1.942332810E0,-6.642687321E-2,-8.311450481E-2,6.859779358E-2
1.950326611E0,6.029009819E-3,-5.937588215E-2,1.169347763E-1
1.958323566E0,9.520757198E-2,-4.563772678E-2,1.053543091E-1
1.966318444E0,1.035403013E-1,-9.025335312E-4,5.554103851E-2
1.974313476E0,9.376168251E-2,-3.778338432E-3,-2.758693695E-2
1.982340894E0,5.339145660E-2,5.614054203E-2,-5.069732666E-2
1.990334157E0,-3.238904476E-2,7.634437084E-2,-5.689907074E-2
1.998331420E0,-8.786571026E-2,4.253077507E-2,-8.021354675E-3
2.006326528E0,-1.564995050E-1,-5.525016785E-2,1.676502228E-1
2.014322330E0,-2.965317965E-1,-3.779673576E-2,2.281255722E-1
2.022318669E0,-4.492553473E-1,2.086567879E-2,3.316516876E-1
2.030313472E0,-5.956183672E-1,6.525444984E-2,1.960248947E-1
2.038341196E0,-6.686584949E-1,1.986403465E-1,-6.101131439E-2
2.046334766E0,-4.801895618E-1,2.441356182E-1,-3.255367279E-2
2.054330798E0,-1.480780840E-1,-1.338887215E-1,3.977174759E-1
2.062327754E0,2.188628912E-1,-3.698147535E-1,1.250523567E0
2.070321325E0,3.708636761E-1,-3.839970827E-1,1.662035942E0
2.078318819E0,4.342185259E-1,-2.851929665E-1,1.568934441E0
2.086313697E0,6.233167648E-1,-1.945109367E-1,1.086889267E0
2.094339498E0,6.696226001E-1,-1.793441772E-1,5.365905762E-1
2.102335915E0,6.812798381E-1,-4.691481590E-1,4.967231750E-1
2.110331639E0,2.026669979E-1,-7.035211325E-1,2.606468201E-1
2.118327287E0,-3.913660049E-1,-9.964647293E-1,-1.693058014E-1
2.126322473E0,-1.075257659E0,-1.643238544E0,1.527366638E-1
2.134317582E0,-1.734918237E0,-2.186005116E0,-2.789039612E-1
2.140329222E0,-2.603351116E0,-2.576528549E0,6.575870514E-2
2.142311768E0,-2.603351116E0,-2.576528549E0,6.575870514E-2
2.150339800E0,-2.925616503E0,-2.603577137E0,2.015466690E-1
2.158335525E0,-2.976429939E0,-2.444500208E0,2.423429489E-1
2.166331173E0,-2.816105604E0,-2.233038664E0,3.452739716E-1
2.174326666E0,-2.760630608E0,-1.945868492E0,2.444486618E-1
2.182323929E0,-2.720012665E0,-1.642906070E0,1.550960541E-2
2.190317730E0,-2.646191597E0,-1.319434285E0,-1.172838211E-1
2.198313762E0,-2.534572601E0,-1.018887281E0,-2.698049545E-1
2.206340026E0,-2.387822866E0,-7.814351320E-1,-3.886213303E-1
2.214334827E0,-2.259652376E0,-5.926574469E-1,-5.737123489E-1
2.222331783E0,-2.069104910E0,-3.410475254E-1,-1.007280350E0
2.230326276E0,-1.812936068E0,-1.450632811E-1,-1.238126755E0
2.238322308E0,-1.407142878E0,1.030158997E-2,-1.471272469E0
2.246317417E0,-1.021001577E0,4.521477222E-2,-1.654011250E0
2.254313681E0,-7.562394142E-1,1.018571854E-1,-1.852818966E0
2.262339944E0,-5.523762703E-1,1.692075729E-1,-1.949606895E0
2.270334976E0,-4.654426575E-1,2.932503223E-1,-1.911687374E0
2.278331392E0,-3.398616314E-1,4.927979708E-1,-1.723226547E0
2.286326809E0,-2.391810417E-1,6.535287499E-1,-1.531507969E0
2.294322842E0,-1.854126453E-1,7.174074650E-1,-1.390279770E0
2.302319720E0,-7.756233215E-2,7.361476421E-1,-1.264480591E0
2.310312983E0,-4.577612877E-2,7.447412014E-1,-1.543140888E0
2.318339784E0,2.132177353E-2,7.588654757E-1,-1.721145630E0
2.326335278E0,1.047692299E-1,8.001883030E-1,-1.754101753E0
2.334330618E0,2.821185589E-1,8.263235092E-1,-1.521630764E0
2.342326650E0,5.469716787E-1,8.218919039E-1,-1.135440826E0
2.350321144E0,9.182387590E-1,7.971771359E-1,-6.488904953E-1
2.358318715E0,1.271931410E0,7.938807011E-1,-2.337064743E-1
2.366313208E0,1.397325277E0,7.945199013E-1,-8.816909790E-2
2.374339394E0,1.259968758E0,8.350483179E-1,-1.779775620E-1
2.382333581E0,1.137878060E0,8.073578477E-1,-2.843551636E-1
2.390330305E0,1.174153447E0,7.271953225E-1,-9.293174744E-2
2.398327260E0,1.310290813E0,6.063872576E-1,2.932996750E-1
2.406321985E0,1.420099378E0,5.369437933E-1,6.236581802E-1
2.414317401E0,1.482540727E0,4.553551674E-1,9.961843491E-1
2.422314972E0,1.564340115E0,2.615902424E-1,1.542279243E0
2.430339620E0,1.848571897E0,-6.803286076E-2,2.735337257E0
2.438335960E0,2.363183260E0,-5.749903917E-1,5.099763870E0
2.446330761E0,3.096466541E0,-1.082634449E0,6.858257294E0
2.454326485E0,4.064010143E0,-1.196888328E0,5.304141045E0
2.462323825E0,4.543905258E0,-5.529035330E-1,2.158600807E0
2.470317012E0,4.286143303E0,5.257961750E-1,-1.021203995E-1
2.478313736E0,3.706614494E0,1.293238878E0,-3.010292053E-1
2.486339922E0,3.318612337E0,1.576515198E0,1.366014481E-1
2.494334646E0,2.916345119E0,1.458397388E0,9.473571777E-1
2.502331909E0,2.607794285E0,1.018775702E0,1.400299072E0
2.510326787E0,2.289724588E0,3.921962976E-1,1.390314102E0
2.518322744E0,1.976646781E0,-6.148004532E-2,1.075856209E0
2.526317314E0,1.525312781E0,-2.412629128E-1,5.896158218E-1
2.534343423E0,1.160972834E0,-1.985731125E-1,4.483318329E-2
2.542341686E0,9.648854733E-1,5.995845795E-2,-5.291051865E-1
2.550334949E0,8.077907562E-1,5.563622713E-1,-1.122107506E0
2.558331597E0,6.930453777E-1,9.177298546E-1,-1.400940895E0
2.566326090E0,5.901694298E-1,1.112397671E0,-1.228429317E0
2.574322353E0,5.309808254E-1,1.006788254E0,-7.270374298E-1
2.582318385E0,4.676737785E-1,7.324544191E-1,-2.452898026E-1
2.590343956E0,3.644297123E-1,3.491824865E-1,3.112926483E-1
2.598340295E0,1.821048260E-1,5.146348476E-2,4.501552582E-1
2.606335405E0,-1.483471394E-1,-1.005910635E-1,3.212356567E-1
2.614330514E0,-4.830653667E-1,-1.299555302E-1,1.794366837E-1
2.618328069E0,-5.730917454E-1,-1.332216263E-1,1.459302902E-1
2.620342308E0,-5.778801441E-1,-1.499810219E-1,1.602954865E-1
2.622324700E0,-5.778801441E-1,-1.499810219E-1,1.602954865E-1
2.630322578E0,-4.311325550E-1,-2.438410521E-1,3.274211884E-1
2.638319226E0,-2.870130539E-2,-4.798153639E-1,7.178392410E-1
2.646343874E0,5.276701450E-1,-9.272828102E-1,3.458585739E-1
2.654339060E0,6.085655689E-1,-1.401500344E0,1.903867722E0
2.662336246E0,4.114441872E-1,-1.735450149E0,2.196187973E0
2.678327156E0,4.771733284E-2,-1.371995091E0,6.554327011E-1
2.686321880E0,3.417479992E-1,-9.704151154E-1,-4.198246002E-1
2.694317990E0,5.329046249E-1,-4.290896654E-1,-1.350414276E0
2.702345638E0,5.618984699E-1,2.067742348E-1,-2.317709923E0
2.710338978E0,4.773712158E-1,6.885986328E-1,-2.968156338E0
2.718335240E0,1.554083824E-2,8.643638492E-1,-2.864457130E0
2.726330965E0,-1.096564531E0,7.374787331E-1,-2.328338146E0
2.734325843E0,-1.834298611E0,3.180255890E-1,-8.667230606E-1
2.742323107E0,-2.143690586E0,-5.195379257E-1,1.813720703E0
2.750317831E0,-2.259250879E0,-1.224599004E0,3.338921547E0
2.758344709E0,-1.906936884E0,-1.702425122E0,3.322977066E0
2.766338895E0,-9.227666855E-1,-1.679803491E0,1.431406975E0
2.774334312E0,3.326702118E-2,-1.219529867E0,3.867301941E-1
2.782331883E0,3.096616268E-1,-3.002294302E-1,-2.645101547E-1
2.790325684E0,-1.306829453E-1,5.186722875E-1,-6.645746231E-1
2.798323255E0,-8.123149872E-1,1.025717735E0,-1.156024933E-1
2.806317210E0,-1.044524193E0,1.040148258E0,-3.609352112E-1
2.814344011E0,-6.596877575E-1,8.200024366E-1,-5.575447083E-1
2.822340044E0,-4.124917984E-1,5.497366190E-1,-5.678253174E-1
2.830334538E0,-4.864046574E-1,3.084273338E-1,-2.872457504E-1
2.838330801E0,-7.669239044E-1,1.866477728E-1,-3.133697510E-1
2.846325986E0,-1.171321392E0,2.718541622E-1,-4.196567535E-1
2.854321634E0,-1.571488142E0,3.664684296E-1,-2.929115295E-1
2.862316435E0,-1.459313393E0,3.202648163E-1,9.478282928E-2
2.870344468E0,-9.457979202E-1,2.256050110E-1,4.958076477E-1
2.878339577E0,-2.019822598E-1,1.310205460E-1,4.205026627E-1
2.886334763E0,3.903470039E-1,8.310914040E-2,2.069473267E-1
2.894330410E0,7.583336830E-1,1.131210327E-1,-4.372243881E-1
2.902326519E0,8.360586166E-1,2.209734917E-1,-8.318376541E-1
2.910321859E0,6.267707348E-1,2.989499569E-1,-1.126475334E0
2.918318892E0,7.388260365E-1,2.474362850E-1,-7.561082840E-1
2.926343539E0,8.764636517E-1,2.310752869E-2,-8.115882874E-1
2.934339571E0,8.415629864E-1,-3.684878349E-1,-6.026134491E-1
2.942337373E0,7.183215618E-1,-7.086637020E-1,-5.336332321E-1
2.950330635E0,2.528407574E-1,-7.655849457E-1,-6.339588165E-1
2.958326130E0,-5.140321255E-1,-6.332308054E-1,-6.417541504E-1
2.966322700E0,-1.077195168E0,-5.299986601E-1,-4.301795959E-1
2.974317579E0,-1.376077890E0,-4.353886843E-1,-1.208038330E-1
2.982345303E0,-1.407007694E0,-4.346705675E-1,2.694139481E-1
2.990339181E0,-1.259056568E0,-4.258313179E-1,5.056934357E-1
2.998336136E0,-9.466564655E-1,-3.784140348E-1,6.684808731E-1
3.006329938E0,-6.500720978E-1,-3.176934719E-1,6.593151093E-1
3.014326355E0,-3.667929173E-1,-1.973413229E-1,4.744501114E-1
3.022323926E0,-1.508266926E-1,-1.254992485E-1,3.680133820E-1
3.030317496E0,7.254528999E-2,-3.530311584E-2,2.454004288E-1
3.038344297E0,2.134096622E-1,1.045629978E-1,7.454872131E-2
3.046339715E0,1.442842484E-1,2.791559696E-1,-1.823167801E-1
3.054335055E0,-6.608438492E-2,4.928437471E-1,-2.848386765E-1
3.062331164E0,-1.557099819E-1,5.683034658E-1,-2.408685684E-1
3.070325965E0,-5.593538284E-2,5.457818508E-1,-9.242916107E-2
3.078322612E0,1.064844131E-1,4.608913660E-1,1.318187714E-1
3.086318029E0,2.587459087E-1,3.582241535E-1,2.335929871E-1
3.094344523E0,2.884476185E-1,3.356714249E-1,2.287244797E-1
3.110334357E0,1.633121967E-1,2.692775726E-1,2.666149139E-1
3.118330696E0,4.807639122E-2,2.713584900E-1,2.644548416E-1
3.126326498E0,-1.463222504E-2,2.357388735E-1,1.752300262E-1
3.134321607E0,-7.197284698E-2,2.178348303E-1,7.110404968E-2
3.142317870E0,-1.080501080E-1,1.701434851E-1,-6.565093994E-3
3.150343825E0,-1.722137928E-1,9.284925461E-2,-3.105258942E-2
3.158339242E0,-1.712126732E-1,2.641570568E-2,-2.639389038E-2
3.166334966E0,-1.628582478E-1,-9.119296074E-2,3.843116760E-2
3.174330691E0,-1.708528996E-1,-1.644325256E-1,-2.805805206E-2
3.182327031E0,-1.808404922E-1,-1.887756586E-1,7.097053528E-2
3.190322064E0,-1.731960773E-1,-2.009541988E-1,1.235103607E-2
3.198318096E0,-1.982190609E-1,-2.366182804E-1,3.553676605E-2
3.206343974E0,-1.312930584E-1,-2.189528942E-1,1.371097565E-2
3.214338467E0,-9.228444099E-2,-2.101936340E-1,-1.248264313E-2
3.222336116E0,4.105806351E-3,-1.960147619E-1,6.673717499E-2
3.230330302E0,3.320384026E-2,-1.884974241E-1,5.735492706E-2
3.238326334E0,2.363991737E-2,-1.564800739E-1,4.792308807E-2
3.246321442E0,1.837062836E-2,-1.169768572E-1,4.313755035E-2
3.254316782E0,5.745887756E-3,-1.390913725E-1,2.472877502E-3
3.262345430E0,3.384256363E-2,-1.581044197E-1,-1.173591614E-2
3.270339309E0,1.002998352E-1,-2.191817760E-1,7.479476929E-2
3.278335725E0,2.024416924E-1,-2.434996367E-1,1.709518433E-1
3.286330834E0,2.516705990E-1,-2.667387724E-1,3.734683990E-2
3.294326174E0,1.864368916E-1,-2.430865765E-1,-4.078674316E-2
3.302322206E0,5.819010735E-2,-1.759825945E-1,-8.949661255E-2
3.310317084E0,-6.818866730E-2,-1.524720192E-1,-1.040410995E-1
3.318343810E0,-1.623187065E-1,-1.490223408E-1,5.648517609E-2
3.326339226E0,-1.487712860E-1,-1.844863892E-1,-1.055335999E-2
3.334334643E0,-1.454565525E-1,-1.912393570E-1,8.346557617E-3
3.342329136E0,-1.380591393E-1,-1.363060474E-1,-3.057670593E-2
3.350325861E0,-1.265990734E-1,-7.719516754E-2,-5.072593689E-2
3.358322125E0,-1.471807957E-1,-4.993987083E-2,2.681159973E-2
3.366317926E0,-1.725649834E-1,2.627491951E-3,-6.581306458E-2
3.374343419E0,-1.422235966E-1,2.811837196E-2,-2.861022949E-4
3.382340144E0,-7.292628288E-2,7.407593727E-2,5.573940277E-2
3.390335560E0,-8.864402771E-4,7.605648041E-2,1.119613647E-2
3.398330669E0,4.763102531E-2,3.194880486E-2,3.615188599E-2
3.406326395E0,6.543993950E-2,1.850330830E-2,1.339912415E-3
3.414321504E0,3.793668747E-2,9.926080704E-3,-6.211948395E-2
3.422318689E0,-5.187630653E-2,-1.531004906E-2,1.569328308E-1
3.430343106E0,-9.411954880E-2,-2.443075180E-3,-6.230831146E-2
3.438339138E0,-1.655938625E-1,-4.196476936E-2,1.157388687E-1
3.446335402E0,-1.941051483E-1,-4.122900963E-2,3.987598419E-2
3.454330203E0,-1.296501160E-1,-2.109181881E-2,3.811550140E-2
3.462326927E0,-5.161476135E-2,-1.273727417E-2,2.324037552E-1
3.470322036E0,5.204081535E-2,-1.380372047E-2,4.815101624E-2
3.478318607E0,1.654326916E-1,-8.127939701E-2,2.160129547E-1
3.486343331E0,2.193782330E-1,-1.411687136E-1,6.567382812E-2
3.494338672E0,2.686409950E-1,-2.021683455E-1,4.966259003E-2
3.502336550E0,1.938457489E-1,-2.452434301E-1,7.711410522E-2
3.510330428E0,1.324164867E-1,-2.135035992E-1,-1.306533813E-4
3.518327153E0,1.515898705E-1,-1.671049595E-1,1.004762650E-1
3.526321646E0,2.101325989E-1,-1.206958294E-1,7.222270966E-2
3.534348141E0,2.163341045E-1,-1.006355286E-1,1.058578491E-2
3.542344480E0,7.122015953E-2,-5.291521549E-2,-6.243324280E-2
3.550338282E0,-1.088912487E-1,2.423667908E-2,-2.660875320E-1
3.558335621E0,-2.945876122E-1,5.468428135E-2,1.891174316E-1
3.566330346E0,-4.619445801E-1,1.069128513E-1,8.580780029E-2
3.574326070E0,-5.363690853E-1,1.010451317E-1,2.422351837E-1
3.582319949E0,-4.588894844E-1,4.164612293E-2,3.180179596E-1
3.590347443E0,-3.483455181E-1,6.055045128E-2,1.387519836E-1
3.598344321E0,-2.510983944E-1,1.188113689E-1,9.559631348E-2
3.606339430E0,-3.990831375E-1,2.496724129E-1,-7.137393951E-2
3.614334231E0,-5.951068401E-1,3.602572680E-1,-6.905269623E-2
3.622331571E0,-6.274621487E-1,3.601236343E-1,2.333908081E-1
3.630325758E0,-6.365625858E-1,3.302465677E-1,2.223587036E-1
3.638322328E0,-5.408606529E-1,2.459938526E-1,3.162050247E-1
3.646348206E0,-3.828470707E-1,1.699362993E-1,4.103145599E-1
3.654343315E0,2.116372585E-1,1.171832085E-1,4.494466782E-1
3.662340886E0,5.898954868E-1,2.023135424E-1,2.491474152E-2
3.670334765E0,8.889544010E-1,2.910370827E-1,5.049514771E-2
3.678330874E0,1.118831873E0,3.765958548E-1,-2.294883728E-1
3.686326290E0,1.183314323E0,3.711407185E-1,-4.683895111E-1
3.694320784E0,1.076771259E0,7.988083363E-2,-4.360170364E-1
3.702348124E0,8.561902046E-1,-2.503606081E-1,-4.874229431E-1
3.710343311E0,3.553686142E-1,-6.119593382E-1,-2.269840240E-1
3.718339343E0,-1.971397400E-1,-7.894234657E-1,2.127609253E-1
3.726334682E0,-8.870251179E-1,-7.484815121E-1,3.334484100E-1
3.734330484E0,-1.332400322E0,-4.307347536E-1,-1.384735107E-1
3.742327669E0,-1.374076366E0,2.814197540E-2,2.121486664E-1
3.750321625E0,-9.026219845E-1,2.223000526E-1,3.021268845E-1
3.758347811E0,-4.730935097E-1,3.075411320E-1,4.751491547E-1
3.766342843E0,-9.448814392E-2,3.319932222E-1,6.124534607E-1
3.774339568E0,-2.020359039E-2,4.046168327E-1,9.855365753E-1
3.782335600E0,4.330778122E-2,5.615316629E-1,3.048181534E-1
3.790330401E0,3.409261703E-1,6.949725747E-1,-1.625919342E-2
3.798326048E0,6.718940735E-1,8.046830297E-1,-6.204156876E-1
3.806322389E0,8.720319271E-1,7.485206127E-1,-7.609891891E-1
3.814347421E0,8.234283924E-1,5.599023700E-1,-6.612186432E-1
3.822341838E0,3.228909969E-1,2.127814293E-1,-5.278854370E-1
3.830339408E0,-1.638631821E-1,4.172754288E-2,-4.774923325E-1
3.838335210E0,-8.455557823E-1,-2.383832932E-1,-3.114271164E-1
3.846330243E0,-1.375188589E0,-4.970374107E-1,-2.538042068E-1
3.854325659E0,-1.717933416E0,-5.777609348E-1,2.752628326E-1
3.862322383E0,-1.626459599E0,-4.872878790E-1,3.541564941E-2
3.870347262E0,-9.398732185E-1,-3.419243097E-1,8.928413391E-1
3.878343909E0,4.386711121E-2,-1.130801439E-1,1.356274605E0
3.886339326E0,5.790557861E-1,2.372590303E-1,7.954397202E-1
3.894334743E0,5.873775482E-1,5.109472871E-1,4.945745468E-1
3.902331468E0,3.546695709E-1,5.539810061E-1,5.233221054E-1
3.910326577E0,1.527314186E-1,3.334196806E-1,6.793632507E-1
3.918321993E0,2.778291702E-1,-1.363818645E-1,7.117881775E-1
3.926347564E0,2.246823311E-1,-5.499091148E-1,7.564592361E-1
3.934342674E0,-2.759146690E-1,-8.164999485E-1,3.667030334E-1
3.942339321E0,-4.844181538E-1,-1.150972962E0,2.246713638E-1
3.950334353E0,-4.681231976E-1,-1.195104361E0,2.503118515E-1
3.958330770E0,-3.859965801E-1,-7.738001347E-1,-5.068092346E-1
3.966325494E0,-3.129792213E-1,-3.515392542E-1,-3.462514877E-1
3.974321218E0,-1.411542892E-1,-7.401120663E-2,-4.314117432E-1
3.982348636E0,1.797943115E-1,1.706540585E-2,-8.527040482E-1
3.990343514E0,5.840902328E-1,3.934812546E-2,-1.436117172E0
3.998340777E0,1.037971973E0,1.205714941E-1,-2.112902164E0
4.006334271E0,1.417350054E0,2.777773142E-1,-2.491272926E0
4.014330072E0,1.839994788E0,2.211176157E-1,-2.601222038E0
4.022326642E0,2.060128212E0,-1.503194571E-1,-2.340840340E0
4.030321521E0,1.842616796E0,-6.581796408E-1,-1.532215595E0
4.038348246E0,9.367704391E-1,-1.474319458E0,7.153825760E-1
4.046343432E0,-1.611011028E-1,-2.111200809E0,2.279523849E0
4.054338771E0,-1.671981812E0,-2.187468767E0,2.161047935E0
4.060320103E0,-2.078616858E0,-1.765424490E0,1.574745178E0
4.062332957E0,-2.078616858E0,-1.765424490E0,1.574745178E0
4.070329990E0,-1.547517061E0,-1.070778489E0,1.076578140E0
4.078326945E0,-8.962118626E-1,-2.043987513E-1,7.379245758E-1
4.086321439E0,-3.867869377E-1,3.695420027E-1,8.858251572E-1
4.094346932E0,1.470921040E-1,8.929416537E-1,4.637851715E-1
4.102344503E0,3.231358528E-1,1.006495714E0,4.030990601E-1
4.110338996E0,8.255624771E-2,1.055307865E0,-3.790760040E-2
4.118334491E0,-4.055905342E-1,1.101729631E0,-3.067588806E-2
4.126331062E0,-5.452189445E-1,9.849281311E-1,-7.437705994E-2
4.134325632E0,-3.945939541E-1,9.375126362E-1,-1.243448257E-1
4.142323433E0,1.492168903E-1,9.193038940E-1,2.447996140E-1
4.150347234E0,5.690565109E-1,1.065627575E0,-8.151044846E-1
4.158343268E0,6.892039776E-1,1.112187028E0,-1.596959114E0
4.166338915E0,5.413899422E-1,1.010426521E0,-2.064659119E0
4.174334639E0,3.010725975E-2,7.348121405E-1,-1.830926895E0
4.182331979E0,-8.490984440E-1,4.674398899E-1,-2.001167297E0
4.190325549E0,-2.291922092E0,8.824717999E-2,-1.611728191E0
4.198321889E0,-2.667364597E0,-3.681557178E-1,-1.917877197E-1
4.206347153E0,-2.211474419E0,-9.953526258E-1,2.885386467E0
4.214342800E0,-1.423727512E0,-1.421899676E0,4.058783531E0
4.222340371E0,-3.863935471E-1,-1.358948231E0,2.918457031E0
4.230334326E0,1.349193335E0,-1.035981059E0,1.482288361E0
4.238331281E0,2.740657330E0,-5.997707844E-1,3.810663223E-1
4.246325160E0,3.758926630E0,-1.339273453E-1,-1.350202560E-1
4.254321115E0,3.712951422E0,8.207905293E-2,7.670497894E-2
4.262347993E0,1.548513412E0,3.609153032E-1,8.767786026E-1
4.270343025E0,-1.167787552E0,8.610945344E-1,-2.770223618E-1
4.278339365E0,-2.166897297E0,1.131323695E0,-1.329748631E0
4.286334782E0,-1.354064703E0,1.085824251E0,-1.270588398E0
4.294330199E0,6.043434143E-2,7.447674274E-1,-9.224023819E-1
4.302324078E0,9.751837254E-1,2.416585684E-1,-9.611644745E-1
4.310321417E0,8.167834282E-1,-3.749704361E-2,-1.067879677E0
4.318347834E0,2.544145584E-1,-1.609203815E-1,-8.092727661E-1
4.326342712E0,-5.489635468E-1,-3.379161358E-1,1.439476013E-1
4.334338053E0,-1.032290459E0,-6.177512407E-1,9.835214615E-1
4.342335623E0,-1.138058662E0,-9.133541584E-1,1.384451866E0
4.350329886E0,-1.006298065E0,-7.860654593E-1,9.315881729E-1
4.358326149E0,-4.381523132E-1,-5.110231638E-1,4.016151428E-1
4.366352027E0,3.986628056E-1,-3.153872490E-1,9.398393631E-1
4.374347828E0,8.038470745E-1,-1.079505682E-1,5.550994873E-1
4.382344708E0,9.408032894E-1,-8.915305138E-2,1.232843399E0
4.390339201E0,6.117084026E-1,4.439747334E-2,3.367652893E-1
4.398335310E0,-1.609449387E-1,3.217062950E-1,-6.490087509E-1
4.406329804E0,-8.969342709E-1,4.611824751E-1,-2.335271835E-1
4.414325759E0,-1.456035376E0,5.927683115E-1,-4.123954773E-1
4.422321791E0,-1.902852297E0,7.067563534E-1,-3.448495865E-1
4.430347439E0,-1.892848015E0,9.058958292E-1,-2.512807846E-1
4.438343471E0,-1.397324800E0,5.877204537E-1,1.711646080E0
4.446338195E0,-3.820199966E-1,4.327470064E-1,8.246803284E-1
4.454334843E0,4.685761929E-1,2.109730244E-1,6.036567688E-1
4.462330336E0,1.311074018E0,6.148469448E-2,1.026449203E-1
4.470325677E0,1.543244839E0,2.179265022E-2,-3.297157288E-1
4.478351940E0,1.322394848E0,-1.840806007E-2,-1.235433578E0
4.486347895E0,1.090511799E0,-1.184458733E-1,-1.481965542E0
4.494343619E0,3.794460297E-1,-3.114280701E-1,-3.737707138E-1
4.502339959E0,-4.441447258E-1,-5.103158951E-1,-7.855033875E-1
4.510334222E0,-8.250660896E-1,-5.660740137E-1,-9.732265472E-1
4.518330563E0,-6.457421780E-1,-5.070811510E-1,-4.934139252E-1
4.526325364E0,-2.183990479E-1,-3.478496075E-1,-2.303457260E-1
4.534321627E0,-3.460192680E-2,-1.361618042E-1,-8.624458313E-2
4.540332189E0,-5.695390701E-2,-2.826023102E-2,-3.054332733E-1
4.542345736E0,-4.977130890E-2,-1.628911495E-2,-3.485288620E-1
4.550342614E0,1.461188793E-1,1.800954342E-2,-5.426912308E-1
4.558339877E0,7.691700459E-1,-6.700515747E-2,-4.967174530E-1
4.566334679E0,1.329219580E0,-1.951069832E-1,-1.586856842E-1
4.574330172E0,1.575837135E0,-5.161076784E-1,6.462688446E-1
4.582326820E0,1.460460424E0,-7.614829540E-1,9.686756134E-1
4.590351775E0,1.130752087E0,-9.793226719E-1,1.012276649E0
4.598348039E0,1.054018974E0,-8.532140255E-1,5.063743591E-1
4.606343763E0,8.208253384E-1,-3.741683960E-1,-7.132339478E-2
4.614339180E0,2.922644615E-1,1.105790138E-1,1.443719864E-1
4.622335212E0,-5.426764488E-2,3.283041716E-1,1.875753403E-1
4.630330397E0,-4.031574726E-1,2.833639383E-1,4.144344330E-1
4.638326045E0,-7.454524040E-1,7.454884052E-2,3.345098495E-1
4.646352001E0,-8.830003738E-1,-8.837676048E-2,5.033674240E-1
4.654348033E0,-8.608858585E-1,-2.255288363E-1,3.836460114E-1
4.662343680E0,-6.672670841E-1,-2.143323421E-1,6.714544296E-1
4.670338789E0,-5.179607868E-1,-1.038224697E-1,4.637355804E-1
4.678335437E0,-4.650311470E-1,1.984288692E-1,-1.774120331E-2
4.686330238E0,-7.896714211E-1,6.472378969E-1,-5.371274948E-1
4.694325732E0,-1.207134008E0,1.098991156E0,-7.900199890E-1
4.702352841E0,-1.173215389E0,1.317107558E0,-5.495386124E-1
4.710347027E0,-8.439798355E-1,9.531677961E-1,1.535537720E0
4.718344521E0,-6.024544239E-1,6.560127735E-1,4.806776047E-1
4.726338476E0,-2.318384647E-1,2.218400240E-1,4.416589737E-1
4.734334817E0,2.503595352E-1,2.272176743E-2,-2.809743881E-1
4.742330772E0,3.206491470E-1,1.422200203E-1,-6.162815094E-1
4.750326496E0,2.109289169E-1,3.763500452E-1,-8.737125397E-1
4.758352374E0,2.819261551E-1,4.951839447E-1,-1.215629578E0
4.766347868E0,4.979155064E-1,4.478036165E-1,-1.134121895E0
4.774342900E0,6.493337154E-1,8.537781239E-2,-4.851360321E-1
4.790334426E0,7.859516144E-2,-5.765912533E-1,-3.117914200E-1
4.798330689E0,-5.127315521E-1,-6.705948114E-1,-4.800014496E-1
4.806325875E0,-8.753659725E-1,-7.081710100E-1,-3.269853592E-1
4.814351138E0,-6.610960960E-1,-7.220627069E-1,4.931068420E-2
4.822348094E0,-2.876391411E-1,-7.349157333E-1,4.912548065E-1
4.830342818E0,1.462030411E-2,-7.588924170E-1,7.378625870E-1
4.838339158E0,1.151890755E-1,-7.063304186E-1,6.660594940E-1
4.846334344E0,1.817507744E-1,-5.851283073E-1,5.268144608E-1
4.854329684E0,2.263121605E-1,-4.870330095E-1,3.257331848E-1
4.862326716E0,3.290479183E-1,-3.040834665E-1,2.087402344E-1
4.870351902E0,5.045943260E-1,-7.608294487E-2,4.604434967E-2
4.878347011E0,6.864609718E-1,1.054419279E-1,1.212348938E-1
4.886343428E0,8.856647015E-1,1.841132641E-1,-7.354545593E-2
4.894338460E0,8.115375042E-1,1.905046701E-1,1.898097992E-2
4.902335415E0,6.321334839E-1,-7.469654083E-3,2.661905289E-1
4.910329678E0,4.246046543E-1,-1.224038601E-1,2.349739075E-1
4.918326326E0,-9.216856956E-2,-1.024234295E-1,-6.656646729E-2
4.926351897E0,-8.090462685E-1,1.891807318E-1,-5.106143951E-1
4.934347313E0,-1.395217419E0,4.954627752E-1,-6.511754990E-1
4.942343884E0,-1.703781366E0,6.359627247E-1,-6.007003784E-1
4.950338070E0,-1.749733686E0,6.021745205E-1,-3.092565536E-1
4.958334718E0,-1.669080257E0,4.112806320E-1,-8.945465088E-4
4.966330135E0,-1.482941628E0,3.408385515E-1,1.361570358E-1
4.974325551E0,-1.409775734E0,3.454999924E-1,3.810119629E-2
4.982353353E0,-1.521959305E0,4.117653370E-1,7.409667969E-2
4.990346615E0,-1.519903660E0,4.631673098E-1,1.433095932E-1
4.998343494E0,-1.233323097E0,4.971578121E-1,1.273441315E-1
5.006338681E0,-6.437792778E-1,4.509354830E-1,2.298936844E-1
5.014334405E0,2.821879387E-1,3.380448818E-1,9.381847382E-1
5.022327898E0,1.299607754E0,1.087929010E-1,1.125765800E0
5.030325238E0,1.469484329E0,-3.310441971E-3,7.105464935E-1
5.038352578E0,1.391371965E0,-1.392006874E-1,3.214693069E-1
5.046347380E0,1.420902014E0,-3.154945374E-1,-6.628894806E-2
5.054341951E0,1.689123273E0,-5.428446531E-1,3.562641144E-1
5.062339752E0,1.860619187E0,-4.682142735E-1,-2.415456772E-1
5.070334245E0,1.448652506E0,-2.505184412E-1,1.001968384E-1
5.078330970E0,7.109665871E-1,3.775286674E-2,-2.059545517E-1
5.086325386E0,-1.834714413E-1,2.426134348E-1,-2.138175964E-1
5.094350958E0,-9.338459969E-1,2.036697865E-1,5.094547272E-1
5.102348528E0,-5.237269402E-1,-5.472815037E-2,4.060869217E-1
5.110342406E0,1.906704903E-2,-4.371964931E-2,5.824375153E-2
5.118339669E0,3.043887615E-1,2.510126829E-1,-1.303787231E-1
5.126334471E0,5.107367039E-1,4.532291889E-1,-1.210403442E-1
5.134330195E0,9.170212746E-1,4.406704903E-1,-1.459493637E-1
5.142325920E0,1.295434952E0,1.723573208E-1,-1.486444473E-1
5.150351260E0,1.724585772E0,-2.278264761E-1,-4.989624023E-2
5.158348753E0,1.892310977E0,-6.479732990E-1,1.209058762E-1
5.166343016E0,1.836258769E0,-9.139739275E-1,6.292419434E-1
5.174338664E0,1.543795466E0,-7.922296524E-1,9.937000275E-2
5.182336543E0,6.874284744E-1,-4.186697006E-1,2.764530182E-1
5.190329575E0,1.476461887E-1,-6.987965107E-2,5.438289642E-1
5.198327068E0,1.355862617E-1,9.386646748E-2,4.215621948E-1
5.206351716E0,1.209185123E-1,1.853711605E-1,1.642847061E-1
5.214346594E0,-1.730639935E-1,2.691754103E-1,-1.067457199E-1
5.222344165E0,-5.388412476E-1,2.366310358E-1,-1.799964905E-1
5.230338967E0,-8.832826614E-1,1.830558777E-1,-2.896842957E-1
5.238335229E0,-1.163082838E0,2.146034241E-1,-5.507822037E-1
5.246330108E0,-1.561147690E0,3.474575281E-1,-6.908254623E-1
5.254325524E0,-1.964553595E0,3.926320076E-1,-2.367763519E-1
5.262349864E0,-2.037542343E0,2.397644520E-1,2.490730286E-1
5.270347359E0,-1.698462486E0,4.415154457E-2,3.493680954E-1
5.278343467E0,-1.219836950E0,-7.871699333E-2,3.563318253E-1
5.286338192E0,-1.049908638E0,1.762247086E-2,1.163682938E-1
5.294334608E0,-9.705209732E-1,2.066617012E-1,-2.277793884E-1
5.302330564E0,-7.119276524E-1,1.208721399E-1,-2.611436844E-1
5.310325672E0,-2.399158478E-2,-2.460817099E-1,1.071741104E0
5.318352552E0,3.163735867E-1,-3.379355669E-1,5.610189438E-1
5.326346738E0,3.475146294E-1,-4.299353361E-1,2.015647888E-1
5.334343308E0,3.680157661E-1,-4.302946329E-1,-6.035518646E-2
5.342339648E0,3.573751450E-1,-3.351631165E-1,-3.605937958E-1
5.350333526E0,4.391598701E-1,-1.809328794E-1,-6.882667542E-1
5.358329559E0,4.497971535E-1,-1.003848314E-1,-9.840831757E-1
5.366325668E0,3.745956421E-1,2.753674984E-2,-1.298681736E0
5.374351854E0,3.123087883E-1,1.270662546E-1,-1.346812725E0
5.382349117E0,2.437503338E-1,2.241151333E-1,-1.599801540E0
5.390342687E0,1.679267883E-1,1.752717495E-1,-7.024097443E-1
5.398339027E0,1.190116405E-1,-1.930480003E-1,2.843847275E-1
5.406334137E0,2.293944359E-2,-6.245418787E-1,5.223264694E-1
5.414329784E0,7.437872887E-2,-8.899351358E-1,6.786899567E-1
5.422326816E0,4.672288895E-1,-1.008295655E0,8.426494598E-1
5.430351771E0,7.953910828E-1,-8.177001476E-1,6.199674606E-1
5.438347111E0,7.924208641E-1,-5.803705454E-1,5.636463165E-1
5.446342836E0,6.046059132E-1,-3.054314852E-1,5.507907867E-1
5.454338022E0,3.274588585E-1,-1.728541851E-1,8.086099625E-1
5.462335208E0,1.163032055E-1,-9.651768208E-2,5.989875793E-1
5.470330009E0,1.472616196E-2,-7.712292671E-2,4.692010880E-1
5.478356272E0,-1.817595959E-1,2.135293484E-1,-1.362514496E-1
5.486351919E0,-7.935464382E-1,6.229071617E-1,-2.566986084E-1
5.494346799E0,-1.201217890E0,8.241205215E-1,-1.827182770E-1
5.502341215E0,-1.412997007E0,8.979392052E-1,-7.946491241E-2
5.510338863E0,-1.448061466E0,8.473024964E-1,1.679763794E-1
5.518334279E0,-1.391338348E0,9.421680570E-1,-1.369485855E-1
5.526329696E0,-1.337362051E0,8.088104129E-1,1.299514771E-1
5.534355806E0,-1.102376938E0,6.101814508E-1,9.148406982E-2
5.542352146E0,-5.970728397E-1,4.435969591E-1,-2.433176041E-1
5.550347562E0,-8.557486534E-2,3.369547129E-1,-2.374744415E-2
5.558343363E0,3.427567482E-1,3.133391142E-1,-2.863626480E-1
5.566338472E0,3.637990952E-1,1.857362986E-1,-4.615917206E-1
5.574333889E0,2.573809624E-1,-6.567072868E-2,-7.877645493E-1
5.582331076E0,1.335127354E-1,-3.242018223E-1,-1.080848694E0
5.590355723E0,3.855609894E-2,-5.434818268E-1,-1.131607533E0
5.598351832E0,2.335190773E-2,-6.924542189E-1,-8.636808395E-1
5.606346864E0,1.717205048E-1,-8.132903576E-1,-5.942869186E-1
5.614342589E0,2.808976173E-1,-9.048807621E-1,1.827840805E-1
5.622339545E0,6.424629688E-1,-9.291954041E-1,3.823280334E-1
5.630334115E0,8.503992558E-1,-9.635961056E-1,5.577116013E-1
5.638330378E0,9.168484211E-1,-8.561298847E-1,4.852619171E-1
5.646356025E0,8.658430576E-1,-5.858913660E-1,3.522500992E-1
5.654351673E0,8.661205769E-1,-1.790095568E-1,2.933282852E-1
5.662348012E0,8.202080727E-1,-1.762330532E-2,5.599060059E-1
5.670342276E0,7.703096867E-1,-6.807434559E-2,4.715538025E-1
5.678339539E0,8.493659496E-1,-1.424497366E-1,1.595764160E-1
5.686334033E0,8.456249237E-1,-1.861242056E-1,-3.196620941E-2
5.694329757E0,4.651451111E-1,-1.810773611E-1,-1.837320328E-1
5.702356250E0,-1.399476528E-1,-8.310639858E-2,-1.495618820E-1
5.710351360E0,-8.670959473E-1,1.744353771E-2,1.175813675E-1
5.718347623E0,-1.352901936E0,2.704370022E-2,3.898448944E-1
5.726342809E0,-1.327259779E0,1.624095440E-2,5.724878311E-1
5.734338149E0,-9.880607128E-1,1.109260321E-1,7.361402512E-1
5.742332335E0,-5.387239456E-1,3.319818974E-1,7.874956131E-1
5.750329290E0,-4.004752636E-1,6.189820766E-1,6.234951019E-1
5.758356477E0,-5.971751213E-1,9.748013020E-1,1.947536469E-1
5.766350970E0,-8.265812397E-1,8.947249651E-1,1.590414047E-1
5.774346925E0,-4.830741882E-1,4.299939871E-1,4.926128387E-1
5.782343342E0,5.545091629E-2,2.271348238E-1,8.715705872E-1
5.790338066E0,5.692982674E-1,3.444471359E-1,5.880384445E-1
5.798335406E0,7.241146564E-1,6.954182386E-1,4.236698151E-1
5.806329824E0,6.344187260E-1,1.044697285E0,1.280117035E-1
5.814355394E0,4.481999874E-1,1.060975313E0,3.522586823E-2
5.822352657E0,4.543297291E-1,7.438143492E-1,5.253791809E-2
5.830346612E0,5.390806198E-1,2.304320335E-1,-3.570556641E-2
5.838344105E0,5.172562599E-1,-6.916975975E-2,-2.484140396E-1
5.846338677E0,2.011854649E-1,-1.567561626E-1,-4.280776978E-1
5.854334401E0,-5.424928665E-2,1.190764904E-1,-9.821243286E-1
5.862330433E0,-4.669909477E-1,3.412392139E-1,-1.802749634E-1
5.870355311E0,-5.881087780E-1,3.871086836E-1,7.121562958E-2
5.878351959E0,-4.580204487E-1,3.467725515E-1,-5.498933792E-1
5.886347068E0,-3.440709114E-1,1.811635494E-1,-4.433698654E-1
5.894342870E0,-2.248725891E-1,8.806335926E-2,-6.048307419E-1
5.902339210E0,-2.055931091E-2,-6.999492645E-3,-2.912912369E-1
5.910333934E0,1.970527172E-1,-1.628568172E-1,-2.989177704E-1
5.918330966E0,2.618129253E-1,-2.838850021E-1,-4.031715393E-1
5.926355844E0,1.032724380E-1,-4.510858059E-1,-5.412712097E-1
5.934350954E0,-1.685214043E-1,-5.327235460E-1,-6.237468719E-1
5.942348525E0,-4.351930618E-1,-6.200952530E-1,-5.794105530E-1
5.950342787E0,-5.950913429E-1,-6.087428331E-1,-5.214805603E-1
5.958339127E0,-6.775963306E-1,-5.474210978E-1,-3.033342361E-1
5.966333005E0,-6.536505222E-1,-3.734964132E-1,6.333351135E-3
5.974329345E0,-6.228461266E-1,-1.869235039E-1,2.773027420E-1
5.982354301E0,-6.098616123E-1,-2.241480350E-2,4.620637894E-1
5.990351564E0,-6.293022633E-1,9.986722469E-2,4.214086533E-1
5.998347288E0,-5.700211525E-1,2.203041315E-1,3.462839127E-1
6.006342705E0,-3.919475079E-1,2.901301384E-1,2.712421417E-1
6.014338352E0,-1.449294090E-1,2.432289124E-1,2.924222946E-1
6.022335077E0,4.559826851E-1,1.100832224E-1,4.882011414E-1
6.030329494E0,1.007707596E0,4.589641094E-2,4.617052078E-1
6.038356065E0,1.413257837E0,2.410626411E-2,3.892755508E-1
6.046351481E0,1.455756903E0,9.875154495E-2,3.188581467E-1
6.054346513E0,1.063612938E0,1.518576145E-1,2.257986069E-1
6.062343776E0,4.490199089E-1,1.863119602E-1,2.029685974E-1
6.070338348E0,-2.555966377E-2,1.301213503E-1,1.004276276E-1
6.078334687E0,-3.361804485E-1,8.805680275E-2,-1.154632568E-1
6.086329719E0,-5.901789665E-1,1.487123966E-1,-3.099832535E-1
6.094355290E0,-8.780767918E-1,1.949476004E-1,-4.115819931E-1
6.102352014E0,-9.672167301E-1,1.551744938E-1,-3.218603134E-1
6.110347355E0,-8.732500076E-1,4.512679577E-2,-1.205139160E-1
6.118343695E0,-6.184358597E-1,-9.071493149E-2,1.161823273E-1
6.126338573E0,-3.566012383E-1,-1.392303705E-1,3.285064697E-1
6.134333297E0,-1.632750034E-1,-1.584668159E-1,3.840131760E-1
6.142331483E0,-2.072143555E-2,-1.249816418E-1,2.662115097E-1
6.150355823E0,4.648160934E-2,-6.021118164E-2,9.078311920E-2
6.158351317E0,3.525972366E-2,-1.214492321E-2,4.498481750E-3
6.166347042E0,9.070634842E-3,-7.717132568E-3,-8.987426758E-3
6.174342689E0,-3.517413139E-2,-5.935847759E-2,-3.759670258E-2
6.182339952E0,-4.063415527E-2,-1.115196943E-1,-2.778339386E-2
6.190333830E0,-1.562714577E-2,-1.277707815E-1,-9.861087799E-2
6.198330477E0,-5.023145676E-2,-9.057664871E-2,-1.872844696E-1
6.206355818E0,-1.248633862E-1,-5.189251900E-2,-2.216577530E-1
6.214351235E0,-2.801873684E-1,2.584731579E-2,-2.114248276E-1
6.222345344E0,-3.948314190E-1,-8.878946304E-3,-1.408576965E-3
6.230343222E0,-3.585622311E-1,-5.363690853E-2,1.008329391E-1
6.238339023E0,-2.750439644E-1,-1.758571863E-1,4.242429733E-1
6.246334364E0,-1.798408031E-1,-2.277418375E-1,4.961290359E-1
6.254329473E0,-1.959753036E-2,-2.464597225E-1,2.643327713E-1
6.262356351E0,3.674674034E-2,-2.040954828E-1,7.677745819E-2
6.270351152E0,6.486129761E-2,-1.174105406E-1,-1.800537109E-2
6.278347723E0,5.866432190E-2,1.759147644E-2,-4.600906372E-2
6.286342601E0,5.055046082E-2,1.336246729E-1,-1.072788239E-1
6.294337403E0,2.819752693E-2,2.165688276E-1,-1.146802902E-1
6.302334358E0,3.075385094E-2,1.697419882E-1,-2.202024460E-1
6.310329159E0,3.076386452E-2,9.126198292E-2,-3.131580353E-1
6.318357191E0,7.536411285E-3,-1.549363136E-3,-2.241163254E-1
6.326351608E0,-7.112956047E-2,-1.352883577E-1,2.273559570E-3
6.334346180E0,-7.699346542E-2,-2.669337988E-1,2.160329819E-1
6.342343365E0,-5.348014832E-2,-2.999556065E-1,3.442564011E-1
6.350337551E0,-4.181170464E-2,-3.748254776E-1,2.671318054E-1
6.358334814E0,-1.175179482E-1,-3.116241693E-1,8.575344086E-2
6.366360692E0,-2.432901859E-1,-2.280248404E-1,8.798599243E-2
6.374355570E0,-3.249862194E-1,-1.226356030E-1,-6.599140167E-2
6.382351603E0,-2.956852913E-1,-8.133757114E-2,2.115249634E-3
6.390347328E0,-2.368242741E-1,-4.488313198E-2,7.267951965E-3
6.398343283E0,-1.298525333E-1,-7.208585739E-4,-1.501817703E-1
6.406338084E0,-2.623438835E-2,7.742667198E-2,-6.508731842E-2
6.414333501E0,-5.488395691E-3,7.215595245E-2,-1.125192642E-1
6.422360303E0,6.843566895E-2,6.882250309E-2,1.237668991E-1
6.430355412E0,9.210801125E-2,-4.841101170E-2,2.339801788E-1
6.438351829E0,1.180119514E-1,-1.577599049E-1,6.670236588E-1
6.446346630E0,6.143569946E-3,-2.078690529E-1,7.985792160E-1
6.454342585E0,-1.703405380E-1,-1.579489708E-1,4.007415771E-1
6.460354301E0,-2.614753246E-1,-1.175861359E-1,-1.647834778E-1
6.462336232E0,-2.710521221E-1,-1.175861359E-1,-1.647834778E-1
6.470334111E0,-3.265438080E-1,-1.745110750E-1,1.103954315E-1
6.478360913E0,-3.358132839E-1,-1.452596188E-1,-1.620559692E-1
6.486355329E0,-4.403955936E-1,-1.037970781E-1,-3.475770950E-1
6.494351054E0,-5.541718006E-1,-4.170155525E-2,-6.213808060E-1
6.502348086E0,-4.944033623E-1,2.693605423E-2,-7.383022308E-1
6.510342810E0,-4.589719772E-1,-2.395164967E-2,1.867218018E-1
6.518338535E0,-2.091317177E-1,-7.972061634E-2,-2.565660477E-1
6.526333721E0,2.506241798E-1,2.597808838E-3,-1.047036648E0
6.534360138E0,4.998538494E-1,1.488637924E-2,-5.114679337E-1
6.542356170E0,7.315618992E-1,7.922315598E-2,-4.873685837E-1
6.550351048E0,6.837971210E-1,1.351511478E-1,-4.712877274E-1
6.558347081E0,5.198819637E-1,6.323516369E-2,-4.632215500E-1
6.566343036E0,5.704517365E-1,-1.228373051E-1,-1.734542847E-1
6.574337837E0,6.593317986E-1,-2.832837105E-1,-1.025056839E-1
6.582334562E0,5.937640667E-1,-4.205965996E-1,-1.080036163E-2
6.590360363E0,4.482452869E-1,-5.467283726E-1,1.102733612E-1
6.598357088E0,-2.113342285E-3,-5.104624033E-1,-8.938789368E-2
6.606351505E0,-5.349841118E-1,-3.436032534E-1,2.371692657E-2
6.614346999E0,-7.860407829E-1,-2.660372257E-1,2.256326675E-1
6.622343877E0,-8.534235954E-1,-2.103157043E-1,2.867918015E-1
6.630338063E0,-7.922568321E-1,-2.037631273E-1,4.230842590E-1
6.638334710E0,-5.644669533E-1,-1.881140471E-1,3.687820435E-1
6.646359358E0,-3.250470161E-1,-1.053851843E-1,2.870912552E-1
6.654355160E0,-7.919692993E-2,6.576967239E-2,2.459411621E-1
6.662352038E0,6.489634514E-2,2.702376842E-1,1.528711319E-1
6.670346839E0,1.915187836E-1,3.812242746E-1,2.630167007E-1
6.678343486E0,3.723626137E-1,4.286735058E-1,2.778806686E-1
6.686338057E0,5.271892548E-1,4.132702351E-1,2.766284943E-1
6.694334321E0,6.245002747E-1,3.722355366E-1,2.085704803E-1
6.700344806E0,5.221548080E-1,3.587297201E-1,-2.129840851E-2
6.702358045E0,5.030012131E-1,3.563355207E-1,-2.129840851E-2
6.710355616E0,3.282735348E-1,3.545995951E-1,2.552890778E-2
6.718352032E0,3.007745743E-2,3.318293095E-1,6.977653503E-2
6.726347064E0,-1.695244312E-1,2.537733316E-1,8.758354187E-2
6.734342790E0,-3.060348034E-1,1.909813881E-1,1.118192673E-1
6.742339437E0,-3.788247108E-1,1.532447338E-1,5.794715881E-2
6.750333315E0,-4.447970390E-1,1.452505589E-1,7.835578918E-2
6.758361116E0,-5.005555153E-1,1.472666264E-1,8.131694794E-2
6.766356148E0,-5.106809139E-1,2.040311098E-1,1.622200012E-1
6.774350642E0,-4.447240829E-1,2.050393820E-1,2.368822098E-1
6.782347675E0,-2.842965126E-1,2.149202824E-1,2.259435654E-1
6.790342168E0,-1.661164761E-1,2.221373320E-1,2.706365585E-1
6.798338431E0,1.692724228E-2,1.911135912E-1,1.659326553E-1
6.806334540E0,1.494791508E-1,1.941304207E-1,1.785612106E-1
6.814359495E0,1.608376503E-1,2.754621506E-1,4.543018341E-2
6.822356144E0,1.432061195E-2,4.557358027E-1,-2.113666534E-1
6.830350945E0,-3.315126896E-1,6.036012173E-1,-3.869009018E-1
6.838347285E0,-5.098109245E-1,5.437538624E-1,-2.836065292E-1
6.846342624E0,-4.311416149E-1,2.223851681E-1,1.231985092E-1
6.854338426E0,-5.234885216E-2,-2.967485189E-1,3.587265015E-1
6.862334381E0,3.173584938E-1,-6.226680279E-1,4.213714600E-1
6.870359337E0,6.034431458E-1,-8.266068697E-1,3.352203369E-1
6.878356677E0,6.965935230E-1,-7.575139999E-1,1.766881943E-1
6.886351401E0,5.936584473E-1,-5.559530258E-1,5.683612823E-2
6.894346817E0,3.977222443E-1,-3.900001049E-1,-8.255958557E-3
6.902343234E0,1.950352192E-1,-2.939354181E-1,-4.575538635E-2
6.910337958E0,9.885358810E-2,-2.802703381E-1,-1.142702103E-1
6.918334299E0,1.249725819E-1,-2.625958920E-1,-1.078224182E-1
6.926359254E0,1.840071678E-1,-2.189970016E-1,-6.023120880E-2
6.934355671E0,1.560518742E-1,-7.624709606E-2,-2.206420898E-2
6.940336310E0,1.687026024E-2,2.174663544E-2,4.003047943E-2
6.942349164E0,1.687026024E-2,2.174663544E-2,4.003047943E-2
6.950345812E0,-7.499003410E-2,6.757426262E-2,1.850557327E-1
6.958342229E0,-1.074707508E-1,8.046472073E-2,3.521614075E-1
6.966338262E0,-6.007719040E-2,3.004145622E-2,3.771562576E-1
6.974333678E0,-6.417512894E-3,1.271593571E-2,3.503322601E-1
6.982361402E0,1.815819740E-2,2.869534492E-2,2.216901779E-1
6.990354358E0,-1.499176025E-3,5.165052414E-2,2.307415009E-2
6.998352160E0,-6.883692741E-2,8.877420425E-2,-1.012554169E-1
7.006346423E0,-2.330503464E-1,9.725511074E-2,-9.807300568E-2
7.014342455E0,-2.425627708E-1,1.703119278E-2,-1.612596512E-1
7.022339025E0,-1.681704521E-1,-1.454257965E-1,-1.215953827E-1
7.030333211E0,-4.525518417E-2,-2.360051870E-1,-2.096033096E-1
7.038361012E0,2.506875992E-2,-2.946561575E-1,-3.034591675E-2
7.046355199E0,6.725120544E-2,-2.619355917E-1,-1.535034180E-1
7.054351231E0,6.500959396E-2,-2.594213486E-1,-1.371479034E-2
7.062348109E0,-3.348064423E-2,-2.550077438E-1,7.307910919E-2
7.070342064E0,-7.164716721E-2,-2.057703733E-1,-5.791378021E-2
7.078338096E0,-1.188950539E-1,-1.523404121E-1,1.296329498E-1
7.086334128E0,-1.913771629E-1,-2.870309353E-2,-4.656124115E-2
7.094359085E0,-1.505718231E-1,5.345618725E-2,5.756568909E-2
7.102356578E0,-2.309846878E-2,5.570864677E-2,8.990859985E-2
7.110350841E0,5.004119873E-2,7.875108719E-2,-1.289463043E-1
7.118346873E0,9.107923508E-2,9.225654602E-2,-5.502128601E-2
7.126342213E0,1.154918671E-1,1.871362925E-1,-1.283311844E-1
7.134337323E0,1.327800751E-1,1.360152960E-1,1.323509216E-1
7.142334355E0,1.634259224E-1,-6.723403931E-5,1.037836075E-1
7.150359540E0,1.520562172E-1,-1.105933189E-1,1.814651489E-2
7.158355880E0,6.142044067E-2,-2.191345692E-1,1.047229767E-1
7.166350758E0,-2.198648453E-2,-2.396976948E-1,3.193616867E-1
7.174346406E0,-1.423344612E-1,-2.134596109E-1,4.435510635E-1
7.182340900E0,-3.634824753E-1,-1.597706079E-1,5.195474625E-1
7.190337625E0,-4.787106514E-1,-1.242351532E-1,3.633604050E-1
7.198334195E0,-6.041855812E-1,6.607639790E-2,-2.805109024E-1
7.206358919E0,-7.901940346E-1,3.588286638E-1,-7.220363617E-1
7.214355798E0,-1.243525028E0,6.774200201E-1,-8.012113571E-1
7.222351908E0,-1.631186485E0,8.124897480E-1,-5.639715195E-1
7.230346401E0,-1.495331287E0,6.054974794E-1,-2.835988998E-1
7.238343279E0,-7.946414948E-1,1.881575584E-2,6.734237671E-1
7.246337773E0,-1.722621918E-1,-2.493547201E-1,1.296842575E0
7.254333805E0,7.625429630E-1,-7.088780403E-3,2.801876068E-1
7.262360606E0,1.615704298E0,9.001493454E-2,5.081043243E-1
7.270355178E0,2.202292442E0,7.014262676E-2,7.261276245E-3
7.278351825E0,2.371156216E0,-4.931116104E-2,-8.567128181E-1
7.286346319E0,2.166711807E0,-3.085235357E-1,-7.724518776E-1
7.294341966E0,1.592241526E0,-6.378498077E-1,-1.159240246E0
7.302338383E0,9.121239185E-1,-8.511186838E-1,-1.026708603E0
7.310333799E0,2.800941467E-2,-1.047861814E0,-7.025876045E-1
7.318360294E0,-7.765488625E-1,-1.072212934E0,-7.128682137E-1
7.326355095E0,-1.356001854E0,-9.589895010E-1,-8.860926628E-1
7.334351358E0,-1.662351608E0,-7.782633305E-1,-6.671452522E-1
7.342348697E0,-1.562433720E0,-5.928653479E-1,-2.118310928E-1
7.350341960E0,-1.339257240E0,-4.316200018E-1,3.473930359E-1
7.358338224E0,-9.960374832E-1,-2.394378185E-1,9.564170837E-1
7.366333410E0,-5.174565315E-1,-1.161783934E-1,1.003749847E0
7.374359827E0,-2.707324028E-1,9.993386269E-2,7.799730301E-1
7.382355936E0,-4.868168831E-1,3.456454277E-1,3.085927963E-1
7.390350968E0,-9.336681366E-1,4.969850779E-1,4.963798523E-1
7.398347076E0,-1.217141151E0,4.754552841E-1,4.878931046E-1
7.406342417E0,-1.250450134E0,3.619539738E-1,2.758359909E-1
7.414338449E0,-1.002837658E0,5.781265497E-1,-8.157844543E-1
7.420349012E0,-9.107542038E-1,9.237527251E-1,1.280857086E0
7.422362174E0,-8.868122101E-1,9.548773170E-1,1.558584213E0
7.430359436E0,-4.941468239E-1,1.184608221E0,1.222816467E0
7.438355545E0,3.767299652E-1,1.434898496E0,4.486627579E-1
7.446351194E0,1.405507565E0,1.455979943E0,-1.157207489E-1
7.454346918E0,2.461537600E0,1.249355793E0,-6.906609535E-1
7.462343335E0,3.138931751E0,7.830801606E-1,-7.066416740E-1
7.470337828E0,3.279577732E0,1.822086573E-1,-1.299082279E0
7.478364245E0,2.359336138E0,-2.997410297E-1,-1.358856678E0
7.486360047E0,6.899542809E-1,-5.493324995E-1,-9.689393044E-1
7.494355694E0,-7.999863625E-1,-5.392391682E-1,-3.115930557E-1
7.502351188E0,-1.906227112E0,-4.140374660E-1,7.660083771E-1
7.510346528E0,-2.099242687E0,-2.472757101E-1,9.795703888E-1
7.518342637E0,-1.668689728E0,-1.397378445E-1,1.098413467E0
7.526337746E0,-9.286551476E-1,1.494276524E-2,8.238744736E-1
7.534364163E0,-3.621540070E-1,2.153697014E-1,5.100212097E-1
7.542360811E0,-2.516355515E-1,3.957847357E-1,4.168167114E-1
7.550354766E0,-3.744435310E-1,3.025239706E-1,6.323928833E-1
7.558351721E0,-2.282638550E-1,1.675266027E-1,1.160891533E0
7.566346753E0,-1.895208359E-1,2.038028240E-1,5.927591324E-1
7.574341939E0,-1.045169830E-1,5.691564083E-2,1.246497154E0
7.582338895E0,-4.719924927E-2,7.487452030E-2,5.925245285E-1
7.590333311E0,-4.246375561E-1,1.674687862E-1,2.802839279E-1
7.598359267E0,-7.668619156E-1,1.522508860E-1,2.567405701E-1
7.606355299E0,-5.900976658E-1,8.134496212E-2,-4.916696548E-1
7.614351331E0,8.206272125E-2,1.581585407E-1,-1.035237312E0
7.622347056E0,1.187157869E0,-1.503808498E-1,1.282920837E-1
7.630342396E0,1.801375389E0,-2.296744585E-1,-5.943822861E-1
7.638338428E0,1.890737534E0,-3.878322840E-1,-1.075155735E0
7.646363998E0,1.843887568E0,-6.228593588E-1,-1.199218273E0
7.654359415E0,1.764589548E0,-7.224804163E-1,-1.089243889E0
7.662353908E0,1.314636946E0,-7.885401249E-1,-5.162897110E-1
7.670350249E0,1.192833424E0,-7.930616140E-1,-3.675556183E-1
7.678347281E0,1.095936298E0,-7.325454950E-1,-2.628688812E-1
7.686342082E0,5.208659172E-1,-4.095822573E-1,-3.614702225E-1
7.694337807E0,-5.418746471E-1,-1.735401154E-1,-3.080863953E-1
7.702365223E0,-1.252007484E0,-1.754947901E-1,2.925586700E-2
7.710359641E0,-1.339039326E0,-2.372716665E-1,2.749958038E-1
7.718355750E0,-1.004862547E0,-3.395618200E-1,6.230010986E-1
7.726350551E0,-6.276786327E-1,-3.254160881E-1,7.448892593E-1
7.734345968E0,-1.432836056E-1,-1.637201309E-1,6.130132675E-1
7.742342846E0,2.076182365E-1,4.332864285E-2,4.213123322E-1
7.750337647E0,2.828559875E-1,2.308374643E-1,3.517446518E-1
7.758364142E0,2.707552910E-1,3.465633392E-1,3.620147705E-1
7.766359558E0,2.057931423E-1,4.761626720E-1,4.650306702E-2
7.774354744E0,1.153383255E-1,3.814581633E-1,9.125137329E-2
7.782351392E0,1.121156216E-1,1.843156815E-1,-1.610469818E-1
7.790347116E0,4.727077484E-2,6.985664368E-3,-3.102340698E-1
7.798342533E0,-1.417112350E-1,-1.736140251E-1,-3.370876312E-1
7.806338181E0,-3.588719368E-1,-2.916458845E-1,-2.739372253E-1
7.814363751E0,-4.331517220E-1,-3.816287518E-1,-1.011037827E-1
7.822360399E0,-4.045250416E-1,-4.091358185E-1,3.848838806E-2
7.830354892E0,-3.862156868E-1,-4.092415571E-1,6.936550140E-2
7.838351309E0,-3.892912865E-1,-3.001424074E-1,7.951164246E-2
7.846346727E0,-4.310829639E-1,-2.212187052E-1,7.207298279E-2
7.854341759E0,-4.919886589E-1,-9.430098534E-2,-2.255344391E-2
7.862339021E0,-4.085831642E-1,-4.294037819E-3,4.576396942E-2
7.870364284E0,-1.468288898E-1,7.855892181E-2,7.345676422E-2
7.878359778E0,1.202824116E-1,1.898759604E-1,1.104602814E-1
7.886355810E0,2.837014198E-1,3.515820503E-1,1.357765198E-1
7.894350843E0,3.718419075E-1,6.092216969E-1,1.646881104E-1
7.902344490E0,4.216792583E-1,7.872083187E-1,3.789396286E-1
7.910341676E0,4.937562943E-1,8.260498047E-1,4.909143448E-1
7.918338708E0,5.608968735E-1,7.755454779E-1,5.092201233E-1
7.926363663E0,5.494143963E-1,6.625438929E-1,3.873367310E-1
7.934359004E0,4.348652363E-1,5.897086859E-1,1.816043854E-1
7.942356959E0,2.549526691E-1,4.944225550E-1,-6.254196167E-3
7.950350530E0,5.974984169E-2,2.923802137E-1,1.961469650E-1
7.958347408E0,-7.290744781E-2,4.593837261E-2,-4.146575928E-2
7.966342517E0,-1.588983536E-1,-2.364188433E-1,9.642982483E-2
7.974338010E0,-2.101104259E-1,-4.120895863E-1,-5.023574829E-2
7.982365120E0,-1.908383369E-1,-4.871497154E-1,-1.983604431E-1
7.990359614E0,-1.754961014E-1,-5.061702728E-1,-4.528713226E-2
7.998355261E0,-2.305071354E-1,-5.001012087E-1,-2.033042908E-2
8.006350678E0,-2.263839245E-1,-4.228290319E-1,-2.752780914E-2
8.014346171E0,-2.269024849E-1,-3.989092112E-1,-1.866340637E-3
8.022342820E0,-1.208271980E-1,-4.235166311E-1,-3.144073486E-2
8.030337544E0,3.934907913E-2,-4.368814230E-1,6.337928772E-2
8.038365038E0,3.216242790E-2,-2.748398781E-1,-1.384515762E-1
8.046359223E0,-2.787058353E-1,1.063272953E-1,-3.943376541E-1
8.054354948E0,-5.518312454E-1,3.269211054E-1,-2.107095718E-1
8.062351903E0,-6.473803520E-1,3.309698105E-1,-9.726524353E-2
8.070346321E0,-5.096206665E-1,1.916251183E-1,1.626205444E-2
8.078342429E0,-3.159840107E-1,7.344758511E-2,1.064186096E-1
8.086337231E0,-7.261276245E-3,-8.477592468E-2,3.013181686E-1
8.094364032E0,2.654836178E-1,-1.160463095E-1,4.522991180E-1
8.102360372E0,4.537909031E-1,-4.926609993E-2,4.715623856E-1
8.110355174E0,3.965532780E-1,1.010805368E-1,2.353620529E-1
8.118352360E0,2.144594193E-1,7.043576241E-2,8.260974884E-1
8.126346853E0,1.917746067E-1,5.590021610E-2,5.276021957E-1
8.134342347E0,8.470392227E-2,9.043908119E-2,5.901947021E-1
8.142335917E0,-2.543089390E-1,2.631125450E-1,1.715936661E-1
8.150363949E0,-4.083957672E-1,3.945602179E-1,-2.414798737E-2
8.158359598E0,-5.219039917E-1,5.368142128E-1,-5.082082748E-1
8.166355091E0,-2.686352730E-1,4.573526382E-1,-2.648153305E-1
8.174350816E0,1.550450325E-1,3.174213171E-1,-1.166563034E-1
8.182346848E0,5.164351463E-1,3.066129684E-1,-5.901374817E-1
8.190341880E0,7.168729305E-1,2.795804739E-1,-5.514421463E-1
8.198337912E0,7.588219643E-1,3.952980042E-4,-1.318912506E-1
8.206363868E0,7.798557281E-1,-5.080034733E-1,7.837581635E-2
8.214359515E0,5.869085789E-1,-1.000024915E0,8.458395004E-1
8.222355855E0,5.928993225E-3,-1.171165109E0,6.725902557E-1
8.230350964E0,-4.289426804E-1,-1.006517529E0,9.198961258E-1
8.238347304E0,-6.280374527E-1,-5.708156824E-1,5.755491257E-1
8.246341798E0,-4.890637398E-1,-1.174681187E-1,6.065893173E-1
8.254337599E0,-5.126779079E-1,5.042918921E-1,8.059873581E-1
8.262364939E0,-6.122114658E-1,1.061518192E0,3.692941666E-1
8.270359202E0,-3.443329334E-1,1.217939019E0,7.383317947E-1
8.278355849E0,-1.423144341E-2,1.207355380E0,2.845106125E-1
8.286350574E0,1.238839626E-1,1.118122339E0,8.898763657E-1
8.294346607E0,6.126251221E-1,9.019545317E-1,3.657693863E-1
8.302343023E0,1.297415972E0,8.592709899E-1,-9.155664444E-1
8.310337825E0,1.817163229E0,5.589804649E-1,-1.140584946E-1
8.318364241E0,1.803666353E0,9.692895412E-2,3.705472946E-1
8.326359658E0,9.094085693E-1,-2.254278660E-1,-6.491565704E-2
8.334354845E0,-2.477912903E-1,-6.262778044E-1,2.706594467E-1
8.342350877E0,-6.554596424E-1,-8.410236835E-1,3.562335968E-1
8.350346832E0,-5.757193565E-1,-9.797180891E-1,5.555438995E-1
8.358342248E0,-1.899609566E-1,-1.013153195E0,5.182085037E-1
8.366338050E0,8.116483688E-2,-7.507510185E-1,5.182600021E-1
8.374364160E0,-4.136967659E-2,-2.613657713E-1,6.784143448E-1
8.380344568E0,-3.254477978E-1,1.803635359E-1,5.711784363E-1
8.382357499E0,-3.565723896E-1,2.186708450E-1,5.663900375E-1
8.390354378E0,-4.364361763E-1,2.799321413E-1,4.562520981E-1
8.398351640E0,-5.185434818E-1,2.645814419E-1,-1.321525574E-1
8.406346211E0,-8.187429905E-1,2.443640232E-1,-6.993827820E-1
8.414341627E0,-1.692395210E0,5.340034962E-1,-1.387860298E0
8.422337890E0,-2.522526026E0,5.971173644E-1,-1.053831100E0
8.430363769E0,-2.195244074E0,1.404191256E-1,-2.221031189E-1
8.438359571E0,-7.393038273E-1,-5.845688581E-1,4.307203293E-1
8.446355833E0,8.189349174E-1,-8.912447691E-1,7.373542786E-1
8.454349712E0,1.902167559E0,-8.302317858E-1,-2.596721649E-1
8.462346744E0,2.330217123E0,-9.638924599E-1,-5.509958267E-1
8.470341854E0,2.293817759E0,-8.296544552E-1,-1.037069321E0
8.478367963E0,1.534406424E0,-7.910672426E-1,-1.100853920E0
8.486363456E0,6.106987000E-1,-8.546700478E-1,-1.635652065E0
8.494359488E0,7.816314697E-3,-1.100521803E0,-2.052153587E0
8.502356443E0,-1.011116505E-1,-1.329547167E0,-2.486436844E0
8.510350322E0,-1.115548611E-1,-1.492835283E0,-2.525168419E0
8.518346970E0,-3.924911022E-1,-1.306088448E0,-2.880774975E0
8.526341771E0,-1.140401602E0,-9.118418694E-1,-2.773185253E0
8.534367957E0,-1.697366238E0,-7.246221304E-1,-2.328842640E0
8.542364604E0,-1.884481192E0,-7.598441839E-1,-1.639769077E0
8.550359713E0,-1.920501709E0,-9.786407948E-1,-9.677572250E-1
8.558355362E0,-1.979597092E0,-1.260956407E0,1.465511322E-1
8.566350240E0,-1.817257881E0,-1.524023294E0,7.226867676E-1
8.574345656E0,-1.588164330E0,-1.410445452E0,5.684003830E-1
8.582342842E0,-1.612876415E0,-9.834768772E-1,6.539011002E-1
8.590368413E0,-1.563622475E0,-5.988017321E-1,1.944195747E0
8.598364446E0,-9.050579071E-1,-4.537720680E-1,2.354460716E0
8.606359247E0,2.741630077E-1,-3.436052799E-1,2.839224815E0
8.614354664E0,1.323508263E0,-3.769016266E-1,2.802754402E0
8.620365765E0,2.254997730E0,-2.372566462E-1,1.660677910E0
8.622348619E0,2.360342741E0,-2.372566462E-1,1.660677910E0
8.630346728E0,2.613073349E0,1.130965948E-1,1.422157288E0
8.638342221E0,2.493311405E0,8.700578213E-1,4.346933365E-1
8.646367485E0,1.661849618E0,2.133112669E0,-2.781810760E-1
8.654363440E0,7.146162987E-1,3.084488869E0,-5.134763718E-1
8.662359780E0,1.836681366E-2,3.546012163E0,-9.965801239E-1
8.670354350E0,-1.069879532E-1,3.162241936E0,-8.864955902E-1
8.678350998E0,2.775104046E-1,2.215652466E0,-2.598962784E-1
8.686346030E0,7.756049633E-1,9.983178377E-1,5.058555603E-1
8.694341447E0,8.353948593E-1,1.714738607E-1,1.178927422E0
8.702368556E0,6.335694790E-1,-4.626998901E-1,1.726652145E0
8.710363665E0,5.297691822E-1,-9.045497179E-1,2.041852951E0
8.718360313E0,8.068943024E-1,-1.305109739E0,2.314810753E0
8.726355422E0,1.136457682E0,-1.336451411E0,1.554486275E0
8.734350916E0,1.321353674E0,-1.068527341E0,2.019637108E0
8.742346871E0,1.083617210E0,-5.367708206E-2,-2.094755173E-1
8.750342288E0,-7.733821869E-3,8.656951785E-1,-3.134708405E-1
8.758368551E0,-7.631592751E-1,1.710876226E0,-4.898767471E-1
8.766363583E0,-9.127547741E-1,1.899375916E0,-1.095632076E0
8.774358769E0,-1.571448565E0,1.398058295E0,-9.707536697E-1
8.782356032E0,-1.860507727E0,2.645038366E-1,-7.046298981E-1
8.790350449E0,-1.298675537E0,-9.050176144E-1,2.638435364E-1
8.798346789E0,1.001689434E-1,-2.222193003E0,1.544086456E0
8.806340975E0,5.562636852E-1,-2.576416969E0,4.629106522E-1
8.814367776E0,7.044196129E-2,-2.332484722E0,-2.088546753E-3
8.822364424E0,-3.925786018E-1,-1.649839997E0,-1.056931019E0
8.830359225E0,-3.407287598E-1,-9.286634922E-1,-2.253838062E0
8.838355334E0,1.499762535E-1,-2.866109610E-1,-3.078609467E0
8.846350136E0,7.589361668E-1,-6.154370308E-2,-3.341888905E0
8.854345860E0,1.315650463E0,-1.130484343E-1,-3.653593063E0
8.862340046E0,1.659196854E0,-4.161263704E-1,-3.289212704E0
8.870368002E0,1.806461811E0,-8.824170828E-1,-2.502295494E0
8.878364419E0,1.219213486E0,-1.653867841E0,4.035310745E-1
8.886358912E0,-2.327609062E-2,-2.266764164E0,1.826121330E0
8.894354867E0,-1.600182295E0,-2.547119617E0,1.534265518E0
8.902351592E0,-2.469220638E0,-2.268525600E0,4.390335083E-1
8.910346008E0,-2.347591877E0,-1.538231969E0,-1.651496887E-1
8.918342118E0,-1.613850594E0,-6.766408682E-1,2.396869659E-2
8.926367381E0,-1.193341732E0,-1.244356632E-1,3.440713882E-1
8.934363951E0,-9.826006889E-1,2.605350018E-1,5.774068832E-1
8.942359983E0,-7.703232765E-1,3.594342470E-1,9.843177795E-1
8.950354477E0,-4.395823479E-1,2.590761185E-1,1.262317657E0
8.958351202E0,-2.576098442E-1,1.035864353E-1,1.990352631E0
8.966345696E0,-1.931576729E-1,3.876161575E-2,1.636776924E0
8.974341651E0,-2.449798584E-2,1.682053804E-1,8.756408691E-1
8.982369145E0,1.343386173E-1,3.827233315E-1,3.631505966E-1
8.990363946E0,4.112098217E-1,6.538738012E-1,-3.550233841E-1
8.998359671E0,7.434833050E-1,9.675298929E-1,-1.664800644E-1
9.006355319E0,9.882071018E-1,1.232609987E0,6.184148788E-1
9.014350812E0,1.109333992E0,1.625806570E0,3.215055466E-1
9.022347767E0,8.188278675E-1,1.833617687E0,6.856622696E-1
9.030341261E0,3.277065754E-1,1.924244046E0,4.808340073E-1
9.038368447E0,-2.042078972E-1,1.889302731E0,-2.635116577E-1
9.046363172E0,-7.113425732E-1,1.618306756E0,-6.387195587E-1
9.054359281E0,-9.015493393E-1,1.231232524E0,-9.787964821E-1
9.062355313E0,-1.115158796E0,6.425400972E-1,-4.322242737E-2
9.070349806E0,-1.136130571E0,9.401011467E-2,-6.688957214E-1
9.078346685E0,-8.768911362E-1,-2.173866034E-1,-7.351913452E-1
9.086341178E0,-3.830595016E-1,-3.836092949E-1,-1.168527603E-1
9.094367057E0,1.859388351E-1,-2.674192190E-1,2.056093216E-1
9.100348389E0,9.848406315E-1,-9.601187706E-2,6.289196014E-1
9.102362166E0,9.848406315E-1,-9.601187706E-2,6.289196014E-1
9.110358275E0,1.521373510E0,-2.324217558E-1,4.535274506E-1
9.118355538E0,1.471874475E0,-4.480973482E-1,3.421878815E-2
9.126350570E0,9.429094791E-1,-7.659610510E-1,5.547904968E-2
9.134346295E0,5.703682899E-1,-9.697114229E-1,3.812837601E-1
9.142342943E0,2.350816727E-1,-1.047857761E0,8.077945709E-1
9.150367590E0,-3.415126801E-1,-7.445446253E-1,3.996915817E-1
9.158364238E0,-9.790058136E-1,-2.656984329E-1,-2.514867783E-1
9.166359423E0,-1.695996284E0,2.907426357E-1,-8.272733688E-1
9.174354763E0,-2.107349396E0,6.926921010E-1,-1.257201672E0
9.182351488E0,-2.322667599E0,8.971610069E-1,-8.135724068E-1
9.190345059E0,-1.918234825E0,4.444259405E-1,4.592514038E-1
9.198342014E0,-8.367352486E-1,-1.420702934E-1,8.582611084E-1
9.206367508E0,9.803771973E-4,-7.065339088E-1,1.353891373E0
9.214363540E0,4.920105934E-1,-7.537227869E-1,7.726793289E-1
9.222360880E0,8.551983833E-1,-5.013645887E-1,-9.697208405E-1
9.230354989E0,9.912359715E-1,-4.080940485E-1,1.292419434E-1
9.238351098E0,6.273105145E-1,-1.656775475E-1,-4.178447723E-1
9.246345899E0,5.000617504E-1,-1.238195896E-1,-1.053840160E0
9.254341316E0,6.779236794E-1,-2.049942017E-1,-1.827914238E0
9.262369579E0,8.691513538E-1,-1.752650738E-1,-2.586217403E0
9.270362843E0,5.277521610E-1,-1.400547028E-1,-2.474288940E0
9.278359490E0,-3.995947838E-1,-2.869857550E-1,-1.864504337E0
9.286354676E0,-1.041772842E0,-5.726801157E-1,-8.412466049E-1
9.294350016E0,-1.407291412E0,-8.292952776E-1,7.886333466E-1
9.302346740E0,-1.144657135E0,-1.240219712E0,3.303223610E0
9.310341464E0,-4.243040085E-1,-1.441786051E0,3.907780647E0
9.318368574E0,5.381784439E-1,-1.252599835E0,2.175341606E0
9.326363760E0,1.336946011E0,-7.116221189E-1,8.650646210E-1
9.334358869E0,2.151891947E0,-3.594496250E-1,7.930669785E-1
9.342352670E0,2.402136564E0,-8.261084557E-3,6.065702438E-1
9.350350318E0,1.981779099E0,2.269742489E-1,4.611530304E-1
9.358346658E0,2.633159161E-1,7.642760873E-1,-7.753629684E-1
9.366342306E0,-5.741293430E-1,8.308885098E-1,-8.509631157E-1
9.374368184E0,-2.326090336E-1,3.611923456E-1,-7.432174683E-1
9.382364524E0,8.282451630E-1,-3.278942108E-1,-4.300622940E-1
9.390359325E0,1.558878660E0,-8.218398094E-1,1.810998917E-1
9.398355126E0,1.556342363E0,-9.473664761E-1,-2.209701538E-1
9.406350159E0,6.441135406E-1,-8.441331387E-1,-1.732225418E-1
9.414345961E0,-6.246948242E-1,-5.890368223E-1,4.568605423E-1
9.422373300E0,-1.273289680E0,-2.773728371E-1,-1.476774216E-1
9.430367794E0,-2.868582249E0,3.644348383E-1,-1.864006519E0
9.438363518E0,-4.692472935E0,9.228374958E-1,-2.254967690E0
9.446359013E0,-5.052220345E0,8.779338002E-1,-1.813412666E0
9.454355275E0,-3.465479374E0,3.386783600E-1,-1.760969162E-1
9.462351384E0,-1.458043098E0,-2.315667868E-1,1.655854225E0
9.470345493E0,4.373483658E-1,-4.903427362E-1,2.406656265E0
9.478372602E0,1.421070337E0,-1.836409569E-1,1.840874672E0
9.486367789E0,2.087018490E0,3.293312788E-1,1.079502106E0
9.494363437E0,2.840381622E0,8.275899887E-1,5.557584763E-1
9.502360161E0,3.059744120E0,9.404065609E-1,-3.657436371E-2
9.510354578E0,2.651535034E0,6.953381300E-1,-7.538018227E-1
9.518350994E0,1.910336256E0,2.867267132E-1,-1.280827522E0
9.526345488E0,9.486987591E-1,-1.689311266E-1,-1.405089855E0
9.534371675E0,1.266698837E-1,-5.307183266E-1,-1.196125507E0
9.542368014E0,-3.276629448E-1,-7.000452280E-1,-7.334098816E-1
9.550363431E0,-6.094784737E-1,-6.210258007E-1,-3.887901306E-1
9.558360001E0,-5.932292938E-1,-4.672434330E-1,-1.430110931E-1
9.566354803E0,-6.963596344E-1,-2.653336525E-1,3.824520111E-2
9.574350604E0,-1.039427280E0,-8.133876324E-2,2.473449707E-2
9.580362244E0,-1.400957108E0,1.050031185E-2,3.910589218E-1
9.582344175E0,-1.400957108E0,3.317713737E-3,3.910589218E-1
9.590372438E0,-1.580945492E0,-3.675460815E-3,3.485765457E-1
9.598368239E0,-1.468563080E0,-9.469985962E-4,4.755649567E-1
9.606364502E0,-1.137172699E0,-1.581430435E-2,4.033565521E-1
9.614359073E0,-6.929965019E-1,4.549193382E-2,2.094154358E-1
9.622355106E0,-3.292894363E-1,1.090941429E-1,2.738485336E-1
9.630350138E0,3.464698792E-2,1.602922678E-1,1.405477524E-1
9.638347170E0,1.834845543E-1,2.063219547E-1,-7.150745392E-2
9.646371817E0,1.942548752E-1,2.611889839E-1,-2.817163467E-1
9.654367849E0,1.772079468E-1,3.336123228E-1,-3.967285156E-1
9.662364112E0,1.081733704E-1,3.867948055E-1,-2.373304367E-1
9.670358683E0,8.224296570E-2,4.107213020E-1,-2.396869659E-1
9.678355639E0,7.623672485E-2,4.018766880E-1,-1.422576904E-1
9.686349824E0,-8.023738861E-3,4.249099493E-1,-9.123039246E-2
9.694345549E0,-1.863470078E-1,4.487290382E-1,-3.359317780E-2
9.702372888E0,-4.750971794E-1,4.036738873E-1,1.276617050E-1
9.710367691E0,-7.464275360E-1,3.340896368E-1,2.507047653E-1
9.718364107E0,-8.236579895E-1,2.881933451E-1,1.557283401E-1
9.726359216E0,-7.162275314E-1,1.804909706E-1,6.786766052E-1
9.734354248E0,-5.206933022E-1,1.527413130E-1,2.159233093E-1
9.742351203E0,-2.136726379E-1,5.046415329E-2,7.321491241E-1
9.750345774E0,2.553701401E-2,9.521603584E-3,6.169958115E-1
9.758372884E0,2.601113319E-1,-6.046295166E-3,4.110450745E-1
9.766367608E0,3.226532936E-1,-6.147277355E-2,6.423740387E-1
9.774363102E0,2.644824982E-1,-7.001495361E-2,1.489343643E-1
9.782359364E0,1.082897186E-3,3.833580017E-2,1.935005188E-3
9.790354473E0,-3.198256493E-1,1.038378477E-1,-2.888917923E-1
9.798350275E0,-6.404581070E-1,1.925584078E-1,-5.140037537E-1
9.806346231E0,-8.347201347E-1,2.873598337E-1,-7.719154358E-1
9.814371263E0,-1.023901939E0,3.567761183E-1,1.646327972E-1
9.820352210E0,-8.753976822E-1,3.240101337E-1,6.960391998E-1
9.822366064E0,-8.753976822E-1,3.240101337E-1,6.960391998E-1
9.830362634E0,-4.709391594E-1,2.769818306E-1,3.629589081E-1
9.838359974E0,2.418012619E-1,1.540901661E-1,-9.314823151E-2
9.846355084E0,8.639247417E-1,1.055705547E-2,-3.626022339E-1
9.854350193E0,1.503052711E0,-9.442150593E-2,-4.463443756E-1
9.862346225E0,1.788760424E0,-2.299687862E-1,-4.917716980E-1
9.870371796E0,1.667750120E0,-4.791836739E-1,-5.098838806E-1
9.878368443E0,1.237278700E0,-6.901311874E-1,-5.548639297E-1
9.886363168E0,7.660100460E-1,-7.865381241E-1,-4.880933762E-1
9.894358277E0,1.610374451E-1,-6.991375685E-1,-8.555698395E-2
9.902355002E0,-2.856802940E-1,-4.694832563E-1,2.443161011E-1
9.910350111E0,-5.179119110E-1,-2.633514404E-1,6.145353317E-1
9.918346758E0,-5.680980682E-1,-1.719540358E-1,8.032732010E-1
9.926372636E0,-3.862414360E-1,-1.085518599E-1,7.633285522E-1
9.934367669E0,-9.309720993E-2,-9.507703781E-2,7.558574677E-1
9.942364086E0,8.289527893E-2,5.601298809E-2,5.470027924E-1
9.950358810E0,2.494812012E-2,1.720055342E-1,6.948308945E-1
9.958354611E0,-9.301090240E-2,2.212532759E-1,3.489570618E-1
9.966349720E0,-2.273306847E-1,1.302182674E-1,5.070257187E-1
9.974345752E0,-3.875012398E-1,-2.962386608E-2,1.934099197E-1
9.982372785E0,-5.349936485E-1,-1.354535818E-1,4.115200043E-1
9.990367971E0,-6.693716049E-1,-5.996108055E-3,4.479780197E-1
9.998364234E0,-7.859606743E-1,2.916796207E-1,5.349597931E-1
1.000635873E1,-8.003778458E-1,5.060440302E-1,7.912549973E-1
1.001435453E1,-7.437944412E-1,6.674363613E-1,7.259073257E-1
1.002235172E1,-6.021285057E-1,6.141721010E-1,6.789684296E-1
1.003034536E1,-3.211998940E-1,3.423999548E-1,1.785493851E0
1.003837332E1,-2.808995247E-1,1.877750158E-1,1.352883339E0
1.004636720E1,-5.420541763E-1,4.795691371E-1,1.285915375E-1
1.005436238E1,-1.008524895E0,1.057463527E0,7.586746216E-1
1.006235688E1,-8.573498726E-1,1.420882702E0,5.539627075E-1
1.007035445E1,-3.261346817E-1,1.348444223E0,4.554700851E-1
1.007835071E1,3.417654037E-1,1.014046788E0,8.751583099E-1
1.008634651E1,6.697416306E-1,5.080772638E-1,1.547602654E0
1.009437231E1,7.157649994E-1,3.167723417E-1,1.080617905E0
1.010236896E1,5.606162548E-1,2.318912148E-1,9.159660339E-1
1.011036261E1,-1.822948456E-2,2.386569977E-1,5.196752548E-1
1.011835949E1,-4.443483353E-1,3.368285894E-1,1.198749542E-1
1.012635460E1,-2.707529068E-1,4.118535519E-1,-2.576045990E-1
1.013435009E1,1.550331116E-1,3.619201779E-1,-5.758543015E-1
1.014234635E1,4.828779697E-1,1.608774066E-1,-5.236892700E-1
1.015037169E1,7.768423557E-1,-7.106155157E-2,-4.568424225E-1
1.015836834E1,8.429701328E-1,-1.923209429E-1,-7.044572830E-1
1.016636306E1,6.720104218E-1,-2.542585731E-1,-1.046037197E0
1.017435910E1,3.334138393E-1,-3.322080374E-1,-1.315418243E0
1.018235490E1,2.775573730E-2,-4.580495954E-1,-1.290266037E0
1.019035001E1,-6.488847733E-2,-6.451846957E-1,-1.335280418E0
1.019834596E1,2.153444290E-2,-7.709993124E-1,-1.549892902E0
1.020637246E1,2.166128159E-1,-8.931050897E-1,-1.660596848E0
1.021436726E1,3.564572334E-1,-1.062243462E0,-1.519522190E0
1.022236460E1,3.563842773E-1,-1.198979855E0,-1.095932007E0
1.023035817E1,1.081252098E-1,-1.349540234E0,-7.562160492E-1
1.023835512E1,-1.020021439E-1,-1.450396776E0,-5.617933273E-1
1.024634992E1,-2.593312263E-1,-1.531048059E0,-6.885814667E-1
1.025434565E1,-2.280588150E-1,-1.559623957E0,-8.413939476E-1
1.026237276E1,3.613042831E-2,-1.719256878E0,-1.301251888E0
1.027036725E1,5.228440762E-1,-1.879511833E0,-1.618651867E0
1.027836421E1,8.076055050E-1,-2.047824383E0,8.431434631E-2
1.028635870E1,6.525311470E-1,-1.982710958E0,2.662563324E-1
1.029435381E1,4.399261475E-1,-1.738027811E0,2.016544342E-1
1.030036606E1,6.750133038E-1,-1.571046829E0,-3.486223221E-1
1.030234823E1,7.492334843E-1,-1.537527800E0,-5.281867981E-1
1.031034618E1,1.121212244E0,-1.414029121E0,-3.702564240E-1
1.031837237E1,1.295920134E0,-1.318201780E0,3.512258530E-1
1.032636778E1,9.920639992E-1,-8.868933916E-1,-3.391265869E-1
1.033436343E1,6.619808674E-1,-5.940356255E-1,-5.582313538E-1
1.034236016E1,7.585377693E-1,-2.795487642E-1,-1.015749931E0
1.035035465E1,1.004281521E0,-1.901648045E-1,-5.628709793E-1
1.035835130E1,1.249091864E0,-1.124405861E-1,-1.001031876E0
1.036634579E1,1.224604368E0,-1.589510441E-1,-9.957375526E-1
1.037437129E1,1.117928743E0,-2.245601416E-1,-9.063639641E-1
1.038236793E1,9.194209576E-1,-2.531995773E-1,-8.615689278E-1
1.039036312E1,6.858916283E-1,-1.578963995E-1,-9.856929779E-1
1.039835977E1,3.378324509E-1,6.309700012E-2,-1.070235252E0
1.040635449E1,4.560756683E-2,3.268377781E-1,-1.191531658E0
1.041434968E1,-2.780613899E-1,5.967274904E-1,-1.093818665E0
1.042237679E1,-4.859366417E-1,7.965121865E-1,-7.586588860E-1
1.043037151E1,-6.904392242E-1,9.001007080E-1,-5.373191833E-1
1.043836762E1,-7.878761292E-1,9.614799619E-1,-1.927156448E-1
1.044636396E1,-7.238817215E-1,9.429517984E-1,2.841510773E-1
1.045435868E1,-3.294630051E-1,8.678173423E-1,7.412023544E-1
1.046235479E1,1.510510445E-1,7.740017176E-1,1.118288040E0
1.047034983E1,3.204798698E-1,7.448649406E-1,9.538784027E-1
1.047837670E1,3.356461525E-1,7.927055359E-1,9.706306458E-1
1.048637174E1,3.098807335E-1,8.397782445E-1,9.519844055E-1
1.049436685E1,1.599025726E-2,9.723098874E-1,8.902568817E-1
1.050236357E1,-4.831633568E-1,1.180951595E0,7.110633850E-1
1.051035899E1,-1.088872433E0,1.188771725E0,1.059792519E0
1.051835440E1,-1.004828453E0,1.008029699E0,1.634792328E0
1.052634974E1,-1.694171906E0,1.254853487E0,1.474787712E0
1.053437601E1,-2.809583187E0,1.373070240E0,2.295845032E0
1.054035665E1,-3.481821060E0,1.539315939E0,2.411290169E0
1.054236989E1,-3.481821060E0,1.539315939E0,2.411290169E0
1.055036707E1,-3.587817669E0,1.814984918E0,1.175499916E0
1.055836349E1,-2.772645473E0,1.985158443E0,2.226628304E0
1.056635829E1,-1.370385170E0,1.686814785E0,2.824301720E0
1.057435455E1,-7.096862793E-2,1.647127509E0,1.031007767E0
1.058235128E1,6.111941338E-1,1.534858346E0,-2.700166702E-1
1.059037554E1,1.384400845E0,1.455519080E0,-9.567914009E-1
1.059837188E1,1.965362549E0,1.303100109E0,-8.921484947E-1
1.060636730E1,2.164808035E0,1.079500079E0,-9.977655411E-1
1.061436279E1,2.255492449E0,6.434749961E-1,-1.098749161E0
1.062235967E1,2.380273104E0,2.394257784E-1,-1.234508038E0
1.063035385E1,2.186540365E0,-4.879617691E-2,-1.814919472E0
1.063835050E1,1.856020689E0,-2.151385546E-1,-2.031189919E0
1.064637584E1,1.524676323E0,-3.005106449E-1,-2.278278828E0
1.065437218E1,9.659001827E-1,-3.456002474E-1,-1.548759460E0
1.066236883E1,2.209267616E-1,-4.641634226E-1,-5.009365082E-2
1.067036355E1,-1.335800648E0,-9.664646387E-1,2.606711388E0
1.067835928E1,-3.151814938E0,-1.304953575E0,3.162280083E0
1.068635408E1,-4.380155087E0,-1.375020385E0,1.640346527E0
1.069434927E1,-3.291537762E0,-1.174620628E0,4.011049271E-1
1.070237691E1,-1.519573689E0,-7.124190331E-1,-2.569313049E-1
1.071037141E1,-7.339048386E-2,-1.820108891E-1,-5.584149361E-1
1.071836806E1,4.113459587E-1,1.933491230E-1,-3.770389557E-1
1.072636324E1,4.131774902E-1,3.996371031E-1,-1.184158325E-1
1.073435827E1,1.125574112E-1,3.889557123E-1,-8.460044861E-2
1.074235500E1,-1.033787727E-1,2.662184238E-1,-8.194923401E-2
1.075034972E1,-2.703833580E-1,1.439527273E-1,-7.316970825E-2
1.075837591E1,-2.964472771E-1,7.468438148E-2,1.410007477E-2
1.076637163E1,-2.344741821E-1,-2.472329140E-2,1.128063202E-1
1.077436651E1,-1.468195915E-1,9.315729141E-3,1.033143997E-1
1.079035888E1,-1.213946342E-1,1.730053425E-1,4.430770874E-2
1.079835545E1,-1.317195892E-1,2.030339241E-1,1.490621567E-1
1.080634995E1,-1.867747307E-1,1.974710226E-1,1.656999588E-1
1.081437621E1,-1.574783325E-1,1.438648701E-1,9.163284302E-2
1.082237163E1,-6.220102310E-2,4.463791847E-3,3.860378265E-2
1.083036766E1,2.907276154E-3,-1.078476906E-1,1.364612579E-2
1.083836338E1,-2.058982849E-2,-1.075570583E-1,-6.158638000E-2
1.084635903E1,-9.114456177E-2,-1.657783985E-2,-7.132530212E-3
1.085435329E1,-1.751403809E-1,6.190061569E-2,7.037162781E-3
1.086235086E1,-2.211198807E-1,4.639041424E-2,1.792907715E-3
1.087037582E1,-2.448234558E-1,-2.414226532E-2,-1.956939697E-3
1.087837270E1,-2.969975471E-1,-4.145812988E-2,-2.832221985E-2
1.088636719E1,-3.077979088E-1,-5.105316639E-2,4.981422424E-2
1.089436330E1,-2.314834595E-1,-2.912056446E-2,9.131240845E-2
1.090235926E1,-4.925346375E-2,-1.402056217E-2,1.725959778E-1
1.091035414E1,1.296477318E-1,-3.694951534E-2,1.193590164E-1
1.091835048E1,2.639570236E-1,-7.153558731E-2,3.315353394E-2
1.092637597E1,3.025822639E-1,-6.083297729E-2,3.205204010E-2
1.093437139E1,2.749986649E-1,-3.123831749E-2,-5.355262756E-2
1.094236865E1,1.591262817E-1,4.652798176E-2,1.795482635E-2
1.095036283E1,-1.023340225E-2,6.458532810E-2,-1.261806488E-2
1.095835925E1,-1.535162926E-1,8.612275124E-3,1.626024246E-1
1.096635459E1,-2.983775139E-1,-2.157568932E-3,-7.008266449E-2
1.097434978E1,-4.276976585E-1,1.169136763E-1,-6.390762329E-2
1.098237681E1,-3.768796921E-1,1.069134474E-1,6.343650818E-2
1.099037138E1,-2.113413811E-1,7.305097580E-2,1.223726273E-1
1.099836795E1,8.332967758E-2,-2.183675766E-2,1.849546432E-1
1.100636306E1,3.198471069E-1,-1.134757996E-1,1.252212524E-1
1.101435817E1,4.501905441E-1,-2.696572542E-1,1.607131958E-2
1.102235236E1,4.108252525E-1,-3.633170128E-1,-4.851341248E-2
1.103034970E1,3.143739700E-1,-4.625689983E-1,7.172870636E-2
1.103837611E1,1.642346382E-1,-4.856791496E-1,1.558561325E-1
1.104637245E1,9.529685974E-2,-4.519400597E-1,1.037273407E-1
1.105436733E1,6.462955475E-2,-3.523772955E-1,5.658531189E-2
1.106236421E1,2.400016785E-2,-2.410094738E-1,2.120399475E-2
1.107035901E1,2.840375900E-2,-1.500188112E-1,1.721382141E-1
1.107835481E1,1.897854805E-1,-1.509542465E-1,4.396972656E-1
1.108634954E1,5.017757416E-1,-2.690294981E-1,6.556644440E-1
1.109437580E1,8.841378689E-1,-4.147683382E-1,5.410308838E-1
1.110237268E1,1.048239708E0,-3.952192068E-1,2.088270187E-1
1.111036756E1,8.187153339E-1,-1.321098804E-1,-3.652458191E-1
1.111836474E1,1.954169273E-1,2.842998505E-1,-9.715795517E-1
1.112635839E1,-5.526361465E-1,7.107976675E-1,-1.370559692E0
1.113435373E1,-1.514402866E0,1.011641026E0,-1.113729954E0
1.114235169E1,-1.945595741E0,8.907485604E-1,-5.560922623E-1
1.115037602E1,-1.914497375E0,4.469925165E-1,2.184448242E-1
1.115837136E1,-1.557314873E0,4.013633728E-2,7.908325195E-1
1.116636740E1,-9.706263542E-1,-1.310787201E-1,9.570169449E-1
1.117436251E1,-3.485770226E-1,-8.177697659E-2,7.753219604E-1
1.118235977E1,1.673231125E-1,-3.911864758E-2,6.169834137E-1
1.119035403E1,6.373119354E-1,5.069351196E-2,4.838066101E-1
1.119835037E1,7.777452469E-1,2.457549572E-1,1.657905579E-1
1.120637594E1,7.503421307E-1,4.023679495E-1,2.715749741E-1
1.121437136E1,7.779366970E-1,4.450137615E-1,-2.059602737E-1
1.122236824E1,8.150560856E-1,3.861711025E-1,-2.778778076E-1
1.123036312E1,8.141391277E-1,1.441518068E-1,-4.448347092E-1
1.123835938E1,6.576972008E-1,3.261220455E-2,-3.908948898E-1
1.124635387E1,1.235070229E-1,4.122865200E-2,-1.495380402E-1
1.125434937E1,-3.706421852E-1,5.149638653E-2,-4.471874237E-2
1.126036108E1,-7.196779251E-1,-9.406018257E-2,4.166498184E-1
1.126237394E1,-7.196779251E-1,-9.406018257E-2,4.166498184E-1
1.127037128E1,-7.780685425E-1,-1.700747013E-1,6.811256409E-1
1.127836792E1,-8.723430634E-1,-1.980638504E-1,5.540132523E-1
1.128636211E1,-1.024385452E0,-1.153337955E-1,4.719324112E-1
1.129435806E1,-1.189031124E0,7.977485657E-2,4.077911377E-2
1.130235510E1,-1.112864494E0,2.598676682E-1,-6.591711044E-1
1.131034959E1,-9.969410896E-1,1.690379381E-1,5.657787323E-1
1.131837693E1,-5.469942093E-1,3.549396992E-2,-4.401206970E-3
1.132637143E1,-5.917739868E-2,-8.810043335E-3,2.053785324E-1
1.133436746E1,4.943294525E-1,2.620351315E-2,6.739711761E-2
1.134236349E1,1.036859035E0,2.959378958E-1,-3.602199554E-1
1.135035829E1,1.355250597E0,4.280929565E-1,-3.695173264E-1
1.135835471E1,1.629816532E0,3.133407831E-1,-5.566806793E-1
1.136634943E1,1.733696699E0,-7.164645195E-2,-8.334279060E-1
1.137437600E1,1.549355507E0,-4.977836609E-1,-8.871979713E-1
1.138237227E1,9.669864178E-1,-8.240972757E-1,-1.170183659E0
1.139036745E1,2.816314697E-1,-9.429879189E-1,-1.021178246E0
1.139836287E1,-4.738931656E-1,-8.687397242E-1,-7.433228493E-1
1.140635859E1,-9.746203423E-1,-7.500281334E-1,-2.708454132E-1
1.141435332E1,-1.148058891E0,-6.865090132E-1,2.468166351E-1
1.142238112E1,-1.061149120E0,-4.314780235E-1,7.288551331E-2
1.143037561E1,-7.893285751E-1,-3.284819126E-1,7.564353943E-1
1.143837226E1,-4.062495232E-1,-2.712951899E-1,1.159832954E0
1.144636676E1,-7.041645050E-2,-1.300251484E-1,1.005795479E0
1.145436271E1,1.307988167E-1,-1.314843893E-1,1.348984718E0
1.146235997E1,3.070411682E-1,-5.777668953E-2,6.237916946E-1
1.147035393E1,3.334665298E-1,8.712708950E-2,4.754924774E-1
1.147838096E1,2.381596565E-1,2.652618885E-1,2.180080414E-1
1.148637522E1,1.944780350E-1,3.951799870E-1,-8.794403076E-2
1.149437095E1,1.805725098E-1,4.315744638E-1,1.740818024E-1
1.150236506E1,8.056783676E-2,4.427505732E-1,-1.265354156E-1
1.151036294E1,-1.387686729E-1,4.992395639E-1,-2.137908936E-1
1.151835874E1,-5.710906982E-1,5.536531210E-1,-4.412431717E-1
1.152635408E1,-9.160380363E-1,5.947210789E-1,-9.763398170E-1
1.153438003E1,-1.174142838E0,5.564402342E-1,-6.346116066E-1
1.154237660E1,-1.285373211E0,3.763325214E-1,-3.988933563E-2
1.155037148E1,-1.017808914E0,2.372473478E-1,1.538429260E-1
1.155836805E1,-2.685518265E-1,-3.553617001E-2,2.123327255E-1
1.156636254E1,2.239046097E-1,-1.440253258E-1,3.454380035E-1
1.157435827E1,6.054410934E-1,-1.622555256E-1,-3.064727783E-2
1.158235530E1,7.351369858E-1,-1.033673286E-1,-2.807331085E-1
1.159037957E1,7.908039093E-1,-4.089093208E-2,-4.653129578E-1
1.159837683E1,8.530440331E-1,-6.447279453E-2,-3.727598190E-1
1.160637194E1,8.585033417E-1,-1.904430389E-1,-2.504529953E-1
1.161436620E1,7.396054268E-1,-3.996005058E-1,-3.405561447E-1
1.162236316E1,5.679736137E-1,-5.374766588E-1,-4.059619904E-1
1.163035880E1,2.731280327E-1,-5.342471600E-1,-4.351778030E-1
1.163835453E1,-8.838796616E-2,-4.173469543E-1,-3.187055588E-1
1.164637956E1,-4.001069069E-1,-1.957389116E-1,-3.387145996E-1
1.165437528E1,-7.793302536E-1,5.581259727E-3,-5.500316620E-2
1.166237285E1,-9.896168709E-1,9.955644608E-3,2.253961563E-1
1.167036727E1,-9.008426666E-1,-1.425392628E-1,6.461153030E-1
1.167836330E1,-5.448527336E-1,-3.418315649E-1,9.046888351E-1
1.168635810E1,-3.593730927E-2,-4.456862211E-1,9.537954330E-1
1.169435391E1,4.752030373E-1,-4.215915203E-1,6.433486938E-1
1.170238132E1,8.283557892E-1,-3.493010998E-1,5.056619644E-1
1.171037543E1,1.165720463E0,-1.377233267E-1,3.761472702E-1
1.171837146E1,1.239759445E0,3.286254406E-2,2.877597809E-1
1.172636688E1,1.150285244E0,2.992987633E-1,9.001541138E-2
1.173436261E1,9.087650776E-1,5.562090874E-1,-9.670543671E-2
1.174235625E1,4.218769073E-1,6.923042536E-1,-2.389240265E-1
1.175035313E1,1.673517227E-1,5.275591612E-1,-1.850337982E-1
1.175838086E1,2.181673050E-2,2.012599707E-1,-1.136436462E-1
1.176637574E1,-2.066016197E-1,-1.984684467E-1,-5.411148071E-2
1.177437108E1,-3.539619446E-1,-4.370633364E-1,2.278232574E-2
1.178236811E1,-3.811087608E-1,-5.328751802E-1,1.529722214E-1
1.179036229E1,-3.429999352E-1,-5.057101250E-1,3.098669052E-1
1.179835894E1,-3.461961746E-1,-3.704231977E-1,3.285694122E-1
1.180635374E1,-3.473763466E-1,-2.137053013E-1,1.755495071E-1
1.181437993E1,-3.479418755E-1,-8.364725113E-2,1.146602631E-1
1.182237742E1,-3.168578148E-1,3.868985176E-2,-2.046871185E-2
1.183037192E1,-2.611989975E-1,1.346766949E-1,-1.086664200E-1
1.183836741E1,-2.565622330E-1,2.404143810E-1,-2.749328613E-1
1.184636275E1,-4.824695587E-1,4.797232151E-1,-5.024232864E-1
1.185435763E1,-8.079476357E-1,5.922154188E-1,-2.486114502E-1
1.186235458E1,-1.081721306E0,5.734276772E-1,-6.925964355E-2
1.187037954E1,-1.028781414E0,3.473489285E-1,2.015495300E-2
1.187837734E1,-6.593537331E-1,2.615592480E-1,-6.531715393E-2
1.188637153E1,9.681034088E-2,2.811497450E-1,3.239593506E-1
1.189436694E1,7.946972847E-1,2.295675278E-1,6.545400620E-1
1.190236336E1,1.251513481E0,1.385878325E-1,5.058469772E-1
1.191035754E1,1.374360323E0,-8.555650711E-3,2.414493561E-1
1.191835473E1,1.229383945E0,-2.245001793E-1,-4.742622375E-3
1.192637999E1,8.001248837E-1,-3.350836039E-1,-5.010890961E-2
1.193437541E1,4.275965691E-1,-3.536847830E-1,-1.758956909E-2
1.194237275E1,1.485586166E-1,-2.767457962E-1,-3.566741943E-4
1.195036694E1,-1.575050354E-1,-3.860485554E-2,-2.061100006E-1
1.195836351E1,-6.046938896E-1,2.294875383E-1,-3.004102707E-1
1.196635746E1,-8.749270439E-1,2.631660700E-1,-1.385841370E-1
1.197435380E1,-8.700261116E-1,1.484189034E-1,1.929616928E-1
1.198237837E1,-7.307510376E-1,-5.363285542E-2,3.079395294E-1
1.199037479E1,-6.453270912E-1,-7.709908485E-2,1.243600845E-1
1.199837144E1,-4.373235703E-1,-1.088249683E-1,-1.544981003E-1
1.200636685E1,-3.164677620E-1,-1.217079163E-1,-2.036619186E-1
1.201436258E1,-2.658629417E-1,-1.001964808E-1,-7.721996307E-2
1.202235923E1,-1.258516312E-1,-1.797580719E-1,3.521919250E-1
1.203035311E1,5.030393600E-2,-2.301566601E-1,6.554784775E-1
1.203838052E1,2.325148582E-1,-2.492684126E-1,5.256156921E-1
1.204637555E1,1.725802422E-1,-7.507526875E-2,8.430576324E-2
1.205437105E1,1.346111298E-3,2.122223377E-1,-2.963218689E-1
1.206236793E1,-1.285009384E-1,2.822165489E-1,-2.526435852E-1
1.207036181E1,-6.404685974E-2,1.369006634E-1,-4.709911346E-2
1.207835876E1,-3.297758102E-2,-1.158498526E-1,4.674530029E-1
1.208635418E1,-1.197576523E-2,-5.824017525E-2,-2.189540863E-1
1.209438075E1,1.890759468E-1,2.285040617E-1,1.547222137E-1
1.210237670E1,5.417692661E-1,2.788748741E-1,1.231803894E-1
1.211037120E1,6.958138943E-1,3.077133894E-1,1.049003601E-1
1.211836700E1,6.660840511E-1,1.347770691E-1,9.015083313E-3
1.212636334E1,6.726143360E-1,-1.784442663E-1,2.422704697E-1
1.213435783E1,7.465214729E-1,-5.202983618E-1,1.525154114E-1
1.214235479E1,8.334665298E-1,-7.534846067E-1,2.714824677E-1
1.215037905E1,7.274789810E-1,-6.492239237E-1,8.418560028E-2
1.215837570E1,3.091354370E-1,1.800358295E-2,-8.259906769E-1
1.216637150E1,-7.196760178E-1,7.442472577E-1,-9.384827614E-1
1.217436653E1,-1.128765106E0,6.829857826E-1,-2.527332306E-1
1.218236326E1,-1.017602921E0,2.539215088E-1,8.714675903E-2
1.219035744E1,-4.120373726E-1,-2.695773840E-1,4.954128265E-1
1.219835440E1,2.886967659E-1,-7.352797985E-1,6.357936859E-1
1.220637997E1,7.436146736E-1,-8.884391785E-1,2.597026825E-1
1.221437508E1,9.173064232E-1,-8.323800564E-1,3.786849976E-2
1.222236926E1,9.361381531E-1,-7.731895447E-1,3.155641556E-1
1.223036645E1,6.341121197E-1,-5.966501236E-1,2.210741043E-1
1.223836287E1,2.953085899E-1,-3.025485277E-1,-2.743053436E-2
1.224635882E1,2.123737335E-1,-1.389858723E-1,-6.252574921E-2
1.225435370E1,2.826566696E-1,-7.474887371E-2,-1.881551743E-1
1.226238104E1,1.211357117E-1,4.067862034E-2,-1.408147812E-1
1.227037584E1,-1.908798218E-1,1.171139479E-1,-3.479003906E-3
1.227837164E1,-2.435503006E-1,1.621233225E-1,1.918935776E-1
1.228636614E1,-2.939348221E-1,4.187164307E-1,-6.477737427E-2
1.229436155E1,-6.298933029E-1,7.199693918E-1,-1.996555328E-1
1.230235851E1,-8.721952438E-1,9.128302932E-1,-2.191390991E-1
1.231035323E1,-8.506121635E-1,9.278008342E-1,1.201877594E-1
1.231837980E1,-6.180925369E-1,7.317974567E-1,4.875497818E-1
1.232637545E1,-2.923903465E-1,3.692476749E-1,5.700950623E-1
1.233437148E1,-1.247344017E-1,1.656819582E-1,3.671121597E-1
1.234236759E1,2.784776688E-1,5.306303501E-2,4.307746887E-1
1.235036262E1,6.526269913E-1,-2.127075195E-2,5.694904327E-1
1.235835896E1,6.853632927E-1,7.169127464E-3,3.000984192E-1
1.236635353E1,3.705525398E-1,1.379766464E-1,-5.308914185E-2
1.237438003E1,-3.812551498E-2,1.759595871E-1,-2.813081741E-1
1.238237721E1,-5.202279091E-1,2.791013718E-1,-5.297756195E-1
1.239037117E1,-1.159079552E0,5.588245392E-1,-1.120780468E0
1.239836774E1,-1.922060966E0,6.856894493E-1,-7.420678139E-1
1.240636293E1,-2.527500153E0,5.598927736E-1,2.159643173E-1
1.241435826E1,-2.578133583E0,2.724047899E-1,4.645032883E-1
1.242235438E1,-1.959698200E0,-1.535952091E-2,6.255416870E-1
1.243037987E1,-1.000374317E0,-5.527400970E-2,-1.198139191E-1
1.243837629E1,-1.286354065E-1,2.216325998E-1,-8.112416267E-1
1.244637170E1,2.566456795E-1,6.535191536E-1,9.374132156E-1
1.245436650E1,-1.145730019E-1,7.357748151E-1,1.497014999E0
1.246236061E1,3.420686722E-2,8.606675863E-1,-5.485959053E-1
1.247035764E1,4.895868301E-1,3.331395388E-1,-1.207218170E-1
1.247838437E1,1.645811081E0,-5.235918760E-1,-6.714673042E-1
1.248638048E1,2.243004560E0,-1.047947288E0,-1.003496647E0
1.249437528E1,1.911164522E0,-1.273481846E0,-1.093103409E0
1.250237224E1,1.129697800E0,-1.288699865E0,-9.966707230E-1
1.251036673E1,6.514973640E-1,-1.120706081E0,-6.773614883E-1
1.251836276E1,1.617460251E-1,-8.493100405E-1,-2.517347336E-1
1.252635787E1,-2.744374275E-1,-6.817662716E-1,2.685003281E-1
1.253438344E1,-5.370516777E-1,-6.067976952E-1,4.355592728E-1
1.254238070E1,-7.438344955E-1,-5.950198174E-1,3.379211426E-1
1.255037551E1,-8.679594994E-1,-5.717201233E-1,3.897190094E-1
1.255837185E1,-1.013651848E0,-4.357391596E-1,7.849740982E-1
1.256636626E1,-8.267192841E-1,-2.821849585E-1,6.341056824E-1
1.257436229E1,-1.448955536E-1,-1.618189812E-1,3.716049194E-1
1.258235902E1,4.703297615E-1,-5.217516422E-2,5.124397278E-1
1.259038421E1,6.597638130E-1,1.073223352E-1,-1.253118515E-1
1.259838024E1,7.582762241E-1,3.661704063E-1,-5.375680923E-1
1.260637442E1,6.749546528E-1,5.453661680E-1,-6.234784126E-1
1.261437107E1,7.236464024E-1,5.782048702E-1,-6.977066994E-1
1.262236741E1,8.789975643E-1,2.826261520E-1,-5.088825226E-1
1.263036252E1,8.220775127E-1,-1.297570467E-1,-4.358520508E-1
1.263835863E1,5.981626511E-1,-6.492804289E-1,2.867698669E-3
1.264638389E1,3.539834023E-1,-8.548524380E-1,1.064510345E-1
1.265437962E1,6.095647812E-2,-8.931393623E-1,2.595195770E-1
1.266237657E1,5.721330643E-2,-7.456015348E-1,5.099639893E-1
1.267037137E1,-1.386165619E-2,-4.842673540E-1,3.760709763E-1
1.267836733E1,-1.371283531E-1,-2.486759424E-1,3.137874603E-1
1.268636213E1,-3.658638000E-1,5.956053734E-3,-1.639461517E-2
1.269435816E1,-7.143454552E-1,2.767896652E-1,2.438735962E-2
1.270238281E1,-1.034330368E0,4.446727037E-1,6.902494431E-1
1.271037923E1,-1.097566128E0,4.334212542E-1,7.892103195E-1
1.271837557E1,-7.563595772E-1,3.592749834E-1,5.156583786E-1
1.272637060E1,-3.876366615E-1,2.777189016E-1,1.723814011E-1
1.273436609E1,6.309032440E-3,3.556740284E-1,-4.580678940E-1
1.274236236E1,2.680749893E-1,9.197177291E-1,-1.775737762E0
1.275035808E1,-6.963753700E-1,1.167359114E0,1.581279755E0
1.275838519E1,-6.737275124E-1,1.412564754E0,-2.178211212E-1
1.276637976E1,2.114624977E-1,1.134269714E0,-2.280158997E-1
1.277437518E1,1.642302036E0,4.050931931E-1,-2.107629776E-1
1.278237175E1,2.088372231E0,-1.382222176E-1,-5.072784424E-1
1.279036655E1,1.067770004E0,-5.842374563E-1,-1.121741772E0
1.279836289E1,-1.761283875E-1,-7.160611153E-1,-1.525184631E0
1.280635746E1,-9.022421837E-1,-8.564410210E-1,-5.824627876E-1
1.281438365E1,-9.752783775E-1,-8.973886967E-1,3.240365982E-1
1.282238083E1,-1.388203621E0,-7.822668552E-1,6.577386856E-1
1.283037509E1,-1.920512199E0,-6.758050919E-1,2.622356415E-1
1.283837136E1,-1.830153465E0,-5.843845606E-1,1.090469360E-1
1.284636708E1,-8.326916695E-1,-4.419486523E-1,4.227733612E-1
1.285436196E1,2.524547577E-1,-1.473957300E-1,9.573202133E-1
1.286235884E1,9.073038101E-1,2.098850012E-1,8.330707550E-1
1.287038410E1,1.207703352E0,5.656189919E-1,7.682504654E-1
1.287838083E1,1.307446480E0,7.388541102E-1,4.153108597E-1
1.288637494E1,1.367216110E0,9.349923730E-1,3.150653839E-2
1.289437097E1,1.377113104E0,9.189611673E-1,-4.824161530E-2
1.290236761E1,1.248016834E0,6.461069584E-1,-5.612902641E-1
1.291036242E1,6.723351479E-1,3.393352032E-1,-9.509358406E-1
1.291835876E1,6.690025330E-4,7.154190540E-2,-5.682444572E-1
1.292638402E1,-9.890003204E-1,5.845665932E-3,-7.977895737E-1
1.293438036E1,-1.642096996E0,-6.454968452E-2,-2.416992188E-2
1.294237339E1,-1.935362339E0,1.759672165E-2,2.051696777E-1
1.295037088E1,-1.585213661E0,1.542270184E-2,5.125494003E-1
1.295836669E1,-1.096207142E0,5.161166191E-2,2.697410583E-1
1.296636272E1,-6.164970398E-1,6.890535355E-2,3.531293869E-1
1.297435806E1,-4.960250854E-1,7.510805130E-2,7.535076141E-1
1.298238494E1,-4.421381950E-1,1.494244337E-1,6.735334396E-1
1.299037966E1,-4.070329666E-2,2.901852131E-1,5.960769653E-1
1.299837600E1,4.430422783E-1,2.736498117E-1,2.531118393E-1
1.300637088E1,5.222544670E-1,2.547589540E-1,-3.513479233E-1
1.301436599E1,3.448042870E-1,3.764696121E-1,-8.352303505E-1
1.302236348E1,3.639903069E-1,4.162654877E-1,-7.143883705E-1
1.303035805E1,5.528478622E-1,2.925271988E-1,1.468925476E-1
1.303838516E1,2.101116180E-1,8.269119263E-2,-6.052846909E-1
1.304637966E1,3.677268028E-1,-3.924599886E-1,-6.835374832E-1
1.305437530E1,5.131058693E-1,-7.799772024E-1,-4.246406555E-1
1.306237172E1,3.852663040E-1,-8.508170843E-1,-1.252079010E-1
1.307036706E1,1.382918358E-1,-7.795903683E-1,2.318897247E-1
1.307836278E1,-7.901048660E-2,-6.664171219E-1,2.742385864E-2
1.308635697E1,-2.417807579E-1,-5.483678579E-1,2.060337067E-1
1.309438377E1,-5.487356186E-1,-5.121834278E-1,5.882263184E-2
1.310238111E1,-5.750632286E-1,-4.280933142E-1,2.799186707E-1
1.311037530E1,-1.851940155E-1,-4.366974831E-1,3.374137878E-1
1.311837133E1,2.988138199E-1,-4.786555767E-1,4.703998566E-1
1.312636705E1,5.080780983E-1,-2.876414061E-1,-2.636604309E-1
1.313436216E1,5.380229950E-1,-1.505286694E-1,3.190879822E-1
1.314235904E1,4.923629761E-1,2.966022491E-2,4.815101624E-2
1.315038369E1,3.413906097E-1,1.553390026E-1,5.922889709E-2
1.315838011E1,9.615278244E-2,1.836026907E-1,1.687774658E-1
1.316637522E1,-1.757574081E-2,1.774681807E-1,-3.686714172E-2
1.317437086E1,-2.009725571E-2,1.343148947E-1,1.781797409E-1
1.318236474E1,-1.140103340E-1,1.739946604E-1,-8.708953857E-2
1.319036177E1,-1.976761818E-1,2.404536009E-1,-1.340141296E-1
1.319835842E1,-3.029875755E-1,3.090186119E-1,6.317615509E-2
1.320638399E1,-2.899842262E-1,2.991210222E-1,1.634683609E-1
1.321437902E1,-1.768383980E-1,2.901968956E-1,1.637554169E-1
1.322237721E1,-1.885242462E-1,2.874630690E-1,1.288070679E-1
1.323037055E1,-1.848835945E-1,2.831591368E-1,3.034381866E-1
1.323836751E1,-2.508754730E-1,1.967269182E-1,6.124801636E-1
1.324636192E1,-2.489309311E-1,1.724108458E-1,4.711475372E-1
1.325435772E1,-2.660045624E-1,9.018313885E-2,5.929069519E-1
1.326238506E1,-3.698902130E-1,1.762646437E-1,4.743490219E-1
1.327037871E1,-7.730603218E-1,3.664048910E-1,2.711029053E-1
1.327837597E1,-1.136203289E0,6.626574397E-1,-5.360722542E-1
1.328637070E1,-1.251937389E0,9.586367011E-1,-8.206081390E-2
1.329436619E1,-1.197469711E0,1.134024501E0,8.309850693E-1
1.330236253E1,-9.964165688E-1,1.268512607E0,5.853834152E-1
1.331035787E1,-3.053736687E-1,1.199343324E0,2.605237961E-1
1.331838383E1,4.998617172E-1,1.055131555E0,-1.058034897E-1
1.332637955E1,1.158959866E0,8.070325255E-1,-1.361074448E-1
1.333437520E1,1.303446531E0,4.215646982E-1,5.106658936E-1
1.334237185E1,9.042177200E-1,1.713089943E-1,5.822725296E-1
1.335036611E1,2.330088615E-1,5.053615570E-2,-2.953233719E-1
1.335836268E1,-1.641297340E-1,-2.523024082E-1,-4.209585190E-1
1.336635818E1,4.262166023E-1,-1.083622098E0,5.316734314E-1
1.337438375E1,1.067265272E0,-1.583022475E0,-1.949882507E-1
1.338238070E1,9.460420609E-1,-1.713044643E0,-6.289968491E-1
1.339037573E1,1.078909636E0,-1.648115635E0,-9.607100487E-1
1.339837153E1,1.329621792E0,-1.524713635E0,-8.458843231E-1
1.340636695E1,1.420796871E0,-1.473456740E0,-8.822026253E-1
1.341436198E1,1.134411573E0,-1.284689188E0,-1.450150967E0
1.342238640E1,5.549557209E-1,-9.156482220E-1,-2.165636063E0
1.343038397E1,1.410045624E-1,-5.771552324E-1,-2.335945129E0
1.343837993E1,-3.852682114E-1,-2.899351120E-1,-2.090299129E0
1.344637450E1,-1.195785999E0,-1.024190187E-1,-1.881386757E0
1.345437045E1,-1.627820492E0,-1.149094105E-1,-1.348790169E0
1.346236718E1,-1.792715073E0,-3.019025326E-1,-6.624064445E-1
1.347036228E1,-1.933313370E0,-7.911217213E-1,9.754009247E-1
1.347838878E1,-1.696171284E0,-1.178546667E0,1.721746445E0
1.348638412E1,-1.343297482E0,-1.257706642E0,2.353102684E0
1.349437930E1,-1.184751511E0,-8.969479799E-1,2.425053596E0
1.350237588E1,-6.653199196E-1,-4.760460854E-1,2.647997856E0
1.351037037E1,-5.130767822E-3,-2.248026133E-1,2.263760567E0
1.351836671E1,8.146035671E-1,-8.227777481E-2,1.662284851E0
1.352636182E1,1.412836075E0,1.873556376E-1,4.114122391E-1
1.353438839E1,1.715625048E0,5.782347918E-1,-6.324958801E-1
1.354238442E1,1.808679581E0,1.310430765E0,-9.665770531E-1
1.355037915E1,1.042497635E0,1.907752872E0,-3.282327652E-1
1.355837556E1,-4.987573624E-1,2.359990120E0,-1.187334061E-1
1.356637059E1,-6.620373726E-1,2.367879152E0,-5.753355026E-1
1.357436640E1,3.997657299E-1,1.792604923E0,-1.360301971E-1
1.358236328E1,1.572852135E0,8.606713414E-1,1.427831650E-1
1.359038738E1,1.685866833E0,1.746374369E-1,5.080127716E-1
1.359838457E1,1.076120853E0,-3.799369335E-1,9.399995804E-1
1.360637968E1,5.127871037E-1,-7.950747013E-1,1.870562553E0
1.361437540E1,1.486730576E-1,-7.413339615E-1,1.164258957E0
1.362237120E1,1.005845070E-1,-8.154835701E-1,2.762168884E0
1.363036570E1,9.588878155E-1,-7.214286327E-1,1.336864471E0
1.363836265E1,9.725923538E-1,7.843720913E-2,-1.339368820E-1
1.364638815E1,4.189503193E-1,8.166014552E-1,-5.435390472E-1
1.365438364E1,-2.626872063E-1,1.576390505E0,-1.691388607E0
1.366237775E1,-1.917671204E0,1.499957323E0,-1.571156025E0
1.367037471E1,-2.172381401E0,6.623944044E-1,-4.132585526E-1
1.367837112E1,-1.077519417E0,-8.318896294E-1,1.550333023E0
1.368636585E1,-1.235771179E-1,-1.759071589E0,1.522180557E0
1.369436196E1,1.237545013E-1,-2.108770370E0,8.462667465E-1
1.370238845E1,-8.180236816E-2,-1.898252249E0,1.399698257E-1
1.371038356E1,2.944898605E-2,-1.243099093E0,-1.057847977E0
1.371837982E1,3.352212906E-1,-6.280294657E-1,-1.523625374E0
1.372637524E1,5.354945660E-1,-3.454425335E-1,-2.154452324E0
1.373437096E1,7.222924232E-1,-2.618654966E-1,-3.345904827E0
1.374236761E1,9.517505169E-1,-3.001064062E-1,-4.063100815E0
1.375036210E1,1.174133778E0,-5.048686266E-1,-3.470079899E0
1.375838891E1,9.549372196E-1,-1.171431541E0,-1.780651569E0
1.376638409E1,1.362948418E-1,-1.910777688E0,-4.295988083E-1
1.377437943E1,-9.966502190E-1,-2.619386196E0,9.288177490E-1
1.378237639E1,-1.365845203E0,-2.768151760E0,1.214460373E0
1.379036973E1,-1.283228397E0,-2.282626629E0,1.001311302E0
1.379836691E1,-1.027791977E0,-1.330014706E0,1.635713577E0
1.380636233E1,-1.048629761E0,-5.452572107E-1,2.177235603E0
1.381438798E1,-1.204069614E0,1.143729687E-1,1.855164528E0
1.382238486E1,-1.061972618E0,6.702158451E-1,7.528123856E-1
1.383037881E1,-7.255949974E-1,1.052783012E0,-2.255449295E-1
1.383837477E1,-2.582764626E-1,1.278259039E0,-3.991699219E-1
1.384637049E1,3.285665512E-1,1.194587708E0,5.296993256E-2
1.385436622E1,5.845494270E-1,1.014069080E0,-2.391796112E-1
1.386236286E1,-2.140016556E-1,1.275454283E0,1.821594238E-1
1.387038820E1,-1.658610344E0,1.580064058E0,1.708998680E0
1.387838393E1,-1.093391895E0,2.157585621E0,-3.743114471E-1
1.388637873E1,4.207420349E-1,2.062736511E0,-7.758255005E-1
1.389437561E1,1.819478750E0,1.572450638E0,-1.177541733E0
1.390236895E1,1.735716105E0,8.310551047E-1,-8.128728867E-1
1.391036621E1,7.333452702E-1,2.414612770E-1,-7.508764267E-1
1.391836255E1,-2.788929939E-1,-3.542355299E-1,-8.719959259E-1
1.392638774E1,-8.743624687E-1,-8.352515697E-1,-6.136498451E-1
1.393438377E1,-1.077691555E0,-1.152340651E0,6.869087219E-1
1.394238049E1,-1.071221352E0,-1.304400921E0,1.582680702E0
1.395037499E1,-1.237409115E0,-1.165759444E0,1.299621582E0
1.395837094E1,-9.738306999E-1,-9.308953285E-1,5.186643600E-1
1.396636605E1,-1.471762657E-1,-4.377059937E-1,2.724714279E-1
1.397436124E1,5.349297523E-1,8.019351959E-2,1.071491241E-1
1.398238865E1,1.047580481E0,5.778024793E-1,7.969665527E-2
1.399038369E1,1.089906454E0,6.797752976E-1,5.477724075E-1
1.399837941E1,1.323337555E0,4.365156889E-1,2.882080078E-1
1.400637460E1,1.767999649E0,1.323205233E-1,1.366701126E-1
1.401437055E1,1.889724493E0,1.671780348E-1,-1.313467026E-1
1.402236728E1,1.380401373E0,3.841608763E-1,-7.673821449E-1
1.403036177E1,-7.739448547E-2,6.049064994E-1,-6.328334808E-1
1.403838880E1,-1.194481850E0,3.025070429E-1,-1.393404007E-1
1.404638306E1,-1.637825966E0,-4.664456844E-2,4.301910400E-1
1.405437933E1,-1.356525421E0,-3.647134304E-1,1.410169601E0
1.406237598E1,-8.141703606E-1,-2.223651409E-1,1.428476334E0
1.407037016E1,-4.197225571E-1,3.238090277E-1,3.385019302E-1
1.407836681E1,7.874488831E-2,4.915385842E-1,3.699340820E-1
1.408636130E1,3.014764786E-1,4.215741158E-2,5.992155075E-1
1.409438818E1,-4.191970825E-2,-4.764444828E-1,4.166936874E-1
1.410238537E1,-4.414224625E-1,-7.176121473E-1,-5.096826553E-1
1.411037871E1,-5.126390457E-1,-5.713698864E-1,-8.990402222E-1
1.411837536E1,2.746396065E-1,-4.380859137E-1,-7.123947144E-4
1.412637046E1,8.571066856E-1,-2.345907688E-1,3.504734039E-1
1.413436642E1,7.525167465E-1,-9.224569798E-2,-6.269025803E-1
1.414037783E1,6.542131901E-1,-2.513648272E-1,-1.161148071E0
1.414236037E1,6.542131901E-1,-2.513648272E-1,-1.161148071E0
1.415038810E1,6.151144505E-1,-4.393610954E-1,-9.241709709E-1
1.415838467E1,4.653823376E-1,-3.806065321E-1,-5.769195557E-1
1.416637947E1,3.155684471E-1,-4.623730183E-1,6.718635559E-3
1.417437496E1,1.239552498E-1,-6.236889362E-1,1.796016693E-1
1.418237184E1,2.630853653E-1,-8.237835169E-1,4.540309906E-1
1.419036603E1,3.563308716E-1,-1.007728219E0,9.797143936E-1
1.419836245E1,2.341527939E-1,-8.432769775E-1,6.800842285E-2
1.420638856E1,-3.307371140E-1,-2.737565041E-1,-5.250387192E-1
1.421438305E1,-1.278816700E0,4.536579847E-1,-5.301113129E-1
1.422238039E1,-1.558354855E0,7.327454090E-1,4.082069397E-1
1.423037481E1,-1.364430428E0,6.847997308E-1,6.372909546E-1
1.423837091E1,-1.041681290E0,5.742080212E-1,-1.103515625E-1
1.424636664E1,-7.673096657E-1,3.992533684E-1,1.053464890E0
1.425436136E1,-5.159292221E-1,1.559519768E-1,8.407173157E-1
1.426238878E1,-2.332501411E-1,1.552081108E-2,7.512979507E-1
1.427038304E1,-1.357746124E-2,-4.433274269E-2,2.842836380E-1
1.427837992E1,3.830761909E-1,1.782314777E-1,-2.318811417E-1
1.428637480E1,8.527007103E-1,4.361211061E-1,-2.024135590E-1
1.429437053E1,1.435181618E0,3.676443100E-1,2.174091339E-1
1.430236740E1,1.736013412E0,2.769196033E-2,3.810310364E-1
1.431036197E1,1.815689087E0,-4.870915413E-1,7.802381516E-1
1.431838839E1,1.665689945E0,-9.129213095E-1,4.356107712E-1
1.432638412E1,1.219101906E0,-1.189123869E0,7.989120483E-1
1.433437899E1,9.600584507E-1,-1.270104051E0,8.483572006E-1
1.434237649E1,1.053586245E0,-1.310643554E0,1.229558945E0
1.435037037E1,1.514759302E0,-1.270131588E0,1.431395531E0
1.435836701E1,1.844538927E0,-1.038153410E0,1.403264046E0
1.436636181E1,1.882041216E0,-7.680264711E-1,1.545903206E0
1.437438769E1,2.320373058E0,-8.540562391E-1,4.052752495E0
1.438036895E1,3.509357452E0,-9.151093960E-1,3.155349731E0
1.438238196E1,3.509357452E0,-9.151093960E-1,3.155349731E0
1.439037922E1,3.795188665E0,-6.155123711E-1,2.767037392E0
1.439837464E1,3.224288940E0,-2.750618458E-1,2.870898247E0
1.440637098E1,2.808699846E0,7.132136822E-2,2.503158569E0
1.441436601E1,2.814126253E0,2.877964973E-1,2.335232735E0
1.442236235E1,2.915762901E0,3.413029909E-1,2.190360069E0
1.443038792E1,2.973964930E0,2.796680927E-1,2.041811943E0
1.443838403E1,2.844332218E0,2.036234140E-1,1.781517029E0
1.444637906E1,2.579053879E0,1.759533882E-1,1.428479195E0
1.445437448E1,2.243624210E0,2.886760235E-1,9.462451935E-1
1.446237082E1,1.946068645E0,4.410901666E-1,6.861181259E-1
1.447036654E1,1.554072857E0,7.180446386E-1,3.652305603E-1
1.447839242E1,1.116649151E0,9.166389704E-1,1.413707733E-1
1.448638814E1,4.990050793E-1,1.074880481E0,-5.927467346E-2
1.449438356E1,-5.871200562E-2,1.009777784E0,-2.336854935E-1
1.450237998E1,-7.154042721E-1,8.385726213E-1,-5.396413803E-1
1.451037509E1,-1.162448168E0,5.311107039E-1,-7.336702347E-1
1.451837104E1,-1.434536219E0,2.045483589E-1,-9.331741333E-1
1.452636561E1,-1.571383715E0,-1.673430204E-1,-1.139904022E0
1.453439234E1,-1.595027924E0,-3.457157612E-1,-1.400901794E0
1.454238906E1,-1.829673290E0,-3.061740398E-1,-1.936293602E0
1.455038325E1,-2.125026703E0,-9.315311909E-2,-2.211640358E0
1.455837959E1,-2.353492975E0,5.804777145E-2,-2.430429935E0
1.456637493E1,-2.616690636E0,7.181751728E-2,-2.575538635E0
1.457437011E1,-2.912549734E0,-1.093876362E-2,-2.744411469E0
1.458236707E1,-3.232510328E0,-2.226151228E-1,-2.699385643E0
1.459039195E1,-3.359762430E0,-2.785630226E-1,-2.894184113E0
1.459838898E1,-3.295352459E0,-2.115083933E-1,-2.787309170E0
1.460638278E1,-3.198052168E0,-1.468447447E-1,-2.854087353E0
1.461437943E1,-3.105378151E0,-1.830813885E-1,-2.958669186E0
1.462039061E1,-3.015691519E0,-2.187515497E-1,-3.091537476E0
1.462237277E1,-2.998932123E0,-2.211457491E-1,-3.134633064E0
1.463037088E1,-2.951930761E0,-9.570765495E-2,-3.326355457E0
1.463836599E1,-2.943986177E0,2.854549885E-2,-3.431668758E0
1.464639217E1,-2.771822691E0,4.320609570E-2,-3.415320396E0
1.465438790E1,-2.477305889E0,-6.526541710E-2,-3.144355297E0
1.466238401E1,-2.011465788E0,-3.897416592E-1,-2.566135883E0
1.467037912E1,-1.608748913E0,-7.634142637E-1,-1.891948700E0
1.467837515E1,-1.128220320E0,-1.265061259E0,-1.080114365E0
1.468637056E1,-8.252537251E-1,-1.619221568E0,-6.593732834E-1
1.469436560E1,-7.244815826E-1,-1.793941259E0,-5.165052414E-1
1.470239332E1,-9.393186569E-1,-1.711639404E0,-5.930633545E-1
1.471038812E1,-1.233294249E0,-1.466795444E0,-7.812137604E-1
1.471838415E1,-1.559101105E0,-1.064421892E0,-1.008741856E0
1.472637903E1,-1.370308876E0,-6.849279404E-1,-1.644630909E0
1.473437445E1,-1.168572426E0,-3.749094009E-1,-1.784965515E0
1.474237110E1,-1.140518904E0,-5.474355221E-1,-5.117473602E-1
1.475036498E1,-1.391453266E0,-9.889583588E-1,5.799808502E-1
1.475839208E1,-2.398054361E0,-2.026067734E0,3.581036568E0
1.476638773E1,-3.464064121E0,-3.088404179E0,5.530452728E0
1.477438346E1,-3.625111580E0,-3.473121643E0,3.311531067E0
1.478237987E1,-2.067451000E0,-2.926227808E0,1.322791100E0
1.479037460E1,-2.517952919E-1,-2.023658276E0,2.272348404E-1
1.479837155E1,1.192631245E0,-6.879034042E-1,-5.072221756E-1
1.480636582E1,1.694771767E0,3.047921658E-1,-1.324886322E0
1.481439231E1,1.628417015E0,1.026080847E0,-6.897554398E-1
1.482238834E1,1.031193733E0,9.782727957E-1,-1.838388443E-1
1.483038345E1,2.085967064E-1,5.163054466E-1,-6.696033478E-2
1.483838002E1,-3.437967300E-1,-3.032641411E-1,4.151563644E-1
1.484637459E1,-5.695648193E-1,-7.799079418E-1,6.791400909E-1
1.485436970E1,-3.863787651E-1,-8.174304962E-1,5.158329010E-2
1.486038203E1,2.741239071E-1,-5.602972507E-1,2.258815765E-1
1.486236412E1,2.741239071E-1,-5.602972507E-1,2.258815765E-1
1.487039223E1,7.758023739E-1,-1.856572628E-1,2.844591141E-1
1.487838795E1,1.063956022E0,8.110928535E-2,3.066024780E-1
1.488638329E1,1.082846403E0,1.670856476E-1,3.335580826E-1
1.489437879E1,9.296259880E-1,1.110250950E-1,3.761596680E-1
1.490237597E1,6.196348667E-1,6.021475792E-2,3.949470520E-1
1.491037077E1,2.746801376E-1,2.190136909E-2,2.711610794E-1
1.491836650E1,4.212021828E-2,6.517934799E-2,1.225967407E-1
1.492639238E1,-5.619716644E-2,1.900892258E-1,1.509494781E-1
1.493438718E1,9.791016579E-2,3.183497190E-1,2.205820084E-1
1.494238483E1,1.365320683E-1,4.445176125E-1,2.631311417E-1
1.495037893E1,1.018974781E-1,4.645900726E-1,3.072900772E-1
1.495837443E1,8.746099472E-2,3.675953150E-1,3.150415421E-1
1.496636985E1,-3.266334534E-2,2.545658350E-1,2.677974701E-1
1.497436588E1,-9.309840202E-2,2.253443003E-1,2.516489029E-1
1.498239299E1,-9.769320488E-2,2.741647959E-1,2.489614487E-1
1.499038779E1,-1.308920383E-1,4.003660679E-1,2.736701965E-1
1.499838413E1,-1.259219646E-1,4.389015436E-1,1.964330673E-1
1.500637885E1,-1.069617271E-1,4.337574244E-1,1.969413757E-1
1.501437396E1,-8.902096748E-2,3.050699234E-1,1.986808777E-1
1.502237153E1,-8.704328537E-2,2.140737772E-1,1.858758926E-1
1.503036510E1,-2.299594879E-2,1.960235834E-1,1.589841843E-1
1.503839314E1,9.081101418E-2,1.834713221E-1,2.183198929E-1
1.504638794E1,1.451797485E-1,2.045632601E-1,1.979408264E-1
1.505438282E1,2.021536827E-1,2.972234488E-1,1.264228821E-1
1.506237946E1,2.310357094E-1,3.151410818E-1,2.529096603E-1
1.507037419E1,2.175047398E-1,2.991273403E-1,2.087574005E-1
1.507837053E1,1.893148422E-1,2.950419188E-1,2.292728424E-1
1.508636502E1,2.220041752E-1,2.121287584E-1,3.700990677E-1
1.509439182E1,2.739946842E-1,1.678090096E-1,2.870893478E-1
1.510238601E1,3.299946785E-1,2.600789070E-1,1.339874268E-1
1.511038335E1,4.083843231E-1,3.928678036E-1,-5.807876587E-3
1.511837992E1,4.781298637E-1,3.752868176E-1,6.562614441E-2
1.512637418E1,5.213558674E-1,2.342846394E-1,7.263278961E-2
1.513437014E1,3.783907890E-1,1.405937672E-1,2.047777176E-1
1.514236625E1,1.655285358E-1,6.730270386E-2,3.379707336E-1
1.515039182E1,4.457116127E-2,7.296943665E-2,3.216400146E-1
1.515838808E1,5.154466629E-2,1.210173368E-1,2.753973007E-1
1.516638257E1,1.759037971E-1,1.346933842E-1,1.844768524E-1
1.517437930E1,2.896556854E-1,1.240035295E-1,1.802186966E-1
1.518237502E1,3.172798157E-1,1.540483236E-1,1.137723923E-1
1.519037067E1,2.138032913E-1,2.204430103E-1,3.807830811E-2
1.519836647E1,4.289031029E-2,1.732623577E-1,2.805709839E-2
1.520639197E1,-7.407736778E-2,1.104830503E-1,1.815547943E-1
1.521438830E1,-1.858608723E-1,-2.305150032E-3,3.496351242E-1
1.522238403E1,-2.550432682E-1,6.115102768E-2,2.085275650E-1
1.523037829E1,-2.943215370E-1,9.235560894E-2,2.391614914E-1
1.523837486E1,-2.918548584E-1,1.367926598E-1,2.331972122E-1
1.524637059E1,-1.988613605E-1,2.542594671E-1,6.619453430E-3
1.525436539E1,-7.302999496E-2,2.835358381E-1,-4.773426056E-2
1.526239258E1,2.434730530E-2,2.998758554E-1,-5.951881409E-2
1.527038699E1,8.190989494E-2,2.053933144E-1,-1.122579575E-1
1.527838402E1,1.650006771E-1,9.618127346E-2,-1.721229553E-1
1.528637944E1,1.444551945E-1,1.048195362E-2,-1.163101196E-2
1.529437455E1,1.059522629E-1,-8.685863018E-2,2.849569321E-1
1.530237058E1,6.512904167E-2,-7.730221748E-2,1.403141022E-2
1.531036631E1,4.427218437E-2,9.778761864E-2,-1.272277832E-1
1.531839218E1,4.947638512E-2,2.069027424E-1,-4.024744034E-1
1.532638783E1,1.177740097E-1,2.580678463E-1,3.071403503E-2
1.533438302E1,2.366685867E-2,-2.821254730E-2,3.387165070E-1
1.534237720E1,-3.518373966E-1,1.550352573E-1,2.066593170E-1
1.535037439E1,-4.002864361E-1,1.848046780E-1,-9.400844574E-2
1.535837135E1,-2.194311619E-1,1.669228077E-1,-4.766464233E-2
1.536636561E1,-7.693862915E-2,1.566870213E-1,-4.258928299E-1
1.537439172E1,1.039659977E-1,2.006077766E-1,5.495595932E-1
1.538238814E1,-2.433228493E-2,-1.093595028E-1,4.419546127E-1
1.539038317E1,-1.456272602E-1,1.933023930E-1,1.109304428E-1
1.539837951E1,2.695219517E-1,1.799802780E-1,5.616950989E-2
1.540637462E1,6.132633686E-1,2.169978619E-2,2.483749390E-2
1.541437034E1,6.450355053E-1,6.205749512E-2,8.663463593E-2
1.542239722E1,5.719139576E-1,4.149723053E-2,1.125402451E-1
1.543039141E1,5.136330128E-1,6.551921368E-2,1.313142776E-1
1.543838859E1,3.899617195E-1,1.757180691E-2,1.418876648E-2
1.544638285E1,1.535775661E-1,1.228410006E-1,1.157140732E-1
1.545437889E1,-5.652546883E-2,-5.157899857E-2,3.521976471E-1
1.546237523E1,-2.529008389E-1,8.269834518E-2,8.970355988E-2
1.547036972E1,-2.027575970E-1,2.745376825E-1,-6.902790070E-2
1.547839675E1,-1.610040665E-3,4.357457161E-3,5.591793060E-1
1.548639186E1,-1.131212711E-1,5.698895454E-2,4.002094269E-2
1.549438728E1,-1.443049908E-1,2.820976973E-1,-7.006645203E-3
1.550238454E1,-4.974699020E-2,7.447636127E-2,7.495117188E-2
1.551037842E1,-1.435170174E-1,8.742380142E-2,-2.865085602E-1
1.551837514E1,-8.266520500E-2,7.434022427E-2,3.405437469E-1
1.552637025E1,-1.604022980E-1,-1.386319399E-1,4.304132462E-1
1.553439675E1,-1.705241203E-1,3.007519245E-2,2.281932831E-1
1.554239339E1,-1.958370209E-2,1.616160870E-1,-9.607887268E-2
1.555038727E1,-7.538557053E-3,1.803423166E-1,2.994594574E-1
1.555838269E1,-1.144912243E-1,2.029982805E-1,-2.632617950E-2
1.556637895E1,-1.462330818E-1,2.265629768E-1,-1.888227463E-1
1.557437383E1,-1.316256523E-1,9.316396713E-2,1.199951172E-1
1.558038516E1,-2.380020618E-1,4.861450195E-2,-1.629171371E-1
1.558236825E1,-2.380020618E-1,4.861450195E-2,-1.629171371E-1
1.559039628E1,-1.954083443E-1,2.451634407E-2,-1.677227020E-1
1.559839208E1,-6.714034081E-2,-6.925344467E-2,5.722045898E-6
1.560638773E1,3.313946724E-2,-8.064448833E-2,5.242824554E-2
1.561438284E1,1.466956139E-1,-8.176004887E-2,1.670837402E-3
1.562237949E1,2.950420380E-1,-1.288032532E-2,5.839729309E-2
1.563037460E1,4.075741768E-1,2.771043777E-2,-7.149696350E-2
1.563837101E1,4.182100296E-1,7.380700111E-2,-6.445312500E-2
1.564639627E1,4.428832531E-1,3.648197651E-2,1.085243225E-1
1.565439200E1,5.605061054E-1,9.477233887E-2,6.664562225E-2
1.566238865E1,5.400171280E-1,9.529232979E-3,3.027639389E-1
1.567038283E1,4.427633286E-1,1.037514210E-2,3.282546997E-3
1.567837879E1,2.559416294E-1,1.501607895E-1,-1.824645996E-1
1.568637451E1,1.162030697E-1,3.937971592E-2,-6.353473663E-2
1.569436993E1,-3.944873810E-2,-2.310109138E-2,1.850061417E-1
1.570239704E1,-1.569921970E-1,6.501948833E-2,6.309890747E-2
1.571039130E1,-1.087193489E-1,6.688129902E-2,4.911231995E-2
1.571838880E1,5.120134354E-2,4.732525349E-2,-1.061916351E-2
1.572638298E1,1.622495651E-1,3.780961037E-3,9.214115143E-2
1.573437901E1,2.606256008E-1,-5.246007442E-2,1.921882629E-1
1.574237481E1,2.702689171E-1,-1.631283760E-2,2.298030853E-1
1.575036923E1,2.280392647E-1,-6.230211258E-2,1.382799149E-1
1.575839634E1,1.028394699E-2,2.309155464E-2,2.328300476E-2
1.576639245E1,-1.726949215E-1,-6.173312664E-2,1.744031906E-1
1.577438725E1,-3.486435413E-1,3.034543991E-2,-2.411651611E-2
1.578238451E1,-4.162399769E-1,1.228111982E-1,-2.202224731E-2
1.579037808E1,-3.924911022E-1,-2.496600151E-3,1.662034988E-1
1.579837535E1,-3.578922749E-1,-1.304030418E-3,2.079801559E-1
1.580637046E1,-2.231845856E-1,1.644041538E-1,-9.523868561E-2
1.581439626E1,-2.479505539E-2,2.802312374E-1,-2.095565796E-1
1.582238983E1,1.306679249E-1,1.207859516E-1,1.575946808E-2
