"Time (s)","Acceleration x (m/s^2)","Acceleration y (m/s^2)","Acceleration z (m/s^2)"
6.176881000E-3,1.719036818E0,-6.540958881E0,5.753266811E0
8.153535000E-3,1.709460020E0,-6.574477673E0,5.719748020E0
1.025999300E-2,1.692700624E0,-6.598419666E0,5.688623428E0
1.224245100E-2,1.692700624E0,-6.610390663E0,5.683835030E0
1.425698600E-2,1.714248419E0,-6.619967937E0,5.669469833E0
1.624005900E-2,1.740584612E0,-6.665457726E0,5.659893036E0
1.825505600E-2,1.750161409E0,-6.682217121E0,5.645527840E0
2.023789800E-2,1.774103403E0,-6.703764915E0,5.597643375E0
2.225197100E-2,1.790862918E0,-6.710947514E0,5.571307182E0
2.423635200E-2,1.800439715E0,-6.713341713E0,5.554547787E0
2.625073300E-2,1.798045516E0,-6.710947514E0,5.497087002E0
2.823357500E-2,1.800439715E0,-6.715735912E0,5.473145008E0
3.024895700E-2,1.795651317E0,-6.720524311E0,5.453991413E0
3.223226000E-2,1.781286120E0,-6.701370716E0,5.427655220E0
3.424618000E-2,1.769315004E0,-6.675034523E0,5.406107426E0
3.625994600E-2,1.766920805E0,-6.660669327E0,5.398924828E0
3.824278800E-2,1.781286120E0,-6.660669327E0,5.403713226E0
4.025716900E-2,1.790862918E0,-6.631938934E0,5.413290024E0
4.224147300E-2,1.788468719E0,-6.629544735E0,5.430049419E0
4.425531500E-2,1.788468719E0,-6.627150536E0,5.442020416E0
4.623908200E-2,1.805228114E0,-6.615179062E0,5.451597214E0
4.825315500E-2,1.821987510E0,-6.598419666E0,5.461174011E0
5.023753500E-2,1.807622313E0,-6.598419666E0,5.465962410E0
5.225160900E-2,1.821987510E0,-6.591237068E0,5.465962410E0
5.423475900E-2,1.831564307E0,-6.586448669E0,5.463568211E0
5.624798600E-2,1.857900500E0,-6.579266071E0,5.463568211E0
5.823282900E-2,1.869871497E0,-6.569689274E0,5.461174011E0
6.024636300E-2,1.898601890E0,-6.557718277E0,5.453991413E0
6.226020600E-2,1.929726601E0,-6.557718277E0,5.463568211E0
6.424520300E-2,1.936909199E0,-6.552929878E0,5.465962410E0
6.625904500E-2,1.965639591E0,-6.550535679E0,5.477933407E0
6.824234800E-2,1.975216389E0,-6.545747280E0,5.465962410E0
7.025719200E-2,1.984793186E0,-6.536170483E0,5.456385612E0
7.224088000E-2,1.987187386E0,-6.512228489E0,5.453991413E0
7.425433700E-2,1.977610588E0,-6.507440090E0,5.446808815E0
7.623902700E-2,1.991975784E0,-6.502651691E0,5.458779812E0
7.825217700E-2,1.972822189E0,-6.502651691E0,5.439626217E0
8.023617400E-2,1.963245392E0,-6.488286495E0,5.439626217E0
8.224970800E-2,1.934514999E0,-6.478709698E0,5.444414616E0
8.423316600E-2,1.932120800E0,-6.466738701E0,5.437232018E0
8.624824000E-2,1.927332401E0,-6.466738701E0,5.442020416E0
8.823092800E-2,1.903390408E0,-6.461950302E0,5.446808815E0
9.024692400E-2,1.900996208E0,-6.454767704E0,5.442020416E0
9.222999800E-2,1.900996208E0,-6.452373505E0,5.442020416E0
9.424330100E-2,1.879448295E0,-6.447585106E0,5.420472622E0
9.625375900E-2,1.850717902E0,-6.457161903E0,5.418078423E0
9.824052500E-2,1.836352706E0,-6.459556103E0,5.432443619E0
1.002549060E-1,1.843535304E0,-6.457161903E0,5.453991413E0
1.022383630E-1,1.848323703E0,-6.483498096E0,5.458779812E0
1.042530530E-1,1.857900500E0,-6.485892296E0,5.453991413E0
1.062361260E-1,1.860294700E0,-6.502651691E0,5.451597214E0
1.082506600E-1,1.855506301E0,-6.521805286E0,5.458779812E0
1.102348880E-1,1.869871497E0,-6.540958881E0,5.461174011E0
1.122488070E-1,1.908178806E0,-6.576871872E0,5.442020416E0
1.142321110E-1,1.898601890E0,-6.586448669E0,5.463568211E0
1.162475690E-1,1.900996208E0,-6.634333134E0,5.518634796E0
1.182302580E-1,1.946485996E0,-6.670246124E0,5.564124584E0
1.202434850E-1,1.960851192E0,-6.689399719E0,5.568912983E0
1.222580200E-1,1.977610588E0,-6.730101109E0,5.576095581E0
1.242419390E-1,1.989581585E0,-6.785167694E0,5.578489780E0
1.262564740E-1,2.008735180E0,-6.797138691E0,5.583278179E0
1.282394700E-1,2.066195965E0,-6.830657482E0,5.580883980E0
1.302552360E-1,2.121262789E0,-6.871358871E0,5.588066578E0
1.322380020E-1,2.145204782E0,-6.897695065E0,5.588066578E0
1.342511520E-1,2.207453966E0,-6.914454460E0,5.549759388E0
1.362348400E-1,2.245761156E0,-6.947973251E0,5.403713226E0
1.382496830E-1,2.322375536E0,-6.964732647E0,5.339069843E0
1.402333710E-1,2.418143749E0,-6.979097843E0,5.243301868E0
1.422472140E-1,2.463633537E0,-6.995857239E0,5.209783077E0
1.442312110E-1,2.578555346E0,-7.046135426E0,5.178658485E0
1.462462070E-1,2.679111719E0,-7.058106422E0,5.137956619E0
1.482591260E-1,2.712630510E0,-7.055712223E0,5.099649429E0
1.502441230E-1,2.808398485E0,-7.074865818E0,5.044582844E0
1.522572730E-1,2.916137695E0,-7.101202011E0,5.003881454E0
1.542401160E-1,2.956839085E0,-7.094019413E0,4.982333660E0
1.562554190E-1,3.038241863E0,-7.086836815E0,4.953603268E0
1.582384920E-1,3.095702887E0,-7.079654217E0,4.936843872E0
1.602526430E-1,3.124433279E0,-7.077260017E0,4.929661274E0
1.622364080E-1,3.155557871E0,-7.086836815E0,4.900930882E0
1.642496350E-1,3.160346270E0,-7.089231014E0,4.903325081E0
1.662344780E-1,3.181894064E0,-7.079654217E0,4.917690277E0
1.682480130E-1,3.198653460E0,-7.072471619E0,4.939238071E0
1.702326240E-1,3.208230257E0,-7.072471619E0,4.951209068E0
1.722459290E-1,3.217807055E0,-7.077260017E0,4.987122059E0
1.742603090E-1,3.246537447E0,-7.082048416E0,5.013458252E0
1.762434590E-1,3.263296843E0,-7.096413612E0,5.025429249E0
1.782569950E-1,3.296815634E0,-7.129932880E0,5.046977043E0
1.802412990E-1,3.315969467E0,-7.151480675E0,5.106832027E0
1.822556790E-1,3.313575268E0,-7.175422668E0,5.130774021E0
1.842399840E-1,3.308786631E0,-7.218518257E0,5.181052685E0
1.862535180E-1,3.335123062E0,-7.259219646E0,5.240907669E0
1.882375910E-1,3.335123062E0,-7.287950039E0,5.276820660E0
1.902528960E-1,3.332728863E0,-7.333439827E0,5.374982834E0
1.922350460E-1,3.354276657E0,-7.364564419E0,5.468356609E0
1.942495040E-1,3.366247654E0,-7.390900612E0,5.489904404E0
1.962335000E-1,3.371036053E0,-7.455543995E0,5.528211594E0
1.982473420E-1,3.383007050E0,-7.481880188E0,5.530605793E0
2.002307240E-1,3.375824451E0,-7.496245384E0,5.535394192E0
2.022448740E-1,3.363853455E0,-7.539340973E0,5.573701382E0
2.042587930E-1,3.344699860E0,-7.565677166E0,5.597643375E0
2.062427900E-1,3.306392431E0,-7.584830761E0,5.652710438E0
2.082574780E-1,3.268085241E0,-7.630321026E0,5.688623428E0
2.102409360E-1,3.234566450E0,-7.656657219E0,5.693411827E0
2.122544710E-1,3.179499865E0,-7.685387611E0,5.729324818E0
2.142383900E-1,3.141192675E0,-7.721300602E0,5.755661011E0
2.162519250E-1,3.119644880E0,-7.750030994E0,5.770026207E0
2.182365370E-1,3.093308687E0,-7.771578789E0,5.772420406E0
2.202506870E-1,3.093308687E0,-7.788338184E0,5.741295815E0
2.222332220E-1,3.081337690E0,-7.797914982E0,5.724536419E0
2.242486030E-1,3.086126089E0,-7.814674377E0,5.683835030E0
2.262310610E-1,3.112462282E0,-7.845798969E0,5.633556366E0
2.282460570E-1,3.129221678E0,-7.869740963E0,5.607220173E0
2.302609000E-1,3.162740469E0,-7.876923561E0,5.549759388E0
2.322430500E-1,3.201047659E0,-7.915230751E0,5.518634796E0
2.342571240E-1,3.210624456E0,-7.939172745E0,5.516240597E0
2.362421200E-1,3.239354849E0,-7.975085735E0,5.501875401E0
2.382556540E-1,3.248931646E0,-7.994239330E0,5.492298603E0
2.402384200E-1,3.270479441E0,-8.030152321E0,5.468356609E0
2.422528780E-1,3.303998232E0,-8.051700592E0,5.425261021E0
2.442356430E-1,3.323152065E0,-8.075642586E0,5.420472622E0
2.462509480E-1,3.344699860E0,-8.109161377E0,5.386953831E0
2.482347130E-1,3.356670856E0,-8.106766701E0,5.355829239E0
2.502494780E-1,3.363853455E0,-8.109161377E0,5.329493046E0
2.522324750E-1,3.390189648E0,-8.130708694E0,5.310339451E0
2.542463180E-1,3.411737442E0,-8.149862289E0,5.293580055E0
2.562565440E-1,3.428496838E0,-8.140285492E0,5.279214859E0
2.582435410E-1,3.447650433E0,-8.137891769E0,5.233725071E0
2.602579990E-1,3.478775024E0,-8.145073891E0,5.171475887E0
2.622417640E-1,3.478775024E0,-8.128314972E0,5.133168221E0
2.642568380E-1,3.471592426E0,-8.130708694E0,5.082890034E0
2.662407570E-1,3.476380825E0,-8.140285492E0,5.035006046E0
2.682540610E-1,3.459621429E0,-8.137891769E0,5.032611847E0
2.702377500E-1,3.452438831E0,-8.140285492E0,5.001487255E0
2.722515920E-1,3.454833031E0,-8.135497093E0,4.982333660E0
2.742355890E-1,3.428496838E0,-8.159439087E0,4.960785866E0
2.762505850E-1,3.392583847E0,-8.183381081E0,4.944026470E0
2.782330430E-1,3.349488258E0,-8.195352554E0,4.929661274E0
2.802472710E-1,3.351882458E0,-8.183381081E0,4.917690277E0
2.822311900E-1,3.428496838E0,-8.166622162E0,4.905719280E0
2.842457240E-1,3.447650433E0,-8.178592682E0,4.905719280E0
2.862595670E-1,3.438073635E0,-8.202534676E0,4.917690277E0
2.882431790E-1,3.433285236E0,-8.188169479E0,4.924872875E0
2.902577130E-1,3.435679436E0,-8.183381081E0,4.934449673E0
2.922407870E-1,3.390189648E0,-8.200140953E0,4.965574265E0
2.942543220E-1,3.351882458E0,-8.209717751E0,5.008669853E0
2.962382410E-1,3.335123062E0,-8.219294548E0,5.020640850E0
2.982533150E-1,3.275267839E0,-8.212111473E0,5.056553841E0
3.002367720E-1,3.260902643E0,-8.216899872E0,5.058948040E0
3.022502300E-1,3.224989653E0,-8.238448143E0,5.075707436E0
3.042342270E-1,3.205836058E0,-8.281543732E0,5.149928093E0
3.062484530E-1,3.205836058E0,-8.295908928E0,5.183446884E0
3.082311430E-1,3.220201254E0,-8.350975990E0,5.240907669E0
3.102472160E-1,3.244143248E0,-8.370129585E0,5.233725071E0
3.122299810E-1,3.284844637E0,-8.386888504E0,5.228936672E0
3.142438240E-1,3.344699860E0,-8.410830498E0,5.233725071E0
3.162592050E-1,3.394978046E0,-8.396465302E0,5.236119270E0
3.182415850E-1,3.421314240E0,-8.410830498E0,5.224148273E0
3.202564280E-1,3.459621429E0,-8.429984093E0,5.214571476E0
3.222401170E-1,3.473986626E0,-8.415618896E0,5.219359875E0
3.242533440E-1,3.471592426E0,-8.420407295E0,5.221754074E0
3.262376480E-1,3.469198227E0,-8.398859978E0,5.240907669E0
3.282520290E-1,3.462015629E0,-8.410830498E0,5.262455463E0
3.302357940E-1,3.457227230E0,-8.410830498E0,5.274426460E0
3.322492530E-1,3.426102638E0,-8.415618896E0,5.305551052E0
3.342323260E-1,3.418920040E0,-8.425195694E0,5.310339451E0
3.362450140E-1,3.387795448E0,-8.449137688E0,5.336675644E0
3.382607030E-1,3.354276657E0,-8.473079681E0,5.319916248E0
3.402452380E-1,3.339911461E0,-8.475474358E0,5.315127850E0
3.422596950E-1,3.335123062E0,-8.451532364E0,5.274426460E0
3.442427690E-1,3.344699860E0,-8.453926086E0,5.248090267E0
3.462566880E-1,3.339911461E0,-8.461109161E0,5.238513470E0
3.482409930E-1,3.327940464E0,-8.473079681E0,5.212177277E0
3.502551430E-1,3.335123062E0,-8.465897560E0,5.188235283E0
3.522387540E-1,3.332728863E0,-8.458714485E0,5.164293289E0
3.542529050E-1,3.337517262E0,-8.465897560E0,5.111620426E0
3.562369010E-1,3.318363667E0,-8.456320763E0,5.054159641E0
3.582502050E-1,3.301604033E0,-8.461109161E0,5.023035049E0
3.602338170E-1,3.263296843E0,-8.451532364E0,4.948814869E0
3.622477360E-1,3.232172251E0,-8.413225174E0,4.872200489E0
3.642311170E-1,3.213018656E0,-8.413225174E0,4.853046894E0
3.662461910E-1,3.165134668E0,-8.401253700E0,4.819528103E0
3.682597250E-1,3.153163671E0,-8.401253700E0,4.809951305E0
3.702442600E-1,3.134010077E0,-8.401253700E0,4.812345505E0
3.722577950E-1,3.124433279E0,-8.410830498E0,4.826710701E0
3.742421760E-1,3.119644880E0,-8.415618896E0,4.807557106E0
3.762553260E-1,3.124433279E0,-8.437167168E0,4.726154327E0
3.782400150E-1,3.110068083E0,-8.451532364E0,4.599261284E0
3.802537800E-1,3.119644880E0,-8.461109161E0,4.541800499E0
3.822363160E-1,3.134010077E0,-8.489839554E0,4.450820923E0
3.842516190E-1,3.153163671E0,-8.513781548E0,4.378994942E0
3.862353080E-1,3.165134668E0,-8.523358345E0,4.345476151E0
3.882488430E-1,3.205836058E0,-8.573636055E0,4.302380562E0
3.902337620E-1,3.239354849E0,-8.602366447E0,4.256890774E0
3.922466810E-1,3.253720045E0,-8.609549522E0,4.225766182E0
3.942306780E-1,3.277662039E0,-8.614337921E0,4.170699596E0
3.962460590E-1,3.299209833E0,-8.604761124E0,4.115632534E0
3.982589780E-1,3.306392431E0,-8.588001251E0,4.079719543E0
4.002426670E-1,3.311181068E0,-8.588001251E0,4.007893562E0
4.022565090E-1,3.325546265E0,-8.595184326E0,3.981557369E0
4.042401980E-1,3.313575268E0,-8.597578049E0,3.919308186E0
4.062549640E-1,3.299209833E0,-8.571242332E0,3.873818398E0
4.082384220E-1,3.299209833E0,-8.571242332E0,3.840299606E0
4.102525710E-1,3.294421434E0,-8.561665535E0,3.806780815E0
4.122362610E-1,3.272873640E0,-8.556877136E0,3.787626982E0
4.142494870E-1,3.268085241E0,-8.559270859E0,3.778050184E0
4.162325610E-1,3.280056238E0,-8.566453934E0,3.742137194E0
4.182473270E-1,3.157952070E0,-8.564059258E0,3.691859007E0
4.202307070E-1,3.110068083E0,-8.544905663E0,3.684676409E0
4.222451660E-1,3.213018656E0,-8.537723541E0,3.718195200E0
4.242595460E-1,3.272873640E0,-8.544905663E0,3.713406801E0
4.262433120E-1,3.289633036E0,-8.535328865E0,3.718195200E0
4.282574620E-1,3.342305660E0,-8.511386871E0,3.746925592E0
4.302423820E-1,3.363853455E0,-8.508993149E0,3.778050184E0
4.322553010E-1,3.416525841E0,-8.504204750E0,3.792415380E0
4.342389900E-1,3.469198227E0,-8.494627953E0,3.816357613E0
4.362540630E-1,3.493140221E0,-8.489839554E0,3.835511208E0
4.382362130E-1,3.502717018E0,-8.489839554E0,3.883395195E0
4.402509790E-1,3.521870613E0,-8.470685959E0,3.931279182E0
4.422345900E-1,3.533841610E0,-8.468291283E0,3.960009575E0
4.442488170E-1,3.564966440E0,-8.477868080E0,3.988739967E0
4.462330450E-1,3.617638826E0,-8.475474358E0,4.022258759E0
4.482463490E-1,3.634398222E0,-8.475474358E0,4.034229755E0
4.502318060E-1,3.660734415E0,-8.494627953E0,4.046200752E0
4.522441110E-1,3.703830004E0,-8.513781548E0,4.065354347E0
4.542580300E-1,3.732560396E0,-8.540117264E0,4.074931145E0
4.562413350E-1,3.801992416E0,-8.583212852E0,4.096478939E0
4.582567920E-1,3.854664803E0,-8.638279915E0,4.108449936E0
4.602395570E-1,3.892971992E0,-8.652645111E0,4.110844135E0
4.622536310E-1,3.936067581E0,-8.698134422E0,4.113238335E0
4.642373200E-1,3.945644379E0,-8.726864815E0,4.118026733E0
4.662527000E-1,3.991134167E0,-8.750806808E0,4.103661537E0
4.682355430E-1,4.048594952E0,-8.810662270E0,4.103661537E0
4.702502320E-1,4.058171749E0,-8.841787338E0,4.101267338E0
4.722333050E-1,4.060565948E0,-8.875306129E0,4.091690540E0
4.742475320E-1,4.046200752E0,-8.887276649E0,4.060565948E0
4.762317590E-1,4.048594952E0,-8.901641846E0,4.055777550E0
4.782449860E-1,4.055777550E0,-8.954314232E0,4.043806553E0
4.802588290E-1,4.036623955E0,-8.971074104E0,4.024652958E0
4.822429020E-1,4.019864559E0,-8.987833023E0,4.019864559E0
4.842573600E-1,4.005499363E0,-9.023746490E0,4.053383350E0
4.862415870E-1,3.998316765E0,-9.054870605E0,4.055777550E0
4.882545060E-1,3.993528366E0,-9.069235802E0,4.031835556E0
4.902397330E-1,3.960009575E0,-9.107542992E0,3.955221176E0
4.922526530E-1,3.921702385E0,-9.143456459E0,3.876212597E0
4.942367260E-1,3.904942989E0,-9.162610054E0,3.833117008E0
4.962471850E-1,3.881000996E0,-9.200917244E0,3.770867586E0
4.982335650E-1,3.871424198E0,-9.212887764E0,3.751713991E0
5.002486380E-1,3.833117008E0,-9.255983353E0,3.720589399E0
5.022323280E-1,3.813963413E0,-9.299078941E0,3.682282209E0
5.042458620E-1,3.797203779E0,-9.323021889E0,3.648763418E0
5.062610120E-1,3.778050184E0,-9.349357605E0,3.579331636E0
5.082440090E-1,3.742137194E0,-9.380482674E0,3.529053211E0
5.102591590E-1,3.718195200E0,-9.382876396E0,3.500322819E0
5.122422320E-1,3.679888010E0,-9.351752281E0,3.469198227E0
5.142560750E-1,3.667917013E0,-9.351752281E0,3.426102638E0
5.162406090E-1,3.651157618E0,-9.344569206E0,3.411737442E0
5.182541440E-1,3.634398222E0,-9.315838814E0,3.404554844E0
5.202372180E-1,3.612850428E0,-9.284713745E0,3.387795448E0
5.222513680E-1,3.608062029E0,-9.253589630E0,3.383007050E0
5.242351330E-1,3.591302633E0,-9.212887764E0,3.394978046E0
5.262498990E-1,3.584120035E0,-9.162610054E0,3.406949043E0
5.282325870E-1,3.588908434E0,-9.136273384E0,3.414131641E0
5.302476600E-1,3.615244627E0,-9.102754593E0,3.430891037E0
5.322316570E-1,3.627215624E0,-9.088389397E0,3.438073635E0
5.342452690E-1,3.627215624E0,-9.052476883E0,3.454833031E0
5.362584970E-1,3.620033026E0,-9.030928612E0,3.462015629E0
5.382430310E-1,3.617638826E0,-9.014169693E0,3.469198227E0
5.402574890E-1,3.624821424E0,-8.975862503E0,3.505111217E0
5.422400240E-1,3.605667830E0,-8.939949036E0,3.524264812E0
5.442547120E-1,3.584120035E0,-8.920795441E0,3.529053211E0
5.462378620E-1,3.574543238E0,-8.889671326E0,3.543418407E0
5.482519360E-1,3.574543238E0,-8.860940933E0,3.574543238E0
5.502371630E-1,3.576937437E0,-8.841787338E0,3.581725836E0
5.522506970E-1,3.555389643E0,-8.808267593E0,3.584120035E0
5.542340790E-1,3.505111217E0,-8.748413086E0,3.596091032E0
5.562489210E-1,3.500322819E0,-8.717288017E0,3.603273630E0
5.582316860E-1,3.485957623E0,-8.664615631E0,3.596091032E0
5.602452220E-1,3.471592426E0,-8.614337921E0,3.591302633E0
5.622605250E-1,3.447650433E0,-8.583212852E0,3.584120035E0
5.642433680E-1,3.428496838E0,-8.516175270E0,3.581725836E0
5.662577490E-1,3.406949043E0,-8.489839554E0,3.560178041E0
5.682408220E-1,3.368641853E0,-8.434772491E0,3.552995205E0
5.702565110E-1,3.351882458E0,-8.391676903E0,3.545812607E0
5.722395840E-1,3.335123062E0,-8.377311707E0,3.541024208E0
5.742531190E-1,3.294421434E0,-8.324639320E0,3.531447411E0
5.762359620E-1,3.272873640E0,-8.276755333E0,3.512293816E0
5.782504200E-1,3.263296843E0,-8.271966934E0,3.507505417E0
5.802347230E-1,3.224989653E0,-8.252813339E0,3.485957623E0
5.822497200E-1,3.205836058E0,-8.236053467E0,3.454833031E0
5.842324860E-1,3.184288263E0,-8.228871346E0,3.445256233E0
5.862470200E-1,3.167528868E0,-8.224082947E0,3.433285236E0
5.882306320E-1,3.150769472E0,-8.212111473E0,3.402160645E0
5.902453980E-1,3.141192675E0,-8.209717751E0,3.363853455E0
5.922592400E-1,3.134010077E0,-8.204929352E0,3.282450438E0
5.942426210E-1,3.122039080E0,-8.195352554E0,3.198653460E0
5.962567710E-1,3.098097086E0,-8.190564156E0,3.153163671E0
5.982399210E-1,3.078943491E0,-8.200140953E0,3.083731890E0
6.002543030E-1,3.074155092E0,-8.214506149E0,3.045424461E0
6.022379910E-1,3.093308687E0,-8.212111473E0,2.985569477E0
6.042516020E-1,3.074155092E0,-8.219294548E0,2.947262287E0
6.062362150E-1,3.071760893E0,-8.226476669E0,2.932897091E0
6.082503650E-1,3.083731890E0,-8.236053467E0,2.896984100E0
6.102337460E-1,3.086126089E0,-8.231265068E0,2.875436306E0
6.122482040E-1,3.093308687E0,-8.243236542E0,2.863465309E0
6.142308920E-1,3.122039080E0,-8.262390137E0,2.849100113E0
6.162448120E-1,3.148375273E0,-8.276755333E0,2.839523315E0
6.182608080E-1,3.153163671E0,-8.295908928E0,2.841917515E0
6.202435730E-1,3.184288263E0,-8.319850922E0,2.839523315E0
6.222564940E-1,3.208230257E0,-8.327033043E0,2.853888512E0
6.242416430E-1,3.232172251E0,-8.343792915E0,2.863465309E0
6.262555620E-1,3.277662039E0,-8.382100105E0,2.885013103E0
6.282391750E-1,3.299209833E0,-8.446743965E0,2.896984100E0
6.302545560E-1,3.335123062E0,-8.465897560E0,2.920926094E0
6.322367050E-1,3.375824451E0,-8.532935143E0,2.954444885E0
6.342502410E-1,3.390189648E0,-8.566453934E0,2.966415882E0
6.362352370E-1,3.409343243E0,-8.595184326E0,2.990357876E0
6.382486940E-1,3.399766445E0,-8.640673637E0,3.007117271E0
6.402323840E-1,3.406949043E0,-8.664615631E0,3.009511471E0
6.422465340E-1,3.406949043E0,-8.674192429E0,3.038241863E0
6.442296070E-1,3.383007050E0,-8.698134422E0,3.071760893E0
6.462443730E-1,3.361459255E0,-8.717288017E0,3.083731890E0
6.482582150E-1,3.327940464E0,-8.731653214E0,3.102885485E0
6.502431350E-1,3.294421434E0,-8.762778282E0,3.114856482E0
6.522560540E-1,3.287238836E0,-8.767566681E0,3.134010077E0
6.542400500E-1,3.241749048E0,-8.772355080E0,3.157952070E0
6.562508160E-1,3.210624456E0,-8.793902397E0,3.189076662E0
6.582370430E-1,3.191470861E0,-8.801085472E0,3.196259260E0
6.602515010E-1,3.143586874E0,-8.813055992E0,3.222595453E0
6.622348050E-1,3.119644880E0,-8.813055992E0,3.224989653E0
6.642493400E-1,3.078943491E0,-8.798690796E0,3.246537447E0
6.662332590E-1,3.040636063E0,-8.813055992E0,3.265691042E0
6.682484100E-1,3.016694069E0,-8.829815865E0,3.282450438E0
6.702323290E-1,2.975992680E0,-8.846575737E0,3.318363667E0
6.722453250E-1,2.940079689E0,-8.841787338E0,3.327940464E0
6.742591680E-1,2.920926094E0,-8.839392662E0,3.325546265E0
6.762431640E-1,2.894589901E0,-8.851364136E0,3.315969467E0
6.782575450E-1,2.856282711E0,-8.851364136E0,3.313575268E0
6.802403110E-1,2.829946518E0,-8.851364136E0,3.323152065E0
6.822553840E-1,2.779668093E0,-8.870517731E0,3.332728863E0
6.842384580E-1,2.743755102E0,-8.868123055E0,3.330334663E0
6.862529150E-1,2.726995707E0,-8.853757858E0,3.315969467E0
6.882362960E-1,2.700659513E0,-8.839392662E0,3.268085241E0
6.902514470E-1,2.681505919E0,-8.834604263E0,3.210624456E0
6.922335200E-1,2.664746523E0,-8.820239067E0,3.198653460E0
6.942477460E-1,2.621650934E0,-8.820239067E0,3.177105665E0
6.962319740E-1,2.612074137E0,-8.815450668E0,3.160346270E0
6.982467390E-1,2.571372509E0,-8.798690796E0,3.124433279E0
7.002301200E-1,2.525882721E0,-8.781931877E0,3.076549292E0
7.022434250E-1,2.521094322E0,-8.769960403E0,3.066972494E0
7.042578050E-1,2.501940727E0,-8.741230011E0,3.033453465E0
7.062415710E-1,2.475604534E0,-8.712499619E0,3.002328873E0
7.082557210E-1,2.461239338E0,-8.702922821E0,2.980781078E0
7.102406400E-1,2.451662540E0,-8.683769226E0,2.956839085E0
7.122538670E-1,2.432508945E0,-8.662221909E0,2.959233284E0
7.142368640E-1,2.437297344E0,-8.643068314E0,2.956839085E0
7.162516290E-1,2.461239338E0,-8.631096840E0,2.971204281E0
7.182344730E-1,2.446874142E0,-8.621520042E0,2.935291290E0
7.202489300E-1,2.432508945E0,-8.609549522E0,2.904166698E0
7.222328490E-1,2.415749550E0,-8.585607529E0,2.889801502E0
7.242470000E-1,2.437297344E0,-8.580819130E0,2.868253708E0
7.262316110E-1,2.504334927E0,-8.597578049E0,2.851494312E0
7.282449150E-1,2.540247917E0,-8.623914719E0,2.844311714E0
7.302599890E-1,2.578555346E0,-8.623914719E0,2.844311714E0
7.322426770E-1,2.609679937E0,-8.626308441E0,2.825158119E0
7.342559810E-1,2.647987127E0,-8.616731644E0,2.798821688E0
7.362399010E-1,2.667140722E0,-8.623914719E0,2.791639090E0
7.382543590E-1,2.693476915E0,-8.633491516E0,2.784456491E0
7.402383550E-1,2.703053713E0,-8.647856712E0,2.767697096E0
7.422522750E-1,2.710236311E0,-8.662221909E0,2.762908697E0
7.442355790E-1,2.743755102E0,-8.659827232E0,2.762908697E0
7.462497280E-1,2.794033289E0,-8.669404030E0,2.777273893E0
7.482334950E-1,2.813186884E0,-8.674192429E0,2.774879694E0
7.502487980E-1,2.837129116E0,-8.690952301E0,2.779668093E0
7.522313330E-1,2.875436306E0,-8.693346024E0,2.791639090E0
7.542457140E-1,2.896984100E0,-8.710105896E0,2.796427488E0
7.562294800E-1,2.911349297E0,-8.717288017E0,2.801215887E0
7.582432460E-1,2.923320293E0,-8.719682693E0,2.810792685E0
7.602577800E-1,2.947262287E0,-8.729259491E0,2.834734917E0
7.622410840E-1,2.983175278E0,-8.741230011E0,2.849100113E0
7.642556200E-1,2.983175278E0,-8.762778282E0,2.858676910E0
7.662393080E-1,2.968810081E0,-8.762778282E0,2.877830505E0
7.682531500E-1,2.964021683E0,-8.753201485E0,2.877830505E0
7.702377620E-1,2.952050686E0,-8.757989883E0,2.877830505E0
7.722512970E-1,2.937685490E0,-8.753201485E0,2.870647907E0
7.742342930E-1,2.911349297E0,-8.750806808E0,2.875436306E0
7.762485210E-1,2.899378300E0,-8.753201485E0,2.880224705E0
7.782330550E-1,2.889801502E0,-8.736441612E0,2.885013103E0
7.802465900E-1,2.870647907E0,-8.738836288E0,2.873042107E0
7.822291250E-1,2.865859509E0,-8.731653214E0,2.873042107E0
7.842438900E-1,2.846705914E0,-8.748413086E0,2.892195702E0
7.862588860E-1,2.837129116E0,-8.767566681E0,2.916137695E0
7.882419600E-1,2.837129116E0,-8.774748802E0,2.906560898E0
7.902570330E-1,2.841917515E0,-8.791508675E0,2.885013103E0
7.922401060E-1,2.851494312E0,-8.796297073E0,2.873042107E0
7.942534110E-1,2.868253708E0,-8.817844391E0,2.863465309E0
7.962386380E-1,2.875436306E0,-8.839392662E0,2.873042107E0
7.982520960E-1,2.880224705E0,-8.856152534E0,2.868253708E0
8.002352460E-1,2.928108692E0,-8.856152534E0,2.846705914E0
8.022500110E-1,2.952050686E0,-8.865729332E0,2.806004286E0
8.042333160E-1,2.959233284E0,-8.875306129E0,2.779668093E0
8.062478500E-1,2.983175278E0,-8.901641846E0,2.717418909E0
8.082311540E-1,2.983175278E0,-8.916007042E0,2.679111719E0
8.102466130E-1,2.987963676E0,-8.918401718E0,2.659958124E0
8.122286850E-1,2.997540474E0,-8.904036522E0,2.626439333E0
8.142431430E-1,3.011905670E0,-8.927978516E0,2.592920542E0
8.162545250E-1,3.019088268E0,-8.937555313E0,2.583343744E0
8.182406740E-1,3.007117271E0,-8.947132111E0,2.568978310E0
8.202552090E-1,2.990357876E0,-8.937555313E0,2.559401512E0
8.222385140E-1,2.983175278E0,-8.939949036E0,2.554613113E0
8.242532790E-1,2.973598480E0,-8.930372238E0,2.545036316E0
8.262363520E-1,2.964021683E0,-8.923190117E0,2.540247917E0
8.282502720E-1,2.947262287E0,-8.937555313E0,2.525882721E0
8.302348060E-1,2.911349297E0,-8.949525833E0,2.528276920E0
8.322478020E-1,2.908955097E0,-8.944737434E0,2.528276920E0
8.342320300E-1,2.892195702E0,-8.930372238E0,2.533065319E0
8.362471030E-1,2.861071110E0,-8.927978516E0,2.549824715E0
8.382304850E-1,2.851494312E0,-8.927978516E0,2.542642117E0
8.402437880E-1,2.803610086E0,-8.908824921E0,2.530671120E0
8.422584770E-1,2.772485495E0,-8.884882927E0,2.547430515E0
8.442419350E-1,2.774879694E0,-8.887276649E0,2.557007313E0
8.462563930E-1,2.712630510E0,-8.896853447E0,2.552218914E0
8.482397730E-1,2.628833532E0,-8.870517731E0,2.542642117E0
8.502547700E-1,2.576161146E0,-8.868123055E0,2.554613113E0
8.522381510E-1,2.568978310E0,-8.863334656E0,2.573766708E0
8.542523010E-1,2.568978310E0,-8.863334656E0,2.602497339E0
8.562348360E-1,2.542642117E0,-8.863334656E0,2.614468336E0
8.582504480E-1,2.509123325E0,-8.870517731E0,2.657563925E0
8.602332130E-1,2.497152328E0,-8.875306129E0,2.662352324E0
8.622465180E-1,2.477998734E0,-8.896853447E0,2.681505919E0
8.642313600E-1,2.475604534E0,-8.918401718E0,2.755726099E0
8.662458170E-1,2.466027737E0,-8.935160637E0,2.791639090E0
8.682283530E-1,2.430114746E0,-8.973467827E0,2.880224705E0
8.702430410E-1,2.413355350E0,-9.009381294E0,2.901772499E0
8.722571910E-1,2.408566952E0,-9.018958092E0,2.880224705E0
8.742402650E-1,2.406172752E0,-9.052476883E0,2.827552319E0
8.762554150E-1,2.382230759E0,-9.074024200E0,2.794033289E0
8.782381810E-1,2.372653961E0,-9.100360870E0,2.774879694E0
8.802526390E-1,2.384624958E0,-9.136273384E0,2.746149302E0
8.822363270E-1,2.377442360E0,-9.179368973E0,2.741360903E0
8.842507080E-1,2.382230759E0,-9.208099365E0,2.743755102E0
8.862338580E-1,2.408566952E0,-9.260771751E0,2.762908697E0
8.882479310E-1,2.422932148E0,-9.301473618E0,2.755726099E0
8.902323130E-1,2.463633537E0,-9.320627213E0,2.762908697E0
8.922460780E-1,2.477998734E0,-9.356540680E0,2.772485495E0
8.942285360E-1,2.487575531E0,-9.370905876E0,2.772485495E0
8.962430710E-1,2.513911724E0,-9.418789864E0,2.782062292E0
8.982572210E-1,2.537853718E0,-9.452308655E0,2.813186884E0
9.002415250E-1,2.554613113E0,-9.471462250E0,2.817975283E0
9.022556760E-1,2.609679937E0,-9.504981041E0,2.806004286E0
9.042386720E-1,2.643198729E0,-9.512163162E0,2.782062292E0
9.062537440E-1,2.674323320E0,-9.524134636E0,2.782062292E0
9.082380490E-1,2.698265314E0,-9.543288231E0,2.762908697E0
9.102518910E-1,2.710236311E0,-9.550470352E0,2.734178305E0
9.122358880E-1,2.724601507E0,-9.548076630E0,2.724601507E0
9.142494230E-1,2.753331900E0,-9.555258751E0,2.705447912E0
9.162324960E-1,2.770091295E0,-9.538499832E0,2.683900118E0
9.182472620E-1,2.765302896E0,-9.540893555E0,2.671929121E0
9.202310270E-1,2.679111719E0,-9.533711433E0,2.631227732E0
9.222447920E-1,2.667140722E0,-9.516951561E0,2.640804529E0
9.242589430E-1,2.738966703E0,-9.507374763E0,2.674323320E0
9.262426320E-1,2.772485495E0,-9.469067574E0,2.647987127E0
9.282562430E-1,2.779668093E0,-9.457097054E0,2.645592928E0
9.302407780E-1,2.791639090E0,-9.425971985E0,2.655169725E0
9.322550050E-1,2.803610086E0,-9.378087997E0,2.645592928E0
9.342386170E-1,2.817975283E0,-9.346963882E0,2.645592928E0
9.362515370E-1,2.834734917E0,-9.296685219E0,2.652775526E0
9.382370710E-1,2.827552319E0,-9.251194954E0,2.695871115E0
9.402503750E-1,2.817975283E0,-9.236829758E0,2.731784105E0
9.422330640E-1,2.772485495E0,-9.203310966E0,2.755726099E0
9.442475990E-1,2.734178305E0,-9.160215378E0,2.717418909E0
9.462318260E-1,2.710236311E0,-9.145850182E0,2.688688517E0
9.482454380E-1,2.676717520E0,-9.095572472E0,2.631227732E0
9.502300490E-1,2.657563925E0,-9.054870605E0,2.595314741E0
9.522435850E-1,2.647987127E0,-9.030928612E0,2.580949545E0
9.542573500E-1,2.616862535E0,-8.999804497E0,2.557007313E0
9.562423460E-1,2.604891539E0,-8.997409821E0,2.547430515E0
9.582555740E-1,2.600103140E0,-8.963891029E0,2.557007313E0
9.602386470E-1,2.583343744E0,-8.961497307E0,2.552218914E0
9.622530270E-1,2.568978310E0,-8.963891029E0,2.568978310E0
9.642374090E-1,2.564189911E0,-8.949525833E0,2.604891539E0
9.662508660E-1,2.566584110E0,-8.959102631E0,2.636016130E0
9.682346320E-1,2.559401512E0,-8.975862503E0,2.633621931E0
9.702499360E-1,2.561795712E0,-8.992621422E0,2.626439333E0
9.722321630E-1,2.573766708E0,-8.999804497E0,2.624045134E0
9.742463130E-1,2.568978310E0,-9.002198219E0,2.619256735E0
9.762290020E-1,2.583343744E0,-9.050082207E0,2.602497339E0
9.782440750E-1,2.604891539E0,-9.066842079E0,2.592920542E0
9.802585330E-1,2.614468336E0,-9.083600998E0,2.590526342E0
9.822422990E-1,2.631227732E0,-9.109937668E0,2.588132143E0
9.842561410E-1,2.636016130E0,-9.126696587E0,2.578555346E0
9.862406770E-1,2.640804529E0,-9.126696587E0,2.568978310E0
9.882545960E-1,2.640804529E0,-9.124302864E0,2.552218914E0
9.902385920E-1,2.655169725E0,-9.129091263E0,2.547430515E0
9.922518190E-1,2.676717520E0,-9.141061783E0,2.545036316E0
9.942354310E-1,2.681505919E0,-9.148244858E0,2.545036316E0
9.962508110E-1,2.681505919E0,-9.131484985E0,2.547430515E0
9.982326550E-1,2.703053713E0,-9.121908188E0,2.540247917E0
1.000247112E0,2.710236311E0,-9.105149269E0,2.545036316E0
1.002230800E0,2.715024710E0,-9.097966194E0,2.547430515E0
1.004245259E0,2.683900118E0,-9.074024200E0,2.552218914E0
1.006228717E0,2.664746523E0,-9.052476883E0,2.573766708E0
1.008242251E0,2.659958124E0,-9.052476883E0,2.578555346E0
1.010258171E0,2.643198729E0,-9.062053680E0,2.597708941E0
1.012240013E0,2.616862535E0,-9.047688484E0,2.597708941E0
1.014255163E0,2.597708941E0,-9.040505409E0,2.602497339E0
1.016238237E0,2.549824715E0,-9.045293808E0,2.621650934E0
1.018253925E0,2.533065319E0,-9.040505409E0,2.650381327E0
1.020236922E0,2.489969730E0,-9.047688484E0,2.659958124E0
1.022250226E0,2.444479942E0,-9.069235802E0,2.686294317E0
1.024234222E0,2.420537949E0,-9.059659004E0,2.700659513E0
1.026248296E0,2.360682964E0,-9.054870605E0,2.707842112E0
1.028232369E0,2.308010340E0,-9.074024200E0,2.729389906E0
1.030247750E0,2.279279947E0,-9.088389397E0,2.743755102E0
1.032230516E0,2.219424963E0,-9.093177795E0,2.767697096E0
1.034243435E0,2.205059767E0,-9.107542992E0,2.791639090E0
1.036259046E0,2.183511972E0,-9.119514465E0,2.806004286E0
1.038241812E0,2.145204782E0,-9.119514465E0,2.851494312E0
1.040256039E0,2.109291792E0,-9.138668060E0,2.906560898E0
1.042239728E0,2.097320795E0,-9.145850182E0,2.942473888E0
1.044253494E0,2.080561161E0,-9.169792175E0,3.033453465E0
1.046237567E0,2.044648170E0,-9.191340446E0,3.122039080E0
1.048251409E0,2.049436569E0,-9.198522568E0,3.148375273E0
1.050235714E0,2.059013367E0,-9.212887764E0,3.136404276E0
1.052249556E0,2.049436569E0,-9.220070839E0,3.055001259E0
1.054232936E0,1.996764183E0,-9.229647636E0,3.023876667E0
1.056246395E0,2.051830769E0,-9.246406555E0,2.983175278E0
1.058231083E0,2.082955360E0,-9.263166428E0,2.978386879E0
1.060244234E0,2.116474390E0,-9.287108421E0,2.959233284E0
1.062259076E0,2.147598982E0,-9.289502144E0,2.944868088E0
1.064242457E0,2.161964178E0,-9.291896820E0,2.932897091E0
1.066257223E0,2.197877169E0,-9.296685219E0,2.925714493E0
1.068240834E0,2.240972757E0,-9.267954826E0,2.906560898E0
1.070256292E0,2.257732153E0,-9.267954826E0,2.894589901E0
1.072238058E0,2.279279947E0,-9.244012833E0,2.880224705E0
1.074252516E0,2.312798738E0,-9.210494041E0,2.844311714E0
1.076236819E0,2.334346771E0,-9.196128845E0,2.827552319E0
1.078250663E0,2.379836559E0,-9.169792175E0,2.798821688E0
1.080233812E0,2.408566952E0,-9.133879662E0,2.801215887E0
1.082247885E0,2.398990154E0,-9.117119789E0,2.772485495E0
1.084231652E0,2.382230759E0,-9.054870605E0,2.679111719E0
1.086245725E0,2.406172752E0,-9.018958092E0,2.659958124E0
1.088229182E0,2.461239338E0,-8.997409821E0,2.607285738E0
1.090244795E0,2.523488522E0,-8.954314232E0,2.533065319E0
1.092257406E0,2.557007313E0,-8.930372238E0,2.499546528E0
1.094241171E0,2.595314741E0,-8.875306129E0,2.451662540E0
1.096254630E0,2.657563925E0,-8.825027466E0,2.413355350E0
1.098240241E0,2.681505919E0,-8.801085472E0,2.389413357E0
1.100253469E0,2.726995707E0,-8.746018410E0,2.327163935E0
1.102236465E0,2.772485495E0,-8.678980827E0,2.279279947E0
1.104251230E0,2.794033289E0,-8.647856712E0,2.245761156E0
1.106235612E0,2.839523315E0,-8.592789650E0,2.176329374E0
1.108249069E0,2.861071110E0,-8.530540466E0,2.082955360E0
1.110233142E0,2.868253708E0,-8.504204750E0,2.047042370E0
1.112246370E0,2.904166698E0,-8.444349289E0,2.008735180E0
1.114230058E0,2.916137695E0,-8.384494781E0,1.972822189E0
1.116245054E0,2.928108692E0,-8.353369713E0,1.956062794E0
1.118227897E0,2.985569477E0,-8.310274124E0,1.924938202E0
1.120242355E0,3.007117271E0,-8.286332130E0,1.917755604E0
1.122256736E0,3.038241863E0,-8.269572258E0,1.881842494E0
1.124239502E0,3.114856482E0,-8.238448143E0,1.869871497E0
1.126254344E0,3.157952070E0,-8.221688271E0,1.860294700E0
1.128238032E0,3.174711466E0,-8.224082947E0,1.812410712E0
1.130253645E0,3.220201254E0,-8.209717751E0,1.776497602E0
1.132235795E0,3.224989653E0,-8.221688271E0,1.740584612E0
1.134249637E0,3.251325846E0,-8.245630264E0,1.721431017E0
1.136232711E0,3.311181068E0,-8.264783859E0,1.719036818E0
1.138247476E0,3.344699860E0,-8.269572258E0,1.726219416E0
1.140231781E0,3.397372246E0,-8.286332130E0,1.735796213E0
1.142245392E0,3.464409828E0,-8.307879448E0,1.726219416E0
1.144229311E0,3.497928619E0,-8.339004517E0,1.719036818E0
1.146244077E0,3.574543238E0,-8.398859978E0,1.697489023E0
1.148257689E0,3.651157618E0,-8.437167168E0,1.680729628E0
1.150242300E0,3.682282209E0,-8.449137688E0,1.666364431E0
1.152255836E0,3.749319792E0,-8.501810074E0,1.637633920E0
1.154238832E0,3.766079187E0,-8.530540466E0,1.628057122E0
1.156253289E0,3.806780815E0,-8.583212852E0,1.608903527E0
1.158236978E0,3.816357613E0,-8.633491516E0,1.604115129E0
1.160251436E0,3.823540211E0,-8.650250435E0,1.606509328E0
1.162233970E0,3.801992416E0,-8.714894295E0,1.659181833E0
1.164248121E0,3.809175014E0,-8.767566681E0,1.738190413E0
1.166232117E0,3.792415380E0,-8.810662270E0,1.762132406E0
1.168246498E0,3.782838583E0,-8.839392662E0,1.735796213E0
1.170230803E0,3.766079187E0,-8.906430244E0,1.668758631E0
1.172245260E0,3.761290789E0,-8.939949036E0,1.630451322E0
1.174228026E0,3.739742994E0,-9.011775017E0,1.570596337E0
1.176241330E0,3.706224203E0,-9.071630478E0,1.565807939E0
1.178256634E0,3.713406801E0,-9.102754593E0,1.592144132E0
1.180240015E0,3.727771997E0,-9.157821655E0,1.651999116E0
1.182253242E0,3.725377798E0,-9.227252960E0,1.663970232E0
1.184237007E0,3.746925592E0,-9.260771751E0,1.654393315E0
1.186251774E0,3.782838583E0,-9.327810287E0,1.613691926E0
1.188235462E0,3.790021181E0,-9.356540680E0,1.596932530E0
1.190251150E0,3.813963413E0,-9.392453194E0,1.592144132E0
1.192232993E0,3.835511208E0,-9.421183586E0,1.604115129E0
1.194247374E0,3.852270603E0,-9.433155060E0,1.608903527E0
1.196231755E0,3.861847401E0,-9.461885452E0,1.640028119E0
1.198244905E0,3.857059002E0,-9.500192642E0,1.692700624E0
1.200228363E0,3.852270603E0,-9.514557838E0,1.709460020E0
1.202243128E0,3.857059002E0,-9.536105156E0,1.726219416E0
1.204256894E0,3.847482204E0,-9.531316757E0,1.747767210E0
1.206241198E0,3.849876404E0,-9.536105156E0,1.769315004E0
1.208255040E0,3.847482204E0,-9.548076630E0,1.819593310E0
1.210239653E0,3.837905407E0,-9.564835548E0,1.867477298E0
1.212253495E0,3.828328609E0,-9.572018623E0,1.898601890E0
1.214236646E0,3.818751812E0,-9.579200745E0,1.956062794E0
1.216250103E0,3.813963413E0,-9.576807022E0,2.006340981E0
1.218233176E0,3.799597979E0,-9.567230225E0,2.025494576E0
1.220249173E0,3.778050184E0,-9.557653427E0,2.068590164E0
1.222231708E0,3.768473387E0,-9.560047150E0,2.092532396E0
1.224246704E0,3.756502390E0,-9.540893555E0,2.130839586E0
1.226229855E0,3.746925592E0,-9.495404243E0,2.181117773E0
1.228244312E0,3.725377798E0,-9.473855972E0,2.205059767E0
1.230258462E0,3.682282209E0,-9.435548782E0,2.231395960E0
1.232242151E0,3.660734415E0,-9.397241592E0,2.243366957E0
1.234255301E0,3.643975019E0,-9.380482674E0,2.248155355E0
1.236240220E0,3.596091032E0,-9.330204010E0,2.252943754E0
1.238253756E0,3.543418407E0,-9.260771751E0,2.245761156E0
1.240236905E0,3.514688015E0,-9.210494041E0,2.238578558E0
1.242251594E0,3.476380825E0,-9.131484985E0,2.231395960E0
1.244234668E0,3.438073635E0,-9.059659004E0,2.188300371E0
1.246249818E0,3.418920040E0,-9.026140213E0,2.154781580E0
1.248233199E0,3.361459255E0,-8.951920509E0,2.118868589E0
1.250247964E0,3.332728863E0,-8.906430244E0,2.097320795E0
1.252231037E0,3.287238836E0,-8.872911453E0,2.056619167E0
1.254244573E0,3.239354849E0,-8.805873871E0,2.011129379E0
1.256228492E0,3.215412855E0,-8.777143478E0,1.987187386E0
1.258243642E0,3.179499865E0,-8.722076416E0,1.924938202E0
1.260257485E0,3.124433279E0,-8.662221909E0,1.877054095E0
1.262239558E0,3.107673883E0,-8.643068314E0,1.855506301E0
1.264254323E0,3.071760893E0,-8.602366447E0,1.817199111E0
1.266238089E0,3.040636063E0,-8.566453934E0,1.771709204E0
1.268252239E0,3.040636063E0,-8.554482460E0,1.754949808E0
1.270236774E0,3.033453465E0,-8.516175270E0,1.726219416E0
1.272249155E0,3.040636063E0,-8.487444878E0,1.685518026E0
1.274233767E0,3.033453465E0,-8.470685959E0,1.671152830E0
1.276248840E0,3.050212860E0,-8.441955566E0,1.671152830E0
1.278232144E0,3.050212860E0,-8.444349289E0,1.675941229E0
1.280245371E0,3.057395458E0,-8.437167168E0,1.678335428E0
1.282229445E0,3.081337690E0,-8.425195694E0,1.663970232E0
1.284243595E0,3.098097086E0,-8.415618896E0,1.649604917E0
1.286257745E0,3.150769472E0,-8.406042099E0,1.628057122E0
1.288241434E0,3.191470861E0,-8.396465302E0,1.623268723E0
1.290255584E0,3.217807055E0,-8.396465302E0,1.635239720E0
1.292239272E0,3.277662039E0,-8.394071579E0,1.654393315E0
1.294253038E0,3.351882458E0,-8.389283180E0,1.666364431E0
1.296236188E0,3.390189648E0,-8.384494781E0,1.673547029E0
1.298249723E0,3.440467834E0,-8.401253700E0,1.671152830E0
1.300234643E0,3.509899616E0,-8.403648376E0,1.675941229E0
1.302248793E0,3.545812607E0,-8.398859978E0,1.675941229E0
1.304232173E0,3.586514235E0,-8.420407295E0,1.668758631E0
1.306246939E0,3.588908434E0,-8.449137688E0,1.683123827E0
1.308230628E0,3.603273630E0,-8.468291283E0,1.687912226E0
1.310245624E0,3.636792421E0,-8.508993149E0,1.692700624E0
1.312228390E0,3.643975019E0,-8.523358345E0,1.685518026E0
1.314242617E0,3.636792421E0,-8.523358345E0,1.666364431E0
1.316256151E0,3.641580820E0,-8.532935143E0,1.663970232E0
1.318240071E0,3.639186621E0,-8.544905663E0,1.666364431E0
1.320253990E0,3.612850428E0,-8.609549522E0,1.635239720E0
1.322237603E0,3.588908434E0,-8.633491516E0,1.606509328E0
1.324252137E0,3.593696833E0,-8.647856712E0,1.601720929E0
1.326235826E0,3.598485231E0,-8.681375504E0,1.572990537E0
1.328249900E0,3.605667830E0,-8.724471092E0,1.558625340E0
1.330233588E0,3.612850428E0,-8.736441612E0,1.544260144E0
1.332248122E0,3.603273630E0,-8.767566681E0,1.532289028E0
1.334230581E0,3.622427225E0,-8.781931877E0,1.515529633E0
1.336244961E0,3.632004023E0,-8.793902397E0,1.493981838E0
1.338229573E0,3.632004023E0,-8.846575737E0,1.446097851E0
1.340244031E0,3.646369219E0,-8.884882927E0,1.419761658E0
1.342256720E0,3.636792421E0,-8.896853447E0,1.403002143E0
1.344240639E0,3.646369219E0,-8.927978516E0,1.386242747E0
1.346256097E0,3.643975019E0,-8.963891029E0,1.359906554E0
1.348239093E0,3.643975019E0,-8.992621422E0,1.347935557E0
1.350253859E0,3.639186621E0,-9.040505409E0,1.331176162E0
1.352236933E0,3.632004023E0,-9.050082207E0,1.333570361E0
1.354250467E0,3.622427225E0,-9.071630478E0,1.307234168E0
1.356234540E0,3.617638826E0,-9.105149269E0,1.290474772E0
1.358249229E0,3.615244627E0,-9.121908188E0,1.285686255E0
1.360231687E0,3.610456228E0,-9.143456459E0,1.271321058E0
1.362245915E0,3.600879431E0,-9.160215378E0,1.268926859E0
1.364229911E0,3.593696833E0,-9.174580574E0,1.264138460E0
1.366243983E0,3.579331636E0,-9.191340446E0,1.252167463E0
1.368258519E0,3.586514235E0,-9.217676163E0,1.249773264E0
1.370243438E0,3.579331636E0,-9.236829758E0,1.254561663E0
1.372256049E0,3.600879431E0,-9.255983353E0,1.254561663E0
1.374239662E0,3.610456228E0,-9.291896820E0,1.254561663E0
1.376253812E0,3.608062029E0,-9.313444138E0,1.256955862E0
1.378237500E0,3.624821424E0,-9.349357605E0,1.242590666E0
1.380251420E0,3.634398222E0,-9.363722801E0,1.233013868E0
1.382235416E0,3.653551817E0,-9.370905876E0,1.252167463E0
1.384249258E0,3.658340216E0,-9.397241592E0,1.316810966E0
1.386232640E0,3.672705412E0,-9.423578262E0,1.369483352E0
1.388247944E0,3.715801001E0,-9.461885452E0,1.419761658E0
1.390232247E0,3.766079187E0,-9.481039047E0,1.374271750E0
1.392245167E0,3.785232782E0,-9.476250648E0,1.333570361E0
1.394228548E0,3.828328609E0,-9.473855972E0,1.228225470E0
1.396243621E0,3.890577793E0,-9.478644371E0,1.151610970E0
1.398257233E0,3.916913986E0,-9.485827446E0,1.142034173E0
1.400240614E0,3.967192173E0,-9.476250648E0,1.146822572E0
1.402254457E0,4.029441357E0,-9.466673851E0,1.149216771E0
1.404237761E0,4.070142746E0,-9.457097054E0,1.156399369E0
1.406252295E0,4.132391930E0,-9.449913979E0,1.161187768E0
1.408236215E0,4.201824188E0,-9.442731857E0,1.144428372E0
1.410251596E0,4.237737179E0,-9.433155060E0,1.139639974E0
1.412233823E0,4.278438568E0,-9.418789864E0,1.103726983E0
1.414248512E0,4.307168961E0,-9.411606789E0,1.084573388E0
1.416231046E0,4.364629745E0,-9.378087997E0,1.063025594E0
1.418245812E0,4.417302132E0,-9.334992409E0,1.065419793E0
1.420230347E0,4.438849926E0,-9.313444138E0,1.058237195E0
1.422242959E0,4.484339714E0,-9.289502144E0,1.055842996E0
1.424258108E0,4.517858505E0,-9.246406555E0,1.051054597E0
1.426241721E0,4.529829502E0,-9.200917244E0,1.048660398E0
1.428255255E0,4.534617901E0,-9.150638580E0,1.039083481E0
1.430240867E0,4.548983097E0,-9.129091263E0,1.024718285E0
1.432253787E0,4.544194698E0,-9.109937668E0,1.019929886E0
1.434237090E0,4.537012100E0,-9.069235802E0,1.019929886E0
1.436251934E0,4.534617901E0,-9.014169693E0,1.019929886E0
1.438235237E0,4.515464306E0,-8.995016098E0,1.015141487E0
1.440248772E0,4.486733913E0,-8.975862503E0,1.022324085E0
1.442232461E0,4.474762917E0,-8.971074104E0,1.024718285E0
1.444246303E0,4.462791920E0,-8.951920509E0,1.027112484E0
1.446230068E0,4.414907932E0,-8.927978516E0,1.041477680E0
1.448244758E0,4.393360138E0,-8.911218643E0,1.043871999E0
1.450229138E0,4.369418144E0,-8.889671326E0,1.043871999E0
1.452243211E0,4.326322556E0,-8.872911453E0,1.039083481E0
1.454256131E0,4.290409565E0,-8.870517731E0,1.029506683E0
1.456239512E0,4.228160381E0,-8.839392662E0,1.041477680E0
1.458254046E0,4.185064793E0,-8.808267593E0,1.043871999E0
1.460238582E0,4.165910721E0,-8.798690796E0,1.048660398E0
1.462252193E0,4.120420933E0,-8.801085472E0,1.063025594E0
1.464236189E0,4.074931145E0,-8.779537201E0,1.074996591E0
1.466249956E0,4.048594952E0,-8.767566681E0,1.079784989E0
1.468233336E0,3.995922565E0,-8.757989883E0,1.089361787E0
1.470249101E0,3.957615376E0,-8.757989883E0,1.108515382E0
1.472231560E0,3.938461781E0,-8.755595207E0,1.132457376E0
1.474246325E0,3.895366192E0,-8.755595207E0,1.163581967E0
1.476229707E0,3.876212597E0,-8.748413086E0,1.170764685E0
1.478242934E0,3.849876404E0,-8.743624687E0,1.170764685E0
1.480257314E0,3.828328609E0,-8.736441612E0,1.165976286E0
1.482241311E0,3.818751812E0,-8.724471092E0,1.149216771E0
1.484254923E0,3.792415380E0,-8.724471092E0,1.125274777E0
1.486238842E0,3.780444384E0,-8.726864815E0,1.118092179E0
1.488253069E0,3.785232782E0,-8.717288017E0,1.120486379E0
1.490237373E0,3.794809580E0,-8.717288017E0,1.134851575E0
1.492251138E0,3.790021181E0,-8.722076416E0,1.125274777E0
1.494234597E0,3.790021181E0,-8.717288017E0,1.130063176E0
1.496248439E0,3.794809580E0,-8.731653214E0,1.149216771E0
1.498232666E0,3.816357613E0,-8.738836288E0,1.165976286E0
1.500247124E0,3.816357613E0,-8.753201485E0,1.168370485E0
1.502229351E0,3.823540211E0,-8.774748802E0,1.156399369E0
1.504244347E0,3.847482204E0,-8.789113998E0,1.158793569E0
1.506228652E0,3.847482204E0,-8.796297073E0,1.163581967E0
1.508241956E0,3.849876404E0,-8.817844391E0,1.161187768E0
1.510257259E0,3.840299606E0,-8.836998940E0,1.154005170E0
1.512240102E0,3.818751812E0,-8.846575737E0,1.163581967E0
1.514254175E0,3.806780815E0,-8.899248123E0,1.175553083E0
1.516238249E0,3.787626982E0,-8.918401718E0,1.175553083E0
1.518251784E0,3.770867586E0,-8.930372238E0,1.182735682E0
1.520235164E0,3.758896589E0,-8.973467827E0,1.228225470E0
1.522249623E0,3.751713991E0,-8.987833023E0,1.256955862E0
1.524233004E0,3.737348795E0,-9.030928612E0,1.307234168E0
1.526247769E0,3.737348795E0,-9.050082207E0,1.367089152E0
1.528230766E0,3.725377798E0,-9.066842079E0,1.393425345E0
1.530245916E0,3.706224203E0,-9.097966194E0,1.431732655E0
1.532228912E0,3.684676409E0,-9.141061783E0,1.496376038E0
1.534243370E0,3.684676409E0,-9.148244858E0,1.539471745E0
1.536256059E0,3.660734415E0,-9.193734169E0,1.618480325E0
1.538240285E0,3.622427225E0,-9.217676163E0,1.671152830E0
1.540255128E0,3.610456228E0,-9.234436035E0,1.685518026E0
1.542238740E0,3.560178041E0,-9.255983353E0,1.719036818E0
1.544252351E0,3.550601006E0,-9.291896820E0,1.771709204E0
1.546236271E0,3.529053211E0,-9.308655739E0,1.867477298E0
1.548250806E0,3.469198227E0,-9.361329079E0,1.915361404E0
1.550235418E0,3.452438831E0,-9.370905876E0,1.936909199E0
1.552248568E0,3.428496838E0,-9.402029991E0,1.984793186E0
1.554231333E0,3.378218651E0,-9.430760384E0,2.044648170E0
1.556246099E0,3.366247654E0,-9.440337181E0,2.082955360E0
1.558230172E0,3.337517262E0,-9.457097054E0,2.193088770E0
1.560243938E0,3.315969467E0,-9.490615845E0,2.310404539E0
1.562257781E0,3.318363667E0,-9.512163162E0,2.358288765E0
1.564241238E0,3.311181068E0,-9.536105156E0,2.415749550E0
1.566256311E0,3.313575268E0,-9.552865028E0,2.415749550E0
1.568239308E0,3.327940464E0,-9.562441826E0,2.410961151E0
1.570255074E0,3.344699860E0,-9.574412346E0,2.384624958E0
1.572237762E0,3.351882458E0,-9.567230225E0,2.413355350E0
1.574251297E0,3.356670856E0,-9.576807022E0,2.437297344E0
1.576234678E0,3.363853455E0,-9.583989143E0,2.504334927E0
1.578250443E0,3.366247654E0,-9.569623947E0,2.540247917E0
1.580233440E0,3.375824451E0,-9.562441826E0,2.592920542E0
1.582246436E0,3.387795448E0,-9.569623947E0,2.624045134E0
1.584230741E0,3.373430252E0,-9.557653427E0,2.636016130E0
1.586245429E0,3.339911461E0,-9.550470352E0,2.652775526E0
1.588228502E0,3.320757866E0,-9.531316757E0,2.691082716E0
1.590243576E0,3.292027235E0,-9.531316757E0,2.719813108E0
1.592255957E0,3.224989653E0,-9.514557838E0,2.784456491E0
1.594240568E0,3.134010077E0,-9.497797966E0,2.829946518E0
1.596255257E0,3.081337690E0,-9.490615845E0,2.849100113E0
1.598238946E0,2.975992680E0,-9.466673851E0,2.901772499E0
1.600252557E0,2.868253708E0,-9.433155060E0,2.980781078E0
1.602236554E0,2.810792685E0,-9.416395187E0,3.026270866E0
1.604250012E0,2.700659513E0,-9.416395187E0,3.134010077E0
1.606234315E0,2.647987127E0,-9.404424667E0,3.265691042E0
1.608247928E0,2.528276920E0,-9.402029991E0,3.323152065E0
1.610233078E0,2.422932148E0,-9.414001465E0,3.473986626E0
1.612245458E0,2.363077164E0,-9.416395187E0,3.564966440E0
1.614228840E0,2.269703150E0,-9.442731857E0,3.761290789E0
1.616239836E0,2.178723574E0,-9.490615845E0,3.979163170E0
1.618257139E0,2.130839586E0,-9.519346237E0,4.096478939E0
1.620241367E0,2.047042370E0,-9.560047150E0,4.304774761E0
1.622254979E0,1.968033791E0,-9.634267807E0,4.510675907E0
1.624239283E0,1.929726601E0,-9.665391922E0,4.608838081E0
1.626253664E0,1.855506301E0,-9.730035782E0,4.786009312E0
1.628237352E0,1.802833915E0,-9.787496567E0,5.030217648E0
1.630252195E0,1.774103403E0,-9.818621635E0,5.171475887E0
1.632234961E0,1.750161409E0,-9.902418137E0,5.449203014E0
1.634249418E0,1.695094824E0,-9.974244118E0,5.736507416E0
1.636233415E0,1.666364431E0,-1.000058079E1,5.889736176E0
1.638247257E0,1.616086125E0,-1.007480049E1,6.232107162E0
1.640230869E0,1.584961534E0,-1.015620327E1,6.399701118E0
1.642244173E0,1.522712231E0,-1.019690514E1,6.754043102E0
1.644227554E0,1.465251446E0,-1.027351952E1,7.146692276E0
1.646242858E0,1.426944256E0,-1.030224991E1,7.323863029E0
1.648256393E0,1.345541358E0,-1.036689377E1,7.654263020E0
1.650240466E0,1.252167463E0,-1.041717148E1,8.001421928E0
1.652254231E0,1.206677675E0,-1.044111347E1,8.164227486E0
1.654237998E0,1.086967587E0,-1.046505547E1,8.475474358E0
1.656251224E0,9.768342972E-1,-1.050096893E1,8.734047890E0
1.658236143E0,9.217676520E-1,-1.051772785E1,8.865729332E0
1.660250525E0,8.068459630E-1,-1.057518864E1,9.160215378E0
1.662233060E0,6.799532771E-1,-1.059673691E1,9.373299599E0
1.664248057E0,6.177040339E-1,-1.060391903E1,9.437943459E0
1.666230822E0,4.740519226E-1,-1.063025570E1,9.536105156E0
1.668245664E0,3.064578176E-1,-1.062546730E1,9.701305389E0
1.670230276E0,2.130839527E-1,-1.063025570E1,9.825803757E0
1.672243503E0,3.112462163E-2,-1.065659142E1,1.002691650E1
1.674257345E0,-5.506663769E-2,-1.068292809E1,1.008437729E1
1.676241573E0,-2.442085743E-1,-1.071884060E1,1.021366405E1
1.678255184E0,-4.644751251E-1,-1.083376312E1,1.036210537E1
1.680238180E0,-5.746083856E-1,-1.088404083E1,1.043393135E1
1.682253024E0,-7.924807668E-1,-1.101093388E1,1.057279491E1
1.684236635E0,-1.017535686E0,-1.115458584E1,1.067095661E1
1.686251169E0,-1.127668977E0,-1.123838234E1,1.070208168E1
1.688235474E0,-1.355118155E0,-1.139400578E1,1.075235939E1
1.690249239E0,-1.556231141E0,-1.154962921E1,1.077869606E1
1.692232928E0,-1.654393315E0,-1.162384892E1,1.077869606E1
1.694245925E0,-1.850717902E0,-1.174834728E1,1.079066753E1
1.696229305E0,-2.018311977E0,-1.187045193E1,1.082179165E1
1.698243149E0,-2.082955360E0,-1.192791271E1,1.084094524E1
1.700258529E0,-2.207453966E0,-1.203325748E1,1.093431950E1
1.702241602E0,-2.315192938E0,-1.212184334E1,1.105881786E1
1.704255138E0,-2.358288765E0,-1.216015053E1,1.113543224E1
1.706239441E0,-2.451662540E0,-1.224873543E1,1.126232433E1
1.708253899E0,-2.482787132E0,-1.230619717E1,1.133175659E1
1.710238511E0,-2.518700123E0,-1.238759995E1,1.145864964E1
1.712251738E0,-2.513911724E0,-1.245224285E1,1.157835960E1
1.714235349E0,-2.499546528E0,-1.247857952E1,1.163103199E1
1.716249269E0,-2.434903145E0,-1.255519390E1,1.173877048E1
1.718232958E0,-2.341529369E0,-1.265814400E1,1.185608673E1
1.720247108E0,-2.288856745E0,-1.270602798E1,1.191833591E1
1.722231335E0,-2.135627985E0,-1.279700851E1,1.206198788E1
1.724245177E0,-1.972822189E0,-1.288559341E1,1.223437023E1
1.726229173E0,-1.881842494E0,-1.292629528E1,1.230140877E1
1.728243632E0,-1.709460020E0,-1.302206326E1,1.237084007E1
1.730257782E0,-1.527500629E0,-1.310825443E1,1.242111874E1
1.732240932E0,-1.436521053E0,-1.316332054E1,1.243308926E1
1.734255390E0,-1.273715258E0,-1.327584839E1,1.245703125E1
1.736237848E0,-1.187524080E0,-1.335246277E1,1.244745445E1
1.738253153E0,-1.027112484E0,-1.340274143E1,1.245703125E1
1.740237764E0,-8.882488012E-1,-1.348653793E1,1.247379112E1
1.742249529E0,-8.212111592E-1,-1.352245140E1,1.247139645E1
1.744234372E0,-6.895300746E-1,-1.359427738E1,1.244266605E1
1.746248830E0,-5.698199868E-1,-1.366131496E1,1.238999367E1
1.748231672E0,-5.075707436E-1,-1.369722748E1,1.236126328E1
1.750246746E0,-3.830722570E-1,-1.375708294E1,1.226549530E1
1.752229742E0,-2.418143749E-1,-1.382651520E1,1.216733265E1
1.754243584E0,-1.699883193E-1,-1.387439919E1,1.212423706E1
1.756258658E0,-1.197100803E-2,-1.395819569E1,1.200931549E1
1.758241500E0,1.747767180E-1,-1.401565647E1,1.184890461E1
1.760255573E0,2.753331959E-1,-1.404438686E1,1.175553036E1
1.762239647E0,4.692635238E-1,-1.409945393E1,1.157117653E1
1.764254105E0,6.871358752E-1,-1.412818432E1,1.134851646E1
1.766237793E0,7.852981687E-1,-1.414015484E1,1.124077702E1
1.768251021E0,9.504981041E-1,-1.416409683E1,1.102290440E1
1.770235940E0,1.036689281E0,-1.416888523E1,1.078108978E1
1.772249397E0,1.194706678E0,-1.417127991E1,1.066616821E1
1.774232856E0,1.335964561E0,-1.415691471E1,1.049378586E1
1.776244467E0,1.395819545E0,-1.417127991E1,1.029027843E1
1.778231233E0,1.539471745E0,-1.418085670E1,1.018014526E1
1.780245153E0,1.656787634E0,-1.416888523E1,9.938331604E0
1.782228533E0,1.716642618E0,-1.417367363E1,9.816226959E0
1.784242684E0,1.848323703E0,-1.417367363E1,9.595960617E0
1.786257372E0,1.977610588E0,-1.417606831E1,9.399636269E0
1.788240445E0,2.044648170E0,-1.417606831E1,9.318233490E0
1.790254981E0,2.145204782E0,-1.420479870E1,9.167398453E0
1.792238361E0,2.288856745E0,-1.422395229E1,9.045293808E0
1.794252127E0,2.367865562E0,-1.423592377E1,9.014169693E0
1.796236431E0,2.521094322E0,-1.429338455E1,8.963891029E0
1.798249658E0,2.681505919E0,-1.430296135E1,8.856152534E0
1.800234039E0,2.762908697E0,-1.431972027E1,8.789113998E0
1.802247497E0,2.923320293E0,-1.436760426E1,8.664615631E0
1.804231186E0,3.007117271E0,-1.437478733E1,8.619126320E0
1.806245720E0,3.196259260E0,-1.438915253E1,8.580819130E0
1.808229640E0,3.392583847E0,-1.437957573E1,8.568847656E0
1.810244175E0,3.507505417E0,-1.437718105E1,8.552088737E0
1.812226941E0,3.722983599E0,-1.436999893E1,8.501810074E0
1.814241321E0,3.928884983E0,-1.435563374E1,8.408436775E0
1.816254317E0,4.022258759E0,-1.433169174E1,8.353369713E0
1.818239468E0,4.201824188E0,-1.430296135E1,8.295908928E0
1.820253695E0,4.381389141E0,-1.426465416E1,8.259995461E0
1.822236383E0,4.469974518E0,-1.423592377E1,8.259995461E0
1.824250611E0,4.630385876E0,-1.418325043E1,8.228871346E0
1.826235223E0,4.766855717E0,-1.412578964E1,8.164227486E0
1.828249680E0,4.817133904E0,-1.409945393E1,8.128314972E0
1.830233985E0,4.920084476E0,-1.404678154E1,8.080430984E0
1.832246904E0,4.999093056E0,-1.400607967E1,8.054094315E0
1.834230208E0,5.032611847E0,-1.400368595E1,8.032546997E0
1.836245358E0,5.092466831E0,-1.397256088E1,7.977479935E0
1.838228662E0,5.114014626E0,-1.395340729E1,7.951143742E0
1.840241966E0,5.159504890E0,-1.393185997E1,7.900865555E0
1.842256424E0,5.193023682E0,-1.392946529E1,7.836222172E0
1.844240036E0,5.202600479E0,-1.392228317E1,7.805097580E0
1.846254493E0,5.216965675E0,-1.391270638E1,7.759607792E0
1.848237644E0,5.214571476E0,-1.387679291E1,7.723694801E0
1.850252640E0,5.209783077E0,-1.386482239E1,7.711723804E0
1.852236329E0,5.185841084E0,-1.383369732E1,7.704541206E0
1.854250172E0,5.149928093E0,-1.378102493E1,7.697358608E0
1.856232937E0,5.130774021E0,-1.375229454E1,7.706935406E0
1.858247088E0,5.099649429E0,-1.368046856E1,7.733271599E0
1.860231468E0,5.037400246E0,-1.362779617E1,7.726089001E0
1.862245310E0,5.003881454E0,-1.359667110E1,7.723694801E0
1.864228923E0,4.922478676E0,-1.353442192E1,7.709329605E0
1.866243457E0,4.814739704E0,-1.349372101E1,7.687781811E0
1.868257915E0,4.762067318E0,-1.347456741E1,7.663839817E0
1.870242220E0,4.668693542E0,-1.344344234E1,7.635109425E0
1.872255754E0,4.620809078E0,-1.342189503E1,7.618350029E0
1.874238212E0,4.537012100E0,-1.339795303E1,7.594407558E0
1.876254439E0,4.436455727E0,-1.338119316E1,7.577648163E0
1.878237281E0,4.386177540E0,-1.337401104E1,7.589619160E0
1.880250431E0,4.295197964E0,-1.334049225E1,7.620744228E0
1.882234198E0,4.235342979E0,-1.329979038E1,7.637503624E0
1.884248578E0,4.211400986E0,-1.327345467E1,7.656657219E0
1.886232575E0,4.132391930E0,-1.319205093E1,7.704541206E0
1.888246725E0,4.074931145E0,-1.313219643E1,7.733271599E0
1.890230106E0,4.046200752E0,-1.309388924E1,7.745242596E0
1.892243410E0,4.015076160E0,-1.299572659E1,7.764396191E0
1.894227945E0,4.003105164E0,-1.291432381E1,7.745242596E0
1.896241556E0,3.993528366E0,-1.287362289E1,7.716512203E0
1.898256861E0,3.993528366E0,-1.279940224E1,7.637503624E0
1.900240318E0,3.998316765E0,-1.271321106E1,7.580042362E0
1.902252930E0,4.019864559E0,-1.265575027E1,7.575253963E0
1.904237465E0,4.067748547E0,-1.258871269E1,7.599195957E0
1.906251923E0,4.074931145E0,-1.255519390E1,7.599195957E0
1.908235303E0,4.125209332E0,-1.249055004E1,7.517793179E0
1.910250685E0,4.153939724E0,-1.242830086E1,7.433996201E0
1.912233835E0,4.185064793E0,-1.239717674E1,7.388506413E0
1.914247600E0,4.228160381E0,-1.230380249E1,7.323863029E0
1.916231289E0,4.297592163E0,-1.221521664E1,7.297526836E0
1.918245439E0,4.328716755E0,-1.216972733E1,7.299921036E0
1.920228281E0,4.364629745E0,-1.208353615E1,7.309497833E0
1.922243048E0,4.434061527E0,-1.199734497E1,7.283161640E0
1.924256198E0,4.467580318E0,-1.195185471E1,7.283161640E0
1.926241118E0,4.556165695E0,-1.185848141E1,7.307103634E0
1.928254729E0,4.608838081E0,-1.178665543E1,7.347805023E0
1.930239571E0,4.630385876E0,-1.175553036E1,7.378929615E0
1.932252261E0,4.678270340E0,-1.167652130E1,7.445967197E0
1.934235872E0,4.699818134E0,-1.160469532E1,7.489062786E0
1.936247253E0,4.733336926E0,-1.156638813E1,7.594407558E0
1.938233711E0,4.750096321E0,-1.148259163E1,7.709329605E0
1.940248784E0,4.747702122E0,-1.146343803E1,7.754819393E0
1.942231318E0,4.735731125E0,-1.141794777E1,7.814674377E0
1.944246392E0,4.699818134E0,-1.134372807E1,7.862558365E0
1.946229696E0,4.683058739E0,-1.131020927E1,7.879317760E0
1.948243307E0,4.635174274E0,-1.125274754E1,7.905653954E0
1.950258920E0,4.568136692E0,-1.118092155E1,7.958326340E0
1.952241070E0,4.529829502E0,-1.114261436E1,8.006210327E0
1.954255835E0,4.438849926E0,-1.105881786E1,8.094796181E0
1.956240140E0,4.323928356E0,-1.094868469E1,8.164227486E0
1.958253674E0,4.264073372E0,-1.087925243E1,8.183381081E0
1.960237747E0,4.141968727E0,-1.079784966E1,8.212111473E0
1.962251513E0,4.007893562E0,-1.070447540E1,8.240841866E0
1.964234663E0,3.945644379E0,-1.067095661E1,8.250418663E0
1.966249660E0,3.811569214E0,-1.060870743E1,8.240841866E0
1.968233348E0,3.730166197E0,-1.056800652E1,8.236053467E0
1.970248191E0,3.586514235E0,-1.049618053E1,8.195352554E0
1.972230572E0,3.450044632E0,-1.041956615E1,8.137891769E0
1.974244722E0,3.363853455E0,-1.038125896E1,8.099584579E0
1.976227872E0,3.196259260E0,-1.030703831E1,8.013393402E0
1.978242946E0,3.035847664E0,-1.024000072E1,7.905653954E0
1.980256711E0,2.952050686E0,-1.019929886E1,7.848193169E0
1.982239553E0,2.777273893E0,-1.011310768E1,7.716512203E0
1.984254858E0,2.592920542E0,-1.001733971E1,7.615955830E0
1.986238546E0,2.497152328E0,-9.943120003E0,7.570465565E0
1.988252158E0,2.317587137E0,-9.801861763E0,7.477091789E0
1.990237385E0,2.140416384E0,-9.682151794E0,7.431602001E0
1.992250305E0,2.054224968E0,-9.607931137E0,7.412448406E0
1.994233608E0,1.884236693E0,-9.466673851E0,7.366958618E0
1.996248374E0,1.735796213E0,-9.327810287E0,7.354987621E0
1.998231447E0,1.675941229E0,-9.253589630E0,7.357381821E0
2.000244675E0,1.565807939E0,-9.117119789E0,7.371747017E0
2.002229594E0,1.529894829E0,-9.052476883E0,7.395689011E0
2.004243744E0,1.486799240E0,-8.947132111E0,7.479485989E0
2.006227203E0,1.465251446E0,-8.848969460E0,7.575253963E0
2.008241891E0,1.474828243E0,-8.810662270E0,7.615955830E0
2.010256733E0,1.491587639E0,-8.743624687E0,7.644686222E0
2.012238499E0,1.546654344E0,-8.645462036E0,7.630321026E0
2.014253572E0,1.582567334E0,-8.597578049E0,7.618350029E0
2.016235722E0,1.678335428E0,-8.525752068E0,7.611167431E0
2.018250181E0,1.764526606E0,-8.458714485E0,7.644686222E0
2.020234561E0,1.812410712E0,-8.432378769E0,7.663839817E0
2.022248711E0,1.917755604E0,-8.374917984E0,7.690176010E0
2.024232631E0,1.999158382E0,-8.334216118E0,7.711723804E0
2.026247166E0,2.035071373E0,-8.300697327E0,7.716512203E0
2.028230777E0,2.094926596E0,-8.231265068E0,7.718906403E0
2.030245005E0,2.121262789E0,-8.157045364E0,7.723694801E0
2.032227770E0,2.183511972E0,-8.125920296E0,7.718906403E0
2.034242458E0,2.202665567E0,-8.058882713E0,7.680599213E0
2.036256071E0,2.212242365E0,-8.030152321E0,7.656657219E0
2.038240374E0,2.224213362E0,-7.955932140E0,7.594407558E0
2.040253525E0,2.221819162E0,-7.872135162E0,7.517793179E0
2.042236983E0,2.219424963E0,-7.833827972E0,7.489062786E0
2.044252056E0,2.243366957E0,-7.754819393E0,7.417236805E0
2.046235976E0,2.262520552E0,-7.656657219E0,7.354987621E0
2.048249818E0,2.267308950E0,-7.627926826E0,7.331045628E0
2.050234199E0,2.255337954E0,-7.515398979E0,7.271190643E0
2.052247350E0,2.243366957E0,-7.414842606E0,7.225700855E0
2.054231422E0,2.250549555E0,-7.359776020E0,7.206547260E0
2.056244957E0,2.257732153E0,-7.273584843E0,7.196970463E0
2.058230108E0,2.255337954E0,-7.177816868E0,7.156269073E0
2.060243335E0,2.262520552E0,-7.110779285E0,7.139509678E0
2.062226177E0,2.262520552E0,-7.019799232E0,7.115567684E0
2.064241174E0,2.255337954E0,-6.945579052E0,7.077260017E0
2.066255324E0,2.217030764E0,-6.902483463E0,7.060500622E0
2.068238473E0,2.178723574E0,-6.828263283E0,7.036558628E0
2.070253855E0,2.154781580E0,-6.789956093E0,7.022193432E0
2.072236543E0,2.123656988E0,-6.713341713E0,6.967126846E0
2.074251001E0,2.087743998E0,-6.636727333E0,6.926425457E0
2.076234767E0,2.068590164E0,-6.593631268E0,6.916848660E0
2.078247994E0,2.001552582E0,-6.526593685E0,6.933608055E0
2.080231375E0,1.960851192E0,-6.445190907E0,6.916848660E0
2.082245833E0,1.939303398E0,-6.402095318E0,6.880935669E0
2.084229521E0,1.903390408E0,-6.325480938E0,6.787561893E0
2.086243980E0,1.850717902E0,-6.239289761E0,6.701370716E0
2.088227361E0,1.831564307E0,-6.210559368E0,6.663063526E0
2.090242664E0,1.781286120E0,-6.129156113E0,6.624756336E0
2.092255969E0,1.731007814E0,-6.026205540E0,6.596025467E0
2.094239657E0,1.695094824E0,-5.980715752E0,6.564900875E0
2.096250038E0,1.616086125E0,-5.906495571E0,6.512228489E0
2.098236266E0,1.577778935E0,-5.817910194E0,6.473921299E0
2.100251569E0,1.510741234E0,-5.777208805E0,6.399701118E0
2.102234642E0,1.436521053E0,-5.695806026E0,6.325480938E0
2.104248793E0,1.386242747E0,-5.645527840E0,6.294356346E0
2.106233404E0,1.268926859E0,-5.542576790E0,6.236895561E0
2.108247554E0,1.187524080E0,-5.430049419E0,6.165069580E0
2.110231859E0,1.139639974E0,-5.379771233E0,6.131550789E0
2.112244547E0,1.046266198E0,-5.293580055E0,6.052541733E0
2.114228467E0,9.433154464E-1,-5.214571476E0,5.997475147E0
2.116243925E0,8.834604025E-1,-5.171475887E0,5.980715752E0
2.118226306E0,7.972691655E-1,-5.106832027E0,5.949591160E0
2.120240456E0,7.493851185E-1,-5.042188644E0,5.901707172E0
2.122254914E0,7.158663273E-1,-5.011064053E0,5.870582581E0
2.124238295E0,6.272808313E-1,-4.963180065E0,5.779603004E0
2.126252830E0,5.698199868E-1,-4.929661274E0,5.683835030E0
2.128236441E0,5.315127969E-1,-4.896142483E0,5.643133640E0
2.130251822E0,4.764461517E-1,-4.800374508E0,5.568912983E0
2.132234973E0,4.644751251E-1,-4.762067318E0,5.506663799E0
2.134247584E0,4.357447028E-1,-4.707000732E0,5.315127850E0
2.136230965E0,4.141969085E-1,-4.627991676E0,5.109226227E0
2.138245962E0,3.998316824E-1,-4.582501888E0,4.996698856E0
2.140229419E0,3.830722570E-1,-4.479551315E0,4.809951305E0
2.142243569E0,3.854664862E-1,-4.364629745E0,4.721365929E0
2.144227489E0,3.902548850E-1,-4.302380562E0,4.673481941E0
2.146241639E0,3.998316824E-1,-4.182670593E0,4.498704910E0
2.148255789E0,4.213795066E-1,-4.065354347E0,4.204218388E0
2.150241017E0,4.405331016E-1,-3.981557369E0,4.043806553E0
2.152253398E0,5.051765442E-1,-3.775655985E0,3.761290789E0
2.154236471E0,5.793967843E-1,-3.579331636E0,3.473986626E0
2.156252467E0,6.320692301E-1,-3.481169224E0,3.318363667E0
2.158234617E0,7.206547260E-1,-3.258508444E0,3.002328873E0
2.160248076E0,8.212111592E-1,-3.055001259E0,2.712630510E0
2.162232380E0,8.858546019E-1,-2.956839085E0,2.583343744E0
2.164246222E0,1.022324085E0,-2.736572504E0,2.384624958E0
2.166230526E0,1.091755986E0,-2.628833532E0,2.296039343E0
2.168244676E0,1.252167463E0,-2.394201756E0,2.147598982E0
2.170228365E0,1.388636947E0,-2.178723574E0,2.003946781E0
2.172241900E0,1.450886250E0,-2.066195965E0,1.934514999E0
2.174256742E0,1.549048543E0,-1.848323703E0,1.848323703E0
2.176239200E0,1.651999116E0,-1.632845521E0,1.793257117E0
2.178253889E0,1.690306425E0,-1.534683347E0,1.754949808E0
2.180238270E0,1.778891921E0,-1.343147159E0,1.616086125E0
2.182252035E0,1.853112102E0,-1.142034173E0,1.477222443E0
2.184236109E0,1.881842494E0,-1.034295082E0,1.407790542E0
2.186249874E0,1.946485996E0,-8.475474119E-1,1.300051570E0
2.188232410E0,2.035071373E0,-6.847416759E-1,1.240196466E0
2.190249252E0,2.061407566E0,-6.033388376E-1,1.218648672E0
2.192230555E0,2.116474390E0,-4.453215301E-1,1.149216771E0
2.194245629E0,2.149993181E0,-2.944868207E-1,1.142034173E0
2.196229625E0,2.207453966E0,-2.322375625E-1,1.173158884E0
2.198242852E0,2.219424963E0,-1.077390760E-1,1.189918280E0
2.200227080E0,2.214636564E0,-3.830722719E-2,1.173158884E0
2.202241614E0,2.188300371E0,1.125274822E-1,1.134851575E0
2.204255380E0,2.142810583E0,2.561795712E-1,1.048660398E0
2.206239069E0,2.099714994E0,3.351882398E-1,9.983820915E-1
2.208253526E0,2.025494576E0,5.075707436E-1,8.930372596E-1
2.210237599E0,1.977610588E0,7.062895298E-1,7.398083210E-1
2.212251058E0,1.948880196E0,7.996633649E-1,6.823474765E-1
2.214234208E0,1.855506301E0,9.983820915E-1,5.698199868E-1
2.216247742E0,1.790862918E0,1.211466074E0,4.477157295E-1
2.218233201E0,1.754949808E0,1.309628367E0,3.782838583E-1
2.220247428E0,1.697489023E0,1.515529633E0,2.274491638E-1
2.222229194E0,1.630451322E0,1.733402014E0,9.337386489E-2
2.224244651E0,1.584961534E0,1.829170108E0,1.436521020E-2
2.226228340E0,1.553836942E0,2.015917778E0,-1.723825186E-1
2.228241875E0,1.529894829E0,2.209848166E0,-2.561795712E-1
2.230256871E0,1.482010841E0,2.312798738E0,-4.094084799E-1
2.232241175E0,1.422155857E0,2.501940727E0,-5.674257874E-1
2.234254172E0,1.379060149E0,2.580949545E0,-6.320692301E-1
2.236237783E0,1.314416766E0,2.758120298E0,-7.613561153E-1
2.238251318E0,1.242590666E0,2.935291290E0,-9.361328483E-1
2.240235392E0,1.187524080E0,3.014299870E0,-1.022324085E0
2.242249772E0,1.079784989E0,3.172317266E0,-1.182735682E0
2.244233153E0,9.600749016E-1,3.303998232E0,-1.355118155E0
2.246247073E0,8.882488012E-1,3.354276657E0,-1.441309452E0
2.248230454E0,7.469909191E-1,3.473986626E0,-1.613691926E0
2.250246373E0,5.841852427E-1,3.615244627E0,-1.783680320E0
2.252229139E0,5.051765442E-1,3.670311213E0,-1.865083098E0
2.254243058E0,3.327940404E-1,3.792415380E0,-2.042253971E0
2.256225823E0,1.580173075E-1,3.885789394E0,-2.214636564E0
2.258240282E0,5.985504389E-2,3.907337189E0,-2.276885748E0
2.260254970E0,-1.053448766E-1,3.960009575E0,-2.382230759E0
2.262238659E0,-1.795651317E-1,4.005499363E0,-2.449268341E0
2.264252501E0,-3.256114423E-1,4.089296341E0,-2.638410330E0
2.266235959E0,-4.932055473E-1,4.127603531E0,-2.789244890E0
2.268250418E0,-5.626373887E-1,4.146757126E0,-2.820369720E0
2.270234952E0,-6.679822803E-1,4.163516521E0,-2.870647907E0
2.272248486E0,-7.757213712E-1,4.139574528E0,-2.873042107E0
2.274231945E0,-8.188169599E-1,4.122815132E0,-2.865859509E0
2.276247249E0,-9.074024558E-1,4.098873138E0,-2.844311714E0
2.278230322E0,-9.576807022E-1,4.058171749E0,-2.803610086E0
2.280244165E0,-9.840168953E-1,4.027047157E0,-2.772485495E0
2.282227545E0,-1.036689281E0,3.969586372E0,-2.734178305E0
2.284241080E0,-1.074996591E0,3.885789394E0,-2.640804529E0
2.286256231E0,-1.096544385E0,3.835511208E0,-2.578555346E0
2.288239534E0,-1.149216771E0,3.761290789E0,-2.442085743E0
2.290254377E0,-1.180341482E0,3.691859007E0,-2.291250944E0
2.292237758E0,-1.204283476E0,3.651157618E0,-2.217030764E0
2.294250985E0,-1.242590666E0,3.574543238E0,-2.075772762E0
2.296234981E0,-1.261744261E0,3.545812607E0,-1.989581585E0
2.298249440E0,-1.280897856E0,3.471592426E0,-1.814804912E0
2.300232743E0,-1.328781962E0,3.409343243E0,-1.616086125E0
2.302246586E0,-1.352723956E0,3.371036053E0,-1.517923832E0
2.304230890E0,-1.403002143E0,3.311181068E0,-1.345541358E0
2.306245425E0,-1.474828243E0,3.265691042E0,-1.194706678E0
2.308227883E0,-1.508347034E0,3.248931646E0,-1.115697980E0
2.310243879E0,-1.572990537E0,3.220201254E0,-9.768342972E-1
2.312226567E0,-1.623268723E0,3.193865061E0,-8.236053586E-1
2.314240718E0,-1.663970232E0,3.184288263E0,-7.517793179E-1
2.316254945E0,-1.740584612E0,3.177105665E0,-6.057330370E-1
2.318237941E0,-1.831564307E0,3.160346270E0,-4.548983276E-1
2.320252092E0,-1.874659896E0,3.141192675E0,-3.902548850E-1
2.322235780E0,-1.922544003E0,3.110068083E0,-2.537853718E-1
2.324250315E0,-1.991975784E0,3.071760893E0,-1.268926859E-1
2.326234004E0,-2.044648170E0,3.062183857E0,-6.703764945E-2
2.328247538E0,-2.121262789E0,3.043030262E0,4.788403213E-2
2.330232996E0,-2.157175779E0,3.004723072E0,1.101332754E-1
2.332245685E0,-2.233790159E0,2.971204281E0,2.059013397E-1
2.334229681E0,-2.319981337E0,2.949656487E0,3.016694188E-1
2.336243523E0,-2.355894566E0,2.920926094E0,3.615244627E-1
2.338226520E0,-2.437297344E0,2.892195702E0,4.884171486E-1
2.340241286E0,-2.516305923E0,2.839523315E0,6.105214357E-1
2.342255437E0,-2.557007313E0,2.832340717E0,6.655880809E-1
2.344239202E0,-2.633621931E0,2.798821688E0,7.637503147E-1
2.346252967E0,-2.707842112E0,2.760514498E0,8.619126081E-1
2.348237349E0,-2.748543501E0,2.750937700E0,9.074024558E-1
2.350252114E0,-2.822763920E0,2.712630510E0,1.007958889E0
2.352234495E0,-2.918531895E0,2.688688517E0,1.110909581E0
2.354248415E0,-2.959233284E0,2.662352324E0,1.161187768E0
2.356233334E0,-3.023876667E0,2.616862535E0,1.256955862E0
2.358245868E0,-3.057395458E0,2.564189911E0,1.419761658E0
2.360230173E0,-3.122039080E0,2.533065319E0,1.501164436E0
2.362244323E0,-3.165134668E0,2.456450939E0,1.668758631E0
2.364227780E0,-3.189076662E0,2.413355350E0,1.750161409E0
2.366242470E0,-3.222595453E0,2.305616140E0,1.915361404E0
2.368256619E0,-3.229778051E0,2.183511972E0,2.070984364E0
2.370240308E0,-3.234566450E0,2.121262789E0,2.149993181E0
2.372254459E0,-3.224989653E0,1.991975784E0,2.334346771E0
2.374237839E0,-3.205836058E0,1.857900500E0,2.545036316E0
2.376251989E0,-3.174711466E0,1.793257117E0,2.645592928E0
2.378236601E0,-3.117250681E0,1.654393315E0,2.834734917E0
2.380251059E0,-3.033453465E0,1.522712231E0,3.045424461E0
2.382232671E0,-2.980781078E0,1.465251446E0,3.155557871E0
2.384247129E0,-2.901772499E0,1.340752959E0,3.359065056E0
2.386231048E0,-2.803610086E0,1.223437071E0,3.557783842E0
2.388245814E0,-2.741360903E0,1.170764685E0,3.651157618E0
2.390230426E0,-2.638410330E0,1.086967587E0,3.828328609E0
2.392243345E0,-2.588132143E0,9.816226959E-1,3.914519787E0
2.394227034E0,-2.468421936E0,9.385270476E-1,4.079719543E0
2.396241568E0,-2.358288765E0,8.738836050E-1,4.256890774E0
2.398254795E0,-2.296039343E0,8.499416113E-1,4.340687752E0
2.400238715E0,-2.173935175E0,7.972691655E-1,4.525041103E0
2.402253173E0,-2.044648170E0,7.422025204E-1,4.678270340E0
2.404236630E0,-1.980004787E0,7.278373241E-1,4.742913723E0
2.406250474E0,-1.819593310E0,6.967126727E-1,4.841075897E0
2.408234393E0,-1.687912226E0,6.584054828E-1,4.948814869E0
2.410249235E0,-1.635239720E0,6.296750307E-1,5.011064053E0
2.412232232E0,-1.472434044E0,5.961562395E-1,5.135562420E0
2.414245536E0,-1.338358760E0,5.626373887E-1,5.281609058E0
2.416229456E0,-1.259350061E0,5.482721925E-1,5.360617638E0
2.418244221E0,-1.094150186E0,4.979939461E-1,5.504269600E0
2.420227678E0,-9.672574997E-1,4.501099288E-1,5.664681435E0
2.422242137E0,-9.002198577E-1,4.165911078E-1,5.755661011E0
2.424255979E0,-7.685387731E-1,3.567360640E-1,5.951985359E0
2.426239360E0,-7.062895298E-1,3.160346150E-1,6.059724331E0
2.428254357E0,-6.153098345E-1,2.442085743E-1,6.253654957E0
2.430237814E0,-5.386953950E-1,1.867477298E-1,6.435614109E0
2.432251964E0,-5.027823448E-1,1.508347094E-1,6.533776283E0
2.434235038E0,-4.620809257E-1,8.379705995E-2,6.718130112E0
2.436250726E0,-4.046200812E-1,1.915361360E-2,6.900089264E0
2.438232261E0,-3.830722570E-1,-2.633621916E-2,6.983886242E0
2.440247027E0,-3.567360640E-1,-1.125274822E-1,7.175422668E0
2.442230946E0,-3.136404157E-1,-2.059013397E-1,7.383718014E0
2.444244865E0,-3.088520169E-1,-2.561795712E-1,7.481880188E0
2.446228555E0,-2.968810201E-1,-3.543418646E-1,7.682993412E0
2.448242935E0,-2.753331959E-1,-4.477157295E-1,7.879317760E0
2.450226624E0,-2.585737705E-1,-4.955997467E-1,7.967903137E0
2.452240544E0,-2.418143749E-1,-5.865794420E-1,8.145073891E0
2.454254078E0,-2.370259613E-1,-6.727706790E-1,8.334216118E0
2.456237383E0,-2.418143749E-1,-7.158663273E-1,8.422801971E0
2.458253379E0,-2.633621991E-1,-7.996633649E-1,8.585607529E0
2.460237067E0,-2.729389966E-1,-8.403648138E-1,8.664615631E0
2.462249372E0,-3.016694188E-1,-8.978256583E-1,8.810662270E0
2.464234675E0,-3.519476354E-1,-9.528923035E-1,8.906430244E0
2.466248748E0,-3.854664862E-1,-9.696516991E-1,8.961497307E0
2.468231591E0,-4.620809257E-1,-1.005564690E0,9.069235802E0
2.470246895E0,-5.458779931E-1,-1.043871999E0,9.176975250E0
2.472230276E0,-5.937620401E-1,-1.074996591E0,9.232041359E0
2.474243581E0,-6.943184733E-1,-1.106121182E0,9.320627213E0
2.476227807E0,-8.092401624E-1,-1.142034173E0,9.387664795E0
2.478241649E0,-8.643068075E-1,-1.151610970E0,9.421183586E0
2.480255800E0,-9.696516991E-1,-1.161187768E0,9.469067574E0
2.482239489E0,-1.079784989E0,-1.168370485E0,9.473855972E0
2.484253023E0,-1.139639974E0,-1.180341482E0,9.476250648E0
2.486237328E0,-1.233013868E0,-1.189918280E0,9.464279175E0
2.488251247E0,-1.288080573E0,-1.194706678E0,9.461885452E0
2.490235552E0,-1.367089152E0,-1.177947283E0,9.478644371E0
2.492248701E0,-1.417367458E0,-1.163581967E0,9.519346237E0
2.494232774E0,-1.441309452E0,-1.144428372E0,9.555258751E0
2.496243156E0,-1.503558636E0,-1.110909581E0,9.615114212E0
2.498229998E0,-1.549048543E0,-1.091755986E0,9.641449928E0
2.500244763E0,-1.561019540E0,-1.072602391E0,9.670180321E0
2.502228453E0,-1.589749932E0,-1.024718285E0,9.746794701E0
2.504242910E0,-1.594538331E0,-9.744400978E-1,9.792284966E0
2.506226214E0,-1.596932530E0,-9.648633003E-1,9.813833237E0
2.508240365E0,-1.616086125E0,-9.361328483E-1,9.880870819E0
2.510254822E0,-1.620874524E0,-9.169792533E-1,9.921571732E0
2.512238511E0,-1.628057122E0,-9.002198577E-1,9.947908401E0
2.514252046E0,-1.644816518E0,-8.786720037E-1,1.001733971E1
2.516236657E0,-1.661576033E0,-8.643068075E-1,1.008916569E1
2.518250577E0,-1.675941229E0,-8.690952063E-1,1.011310768E1
2.520233574E0,-1.685518026E0,-8.762778044E-1,1.018253994E1
2.522247723E0,-1.709460020E0,-8.762778044E-1,1.026633644E1
2.524231413E0,-1.733402014E0,-9.050082564E-1,1.031900978E1
2.526245947E0,-1.757344007E0,-9.672574997E-1,1.044350815E1
2.528228943E0,-1.769315004E0,-9.888052940E-1,1.049618053E1
2.530244402E0,-1.776497602E0,-1.055842996E0,1.059673691E1
2.532227475E0,-1.769315004E0,-1.130063176E0,1.070687008E1
2.534242163E0,-1.759738207E0,-1.175553083E0,1.076672459E1
2.536254468E0,-1.735796213E0,-1.273715258E0,1.088404083E1
2.538239694E0,-1.702277422E0,-1.357512355E0,1.098459721E1
2.540252998E0,-1.695094824E0,-1.407790542E0,1.101811600E1
2.542236072E0,-1.651999116E0,-1.486799240E0,1.107318306E1
2.544252068E0,-1.618480325E0,-1.589749932E0,1.111627865E1
2.546235756E0,-1.589749932E0,-1.637633920E0,1.114022064E1
2.548249215E0,-1.532289028E0,-1.733402014E0,1.118331623E1
2.550234134E0,-1.470039845E0,-1.810016513E0,1.120965195E1
2.552246822E0,-1.446097851E0,-1.853112102E0,1.122401714E1
2.554230512E0,-1.417367458E0,-1.936909199E0,1.124795914E1
2.556244969E0,-1.407790542E0,-2.015917778E0,1.125753593E1
2.558227965E0,-1.386242747E0,-2.051830769E0,1.129823780E1
2.560242424E0,-1.352723956E0,-2.099714994E0,1.133415127E1
2.562225266E0,-1.345541358E0,-2.123656988E0,1.135330486E1
2.564240032E0,-1.316810966E0,-2.166752577E0,1.140597725E1
2.566254413E0,-1.285686255E0,-2.178723574E0,1.146104336E1
2.568237255E0,-1.276109457E0,-2.185906172E0,1.148019695E1
2.570252944E0,-1.261744261E0,-2.181117773E0,1.148019695E1
2.572235633E0,-1.194706678E0,-2.114080191E0,1.142034245E1
2.574249552E0,-1.168370485E0,-2.090138197E0,1.138203526E1
2.576232626E0,-1.108515382E0,-2.030282974E0,1.132457447E1
2.578246775E0,-1.039083481E0,-1.965639591E0,1.127908421E1
2.580231002E0,-1.005564690E0,-1.929726601E0,1.126950741E1
2.582245538E0,-9.361328483E-1,-1.829170108E0,1.121922874E1
2.584229149E0,-8.978256583E-1,-1.757344007E0,1.116895103E1
2.586242991E0,-8.188169599E-1,-1.719036818E0,1.114740276E1
2.588227065E0,-7.517793179E-1,-1.661576033E0,1.110909557E1
2.590241830E0,-7.206547260E-1,-1.630451322E0,1.108515358E1
2.592255365E0,-6.607996821E-1,-1.575384736E0,1.102051067E1
2.594238054E0,-5.961562395E-1,-1.551442742E0,1.093431950E1
2.596253512E0,-5.698199868E-1,-1.537077546E0,1.087685871E1
2.598235969E0,-5.171475410E-1,-1.558625340E0,1.074038887E1
2.600250659E0,-4.908113480E-1,-1.582567334E0,1.061589050E1
2.602233808E0,-4.501099288E-1,-1.632845521E0,1.057279491E1
2.604249421E0,-4.046200812E-1,-1.704671621E0,1.049378586E1
2.606231648E0,-3.543418646E-1,-1.769315004E0,1.043153667E1
2.608245797E0,-3.256114423E-1,-1.821987510E0,1.039562416E1
2.610230410E0,-2.705447972E-1,-1.910573006E0,1.035252857E1
2.612244175E0,-2.298433632E-1,-2.030282974E0,1.030224991E1
2.614227556E0,-2.059013397E-1,-2.068590164E0,1.028070164E1
2.616242014E0,-1.628057212E-1,-2.161964178E0,1.025675964E1
2.618257395E0,-1.244984865E-1,-2.262520552E0,1.024239445E1
2.620240468E0,-1.125274822E-1,-2.303221941E0,1.024478912E1
2.622253388E0,-5.506663769E-2,-2.394201756E0,1.023521233E1
2.624237153E0,-3.591302410E-2,-2.439691544E0,1.024239445E1
2.626251534E0,9.576806799E-3,-2.511517525E0,1.023760605E1
2.628235223E0,4.548983276E-2,-2.619256735E0,1.020169353E1
2.630250373E0,6.224924326E-2,-2.662352324E0,1.019211674E1
2.632233369E0,1.077390760E-1,-2.731784105E0,1.016817474E1
2.634246981E0,1.244984865E-1,-2.782062292E0,1.017775154E1
2.636231208E0,1.340752989E-1,-2.808398485E0,1.018014526E1
2.638244819E0,1.460463107E-1,-2.858676910E0,1.019451046E1
2.640227816E0,1.651999205E-1,-2.882618904E0,1.021605873E1
2.642242351E0,1.795651317E-1,-2.904166698E0,1.022563553E1
2.644226271E0,1.987187415E-1,-2.942473888E0,1.025436592E1
2.646240728E0,2.106897533E-1,-2.944868088E0,1.028070164E1
2.648254878E0,2.178723514E-1,-2.935291290E0,1.029985619E1
2.650238875E0,2.609679997E-1,-2.925714493E0,1.032619190E1
2.652252102E0,2.849099934E-1,-2.923320293E0,1.034534550E1
2.654235790E0,3.208230138E-1,-2.911349297E0,1.035013390E1
2.656250249E0,3.399766386E-1,-2.880224705E0,1.034774017E1
2.658233937E0,3.615244627E-1,-2.875436306E0,1.034055710E1
2.660248472E0,4.141969085E-1,-2.846705914E0,1.033816338E1
2.662231776E0,4.788403511E-1,-2.820369720E0,1.033576870E1
2.664245696E0,5.027823448E-1,-2.810792685E0,1.034534550E1
2.666229615E0,5.626373887E-1,-2.779668093E0,1.035731697E1
2.668243842E0,5.698199868E-1,-2.746149302E0,1.037647057E1
2.670228761E0,5.937620401E-1,-2.722207308E0,1.038844109E1
2.672240450E0,6.440402865E-1,-2.731784105E0,1.040041256E1
2.674255139E0,6.751648784E-1,-2.717418909E0,1.037647057E1
2.676239443E0,7.015010715E-1,-2.707842112E0,1.035013390E1
2.678253285E0,7.398083210E-1,-2.703053713E0,1.026873112E1
2.680237590E0,7.757213712E-1,-2.717418909E0,1.017296314E1
2.682250893E0,7.948749661E-1,-2.717418909E0,1.013944435E1
2.684235121E0,8.451532125E-1,-2.738966703E0,1.009156036E1
2.686249040E0,8.714894056E-1,-2.779668093E0,1.007240677E1
2.688233344E0,9.169792533E-1,-2.817975283E0,1.003170490E1
2.690246879E0,9.528923035E-1,-2.887407303E0,1.000297451E1
2.692230183E0,9.768342972E-1,-2.930502892E0,9.971850395E0
2.694244410E0,1.039083481E0,-3.031059265E0,9.923966408E0
2.696228099E0,1.070208192E0,-3.117250681E0,9.895236015E0
2.698243711E0,1.091755986E0,-3.174711466E0,9.866505623E0
2.700226168E0,1.144428372E0,-3.287238836E0,9.782708168E0
2.702239165E0,1.204283476E0,-3.414131641E0,9.665391922E0
2.704254546E0,1.240196466E0,-3.485957623E0,9.598354340E0
2.706238234E0,1.280897856E0,-3.591302633E0,9.483432770E0
2.708252308E0,1.323993564E0,-3.694253206E0,9.409213066E0
2.710236996E0,1.352723956E0,-3.744531393E0,9.375694275E0
2.712250146E0,1.422155857E0,-3.837905407E0,9.332598686E0
2.714234143E0,1.477222443E0,-3.921702385E0,9.287108421E0
2.716248370E0,1.503558636E0,-3.950432777E0,9.253589630E0
2.718231751E0,1.575384736E0,-4.010287762E0,9.186552048E0
2.720245209E0,1.611297727E0,-4.043806553E0,9.150638580E0
2.722228590E0,1.692700624E0,-4.086902142E0,9.093177795E0
2.724243433E0,1.783680320E0,-4.091690540E0,9.045293808E0
2.726227429E0,1.831564307E0,-4.091690540E0,9.030928612E0
2.728240886E0,1.948880196E0,-4.120420933E0,9.018958092E0
2.730255653E0,2.037465572E0,-4.134786129E0,8.983044624E0
2.732238726E0,2.094926596E0,-4.137180328E0,8.973467827E0
2.734252568E0,2.183511972E0,-4.132391930E0,8.939949036E0
2.736236257E0,2.274491549E0,-4.132391930E0,8.911218643E0
2.738250099E0,2.315192938E0,-4.129997730E0,8.899248123E0
2.740235018E0,2.389413357E0,-4.127603531E0,8.882488251E0
2.742248246E0,2.446874142E0,-4.110844135E0,8.870517731E0
2.744232011E0,2.470816135E0,-4.108449936E0,8.870517731E0
2.746246776E0,2.525882721E0,-4.103661537E0,8.875306129E0
2.748230081E0,2.540247917E0,-4.091690540E0,8.889671326E0
2.750245462E0,2.559401512E0,-4.079719543E0,8.899248123E0
2.752227920E0,2.566584110E0,-4.062960148E0,8.913613319E0
2.754242147E0,2.564189911E0,-4.043806553E0,8.920795441E0
2.756226066E0,2.533065319E0,-4.019864559E0,8.956708908E0
2.758239602E0,2.501940727E0,-4.000710964E0,9.006986618E0
2.760254675E0,2.482787132E0,-3.986345768E0,9.028534889E0
2.762237748E0,2.420537949E0,-3.967192173E0,9.076418877E0
2.764251668E0,2.346317768E0,-3.974374771E0,9.117119789E0
2.766234971E0,2.308010340E0,-3.967192173E0,9.133879662E0
2.768249506E0,2.217030764E0,-3.957615376E0,9.157821655E0
2.770233503E0,2.123656988E0,-3.981557369E0,9.143456459E0
2.772247345E0,2.085349798E0,-3.986345768E0,9.162610054E0
2.774231264E0,2.001552582E0,-3.993528366E0,9.181763649E0
2.776244799E0,1.941697598E0,-4.041412354E0,9.215282440E0
2.778229488E0,1.910573006E0,-4.074931145E0,9.241618156E0
2.780242945E0,1.843535304E0,-4.141968727E0,9.284713745E0
2.782225788E0,1.826775908E0,-4.242525578E0,9.308655739E0
2.784241092E0,1.795651317E0,-4.288015366E0,9.366117477E0
2.786255627E0,1.793257117E0,-4.405331135E0,9.428366661E0
2.788238624E0,1.800439715E0,-4.458003521E0,9.449913979E0
2.790253466E0,1.838746905E0,-4.565742493E0,9.445125580E0
2.792236847E0,1.898601890E0,-4.673481941E0,9.363722801E0
2.794249690E0,1.932120800E0,-4.718971729E0,9.327810287E0
2.796234070E0,2.025494576E0,-4.797980309E0,9.258378029E0
2.798248529E0,2.142810583E0,-4.855441093E0,9.227252960E0
2.800232448E0,2.195482969E0,-4.862623692E0,9.215282440E0
2.802245982E0,2.312798738E0,-4.898536682E0,9.179368973E0
2.804230287E0,2.425326347E0,-4.951209068E0,9.141061783E0
2.806243821E0,2.485181332E0,-4.946420670E0,9.114726067E0
2.808227510E0,2.585737944E0,-4.960785866E0,9.023746490E0
2.810242353E0,2.698265314E0,-4.977545261E0,8.937555313E0
2.812225964E0,2.743755102E0,-4.975151062E0,8.889671326E0
2.814239499E0,2.825158119E0,-4.960785866E0,8.784325600E0
2.816253727E0,2.868253708E0,-4.967968464E0,8.698134422E0
2.818236415E0,2.947262287E0,-4.958391666E0,8.645462036E0
2.820251795E0,3.004723072E0,-4.963180065E0,8.544905663E0
2.822235177E0,3.026270866E0,-4.965574265E0,8.489839554E0
2.824249327E0,3.064578056E0,-4.960785866E0,8.379706383E0
2.826233016E0,3.093308687E0,-4.960785866E0,8.255207062E0
2.828247782E0,3.098097086E0,-4.955997467E0,8.195352554E0
2.830231162E0,3.083731890E0,-4.955997467E0,8.094796181E0
2.832245082E0,3.083731890E0,-4.934449673E0,8.010998726E0
2.834228463E0,3.074155092E0,-4.932055473E0,7.972691536E0
2.836243228E0,3.050212860E0,-4.934449673E0,7.881711960E0
2.838226302E0,3.021482468E0,-4.934449673E0,7.790732384E0
2.840240375E0,3.009511471E0,-4.924872875E0,7.750030994E0
2.842253986E0,2.990357876E0,-4.898536682E0,7.682993412E0
2.844238214E0,2.966415882E0,-4.888959885E0,7.630321026E0
2.846252441E0,2.944868088E0,-4.893748283E0,7.620744228E0
2.848236129E0,2.901772499E0,-4.905719280E0,7.649474621E0
2.850250588E0,2.885013103E0,-4.876988888E0,7.666234016E0
2.852233661E0,2.880224705E0,-4.872200489E0,7.738059998E0
2.854247503E0,2.851494312E0,-4.862623692E0,7.821856976E0
2.856230884E0,2.839523315E0,-4.857835293E0,7.869740963E0
2.858245957E0,2.815581083E0,-4.848258495E0,7.946355343E0
2.860230261E0,2.779668093E0,-4.836287498E0,8.013393402E0
2.862242797E0,2.765302896E0,-4.831499100E0,8.044517517E0
2.864226869E0,2.758120298E0,-4.809951305E0,8.133103371E0
2.866241636E0,2.762908697E0,-4.812345505E0,8.212111473E0
2.868224939E0,2.770091295E0,-4.812345505E0,8.250418663E0
2.870239474E0,2.803610086E0,-4.819528103E0,8.334216118E0
2.872252932E0,2.813186884E0,-4.869806290E0,8.386888504E0
2.874237236E0,2.825158119E0,-4.893748283E0,8.422801971E0
2.876251771E0,2.868253708E0,-4.987122059E0,8.463502884E0
2.878234768E0,2.930502892E0,-5.106832027E0,8.508993149E0
2.880248302E0,2.964021683E0,-5.154716492E0,8.525752068E0
2.882232606E0,3.011905670E0,-5.262455463E0,8.559270859E0
2.884247141E0,3.038241863E0,-5.312733650E0,8.566453934E0
2.886230522E0,3.090914488E0,-5.434837818E0,8.564059258E0
2.888243979E0,3.150769472E0,-5.528211594E0,8.537723541E0
2.890228669E0,3.165134668E0,-5.571307182E0,8.537723541E0
2.892242126E0,3.213018656E0,-5.655104637E0,8.537723541E0
2.894226122E0,3.263296843E0,-5.726930618E0,8.552088737E0
2.896239658E0,3.289633036E0,-5.750872612E0,8.556877136E0
2.898253500E0,3.330334663E0,-5.810727596E0,8.516175270E0
2.900237804E0,3.361459255E0,-5.856217384E0,8.458714485E0
2.902252031E0,3.392583847E0,-5.868188381E0,8.439560890E0
2.904236027E0,3.440467834E0,-5.911283970E0,8.394071579E0
2.906249870E0,3.459621429E0,-5.930437565E0,8.334216118E0
2.908233866E0,3.473986626E0,-5.923254967E0,8.312667847E0
2.910248939E0,3.512293816E0,-5.913678169E0,8.283937454E0
2.912231013E0,3.526659012E0,-5.904101372E0,8.216899872E0
2.914244625E0,3.541024208E0,-5.896918774E0,8.169015884E0
2.916229775E0,3.579331636E0,-5.877765179E0,8.049305916E0
2.918243310E0,3.593696833E0,-5.868188381E0,7.987056732E0
2.920226998E0,3.610456228E0,-5.798756599E0,7.874529362E0
2.922240841E0,3.646369219E0,-5.731719017E0,7.742848396E0
2.924255068E0,3.655946016E0,-5.698200226E0,7.692570210E0
2.926239295E0,3.687070608E0,-5.623979568E0,7.575253963E0
2.928252291E0,3.722983599E0,-5.561730385E0,7.469909191E0
2.930236827E0,3.744531393E0,-5.532999992E0,7.412448406E0
2.932251053E0,3.801992416E0,-5.456385612E0,7.297526836E0
2.934234049E0,3.835511208E0,-5.389348030E0,7.206547260E0
2.936248277E0,3.849876404E0,-5.360617638E0,7.173028469E0
2.938232812E0,3.892971992E0,-5.295974255E0,7.084442616E0
2.940247038E0,3.907337189E0,-5.264849663E0,7.026981831E0
2.942229189E0,3.938461781E0,-5.260061264E0,7.015010834E0
2.944243954E0,3.964797974E0,-5.245696068E0,6.988674641E0
2.946227644E0,3.981557369E0,-5.260061264E0,6.979097843E0
2.948242409E0,4.031835556E0,-5.262455463E0,6.983886242E0
2.950226328E0,4.074931145E0,-5.286397457E0,7.005434036E0
2.952239940E0,4.096478939E0,-5.307945251E0,7.026981831E0
2.954254090E0,4.153939724E0,-5.377377033E0,7.098807812E0
2.956238009E0,4.240131378E0,-5.456385612E0,7.187393665E0
2.958251545E0,4.278438568E0,-5.506663799E0,7.230489254E0
2.960235310E0,4.374206543E0,-5.609614372E0,7.319074631E0
2.962249075E0,4.472368717E0,-5.688623428E0,7.419631004E0
2.964233072E0,4.525041103E0,-5.736507416E0,7.484274387E0
2.966247914E0,4.644751072E0,-5.861005783E0,7.601590633E0
2.968231218E0,4.757278919E0,-5.995080948E0,7.694964409E0
2.970246061E0,4.807557106E0,-6.071695328E0,7.733271599E0
2.972228442E0,4.893748283E0,-6.256049156E0,7.795520782E0
2.974242669E0,4.991910458E0,-6.406883717E0,7.896077156E0
2.976225666E0,5.039794445E0,-6.488286495E0,7.955932140E0
2.978239892E0,5.121197224E0,-6.653486729E0,8.032546997E0
2.980254965E0,5.152322292E0,-6.830657482E0,8.092401505E0
2.982238885E0,5.190629482E0,-6.914454460E0,8.097189903E0
2.984251881E0,5.214571476E0,-7.094019413E0,8.090007782E0
2.986236186E0,5.224148273E0,-7.163451672E0,8.073247910E0
2.988250567E0,5.248090267E0,-7.290344238E0,8.054094315E0
2.990234871E0,5.236119270E0,-7.381323814E0,8.015787125E0
2.992247868E0,5.221754074E0,-7.438784599E0,7.994239330E0
2.994231248E0,5.195417881E0,-7.546523571E0,7.936778545E0
2.996246860E0,5.152322292E0,-7.620744228E0,7.886500359E0
2.998230549E0,5.128379822E0,-7.635109425E0,7.869740963E0
3.000243853E0,5.085284233E0,-7.656657219E0,7.867346764E0
3.002227156E0,5.030217648E0,-7.699752808E0,7.920019150E0
3.004241692E0,5.006275654E0,-7.718906403E0,7.955932140E0
3.006225688E0,4.941632271E0,-7.714118004E0,7.996633530E0
3.008239530E0,4.879383087E0,-7.709329605E0,8.015787125E0
3.010254527E0,4.850652695E0,-7.685387611E0,8.025363922E0
3.012236677E0,4.781220913E0,-7.651868820E0,8.049305916E0
3.014251211E0,4.759673119E0,-7.603984833E0,8.075642586E0
3.016234285E0,4.702212334E0,-7.582436562E0,8.152256966E0
3.018249358E0,4.635174274E0,-7.546523571E0,8.185775757E0
3.020232740E0,4.606443882E0,-7.513004780E0,8.190564156E0
3.022246505E0,4.556165695E0,-7.469909191E0,8.224082947E0
3.024231116E0,4.474762917E0,-7.422025204E0,8.245630264E0
3.026244729E0,4.441244125E0,-7.381323814E0,8.255207062E0
3.028228109E0,4.378994942E0,-7.328651428E0,8.267178535E0
3.030243182E0,4.302380562E0,-7.287950039E0,8.259995461E0
3.032226487E0,4.264073372E0,-7.254431248E0,8.250418663E0
3.034240406E0,4.173093796E0,-7.208941460E0,8.233659744E0
3.036255171E0,4.096478939E0,-7.173028469E0,8.207323074E0
3.038238245E0,4.043806553E0,-7.144298077E0,8.190564156E0
3.040251780E0,3.962403774E0,-7.094019413E0,8.161833763E0
3.042236314E0,3.921702385E0,-7.041347027E0,8.159439087E0
3.044249850E0,3.837905407E0,-7.015010834E0,8.164227486E0
3.046234461E0,3.775655985E0,-6.988674641E0,8.149862289E0
3.048248688E0,3.744531393E0,-6.976703644E0,8.147468567E0
3.050232069E0,3.689464808E0,-6.983886242E0,8.147468567E0
3.052245527E0,3.653551817E0,-7.007828236E0,8.130708694E0
3.054229293E0,3.636792421E0,-7.022193432E0,8.135497093E0
3.056242443E0,3.576937437E0,-7.079654217E0,8.149862289E0
3.058227131E0,3.543418407E0,-7.163451672E0,8.147468567E0
3.060241513E0,3.526659012E0,-7.211335659E0,8.130708694E0
3.062225201E0,3.493140221E0,-7.314286232E0,8.080430984E0
3.064239351E0,3.450044632E0,-7.438784599E0,8.034940720E0
3.066253194E0,3.433285236E0,-7.503427982E0,8.018181801E0
3.068237267E0,3.409343243E0,-7.647080421E0,7.989450932E0
3.070251955E0,3.404554844E0,-7.781155586E0,8.003816605E0
3.072234799E0,3.397372246E0,-7.850587368E0,8.039729118E0
3.074248025E0,3.421314240E0,-7.960720539E0,8.085219383E0
3.076232637E0,3.442862034E0,-8.039729118E0,8.068459511E0
3.078246711E0,3.478775024E0,-8.070854187E0,8.046912193E0
3.080230399E0,3.557783842E0,-8.128314972E0,7.989450932E0
3.082244010E0,3.598485231E0,-8.145073891E0,7.970297337E0
3.084227623E0,3.701435804E0,-8.178592682E0,7.934384346E0
3.086242388E0,3.811569214E0,-8.204929352E0,7.850587368E0
3.088226154E0,3.861847401E0,-8.200140953E0,7.802703381E0
3.090240535E0,3.962403774E0,-8.219294548E0,7.718906403E0
3.092254146E0,4.060565948E0,-8.236053467E0,7.637503624E0
3.094237220E0,4.120420933E0,-8.255207062E0,7.592013359E0
3.096251293E0,4.225766182E0,-8.283937454E0,7.503427982E0
3.098236212E0,4.302380562E0,-8.343792915E0,7.393294811E0
3.100250440E0,4.350264549E0,-8.353369713E0,7.323863029E0
3.102232513E0,4.453215122E0,-8.348581314E0,7.180211067E0
3.104247278E0,4.529829502E0,-8.310274124E0,7.067683220E0
3.106231275E0,4.577713490E0,-8.291120529E0,7.024587631E0
3.108245194E0,4.666299343E0,-8.267178535E0,7.007828236E0
3.110230344E0,4.714183331E0,-8.231265068E0,7.010222435E0
3.112242726E0,4.805162907E0,-8.202534676E0,7.010222435E0
3.114227029E0,4.872200489E0,-8.128314972E0,7.017405033E0
3.116241179E0,4.905719280E0,-8.092401505E0,7.007828236E0
3.118255561E0,4.987122059E0,-7.991845131E0,6.991068840E0
3.120238942E0,5.066130638E0,-7.910442352E0,6.957550049E0
3.122252168E0,5.104437828E0,-7.860164165E0,6.940790653E0
3.124236165E0,5.159504890E0,-7.742848396E0,6.928819656E0
3.126250700E0,5.214571476E0,-7.656657219E0,6.907271862E0
3.128234081E0,5.245696068E0,-7.615955830E0,6.892906666E0
3.130250308E0,5.300762653E0,-7.520187378E0,6.868964672E0
3.132232150E0,5.341464043E0,-7.465120792E0,6.818686485E0
3.134246301E0,5.358223438E0,-7.445967197E0,6.787561893E0
3.136228836E0,5.372588634E0,-7.414842606E0,6.698976517E0
3.138243524E0,5.372588634E0,-7.424419403E0,6.631938934E0
3.140226982E0,5.372588634E0,-7.443572998E0,6.593631268E0
3.142242286E0,5.348646641E0,-7.474697590E0,6.514622688E0
3.144225667E0,5.334281445E0,-7.498639584E0,6.473921299E0
3.146239202E0,5.274426460E0,-7.558494568E0,6.387730122E0
3.148254044E0,5.214571476E0,-7.615955830E0,6.318298340E0
3.150238887E0,5.176264286E0,-7.635109425E0,6.282385349E0
3.152251499E0,5.102043629E0,-7.692570210E0,6.208165169E0
3.154235572E0,5.025429249E0,-7.733271599E0,6.150704384E0
3.156249645E0,4.970362663E0,-7.752425194E0,6.117185116E0
3.158233103E0,4.857835293E0,-7.781155586E0,6.071695328E0
3.160246946E0,4.740519524E0,-7.812280178E0,6.011840343E0
3.162231172E0,4.678270340E0,-7.817068577E0,5.987898350E0
3.164245092E0,4.551377296E0,-7.809885979E0,5.949591160E0
3.166229396E0,4.450820923E0,-7.802703381E0,5.911283970E0
3.168242547E0,4.405331135E0,-7.788338184E0,5.901707172E0
3.170227466E0,4.321534157E0,-7.785943985E0,5.882553577E0
3.172240693E0,4.252102375E0,-7.793126583E0,5.863399982E0
3.174254613E0,4.223371983E0,-7.797914982E0,5.853823185E0
3.176237993E0,4.173093796E0,-7.797914982E0,5.851428986E0
3.178252989E0,4.161122322E0,-7.802703381E0,5.846640587E0
3.180236063E0,4.137180328E0,-7.833827972E0,5.832275391E0
3.182249598E0,4.110844135E0,-7.869740963E0,5.796362400E0
3.184233902E0,4.103661537E0,-7.898471355E0,5.784391403E0
3.186248745E0,4.103661537E0,-7.989450932E0,5.765237808E0
3.188232048E0,4.103661537E0,-8.049305916E0,5.743690014E0
3.190246891E0,4.110844135E0,-8.070854187E0,5.743690014E0
3.192229272E0,4.108449936E0,-8.166622162E0,5.722142220E0
3.194243422E0,4.137180328E0,-8.212111473E0,5.679046631E0
3.196228033E0,4.153939724E0,-8.248024940E0,5.662287235E0
3.198240954E0,4.185064793E0,-8.288725853E0,5.635950565E0
3.200255103E0,4.209006786E0,-8.327033043E0,5.626373768E0
3.202239407E0,4.218583584E0,-8.343792915E0,5.621585369E0
3.204253250E0,4.252102375E0,-8.358158112E0,5.621585369E0
3.206237246E0,4.266467571E0,-8.343792915E0,5.609614372E0
3.208251166E0,4.307168961E0,-8.339004517E0,5.602431774E0
3.210235162E0,4.359841347E0,-8.305485725E0,5.566518784E0
3.212248620E0,4.381389141E0,-8.286332130E0,5.554547787E0
3.214232386E0,4.455609322E0,-8.238448143E0,5.542576790E0
3.216242767E0,4.522646904E0,-8.207323074E0,5.540182590E0
3.218229301E0,4.551377296E0,-8.178592682E0,5.540182590E0
3.220244991E0,4.620809078E0,-8.121131897E0,5.525817394E0
3.222228602E0,4.687847137E0,-8.082824707E0,5.494692802E0
3.224242752E0,4.709394932E0,-8.070854187E0,5.497087002E0
3.226225826E0,4.771644115E0,-8.020575523E0,5.506663799E0
3.228240360E0,4.812345505E0,-7.965508938E0,5.473145008E0
3.230254818E0,4.826710701E0,-7.943961143E0,5.451597214E0
3.232238122E0,4.867412090E0,-7.917624950E0,5.386953831E0
3.234252349E0,4.891354084E0,-7.912836552E0,5.343858242E0
3.236236037E0,4.888959885E0,-7.912836552E0,5.317522049E0
3.238250496E0,4.920084476E0,-7.927201748E0,5.257667065E0
3.240233492E0,4.932055473E0,-7.941566944E0,5.188235283E0
3.242247950E0,4.929661274E0,-7.953537941E0,5.169081688E0
3.244231024E0,4.910507679E0,-7.987056732E0,5.102043629E0
3.246246096E0,4.908113480E0,-8.001421928E0,5.066130638E0
3.248229170E0,4.879383087E0,-8.049305916E0,5.008669853E0
3.250244243E0,4.860229492E0,-8.104372978E0,4.951209068E0
3.252227624E0,4.850652695E0,-8.130708694E0,4.910507679E0
3.254241236E0,4.826710701E0,-8.180987358E0,4.860229492E0
3.256224309E0,4.790797710E0,-8.212111473E0,4.819528103E0
3.258240228E0,4.766855717E0,-8.231265068E0,4.790797710E0
3.260253764E0,4.733336926E0,-8.283937454E0,4.733336926E0
3.262235991E0,4.675876141E0,-8.315062523E0,4.692635536E0
3.264251063E0,4.647145271E0,-8.331821442E0,4.673481941E0
3.266234676E0,4.589684486E0,-8.370129585E0,4.625597477E0
3.268248595E0,4.505887508E0,-8.384494781E0,4.582501888E0
3.270233514E0,4.462791920E0,-8.401253700E0,4.563348293E0
3.272245819E0,4.383783340E0,-8.427590370E0,4.522646904E0
3.274230430E0,4.340687752E0,-8.441955566E0,4.503493309E0
3.276244811E0,4.266467571E0,-8.451532364E0,4.491522312E0
3.278228808E0,4.173093796E0,-8.449137688E0,4.455609322E0
3.280241804E0,4.127603531E0,-8.453926086E0,4.434061527E0
3.282225108E0,4.029441357E0,-8.468291283E0,4.441244125E0
3.284240181E0,3.964797974E0,-8.465897560E0,4.455609322E0
3.286254408E0,3.921702385E0,-8.461109161E0,4.455609322E0
3.288238405E0,3.852270603E0,-8.456320763E0,4.446032524E0
3.290252247E0,3.797203779E0,-8.451532364E0,4.412513733E0
3.292235628E0,3.773261786E0,-8.451532364E0,4.386177540E0
3.294250010E0,3.708618402E0,-8.463502884E0,4.359841347E0
3.296232236E0,3.639186621E0,-8.444349289E0,4.338293552E0
3.298246694E0,3.612850428E0,-8.446743965E0,4.343081951E0
3.300231306E0,3.572149038E0,-8.473079681E0,4.345476151E0
3.302245148E0,3.545812607E0,-8.461109161E0,4.347870350E0
3.304229375E0,3.533841610E0,-8.456320763E0,4.333505154E0
3.306244141E0,3.526659012E0,-8.458714485E0,4.335899353E0
3.308227291E0,3.519476414E0,-8.477868080E0,4.338293552E0
3.310242057E0,3.536235809E0,-8.499416351E0,4.345476151E0
3.312224823E0,3.550601006E0,-8.487444878E0,4.326322556E0
3.314238280E0,3.564966440E0,-8.475474358E0,4.311957359E0
3.316253122E0,3.605667830E0,-8.461109161E0,4.280832767E0
3.318236812E0,3.648763418E0,-8.415618896E0,4.283226967E0
3.320250885E0,3.670311213E0,-8.396465302E0,4.299986362E0
3.322234036E0,3.713406801E0,-8.348581314E0,4.335899353E0
3.324248416E0,3.799597979E0,-8.310274124E0,4.314351559E0
3.326231797E0,3.852270603E0,-8.291120529E0,4.288015366E0
3.328245948E0,3.933673382E0,-8.224082947E0,4.264073372E0
3.330230636E0,4.029441357E0,-8.159439087E0,4.249708176E0
3.332244093E0,4.072536945E0,-8.145073891E0,4.247313976E0
3.334227552E0,4.153939724E0,-8.094796181E0,4.213795185E0
3.336240702E0,4.249708176E0,-8.058882713E0,4.139574528E0
3.338256390E0,4.302380562E0,-8.046912193E0,4.103661537E0
3.340239849E0,4.438849926E0,-8.015787125E0,4.079719543E0
3.342253076E0,4.493916512E0,-8.018181801E0,4.084507942E0
3.344236764E0,4.582501888E0,-8.020575523E0,4.082113743E0
3.346252145E0,4.692635536E0,-8.018181801E0,4.067748547E0
3.348234526E0,4.742913723E0,-8.022970200E0,4.043806553E0
3.350249676E0,4.821922302E0,-8.056488991E0,3.993528366E0
3.352232981E0,4.867412090E0,-8.054094315E0,3.950432777E0
3.354246592E0,4.886565685E0,-8.049305916E0,3.928884983E0
3.356231204E0,4.905719280E0,-8.061277390E0,3.900154591E0
3.358245354E0,4.922478676E0,-8.054094315E0,3.854664803E0
3.360228119E0,4.915296078E0,-8.054094315E0,3.830722809E0
3.362242809E0,4.888959885E0,-8.075642586E0,3.804386616E0
3.364226266E0,4.862623692E0,-8.092401505E0,3.758896589E0
3.366240416E0,4.838681698E0,-8.097189903E0,3.732560396E0
3.368254259E0,4.795586109E0,-8.113949776E0,3.691859007E0
3.370239409E0,4.781220913E0,-8.123526573E0,3.648763418E0
3.372252713E0,4.750096321E0,-8.130708694E0,3.634398222E0
3.374236325E0,4.707000732E0,-8.140285492E0,3.610456228E0
3.376247167E0,4.687847137E0,-8.152256966E0,3.600879431E0
3.378233240E0,4.656722069E0,-8.190564156E0,3.581725836E0
3.380247468E0,4.616020679E0,-8.231265068E0,3.588908434E0
3.382231695E0,4.589684486E0,-8.262390137E0,3.581725836E0
3.384246460E0,4.570530891E0,-8.303091049E0,3.576937437E0
3.386229919E0,4.553771496E0,-8.334216118E0,3.620033026E0
3.388243684E0,4.539406300E0,-8.355764389E0,3.648763418E0
3.390228296E0,4.472368717E0,-8.396465302E0,3.696647406E0
3.392241215E0,4.405331135E0,-8.413225174E0,3.751713991E0
3.394225288E0,4.371812344E0,-8.434772491E0,3.782838583E0
3.396239131E0,4.292803764E0,-8.465897560E0,3.845088005E0
3.398253820E0,4.220977783E0,-8.499416351E0,3.926490784E0
3.400236970E0,4.182670593E0,-8.528146744E0,3.960009575E0
3.402251120E0,4.115632534E0,-8.590395927E0,4.041412354E0
3.404234732E0,4.082113743E0,-8.659827232E0,4.067748547E0
3.406249189E0,4.000710964E0,-8.693346024E0,4.106055737E0
3.408232340E0,3.955221176E0,-8.748413086E0,4.177882195E0
3.410247106E0,3.938461781E0,-8.769960403E0,4.213795185E0
3.412230178E0,3.881000996E0,-8.822632790E0,4.235342979E0
3.414244560E0,3.849876404E0,-8.851364136E0,4.235342979E0
3.416228018E0,3.823540211E0,-8.868123055E0,4.225766182E0
3.418243706E0,3.804386616E0,-8.887276649E0,4.211400986E0
3.420225549E0,3.787626982E0,-8.901641846E0,4.182670593E0
3.422239930E0,3.778050184E0,-8.906430244E0,4.177882195E0
3.424254695E0,3.737348795E0,-8.920795441E0,4.185064793E0
3.426238153E0,3.687070608E0,-8.913613319E0,4.177882195E0
3.428251919E0,3.663128614E0,-8.904036522E0,4.173093796E0
3.430237762E0,3.622427225E0,-8.880094528E0,4.158728123E0
3.432250142E0,3.581725836E0,-8.860940933E0,4.151545525E0
3.434233754E0,3.562572241E0,-8.841787338E0,4.146757126E0
3.436248289E0,3.545812607E0,-8.820239067E0,4.137180328E0
3.438231593E0,3.543418407E0,-8.808267593E0,4.125209332E0
3.440245435E0,3.550601006E0,-8.791508675E0,4.096478939E0
3.442229740E0,3.576937437E0,-8.781931877E0,4.043806553E0
3.444242736E0,3.605667830E0,-8.784325600E0,4.019864559E0
3.446227040E0,3.679888010E0,-8.805873871E0,3.988739967E0
3.448240883E0,3.766079187E0,-8.827422142E0,3.948038578E0
3.450225417E0,3.811569214E0,-8.836998940E0,3.912125587E0
3.452238721E0,3.904942989E0,-8.851364136E0,3.835511208E0
3.454252872E0,3.983951569E0,-8.858546257E0,3.706224203E0
3.456235868E0,4.029441357E0,-8.856152534E0,3.655946016E0
3.458250710E0,4.084507942E0,-8.880094528E0,3.576937437E0
3.460234092E0,4.137180328E0,-8.880094528E0,3.478775024E0
3.462248549E0,4.156333923E0,-8.868123055E0,3.442862034E0
3.464232468E0,4.177882195E0,-8.880094528E0,3.349488258E0
3.466246696E0,4.204218388E0,-8.868123055E0,3.280056238E0
3.468230077E0,4.216189384E0,-8.856152534E0,3.246537447E0
3.470245074E0,4.247313976E0,-8.858546257E0,3.205836058E0
3.472227608E0,4.256890774E0,-8.853757858E0,3.174711466E0
3.474241681E0,4.259284973E0,-8.875306129E0,3.112462282E0
3.476225755E0,4.240131378E0,-8.880094528E0,3.055001259E0
3.478239905E0,4.242525578E0,-8.884882927E0,3.031059265E0
3.480253362E0,4.299986362E0,-8.884882927E0,2.985569477E0
3.482238052E0,4.316745758E0,-8.868123055E0,2.947262287E0
3.484251586E0,4.326322556E0,-8.882488251E0,2.935291290E0
3.486235582E0,4.338293552E0,-8.932766914E0,2.894589901E0
3.488249118E0,4.359841347E0,-8.942343712E0,2.868253708E0
3.490234037E0,4.369418144E0,-8.944737434E0,2.858676910E0
3.492247879E0,4.381389141E0,-8.944737434E0,2.844311714E0
3.494231183E0,4.381389141E0,-8.951920509E0,2.841917515E0
3.496244179E0,4.383783340E0,-8.959102631E0,2.844311714E0
3.498229329E0,4.388571739E0,-8.987833023E0,2.858676910E0
3.500243557E0,4.386177540E0,-9.006986618E0,2.880224705E0
3.502225399E0,4.367023945E0,-9.016563416E0,2.901772499E0
3.504240472E0,4.357447147E0,-9.002198219E0,2.944868088E0
3.506225623E0,4.367023945E0,-9.011775017E0,2.978386879E0
3.508238311E0,4.367023945E0,-9.038111687E0,3.033453465E0
3.510254001E0,4.381389141E0,-9.078812599E0,3.083731890E0
3.512236074E0,4.388571739E0,-9.093177795E0,3.114856482E0
3.514250223E0,4.402936935E0,-9.126696587E0,3.172317266E0
3.516234297E0,4.441244125E0,-9.167398453E0,3.232172251E0
3.518248447E0,4.462791920E0,-9.193734169E0,3.258508444E0
3.520231520E0,4.479551315E0,-9.222464561E0,3.311181068E0
3.522246209E0,4.513070107E0,-9.260771751E0,3.356670856E0
3.524229359E0,4.520252705E0,-9.287108421E0,3.368641853E0
3.526244048E0,4.537012100E0,-9.332598686E0,3.383007050E0
3.528227506E0,4.568136692E0,-9.373299599E0,3.392583847E0
3.530242887E0,4.575319290E0,-9.378087997E0,3.397372246E0
3.532225037E0,4.599261284E0,-9.406818390E0,3.411737442E0
3.534239803E0,4.604049683E0,-9.437943459E0,3.418920040E0
3.536252414E0,4.625597477E0,-9.445125580E0,3.421314240E0
3.538237333E0,4.632780075E0,-9.430760384E0,3.418920040E0
3.540251177E0,4.627991676E0,-9.423578262E0,3.406949043E0
3.542234865E0,4.616020679E0,-9.418789864E0,3.380612850E0
3.544248939E0,4.604049683E0,-9.425971985E0,3.359065056E0
3.546232935E0,4.594472885E0,-9.430760384E0,3.349488258E0
3.548247700E0,4.553771496E0,-9.406818390E0,3.347094059E0
3.550231466E0,4.534617901E0,-9.375694275E0,3.330334663E0
3.552245231E0,4.527435303E0,-9.361329079E0,3.301604033E0
3.554228381E0,4.522646904E0,-9.349357605E0,3.282450438E0
3.556243378E0,4.501099110E0,-9.337387085E0,3.220201254E0
3.558226220E0,4.498704910E0,-9.342175484E0,3.198653460E0
3.560240293E0,4.481945515E0,-9.311050415E0,3.155557871E0
3.562254213E0,4.448426723E0,-9.303867340E0,3.129221678E0
3.564237902E0,4.426878929E0,-9.318233490E0,3.122039080E0
3.566252667E0,4.388571739E0,-9.284713745E0,3.119644880E0
3.568235741E0,4.359841347E0,-9.267954826E0,3.112462282E0
3.570250506E0,4.302380562E0,-9.258378029E0,3.098097086E0
3.572234425E0,4.249708176E0,-9.253589630E0,3.066972494E0
3.574247345E0,4.206612587E0,-9.236829758E0,3.055001259E0
3.576230726E0,4.125209332E0,-9.232041359E0,3.045424461E0
3.578246491E0,4.060565948E0,-9.227252960E0,3.033453465E0
3.580229488E0,4.031835556E0,-9.222464561E0,3.023876667E0
3.582243023E0,3.964797974E0,-9.220070839E0,3.011905670E0
3.584227097E0,3.892971992E0,-9.196128845E0,2.999934673E0
3.586240631E0,3.866635799E0,-9.174580574E0,2.992752075E0
3.588224935E0,3.816357613E0,-9.150638580E0,2.999934673E0
3.590239701E0,3.778050184E0,-9.131484985E0,3.004723072E0
3.592253159E0,3.758896589E0,-9.124302864E0,3.011905670E0
3.594237155E0,3.708618402E0,-9.109937668E0,3.026270866E0
3.596251305E0,3.687070608E0,-9.085995674E0,3.059789658E0
3.598234455E0,3.677493811E0,-9.078812599E0,3.086126089E0
3.600248836E0,3.665522814E0,-9.076418877E0,3.124433279E0
3.602231987E0,3.682282209E0,-9.069235802E0,3.117250681E0
3.604246367E0,3.691859007E0,-9.066842079E0,3.105279684E0
3.606230671E0,3.711012602E0,-9.059659004E0,3.095702887E0
3.608244591E0,3.725377798E0,-9.057265282E0,3.076549292E0
3.610227972E0,3.775655985E0,-9.045293808E0,3.069366693E0
3.612241737E0,3.794809580E0,-9.052476883E0,3.093308687E0
3.614225426E0,3.813963413E0,-9.042900085E0,3.098097086E0
3.616235268E0,3.825934410E0,-9.014169693E0,3.086126089E0
3.618253111E0,3.854664803E0,-8.997409821E0,3.098097086E0
3.620237185E0,3.861847401E0,-8.983044624E0,3.098097086E0
3.622251873E0,3.902548790E0,-8.954314232E0,3.090914488E0
3.624235562E0,3.938461781E0,-8.932766914E0,3.071760893E0
3.626249789E0,3.964797974E0,-8.923190117E0,3.045424461E0
3.628233400E0,4.019864559E0,-8.904036522E0,2.978386879E0
3.630248859E0,4.053383350E0,-8.865729332E0,2.918531895E0
3.632231009E0,4.074931145E0,-8.856152534E0,2.880224705E0
3.634244543E0,4.127603531E0,-8.813055992E0,2.810792685E0
3.636229771E0,4.149151325E0,-8.803479195E0,2.791639090E0
3.638243229E0,4.182670593E0,-8.784325600E0,2.741360903E0
3.640226378E0,4.225766182E0,-8.755595207E0,2.688688517E0
3.642240529E0,4.235342979E0,-8.746018410E0,2.652775526E0
3.644224448E0,4.256890774E0,-8.724471092E0,2.616862535E0
3.646239214E0,4.288015366E0,-8.719682693E0,2.588132143E0
3.648252518E0,4.292803764E0,-8.700529099E0,2.559401512E0
3.650237053E0,4.338293552E0,-8.664615631E0,2.533065319E0
3.652250664E0,4.362235546E0,-8.638279915E0,2.485181332E0
3.654234046E0,4.378994942E0,-8.628703117E0,2.463633537E0
3.656248119E0,4.393360138E0,-8.623914719E0,2.425326347E0
3.658233039E0,4.412513733E0,-8.619126320E0,2.382230759E0
3.660246573E0,4.429273129E0,-8.607154846E0,2.358288765E0
3.662229338E0,4.431667328E0,-8.595184326E0,2.312798738E0
3.664244105E0,4.438849926E0,-8.602366447E0,2.272097349E0
3.666228408E0,4.429273129E0,-8.588001251E0,2.255337954E0
3.668241327E0,4.419696331E0,-8.588001251E0,2.240972757E0
3.670225940E0,4.417302132E0,-8.578424454E0,2.229001760E0
3.672240090E0,4.422090530E0,-8.578424454E0,2.188300371E0
3.674254009E0,4.417302132E0,-8.578424454E0,2.147598982E0
3.676237621E0,4.417302132E0,-8.566453934E0,2.130839586E0
3.678252156E0,4.405331135E0,-8.556877136E0,2.090138197E0
3.680235459E0,4.381389141E0,-8.537723541E0,2.061407566E0
3.682249610E0,4.367023945E0,-8.532935143E0,2.054224968E0
3.684232760E0,4.357447147E0,-8.511386871E0,2.032677174E0
3.686247756E0,4.331110954E0,-8.487444878E0,2.035071373E0
3.688230291E0,4.314351559E0,-8.470685959E0,2.037465572E0
3.690245903E0,4.288015366E0,-8.468291283E0,2.037465572E0
3.692228361E0,4.252102375E0,-8.458714485E0,2.027888775E0
3.694242896E0,4.232948780E0,-8.453926086E0,2.027888775E0
3.696225277E0,4.197035789E0,-8.453926086E0,2.035071373E0
3.698240043E0,4.175487995E0,-8.444349289E0,2.059013367E0
3.700254808E0,4.139574528E0,-8.441955566E0,2.073378563E0
3.702237881E0,4.108449936E0,-8.444349289E0,2.085349798E0
3.704252416E0,4.079719543E0,-8.434772491E0,2.082955360E0
3.706236105E0,4.043806553E0,-8.453926086E0,2.073378563E0
3.708250562E0,4.027047157E0,-8.458714485E0,2.078166962E0
3.710234790E0,4.019864559E0,-8.461109161E0,2.090138197E0
3.712247786E0,4.024652958E0,-8.480262756E0,2.097320795E0
3.714231474E0,4.017470360E0,-8.499416351E0,2.094926596E0
3.716246471E0,4.012681961E0,-8.506598473E0,2.090138197E0
3.718229237E0,4.012681961E0,-8.518569946E0,2.080561161E0
3.720243079E0,4.029441357E0,-8.532935143E0,2.068590164E0
3.722227768E0,4.027047157E0,-8.520963669E0,2.078166962E0
3.724241226E0,4.027047157E0,-8.518569946E0,2.090138197E0
3.726225529E0,4.027047157E0,-8.540117264E0,2.094926596E0
3.728239142E0,4.022258759E0,-8.554482460E0,2.094926596E0
3.730253907E0,4.015076160E0,-8.599972725E0,2.087743998E0
3.732237212E0,4.015076160E0,-8.621520042E0,2.075772762E0
3.734250823E0,4.012681961E0,-8.623914719E0,2.066195965E0
3.736234127E0,4.010287762E0,-8.652645111E0,2.047042370E0
3.738249893E0,4.012681961E0,-8.674192429E0,2.035071373E0
3.740233197E0,4.015076160E0,-8.712499619E0,2.035071373E0
3.742246808E0,4.024652958E0,-8.726864815E0,2.042253971E0
3.744231036E0,4.024652958E0,-8.746018410E0,2.049436569E0
3.746244570E0,4.050989151E0,-8.793902397E0,2.030282974E0
3.748228028E0,4.067748547E0,-8.827422142E0,2.039859772E0
3.750243948E0,4.074931145E0,-8.853757858E0,2.056619167E0
3.752225867E0,4.098873138E0,-8.899248123E0,2.078166962E0
3.754240863E0,4.132391930E0,-8.949525833E0,2.094926596E0
3.756224321E0,4.151545525E0,-8.973467827E0,2.106897593E0
3.758237471E0,4.177882195E0,-9.002198219E0,2.128445387E0
3.760252237E0,4.192247391E0,-9.030928612E0,2.133233786E0
3.762235080E0,4.197035789E0,-9.040505409E0,2.145204782E0
3.764249768E0,4.201824188E0,-9.062053680E0,2.185906172E0
3.766233764E0,4.209006786E0,-9.066842079E0,2.195482969E0
3.768247607E0,4.220977783E0,-9.095572472E0,2.243366957E0
3.770231296E0,4.192247391E0,-9.085995674E0,2.315192938E0
3.772245523E0,4.180276394E0,-9.090784073E0,2.348711967E0
3.774228904E0,4.168305397E0,-9.119514465E0,2.401384354E0
3.776239900E0,4.137180328E0,-9.095572472E0,2.461239338E0
3.778257128E0,4.115632534E0,-9.093177795E0,2.475604534E0
3.780241124E0,4.050989151E0,-9.078812599E0,2.509123325E0
3.782224812E0,3.986345768E0,-9.066842079E0,2.523488522E0
3.784238424E0,3.952826977E0,-9.066842079E0,2.530671120E0
3.786253728E0,3.871424198E0,-9.054870605E0,2.557007313E0
3.788237109E0,3.785232782E0,-9.054870605E0,2.578555346E0
3.790251567E0,3.746925592E0,-9.042900085E0,2.580949545E0
3.792234640E0,3.663128614E0,-9.014169693E0,2.576161146E0
3.794248790E0,3.588908434E0,-8.980650902E0,2.580949545E0
3.796232864E0,3.560178041E0,-8.963891029E0,2.590526342E0
3.798247629E0,3.497928619E0,-8.939949036E0,2.640804529E0
3.800230318E0,3.473986626E0,-8.923190117E0,2.667140722E0
3.802244238E0,3.462015629E0,-8.904036522E0,2.729389906E0
3.804227926E0,3.457227230E0,-8.904036522E0,2.801215887E0
3.806241769E0,3.462015629E0,-8.894459724E0,2.841917515E0
3.808225688E0,3.488351822E0,-8.901641846E0,2.937685490E0
3.810240453E0,3.533841610E0,-8.944737434E0,3.052607059E0
3.812223527E0,3.552995205E0,-8.966285706E0,3.105279684E0
3.814237446E0,3.600879431E0,-9.016563416E0,3.222595453E0
3.816251519E0,3.627215624E0,-9.085995674E0,3.349488258E0
3.818236209E0,3.629609823E0,-9.114726067E0,3.426102638E0
3.820249435E0,3.627215624E0,-9.179368973E0,3.605667830E0
3.822233047E0,3.593696833E0,-9.251194954E0,3.830722809E0
3.824247198E0,3.572149038E0,-9.279925346E0,3.950432777E0
3.826231271E0,3.509899616E0,-9.320627213E0,4.161122322E0
3.828245651E0,3.478775024E0,-9.368511200E0,4.369418144E0
3.830229648E0,3.378218651E0,-9.378087997E0,4.484339714E0
3.832243183E0,3.289633036E0,-9.397241592E0,4.740519524E0
3.834226563E0,3.246537447E0,-9.392453194E0,4.855441093E0
3.836242022E0,3.157952070E0,-9.380482674E0,5.125985622E0
3.838223864E0,3.047818661E0,-9.387664795E0,5.406107426E0
3.840237706E0,2.992752075E0,-9.387664795E0,5.528211594E0
3.842252472E0,2.889801502E0,-9.402029991E0,5.796362400E0
3.844236391E0,2.798821688E0,-9.423578262E0,6.064512730E0
3.846250312E0,2.767697096E0,-9.447520256E0,6.200982571E0
3.848234846E0,2.693476915E0,-9.502586365E0,6.447585106E0
3.850249073E0,2.609679937E0,-9.567230225E0,6.684611320E0
3.852232377E0,2.580949545E0,-9.605537415E0,6.792350292E0
3.854246297E0,2.554613113E0,-9.672574997E0,6.981492043E0
3.856228754E0,2.511517525E0,-9.722852707E0,7.146692276E0
3.858243520E0,2.497152328E0,-9.758766174E0,7.225700855E0
3.860227516E0,2.480392933E0,-9.823410034E0,7.393294811E0
3.862241666E0,2.468421936E0,-9.871294022E0,7.479485989E0
3.864225586E0,2.430114746E0,-9.890447617E0,7.639897823E0
3.866239505E0,2.398990154E0,-9.935936928E0,7.766790390E0
3.868253040E0,2.391807556E0,-9.952696800E0,7.819462776E0
3.870237960E0,2.367865562E0,-9.974244118E0,7.929595947E0
3.872251725E0,2.331952572E0,-9.969455719E0,8.010998726E0
3.874234490E0,2.315192938E0,-9.967061996E0,8.049305916E0
3.876249949E0,2.257732153E0,-9.991003990E0,8.116343498E0
3.878233022E0,2.185906172E0,-9.986215591E0,8.190564156E0
3.880247402E0,2.147598982E0,-9.979032516E0,8.212111473E0
3.882230553E0,2.039859772E0,-9.957485199E0,8.269572258E0
3.884245549E0,1.922544003E0,-9.928754807E0,8.305485725E0
3.886229623E0,1.853112102E0,-9.921571732E0,8.303091049E0
3.888243081E0,1.728613615E0,-9.900024414E0,8.293514252E0
3.890226846E0,1.587355733E0,-9.871294022E0,8.293514252E0
3.892240689E0,1.517923832E0,-9.856928825E0,8.286332130E0
3.894224301E0,1.383848548E0,-9.844957352E0,8.255207062E0
3.896237527E0,1.314416766E0,-9.837775230E0,8.245630264E0
3.898252986E0,1.204283476E0,-9.835380554E0,8.236053467E0
3.900236597E0,1.098938584E0,-9.844957352E0,8.243236542E0
3.902249516E0,1.058237195E0,-9.847352028E0,8.248024940E0
3.904234206E0,9.720458984E-1,-9.837775230E0,8.240841866E0
3.906248279E0,9.361328483E-1,-9.852140427E0,8.226476669E0
3.908231428E0,9.217676520E-1,-9.854534149E0,8.233659744E0
3.910246733E0,9.265560508E-1,-9.854534149E0,8.252813339E0
3.912230191E0,9.385270476E-1,-9.876082420E0,8.281543732E0
3.914243417E0,9.457096457E-1,-9.888052940E0,8.293514252E0
3.916228568E0,9.648633003E-1,-9.911994934E0,8.336610794E0
3.918241795E0,9.935936928E-1,-9.938331604E0,8.360552788E0
3.920224638E0,1.005564690E0,-9.969455719E0,8.367734909E0
3.922239404E0,1.036689281E0,-1.000058079E1,8.386888504E0
3.924253246E0,1.053448796E0,-1.004367638E1,8.379706383E0
3.926236935E0,1.070208192E0,-1.006282997E1,8.382100105E0
3.928251316E0,1.106121182E0,-1.009156036E1,8.398859978E0
3.930234773E0,1.125274777E0,-1.011310768E1,8.410830498E0
3.932248539E0,1.156399369E0,-1.017775154E1,8.408436775E0
3.934233151E0,1.194706678E0,-1.024718285E1,8.444349289E0
3.936243685E0,1.233013868E0,-1.027591324E1,8.468291283E0
3.938229451E0,1.256955862E0,-1.033337498E1,8.511386871E0
3.940244524E0,1.300051570E0,-1.039562416E1,8.530540466E0
3.942227674E0,1.300051570E0,-1.042195988E1,8.544905663E0
3.944242748E0,1.343147159E0,-1.045787334E1,8.573636055E0
3.946226129E0,1.403002143E0,-1.050815105E1,8.585607529E0
3.948240202E0,1.419761658E0,-1.054166985E1,8.590395927E0
3.950224506E0,1.455674648E0,-1.060870743E1,8.599972725E0
3.952237425E0,1.551442742E0,-1.066137981E1,8.609549522E0
3.954251652E0,1.584961534E0,-1.070687008E1,8.607154846E0
3.956236572E0,1.666364431E0,-1.079066753E1,8.611943245E0
3.958250030E0,1.711854219E0,-1.084333992E1,8.633491516E0
3.960233488E0,1.793257117E0,-1.086728191E1,8.643068314E0
3.962247331E0,1.874659896E0,-1.093192482E1,8.690952301E0
3.964231019E0,1.903390408E0,-1.097023201E1,8.714894295E0
3.966246093E0,1.984793186E0,-1.103487587E1,8.760383606E0
3.968229166E0,2.059013367E0,-1.108275986E1,8.793902397E0
3.970244162E0,2.078166962E0,-1.109951878E1,8.803479195E0
3.972226928E0,2.161964178E0,-1.115697956E1,8.851364136E0
3.974240847E0,2.233790159E0,-1.119768143E1,8.894459724E0
3.976224766E0,2.262520552E0,-1.121204662E1,8.908824921E0
3.978239532E0,2.353500366E0,-1.125514221E1,8.899248123E0
3.980253144E0,2.451662540E0,-1.132457447E1,8.889671326E0
3.982235601E0,2.499546528E0,-1.135569859E1,8.892065048E0
3.984251291E0,2.602497339E0,-1.141555405E1,8.880094528E0
3.986234594E0,2.691082716E0,-1.146104336E1,8.865729332E0
3.988249129E0,2.734178305E0,-1.146822643E1,8.858546257E0
3.990232510E0,2.837129116E0,-1.150174522E1,8.832210541E0
3.992246353E0,2.887407303E0,-1.151850414E1,8.757989883E0
3.994230273E0,2.985569477E0,-1.153526402E1,8.714894295E0
3.996245115E0,3.071760893E0,-1.154005241E1,8.659827232E0
3.998229034E0,3.124433279E0,-1.154005241E1,8.640673637E0
4.000242262E0,3.217807055E0,-1.155681133E1,8.616731644E0
4.002225335E0,3.325546265E0,-1.158793640E1,8.602366447E0
4.004239484E0,3.368641853E0,-1.158793640E1,8.592789650E0
4.006253712E0,3.469198227E0,-1.160948372E1,8.576030731E0
4.008237631E0,3.521870613E0,-1.162145519E1,8.568847656E0
4.010252473E0,3.564966440E0,-1.162384892E1,8.561665535E0
4.012235240E0,3.615244627E0,-1.163103199E1,8.547300339E0
4.014249390E0,3.658340216E0,-1.161666679E1,8.520963669E0
4.016232693E0,3.677493811E0,-1.162145519E1,8.516175270E0
4.018247152E0,3.708618402E0,-1.161906052E1,8.492233276E0
4.020230840E0,3.720589399E0,-1.160469532E1,8.492233276E0
4.022244682E0,3.711012602E0,-1.159511852E1,8.489839554E0
4.024229064E0,3.691859007E0,-1.157596493E1,8.487444878E0
4.026243137E0,3.679888010E0,-1.153047562E1,8.485051155E0
4.028226594E0,3.653551817E0,-1.152329254E1,8.473079681E0
4.030241899E0,3.612850428E0,-1.149456215E1,8.456320763E0
4.032224741E0,3.598485231E0,-1.147062016E1,8.437167168E0
4.034238584E0,3.560178041E0,-1.142752457E1,8.403648376E0
4.036252734E0,3.538630009E0,-1.139640045E1,8.370129585E0
4.038236730E0,3.509899616E0,-1.138442898E1,8.365341187E0
4.040250496E0,3.454833031E0,-1.136048698E1,8.358158112E0
4.042233877E0,3.445256233E0,-1.132217979E1,8.348581314E0
4.044248719E0,3.435679436E0,-1.131499767E1,8.339004517E0
4.046232409E0,3.406949043E0,-1.129584408E1,8.315062523E0
4.048245943E0,3.390189648E0,-1.126950741E1,8.307879448E0
4.050230478E0,3.383007050E0,-1.125514221E1,8.310274124E0
4.052244090E0,3.347094059E0,-1.125993061E1,8.310274124E0
4.054227086E0,3.335123062E0,-1.126711273E1,8.307879448E0
4.056241928E0,3.327940464E0,-1.127908421E1,8.327033043E0
4.058225925E0,3.301604033E0,-1.128387260E1,8.382100105E0
4.060238844E0,3.294421434E0,-1.129105568E1,8.429984093E0
4.062252379E0,3.292027235E0,-1.130542088E1,8.449137688E0
4.064236991E0,3.282450438E0,-1.133654499E1,8.525752068E0
4.066252295E0,3.275267839E0,-1.135809326E1,8.566453934E0
4.068234446E0,3.246537447E0,-1.141555405E1,8.631096840E0
4.070250518E0,3.229778051E0,-1.145625496E1,8.707711220E0
4.072232976E0,3.227383852E0,-1.148259163E1,8.734047890E0
4.074247358E0,3.220201254E0,-1.153765774E1,8.793902397E0
4.076230431E0,3.210624456E0,-1.158314800E1,8.872911453E0
4.078244657E0,3.210624456E0,-1.161187840E1,8.930372238E0
4.080228654E0,3.234566450E0,-1.166694450E1,9.059659004E0
4.082242804E0,3.289633036E0,-1.171961689E1,9.129091263E0
4.084225877E0,3.327940464E0,-1.174595356E1,9.121908188E0
4.086241490E0,3.404554844E0,-1.178186703E1,9.057265282E0
4.088224255E0,3.445256233E0,-1.181299114E1,8.968679428E0
4.090238712E0,3.531447411E0,-1.182256794E1,8.937555313E0
4.092252632E0,3.615244627E0,-1.182975101E1,8.894459724E0
4.094235936E0,3.665522814E0,-1.181777954E1,8.865729332E0
4.096246701E0,3.773261786E0,-1.178904915E1,8.808267593E0
4.098233237E0,3.878606796E0,-1.175553036E1,8.755595207E0
4.100248310E0,3.921702385E0,-1.174355888E1,8.726864815E0
4.102231306E0,4.036623955E0,-1.170285797E1,8.683769226E0
4.104245764E0,4.141968727E0,-1.167173290E1,8.650250435E0
4.106229837E0,4.209006786E0,-1.166215611E1,8.640673637E0
4.108243911E0,4.335899353E0,-1.164539719E1,8.623914719E0
4.110228292E0,4.431667328E0,-1.162384892E1,8.621520042E0
4.112241749E0,4.469974518E0,-1.161187840E1,8.614337921E0
4.114224823E0,4.520252705E0,-1.159033012E1,8.590395927E0
4.116240204E0,4.570530891E0,-1.155202293E1,8.549694061E0
4.118222661E0,4.577713490E0,-1.154005241E1,8.528146744E0
4.120236274E0,4.568136692E0,-1.149935055E1,8.506598473E0
4.122250731E0,4.572925091E0,-1.145386124E1,8.461109161E0
4.124234650E0,4.575319290E0,-1.143470764E1,8.439560890E0
4.126249494E0,4.563348293E0,-1.139640045E1,8.401253700E0
4.128232566E0,4.565742493E0,-1.136288166E1,8.401253700E0
4.130247562E0,4.525041103E0,-1.131020927E1,8.403648376E0
4.132230944E0,4.493916512E0,-1.124317074E1,8.410830498E0
4.134244171E0,4.486733913E0,-1.121204662E1,8.413225174E0
4.136227936E0,4.460397720E0,-1.114261436E1,8.432378769E0
4.138242702E0,4.434061527E0,-1.106121159E1,8.461109161E0
4.140226391E0,4.417302132E0,-1.101572227E1,8.477868080E0
4.142239540E0,4.347870350E0,-1.096304989E1,8.516175270E0
4.144223922E0,4.280832767E0,-1.092234802E1,8.556877136E0
4.146238610E0,4.244919777E0,-1.090319443E1,8.588001251E0
4.148251607E0,4.146757126E0,-1.085291672E1,8.645462036E0
4.150236450E0,4.060565948E0,-1.081939793E1,8.688557625E0
4.152250907E0,3.998316765E0,-1.080742645E1,8.702922821E0
4.154233366E0,3.885789394E0,-1.076193619E1,8.724471092E0
4.156247823E0,3.821146011E0,-1.073320580E1,8.726864815E0
4.158231204E0,3.720589399E0,-1.070926380E1,8.729259491E0
4.160244816E0,3.612850428E0,-1.065180302E1,8.726864815E0
4.162229043E0,3.562572241E0,-1.060870743E1,8.719682693E0
4.164243193E0,3.454833031E0,-1.053688145E1,8.722076416E0
4.166227498E0,3.356670856E0,-1.046745014E1,8.724471092E0
4.168241109E0,3.306392431E0,-1.044111347E1,8.729259491E0
4.170225643E0,3.208230257E0,-1.035013390E1,8.755595207E0
4.172239179E0,3.124433279E0,-1.028309631E1,8.772355080E0
4.174252790E0,3.098097086E0,-1.024718285E1,8.777143478E0
4.176235786E0,3.035847664E0,-1.018732834E1,8.762778282E0
4.178250014E0,2.959233284E0,-1.012268448E1,8.748413086E0
