"Time (s)","Gyroscope x (rad/s)","Gyroscope y (rad/s)","Gyroscope z (rad/s)"
8.153535000E-3,-6.963863969E-2,-6.603453159E-1,1.527163107E-2
1.025999300E-2,-6.963863969E-2,-6.603453159E-1,1.527163107E-2
1.224245100E-2,-6.963863969E-2,-6.603453159E-1,1.527163107E-2
1.425698600E-2,-6.963863969E-2,-6.603453159E-1,1.527163107E-2
1.624005900E-2,-6.963863969E-2,-6.603453159E-1,1.527163107E-2
1.825505600E-2,-6.963863969E-2,-6.603453159E-1,1.527163107E-2
2.023789800E-2,-6.963863969E-2,-6.603453159E-1,1.527163107E-2
2.225197100E-2,-6.963863969E-2,-6.603453159E-1,1.527163107E-2
2.423635200E-2,-6.963863969E-2,-6.603453159E-1,1.527163107E-2
2.625073300E-2,-6.963863969E-2,-6.603453159E-1,1.527163107E-2
2.823357500E-2,-6.963863969E-2,-6.603453159E-1,1.527163107E-2
3.024895700E-2,-6.963863969E-2,-6.603453159E-1,1.527163107E-2
3.223226000E-2,-6.963863969E-2,-6.603453159E-1,1.527163107E-2
3.424618000E-2,-6.963863969E-2,-6.603453159E-1,1.527163107E-2
3.625994600E-2,-6.963863969E-2,-6.603453159E-1,1.527163107E-2
3.824278800E-2,-6.963863969E-2,-6.603453159E-1,1.527163107E-2
4.025716900E-2,-6.963863969E-2,-6.603453159E-1,1.527163107E-2
4.224147300E-2,-6.963863969E-2,-6.603453159E-1,1.527163107E-2
4.425531500E-2,-6.963863969E-2,-6.603453159E-1,1.527163107E-2
4.623908200E-2,-6.963863969E-2,-6.603453159E-1,1.527163107E-2
4.825315500E-2,-6.963863969E-2,-6.603453159E-1,1.527163107E-2
5.023753500E-2,-6.963863969E-2,-6.603453159E-1,1.527163107E-2
5.225160900E-2,-6.963863969E-2,-6.603453159E-1,1.527163107E-2
5.423475900E-2,-6.963863969E-2,-6.603453159E-1,1.527163107E-2
5.624798600E-2,-6.963863969E-2,-6.603453159E-1,1.527163107E-2
5.823282900E-2,-6.963863969E-2,-6.603453159E-1,1.527163107E-2
6.024636300E-2,-6.963863969E-2,-6.603453159E-1,1.527163107E-2
6.226020600E-2,-6.963863969E-2,-6.603453159E-1,1.527163107E-2
6.424520300E-2,-6.963863969E-2,-6.603453159E-1,1.527163107E-2
6.625904500E-2,-6.963863969E-2,-6.603453159E-1,1.527163107E-2
6.824234800E-2,-6.963863969E-2,-6.603453159E-1,1.527163107E-2
7.025719200E-2,-6.963863969E-2,-6.603453159E-1,1.527163107E-2
7.224088000E-2,-2.364048511E-1,-7.586946487E-1,2.394591719E-1
7.425433700E-2,-2.400700450E-1,-7.629706860E-1,2.443460971E-1
7.623902700E-2,-2.510656118E-1,-7.757988572E-1,2.504547536E-1
7.825217700E-2,-2.596177161E-1,-7.880161405E-1,2.571742535E-1
8.023617400E-2,-2.675589919E-1,-7.965682745E-1,2.632829249E-1
8.224970800E-2,-2.803871334E-1,-8.075638413E-1,2.700024247E-1
8.423316600E-2,-2.932153046E-1,-8.246681094E-1,2.785545588E-1
8.624824000E-2,-2.999348342E-1,-8.350527883E-1,2.834414840E-1
8.823092800E-2,-3.139847219E-1,-8.533787727E-1,2.944370508E-1
9.024692400E-2,-3.274237812E-1,-8.747590184E-1,3.048217595E-1
9.222999800E-2,-3.347541690E-1,-8.845328689E-1,3.084869385E-1
9.424330100E-2,-3.494149148E-1,-9.065240026E-1,3.207042515E-1
9.625375900E-2,-3.665191531E-1,-9.309586287E-1,3.292563558E-1
9.824052500E-2,-3.732386529E-1,-9.407324791E-1,3.353650272E-1
1.002549060E-1,-3.872885704E-1,-9.639453292E-1,3.475823104E-1
1.022383630E-1,-4.037819207E-1,-9.883799553E-1,3.604104817E-1
1.042530530E-1,-4.105014503E-1,-1.003040791E0,3.622430861E-1
1.062361260E-1,-4.233296216E-1,-1.027475357E0,3.720169365E-1
1.082506600E-1,-4.294382632E-1,-1.040914416E0,3.787364662E-1
1.102348880E-1,-4.440990388E-1,-1.067181587E0,3.842342496E-1
1.122488070E-1,-4.569272101E-1,-1.094670534E0,3.872885704E-1
1.142321110E-1,-4.642575979E-1,-1.109331250E0,3.915646076E-1
1.162475690E-1,-4.752531648E-1,-1.136209369E0,4.001167417E-1
1.182302580E-1,-4.838052690E-1,-1.163087368E0,4.062253833E-1
1.202434850E-1,-4.905247986E-1,-1.174693823E0,4.105014503E-1
1.222580200E-1,-4.948008358E-1,-1.198517561E0,4.178318381E-1
1.242419390E-1,-5.009095073E-1,-1.226617455E0,4.227187634E-1
1.262564740E-1,-5.039638281E-1,-1.236391306E0,4.269948006E-1
1.282394700E-1,-5.088507533E-1,-1.255938888E0,4.318817258E-1
1.302552360E-1,-5.119050741E-1,-1.276097536E0,4.355469346E-1
1.322380020E-1,-5.131267905E-1,-1.280984402E0,4.392121136E-1
1.342511520E-1,-5.137376785E-1,-1.289536476E0,4.447098970E-1
1.362348400E-1,-5.167919993E-1,-1.287703991E0,4.471533597E-1
1.382496830E-1,-5.198463202E-1,-1.283427835E0,4.532620013E-1
1.402333710E-1,-5.241223574E-1,-1.271210551E0,4.538728893E-1
1.422472140E-1,-5.235115290E-1,-1.266323686E0,4.575380683E-1
1.442312110E-1,-5.296201706E-1,-1.245554209E0,4.630358517E-1
1.462462070E-1,-5.314527750E-1,-1.222952247E0,4.685336351E-1
1.482591260E-1,-5.332853794E-1,-1.210734963E0,4.715879560E-1
1.502441230E-1,-5.400048494E-1,-1.179580808E0,4.807509482E-1
1.522572730E-1,-5.412266254E-1,-1.147204876E0,4.868595898E-1
1.542401160E-1,-5.436700583E-1,-1.129489779E0,4.929682612E-1
1.562554190E-1,-5.516113043E-1,-1.090394497E0,5.033529401E-1
1.582384920E-1,-5.564982295E-1,-1.050688267E0,5.143485069E-1
1.602526430E-1,-5.571091175E-1,-1.027475357E0,5.204572082E-1
1.622364080E-1,-5.650503635E-1,-9.828822017E-1,5.369505286E-1
1.642496350E-1,-5.748242140E-1,-9.346238375E-1,5.516113043E-1
1.662344780E-1,-5.766568184E-1,-9.114109278E-1,5.601634383E-1
1.682480130E-1,-5.827654600E-1,-8.613200188E-1,5.754350424E-1
1.702326240E-1,-5.876523852E-1,-8.350527883E-1,5.852088928E-1
1.722459290E-1,-5.949827433E-1,-7.843509912E-1,6.017022729E-1
1.742603090E-1,-5.980370641E-1,-7.342600226E-1,6.163630486E-1
1.762434590E-1,-6.004805565E-1,-7.092145681E-1,6.243042946E-1
1.782569950E-1,-6.084218025E-1,-6.627888083E-1,6.389650702E-1
1.802412990E-1,-6.145304441E-1,-6.169738770E-1,6.536257863E-1
1.822556790E-1,-6.169738770E-1,-5.955936313E-1,6.585127115E-1
1.842399840E-1,-6.243042946E-1,-5.564982295E-1,6.676757336E-1
1.862535180E-1,-6.273586154E-1,-5.222898126E-1,6.786713004E-1
1.882375910E-1,-6.310238242E-1,-5.033529401E-1,6.805039048E-1
1.902528960E-1,-6.334672570E-1,-4.770857692E-1,6.872233748E-1
1.922350460E-1,-6.334672570E-1,-4.538728893E-1,6.896668673E-1
1.942495040E-1,-6.352998614E-1,-4.386012554E-1,6.872233748E-1
1.962335000E-1,-6.352998614E-1,-4.221078753E-1,6.872233748E-1
1.982473420E-1,-6.377432942E-1,-4.105014503E-1,6.860016584E-1
2.002307240E-1,-6.407976151E-1,-4.068362415E-1,6.841690540E-1
2.022448740E-1,-6.407976151E-1,-4.043927789E-1,6.780604124E-1
2.042587930E-1,-6.426302195E-1,-4.007275999E-1,6.743952036E-1
2.062427900E-1,-6.432411075E-1,-4.056145251E-1,6.701191664E-1
2.082574780E-1,-6.438519955E-1,-4.153883755E-1,6.652322412E-1
2.102409360E-1,-6.414085031E-1,-4.196644127E-1,6.646214128E-1
2.122544710E-1,-6.401867867E-1,-4.324925840E-1,6.591235995E-1
2.142383900E-1,-6.389650702E-1,-4.471533597E-1,6.542366743E-1
2.162519250E-1,-6.389650702E-1,-4.508185387E-1,6.505714655E-1
2.182365370E-1,-6.395758986E-1,-4.642575979E-1,6.493497491E-1
2.202506870E-1,-6.334672570E-1,-4.807509482E-1,6.456845403E-1
2.222332220E-1,-6.340781450E-1,-4.844161272E-1,6.432411075E-1
2.242486030E-1,-6.310238242E-1,-4.972442985E-1,6.401867867E-1
2.262310610E-1,-6.316346526E-1,-5.057964325E-1,6.359107494E-1
2.282460570E-1,-6.291912198E-1,-5.112941861E-1,6.359107494E-1
2.302609000E-1,-6.249151230E-1,-5.210680366E-1,6.310238242E-1
2.322430500E-1,-6.230825782E-1,-5.271766782E-1,6.279694438E-1
2.342571240E-1,-6.212499738E-1,-5.314527750E-1,6.243042946E-1
2.362421200E-1,-6.145304441E-1,-5.363397002E-1,6.212499738E-1
2.382556540E-1,-6.133087277E-1,-5.381723046E-1,6.188064814E-1
2.402384200E-1,-6.047565937E-1,-5.448917747E-1,6.145304441E-1
2.422528780E-1,-5.998696685E-1,-5.461135507E-1,6.096435189E-1
2.442356430E-1,-5.968153477E-1,-5.479460955E-1,6.053674817E-1
2.462509480E-1,-5.913175344E-1,-5.455026627E-1,6.004805565E-1
2.482347130E-1,-5.815436840E-1,-5.467243791E-1,5.931501389E-1
2.502494780E-1,-5.809328556E-1,-5.442809463E-1,5.913175344E-1
2.522324750E-1,-5.736024380E-1,-5.406157374E-1,5.791002512E-1
2.542463180E-1,-5.644394755E-1,-5.363397002E-1,5.723807216E-1
2.562565440E-1,-5.619960427E-1,-5.332853794E-1,5.662720799E-1
2.582435410E-1,-5.552765131E-1,-5.247332454E-1,5.571091175E-1
2.602579990E-1,-5.497786999E-1,-5.186246037E-1,5.461135507E-1
2.622417640E-1,-5.491678715E-1,-5.137376785E-1,5.430592299E-1
2.642568380E-1,-5.461135507E-1,-5.015203953E-1,5.302310586E-1
2.662407570E-1,-5.406157374E-1,-4.935791194E-1,5.204572082E-1
2.682540610E-1,-5.400048494E-1,-4.886921942E-1,5.161811113E-1
2.702377500E-1,-5.412266254E-1,-4.752531648E-1,5.064072609E-1
2.722515920E-1,-5.400048494E-1,-4.679227769E-1,5.021312237E-1
2.742355890E-1,-5.387831330E-1,-4.587597847E-1,4.972442985E-1
2.762505850E-1,-5.381723046E-1,-4.465425014E-1,4.850270152E-1
2.782330430E-1,-5.381723046E-1,-4.386012554E-1,4.807509482E-1
2.802472710E-1,-5.393940210E-1,-4.282165468E-1,4.764748812E-1
2.822311900E-1,-5.406157374E-1,-4.166100919E-1,4.746423066E-1
2.842457240E-1,-5.406157374E-1,-4.098905921E-1,4.721988440E-1
2.862595670E-1,-5.393940210E-1,-4.025602043E-1,4.703662395E-1
2.882431790E-1,-5.400048494E-1,-4.001167417E-1,4.685336351E-1
2.902577130E-1,-5.406157374E-1,-3.964515328E-1,4.673119187E-1
2.922407870E-1,-5.412266254E-1,-3.964515328E-1,4.679227769E-1
2.942543220E-1,-5.381723046E-1,-3.976732790E-1,4.703662395E-1
2.962382410E-1,-5.400048494E-1,-3.970624208E-1,4.728097022E-1
2.982533150E-1,-5.375614166E-1,-3.982841372E-1,4.758640230E-1
3.002367720E-1,-5.393940210E-1,-3.946189582E-1,4.758640230E-1
3.022502300E-1,-5.357288122E-1,-3.933972120E-1,4.825835526E-1
3.042342270E-1,-5.271766782E-1,-3.927863538E-1,4.893030524E-1
3.062484530E-1,-5.259549618E-1,-3.909537494E-1,4.880813360E-1
3.082311430E-1,-5.167919993E-1,-3.915646076E-1,4.935791194E-1
3.102472160E-1,-5.082398653E-1,-3.903428912E-1,4.935791194E-1
3.122299810E-1,-5.051855445E-1,-3.909537494E-1,4.941899776E-1
3.142438240E-1,-4.972442985E-1,-3.952298164E-1,4.905247986E-1
3.162592050E-1,-4.880813360E-1,-4.013384581E-1,4.868595898E-1
3.182415850E-1,-4.850270152E-1,-4.068362415E-1,4.813618064E-1
3.202564280E-1,-4.776966274E-1,-4.153883755E-1,4.770857692E-1
3.222401170E-1,-4.679227769E-1,-4.294382632E-1,4.679227769E-1
3.242533440E-1,-4.642575979E-1,-4.361577928E-1,4.618141353E-1
3.262376480E-1,-4.575380683E-1,-4.514294267E-1,4.544837475E-1
3.282520290E-1,-4.440990388E-1,-4.715879560E-1,4.416555762E-1
3.302357940E-1,-4.410447180E-1,-4.813618064E-1,4.392121136E-1
3.322492530E-1,-4.282165468E-1,-5.039638281E-1,4.343251884E-1
3.342323260E-1,-4.227187634E-1,-5.155702829E-1,4.282165468E-1
3.362450140E-1,-4.123340547E-1,-5.357288122E-1,4.178318381E-1
3.382607030E-1,-3.995058835E-1,-5.619960427E-1,4.086688459E-1
3.402452380E-1,-3.952298164E-1,-5.742133260E-1,4.031710625E-1
3.422596950E-1,-3.830125034E-1,-5.962044597E-1,3.940080702E-1
3.442427690E-1,-3.726277947E-1,-6.200281978E-1,3.830125034E-1
3.462566880E-1,-3.677408695E-1,-6.304129362E-1,3.744603992E-1
3.482409930E-1,-3.561344445E-1,-6.548475623E-1,3.610213697E-1
3.502551430E-1,-3.420845270E-1,-6.774495840E-1,3.494149148E-1
3.522387540E-1,-3.347541690E-1,-6.884451509E-1,3.433062732E-1
3.542529050E-1,-3.243694305E-1,-7.116580009E-1,3.274237812E-1
3.562369010E-1,-3.084869385E-1,-7.348709106E-1,3.115412891E-1
3.582502050E-1,-3.029891551E-1,-7.458664775E-1,3.048217595E-1
3.602338170E-1,-2.926044464E-1,-7.678576112E-1,2.919935882E-1
3.622477360E-1,-2.840523422E-1,-7.916813493E-1,2.797762752E-1
3.642311170E-1,-2.779437006E-1,-8.051204085E-1,2.742784917E-1
3.662461910E-1,-2.675589919E-1,-8.283332586E-1,2.620611787E-1
3.682597250E-1,-2.645046413E-1,-8.381071091E-1,2.571742535E-1
3.702442600E-1,-2.510656118E-1,-8.607091308E-1,2.480112910E-1
3.722577950E-1,-2.370157093E-1,-8.869763613E-1,2.376265824E-1
3.742421760E-1,-2.302961946E-1,-8.985827565E-1,2.351831198E-1
3.762553260E-1,-2.174680233E-1,-9.193521738E-1,2.254092693E-1
3.782400150E-1,-2.064724565E-1,-9.413433671E-1,2.174680233E-1
3.802537800E-1,-2.021963894E-1,-9.505063295E-1,2.125810981E-1
3.822363160E-1,-1.912008226E-1,-9.669997096E-1,2.064724565E-1
3.842516190E-1,-1.814269722E-1,-9.841039181E-1,1.973094791E-1
3.862353080E-1,-1.753183305E-1,-9.883799553E-1,1.954768747E-1
3.882488430E-1,-1.685988009E-1,-1.001819015E0,1.881465018E-1
3.902337620E-1,-1.600466967E-1,-1.007927656E0,1.838704348E-1
3.922466810E-1,-1.545489132E-1,-1.014036298E0,1.783726513E-1
3.942306780E-1,-1.472185254E-1,-1.016479731E0,1.753183305E-1
3.962460590E-1,-1.392772794E-1,-1.024420977E0,1.685988009E-1
3.982589780E-1,-1.392772794E-1,-1.024420977E0,1.649336219E-1
4.002426670E-1,-1.350012124E-1,-1.026864529E0,1.618792862E-1
4.022565090E-1,-1.331686229E-1,-1.028697014E0,1.569923609E-1
4.042401980E-1,-1.307251602E-1,-1.028086185E0,1.588249654E-1
4.062549640E-1,-1.282816976E-1,-1.027475357E0,1.563815027E-1
4.082384220E-1,-1.282816976E-1,-1.024420977E0,1.588249654E-1
4.102525710E-1,-1.252273768E-1,-1.023810148E0,1.588249654E-1
4.122362610E-1,-1.276708394E-1,-1.018312335E0,1.637118906E-1
4.142494870E-1,-1.307251602E-1,-1.015258074E0,1.643227488E-1
4.162325610E-1,-1.288925707E-1,-1.010982037E0,1.698205322E-1
4.182473270E-1,-1.350012124E-1,-1.000597239E0,1.655444801E-1
4.202307070E-1,-1.368338168E-1,-9.963212013E-1,1.692096740E-1
4.222451660E-1,-1.423316002E-1,-9.859365225E-1,1.808161139E-1
4.242595460E-1,-1.478293836E-1,-9.773843884E-1,1.924225539E-1
4.262433120E-1,-1.508837193E-1,-9.731083512E-1,1.985312104E-1
4.282574620E-1,-1.533271819E-1,-9.627236128E-1,2.101376504E-1
4.302423820E-1,-1.576032341E-1,-9.572258592E-1,2.180788964E-1
4.322553010E-1,-1.612684280E-1,-9.560040832E-1,2.254092693E-1
4.342389900E-1,-1.673770845E-1,-9.541715384E-1,2.327396572E-1
4.362540630E-1,-1.685988009E-1,-9.547823668E-1,2.382374406E-1
4.382362130E-1,-1.716531366E-1,-9.535606503E-1,2.522873580E-1
4.402509790E-1,-1.747074574E-1,-9.492846131E-1,2.614503205E-1
4.422345900E-1,-1.795943826E-1,-9.431759119E-1,2.638937831E-1
4.442488170E-1,-1.802052408E-1,-9.370672703E-1,2.736676335E-1
4.462330450E-1,-1.832595766E-1,-9.279043078E-1,2.816088796E-1
4.482463490E-1,-1.808161139E-1,-9.254608750E-1,2.877175212E-1
4.502318060E-1,-1.832595766E-1,-9.144652486E-1,2.919935882E-1
4.522441110E-1,-1.832595766E-1,-9.046914577E-1,2.968805134E-1
4.542580300E-1,-1.820378453E-1,-8.998045325E-1,2.987131178E-1
4.562413350E-1,-1.802052408E-1,-8.918632865E-1,3.023782969E-1
4.582567920E-1,-1.802052408E-1,-8.808676600E-1,3.042109013E-1
4.602395570E-1,-1.777617931E-1,-8.790351152E-1,3.048217595E-1
4.622536310E-1,-1.765400618E-1,-8.735373020E-1,3.029891551E-1
4.642373200E-1,-1.771509200E-1,-8.698720932E-1,3.029891551E-1
4.662527000E-1,-1.728748679E-1,-8.668177724E-1,3.011565804E-1
4.682355430E-1,-1.740965992E-1,-8.625417352E-1,2.999348342E-1
4.702502320E-1,-1.734857261E-1,-8.600982428E-1,2.962696552E-1
4.722333050E-1,-1.734857261E-1,-8.582656980E-1,2.938261926E-1
4.742475320E-1,-1.704314053E-1,-8.558222055E-1,2.883284092E-1
4.762317590E-1,-1.710422635E-1,-8.533787727E-1,2.907718420E-1
4.782449860E-1,-1.716531366E-1,-8.491026759E-1,2.889392674E-1
4.802588290E-1,-1.710422635E-1,-8.442157507E-1,2.852740586E-1
4.822429020E-1,-1.698205322E-1,-8.417723179E-1,2.822197378E-1
4.842573600E-1,-1.649336219E-1,-8.368853927E-1,2.822197378E-1
4.862415870E-1,-1.637118906E-1,-8.252789378E-1,2.791654170E-1
4.882545060E-1,-1.631010175E-1,-8.246681094E-1,2.803871334E-1
4.902397330E-1,-1.582140923E-1,-8.167268038E-1,2.779437006E-1
4.922526530E-1,-1.563815027E-1,-8.069530129E-1,2.755002379E-1
4.942367260E-1,-1.539380401E-1,-8.026769161E-1,2.748893499E-1
4.962471850E-1,-1.533271819E-1,-7.922922373E-1,2.755002379E-1
4.982335650E-1,-1.527163088E-1,-7.867944241E-1,2.773328125E-1
5.002486380E-1,-1.490511149E-1,-7.788531780E-1,2.803871334E-1
5.022323280E-1,-1.453859210E-1,-7.715228200E-1,2.773328125E-1
5.042458620E-1,-1.466076523E-1,-7.709119320E-1,2.791654170E-1
5.062610120E-1,-1.478293836E-1,-7.654141784E-1,2.785545588E-1
5.082440090E-1,-1.472185254E-1,-7.648032904E-1,2.816088796E-1
5.102591590E-1,-1.496619880E-1,-7.611380816E-1,2.816088796E-1
5.122422320E-1,-1.527163088E-1,-7.580837607E-1,2.809980214E-1
5.142560750E-1,-1.588249654E-1,-7.605272532E-1,2.809980214E-1
5.162406090E-1,-1.600466967E-1,-7.574729323E-1,2.816088796E-1
5.182541440E-1,-1.667662114E-1,-7.556403279E-1,2.834414840E-1
5.202372180E-1,-1.728748679E-1,-7.525860071E-1,2.803871334E-1
5.222513680E-1,-1.747074574E-1,-7.550294399E-1,2.809980214E-1
5.242351330E-1,-1.795943826E-1,-7.550294399E-1,2.797762752E-1
5.262498990E-1,-1.869247705E-1,-7.501425147E-1,2.803871334E-1
5.282325870E-1,-1.905899495E-1,-7.483099103E-1,2.791654170E-1
5.302476600E-1,-1.948660165E-1,-7.440338731E-1,2.761110961E-1
5.322316570E-1,-1.948660165E-1,-7.458664775E-1,2.748893499E-1
5.342452690E-1,-2.003637999E-1,-7.415903807E-1,2.736676335E-1
5.362584970E-1,-2.028072625E-1,-7.385360599E-1,2.687807083E-1
5.382430310E-1,-2.046398520E-1,-7.391469479E-1,2.663372457E-1
5.402574890E-1,-2.076941878E-1,-7.342600226E-1,2.590068579E-1
5.422400240E-1,-2.076941878E-1,-7.324274182E-1,2.577851415E-1
5.442547120E-1,-2.064724565E-1,-7.318165898E-1,2.547308207E-1
5.462378620E-1,-2.101376504E-1,-7.293730974E-1,2.480112910E-1
5.482519360E-1,-2.095267773E-1,-7.263187766E-1,2.419026345E-1
5.502371630E-1,-2.113593817E-1,-7.250970602E-1,2.400700450E-1
5.522506970E-1,-2.101376504E-1,-7.226535678E-1,2.309070677E-1
5.542340790E-1,-2.070833147E-1,-7.226535678E-1,2.229658216E-1
5.562489210E-1,-2.101376504E-1,-7.214318514E-1,2.186897546E-1
5.582316860E-1,-2.076941878E-1,-7.177666426E-1,2.095267773E-1
5.602452220E-1,-2.076941878E-1,-7.177666426E-1,1.991420686E-1
5.622605250E-1,-2.058615834E-1,-7.171558142E-1,1.960877478E-1
5.642433680E-1,-2.058615834E-1,-7.153232098E-1,1.850921661E-1
5.662577490E-1,-2.052507252E-1,-7.153232098E-1,1.826487035E-1
5.682408220E-1,-2.034181207E-1,-7.165449262E-1,1.728748679E-1
5.702565110E-1,-2.009746730E-1,-7.141014934E-1,1.637118906E-1
5.722395840E-1,-2.028072625E-1,-7.122688890E-1,1.563815027E-1
5.742531190E-1,-1.985312104E-1,-7.147123218E-1,1.521054506E-1
5.762359620E-1,-1.960877478E-1,-7.116580009E-1,1.453859210E-1
5.782504200E-1,-1.942551434E-1,-7.141014934E-1,1.404990107E-1
5.802347230E-1,-1.924225539E-1,-7.092145681E-1,1.374446750E-1
5.822497200E-1,-1.863138974E-1,-7.067710757E-1,1.295034289E-1
5.842324860E-1,-1.838704348E-1,-7.055493593E-1,1.270599663E-1
5.862470200E-1,-1.789835095E-1,-7.006624341E-1,1.215621829E-1
5.882306320E-1,-1.759291887E-1,-6.902777553E-1,1.197295859E-1
5.902453980E-1,-1.734857261E-1,-6.890559793E-1,1.185078546E-1
5.922592400E-1,-1.722639948E-1,-6.768386960E-1,1.166752651E-1
5.942426210E-1,-1.692096740E-1,-6.652322412E-1,1.154535338E-1
5.962567710E-1,-1.698205322E-1,-6.560692787E-1,1.148426682E-1
5.982399210E-1,-1.679879427E-1,-6.426302195E-1,1.166752651E-1
6.002543030E-1,-1.667662114E-1,-6.334672570E-1,1.172861308E-1
6.022379910E-1,-1.685988009E-1,-6.145304441E-1,1.203404516E-1
6.042516020E-1,-1.692096740E-1,-5.925393105E-1,1.252273768E-1
6.062362150E-1,-1.710422635E-1,-5.839871764E-1,1.276708394E-1
6.082503650E-1,-1.753183305E-1,-5.650503635E-1,1.313360333E-1
6.102337460E-1,-1.795943826E-1,-5.418374538E-1,1.356120855E-1
6.122482040E-1,-1.802052408E-1,-5.308418870E-1,1.404990107E-1
6.142308920E-1,-1.857030392E-1,-5.076290369E-1,1.429424733E-1
6.162448120E-1,-1.930334121E-1,-4.838052690E-1,1.490511149E-1
6.182608080E-1,-1.966986060E-1,-4.697553813E-1,1.502728462E-1
6.202435730E-1,-2.015855312E-1,-4.447098970E-1,1.563815027E-1
6.222564940E-1,-2.058615834E-1,-4.166100919E-1,1.588249654E-1
6.242416430E-1,-2.076941878E-1,-4.062253833E-1,1.606575549E-1
6.262555620E-1,-2.131919712E-1,-3.793473244E-1,1.624901593E-1
6.282391750E-1,-2.162462920E-1,-3.665191531E-1,1.655444801E-1
6.302545560E-1,-2.186897546E-1,-3.396410644E-1,1.661553532E-1
6.322367050E-1,-2.229658216E-1,-3.121521473E-1,1.710422635E-1
6.342502410E-1,-2.235766798E-1,-3.011565804E-1,1.740965992E-1
6.362352370E-1,-2.290744632E-1,-2.748893499E-1,1.734857261E-1
6.382486940E-1,-2.327396572E-1,-2.498438805E-1,1.747074574E-1
6.402323840E-1,-2.321287990E-1,-2.406809032E-1,1.789835095E-1
6.422465340E-1,-2.364048511E-1,-2.162462920E-1,1.802052408E-1
6.442296070E-1,-2.388483137E-1,-1.948660165E-1,1.838704348E-1
6.462443730E-1,-2.412917763E-1,-1.850921661E-1,1.832595766E-1
6.482582150E-1,-2.437352389E-1,-1.692096740E-1,1.850921661E-1
6.502431350E-1,-2.461786866E-1,-1.508837193E-1,1.912008226E-1
6.522560540E-1,-2.443460971E-1,-1.453859210E-1,1.936442852E-1
6.542400500E-1,-2.449569702E-1,-1.343903542E-1,1.973094791E-1
6.562508160E-1,-2.474004179E-1,-1.258382350E-1,1.979203373E-1
6.582370430E-1,-2.474004179E-1,-1.233947799E-1,1.991420686E-1
6.602515010E-1,-2.480112910E-1,-1.240056455E-1,1.997529417E-1
6.622348050E-1,-2.467895597E-1,-1.221730486E-1,2.009746730E-1
6.642493400E-1,-2.474004179E-1,-1.258382350E-1,2.015855312E-1
6.662332590E-1,-2.467895597E-1,-1.343903542E-1,2.015855312E-1
6.682484100E-1,-2.455678284E-1,-1.398881376E-1,2.009746730E-1
6.702323290E-1,-2.443460971E-1,-1.545489132E-1,1.991420686E-1
6.722453250E-1,-2.419026345E-1,-1.722639948E-1,1.954768747E-1
6.742591680E-1,-2.412917763E-1,-1.832595766E-1,1.924225539E-1
6.762431640E-1,-2.370157093E-1,-2.058615834E-1,1.924225539E-1
6.782575450E-1,-2.345722616E-1,-2.296853364E-1,1.857030392E-1
6.802403110E-1,-2.302961946E-1,-2.419026345E-1,1.826487035E-1
6.822553840E-1,-2.254092693E-1,-2.712241709E-1,1.765400618E-1
6.842384580E-1,-2.174680233E-1,-3.011565804E-1,1.716531366E-1
6.862529150E-1,-2.180788964E-1,-3.133738637E-1,1.698205322E-1
6.882362960E-1,-2.138028294E-1,-3.451388776E-1,1.643227488E-1
6.902514470E-1,-2.083050460E-1,-3.775147200E-1,1.557706445E-1
6.922335200E-1,-2.064724565E-1,-3.927863538E-1,1.557706445E-1
6.942477460E-1,-1.997529417E-1,-4.227187634E-1,1.508837193E-1
6.962319740E-1,-1.985312104E-1,-4.379903674E-1,1.484402567E-1
6.982467390E-1,-1.936442852E-1,-4.679227769E-1,1.417207420E-1
7.002301200E-1,-1.918116808E-1,-4.996877611E-1,1.386664063E-1
7.022434250E-1,-1.881465018E-1,-5.137376785E-1,1.392772794E-1
7.042578050E-1,-1.857030392E-1,-5.418374538E-1,1.362229437E-1
7.062415710E-1,-1.832595766E-1,-5.693264008E-1,1.343903542E-1
7.082557210E-1,-1.808161139E-1,-5.815436840E-1,1.343903542E-1
7.102406400E-1,-1.783726513E-1,-6.041457057E-1,1.350012124E-1
7.122538670E-1,-1.753183305E-1,-6.255260110E-1,1.356120855E-1
7.142368640E-1,-1.765400618E-1,-6.359107494E-1,1.356120855E-1
7.162516290E-1,-1.722639948E-1,-6.542366743E-1,1.380555481E-1
7.182344730E-1,-1.679879427E-1,-6.670648456E-1,1.331686229E-1
7.202489300E-1,-1.667662114E-1,-6.737843752E-1,1.325577646E-1
7.222328490E-1,-1.667662114E-1,-6.847799420E-1,1.386664063E-1
7.242470000E-1,-1.649336219E-1,-6.890559793E-1,1.411098689E-1
7.262316110E-1,-1.612684280E-1,-6.914994717E-1,1.447750628E-1
7.282449150E-1,-1.606575549E-1,-6.945537925E-1,1.508837193E-1
7.302599890E-1,-1.612684280E-1,-6.963863969E-1,1.557706445E-1
7.322426770E-1,-1.576032341E-1,-7.037167549E-1,1.594358236E-1
7.342559810E-1,-1.557706445E-1,-7.092145681E-1,1.685988009E-1
7.362399010E-1,-1.563815027E-1,-7.110471725E-1,1.728748679E-1
7.382543590E-1,-1.582140923E-1,-7.153232098E-1,1.838704348E-1
7.402383550E-1,-1.600466967E-1,-7.153232098E-1,1.930334121E-1
7.422522750E-1,-1.606575549E-1,-7.171558142E-1,1.979203373E-1
7.442355790E-1,-1.624901593E-1,-7.122688890E-1,2.052507252E-1
7.462497280E-1,-1.643227488E-1,-7.079927921E-1,2.168571651E-1
7.482334950E-1,-1.624901593E-1,-7.031059265E-1,2.193006277E-1
7.502487980E-1,-1.655444801E-1,-6.933320761E-1,2.254092693E-1
7.522313330E-1,-1.661553532E-1,-6.884451509E-1,2.327396572E-1
7.542457140E-1,-1.649336219E-1,-6.823364496E-1,2.364048511E-1
7.562294800E-1,-1.661553532E-1,-6.750060916E-1,2.400700450E-1
7.582432460E-1,-1.673770845E-1,-6.676757336E-1,2.419026345E-1
7.602577800E-1,-1.655444801E-1,-6.603453159E-1,2.455678284E-1
7.622410840E-1,-1.667662114E-1,-6.487388611E-1,2.492330223E-1
7.642556200E-1,-1.643227488E-1,-6.456845403E-1,2.535090744E-1
7.662393080E-1,-1.637118906E-1,-6.401867867E-1,2.516764700E-1
7.682531500E-1,-1.624901593E-1,-6.328563690E-1,2.583959997E-1
7.702377620E-1,-1.624901593E-1,-6.304129362E-1,2.565633953E-1
7.722512970E-1,-1.612684280E-1,-6.279694438E-1,2.620611787E-1
7.742342930E-1,-1.624901593E-1,-6.249151230E-1,2.614503205E-1
7.762485210E-1,-1.618792862E-1,-6.236934066E-1,2.663372457E-1
7.782330550E-1,-1.618792862E-1,-6.206390858E-1,2.657263875E-1
7.802465900E-1,-1.612684280E-1,-6.181956530E-1,2.681698501E-1
7.822291250E-1,-1.600466967E-1,-6.212499738E-1,2.706133127E-1
7.842438900E-1,-1.600466967E-1,-6.188064814E-1,2.712241709E-1
7.862588860E-1,-1.569923609E-1,-6.194173694E-1,2.718350291E-1
7.882419600E-1,-1.582140923E-1,-6.194173694E-1,2.724458873E-1
7.902570330E-1,-1.582140923E-1,-6.175847650E-1,2.706133127E-1
7.922401060E-1,-1.594358236E-1,-6.181956530E-1,2.712241709E-1
7.942534110E-1,-1.588249654E-1,-6.145304441E-1,2.693915665E-1
7.962386380E-1,-1.557706445E-1,-6.145304441E-1,2.675589919E-1
7.982520960E-1,-1.533271819E-1,-6.145304441E-1,2.651155293E-1
8.002352460E-1,-1.521054506E-1,-6.096435189E-1,2.614503205E-1
8.022500110E-1,-1.478293836E-1,-6.041457057E-1,2.565633953E-1
8.042333160E-1,-1.478293836E-1,-6.023131609E-1,2.571742535E-1
8.062478500E-1,-1.466076523E-1,-5.937610269E-1,2.516764700E-1
8.082311540E-1,-1.466076523E-1,-5.833762884E-1,2.486221492E-1
8.102466130E-1,-1.453859210E-1,-5.791002512E-1,2.474004179E-1
8.122286850E-1,-1.447750628E-1,-5.681046844E-1,2.406809032E-1
8.142431430E-1,-1.484402567E-1,-5.558874011E-1,2.376265824E-1
8.162545250E-1,-1.472185254E-1,-5.497786999E-1,2.388483137E-1
8.182406740E-1,-1.478293836E-1,-5.369505286E-1,2.345722616E-1
8.202552090E-1,-1.472185254E-1,-5.204572082E-1,2.339613885E-1
8.222385140E-1,-1.508837193E-1,-5.106833577E-1,2.327396572E-1
8.242532790E-1,-1.508837193E-1,-4.948008358E-1,2.296853364E-1
8.262363520E-1,-1.496619880E-1,-4.862487316E-1,2.327396572E-1
8.282502720E-1,-1.514945775E-1,-4.673119187E-1,2.302961946E-1
8.302348060E-1,-1.545489132E-1,-4.514294267E-1,2.302961946E-1
8.322478020E-1,-1.557706445E-1,-4.404338300E-1,2.296853364E-1
8.342320300E-1,-1.557706445E-1,-4.233296216E-1,2.315179259E-1
8.362471030E-1,-1.563815027E-1,-4.092797041E-1,2.315179259E-1
8.382304850E-1,-1.582140923E-1,-4.007275999E-1,2.327396572E-1
8.402437880E-1,-1.606575549E-1,-3.860668242E-1,2.333505303E-1
8.422584770E-1,-1.637118906E-1,-3.732386529E-1,2.364048511E-1
8.442419350E-1,-1.643227488E-1,-3.695734739E-1,2.345722616E-1
8.462563930E-1,-1.643227488E-1,-3.585779071E-1,2.321287990E-1
8.482397730E-1,-1.704314053E-1,-3.494149148E-1,2.266310006E-1
8.502547700E-1,-1.692096740E-1,-3.457497358E-1,2.260201424E-1
8.522381510E-1,-1.734857261E-1,-3.402519524E-1,2.260201424E-1
8.542523010E-1,-1.734857261E-1,-3.371976018E-1,2.266310006E-1
8.562348360E-1,-1.765400618E-1,-3.378084898E-1,2.296853364E-1
8.582504480E-1,-1.771509200E-1,-3.439171314E-1,2.266310006E-1
8.602332130E-1,-1.795943826E-1,-3.488040566E-1,2.284636050E-1
8.622465180E-1,-1.802052408E-1,-3.628539443E-1,2.260201424E-1
8.642313600E-1,-1.808161139E-1,-3.830125034E-1,2.241875380E-1
8.662458170E-1,-1.795943826E-1,-3.891211748E-1,2.223549485E-1
8.682283530E-1,-1.777617931E-1,-4.086688459E-1,2.180788964E-1
8.702430410E-1,-1.722639948E-1,-4.306600094E-1,2.168571651E-1
8.722571910E-1,-1.734857261E-1,-4.379903674E-1,2.144137025E-1
8.742402650E-1,-1.698205322E-1,-4.544837475E-1,2.107485086E-1
8.762554150E-1,-1.685988009E-1,-4.709770977E-1,2.052507252E-1
8.782381810E-1,-1.661553532E-1,-4.789183438E-1,2.058615834E-1
8.802526390E-1,-1.661553532E-1,-4.911356568E-1,2.009746730E-1
8.822363270E-1,-1.624901593E-1,-5.057964325E-1,1.973094791E-1
8.842507080E-1,-1.612684280E-1,-5.112941861E-1,1.936442852E-1
8.862338580E-1,-1.588249654E-1,-5.235115290E-1,1.924225539E-1
8.882479310E-1,-1.594358236E-1,-5.369505286E-1,1.918116808E-1
8.902323130E-1,-1.557706445E-1,-5.430592299E-1,1.899790913E-1
8.922460780E-1,-1.539380401E-1,-5.546656251E-1,1.869247705E-1
8.942285360E-1,-1.496619880E-1,-5.607742667E-1,1.905899495E-1
8.962430710E-1,-1.502728462E-1,-5.754350424E-1,1.863138974E-1
8.982572210E-1,-1.441642046E-1,-5.888741016E-1,1.887573600E-1
9.002415250E-1,-1.435533315E-1,-5.949827433E-1,1.875356287E-1
9.022556760E-1,-1.350012124E-1,-6.035348773E-1,1.881465018E-1
9.042386720E-1,-1.325577646E-1,-6.139195561E-1,1.857030392E-1
9.062537440E-1,-1.307251602E-1,-6.145304441E-1,1.887573600E-1
9.082380490E-1,-1.276708394E-1,-6.218608022E-1,1.887573600E-1
9.102518910E-1,-1.227839142E-1,-6.249151230E-1,1.887573600E-1
9.122358880E-1,-1.221730486E-1,-6.230825782E-1,1.863138974E-1
9.142494230E-1,-1.215621829E-1,-6.243042946E-1,1.924225539E-1
9.162324960E-1,-1.166752651E-1,-6.212499738E-1,1.912008226E-1
9.182472620E-1,-1.172861308E-1,-6.169738770E-1,1.881465018E-1
9.202310270E-1,-1.148426682E-1,-6.114761233E-1,1.844813079E-1
9.222447920E-1,-1.142318025E-1,-6.041457057E-1,1.832595766E-1
9.242589430E-1,-1.105666086E-1,-5.980370641E-1,1.857030392E-1
9.262426320E-1,-1.105666086E-1,-5.900958180E-1,1.875356287E-1
9.282562430E-1,-1.111774743E-1,-5.882632136E-1,1.881465018E-1
9.302407780E-1,-1.062905490E-1,-5.815436840E-1,1.875356287E-1
9.322550050E-1,-1.069014147E-1,-5.815436840E-1,1.887573600E-1
9.342386170E-1,-1.075122803E-1,-5.833762884E-1,1.893682331E-1
9.362515370E-1,-1.056796908E-1,-5.870414972E-1,1.905899495E-1
9.382370710E-1,-1.056796908E-1,-5.900958180E-1,1.887573600E-1
9.402503750E-1,-1.050688252E-1,-5.888741016E-1,1.893682331E-1
9.422330640E-1,-1.032362282E-1,-5.845980644E-1,1.893682331E-1
9.442475990E-1,-1.014036313E-1,-5.791002512E-1,1.875356287E-1
9.462318260E-1,-1.007927656E-1,-5.748242140E-1,1.863138974E-1
9.482454380E-1,-9.896016866E-2,-5.626068711E-1,1.850921661E-1
9.502300490E-1,-9.896016866E-2,-5.503895879E-1,1.820378453E-1
9.522435850E-1,-1.001819000E-1,-5.430592299E-1,1.820378453E-1
9.542573500E-1,-9.957103431E-2,-5.283984542E-1,1.753183305E-1
9.562423460E-1,-9.834930301E-2,-5.241223574E-1,1.740965992E-1
9.582555740E-1,-9.712757170E-2,-5.057964325E-1,1.704314053E-1
9.602386470E-1,-9.468411654E-2,-4.948008358E-1,1.679879427E-1
9.622530270E-1,-9.651670605E-2,-4.880813360E-1,1.661553532E-1
9.642374090E-1,-9.224065393E-2,-4.807509482E-1,1.612684280E-1
9.662508660E-1,-9.162978828E-2,-4.654793143E-1,1.563815027E-1
9.682346320E-1,-8.918632567E-2,-4.630358517E-1,1.557706445E-1
9.702499360E-1,-8.979719132E-2,-4.581489265E-1,1.490511149E-1
9.722321630E-1,-8.796459436E-2,-4.489859641E-1,1.441642046E-1
9.742463130E-1,-8.735372871E-2,-4.440990388E-1,1.417207420E-1
9.762290020E-1,-8.368854225E-2,-4.398229718E-1,1.350012124E-1
9.782440750E-1,-8.307767659E-2,-4.318817258E-1,1.288925707E-1
9.802585330E-1,-8.063421398E-2,-4.282165468E-1,1.276708394E-1
9.822422990E-1,-8.185594529E-2,-4.233296216E-1,1.197295859E-1
9.842561410E-1,-8.063421398E-2,-4.190535545E-1,1.154535338E-1
9.862406770E-1,-8.124507964E-2,-4.129449129E-1,1.117883399E-1
9.882545960E-1,-8.185594529E-2,-4.080579877E-1,1.056796908E-1
9.902385920E-1,-8.063421398E-2,-4.074471295E-1,1.038470939E-1
9.922518190E-1,-8.124507964E-2,-4.031710625E-1,9.896016866E-2
9.942354310E-1,-8.002334833E-2,-3.995058835E-1,9.651670605E-2
9.962508110E-1,-7.757988572E-2,-4.019493461E-1,9.407325089E-2
9.982326550E-1,-7.757988572E-2,-4.037819207E-1,8.796459436E-2
1.000247112E0,-7.452555746E-2,-4.007275999E-1,8.552113175E-2
1.002230800E0,-7.696902007E-2,-4.019493461E-1,8.429940045E-2
1.004245259E0,-7.696902007E-2,-4.037819207E-1,8.063421398E-2
1.006228717E0,-7.452555746E-2,-4.062253833E-1,7.757988572E-2
1.008242251E0,-7.391469181E-2,-4.092797041E-1,7.574728876E-2
1.010258171E0,-7.330382615E-2,-4.129449129E-1,7.330382615E-2
1.012240013E0,-6.963863969E-2,-4.184426963E-1,7.269296050E-2
1.014255163E0,-6.963863969E-2,-4.214970171E-1,7.391469181E-2
1.016238237E0,-6.658431143E-2,-4.300491214E-1,7.391469181E-2
1.018253925E0,-6.291911751E-2,-4.404338300E-1,7.574728876E-2
1.020236922E0,-6.291911751E-2,-4.453207552E-1,7.513642311E-2
1.022250226E0,-5.864306539E-2,-4.605923891E-1,7.757988572E-2
1.024234222E0,-5.803219974E-2,-4.654793143E-1,7.819075137E-2
1.026248296E0,-5.253441259E-2,-4.856378734E-1,7.757988572E-2
1.028232369E0,-4.948008433E-2,-5.064072609E-1,8.185594529E-2
1.030247750E0,-4.703662544E-2,-5.198463202E-1,8.368854225E-2
1.032230516E0,-4.214970022E-2,-5.448917747E-1,8.491026610E-2
1.034243435E0,-3.848451003E-2,-5.760459304E-1,8.735372871E-2
1.036259046E0,-3.176499158E-2,-5.931501389E-1,8.735372871E-2
1.038241812E0,-2.565634064E-2,-6.304129362E-1,9.162978828E-2
1.040256039E0,-1.588249579E-2,-6.670648456E-1,9.224065393E-2
1.042239728E0,-1.160643995E-2,-6.872233748E-1,9.224065393E-2
1.044253494E0,-3.665191587E-3,-7.318165898E-1,9.224065393E-2
1.046237567E0,1.099557430E-2,-7.745771408E-1,9.224065393E-2
1.048251409E0,2.076941915E-2,-7.971791625E-1,9.224065393E-2
1.050235714E0,3.359758854E-2,-8.411614299E-1,8.796459436E-2
1.052249556E0,4.153883830E-2,-8.808676600E-1,8.185594529E-2
1.054232936E0,5.314527452E-2,-9.028588533E-1,7.574728876E-2
1.056246395E0,6.536258012E-2,-9.443976879E-1,7.147123665E-2
1.058231083E0,6.902777404E-2,-9.645562172E-1,6.719517708E-2
1.060244234E0,7.880161703E-2,-1.003651619E0,6.291911751E-2
1.062259076E0,8.735372871E-2,-1.039692640E0,5.864306539E-2
1.064242457E0,9.224065393E-2,-1.064738154E0,5.253441259E-2
1.066257223E0,1.020144969E-1,-1.107498646E0,4.642575979E-2
1.068240834E0,1.136209369E-1,-1.149037480E0,4.153883830E-2
1.070256292E0,1.178969890E-1,-1.168585181E0,4.031710699E-2
1.072238058E0,1.288925707E-1,-1.211345792E0,3.726277873E-2
1.074252516E0,1.343903542E-1,-1.246775985E0,3.298672289E-2
1.076236819E0,1.392772794E-1,-1.262047648E0,3.237585723E-2
1.078250663E0,1.466076523E-1,-1.290758252E0,2.504547499E-2
1.080233812E0,1.545489132E-1,-1.314581990E0,2.138028294E-2
1.082247885E0,1.588249654E-1,-1.325577617E0,2.015855350E-2
1.084231652E0,1.655444801E-1,-1.343292713E0,1.099557430E-2
1.086245725E0,1.692096740E-1,-1.349401355E0,1.160643995E-2
1.088229182E0,1.710422635E-1,-1.359175205E0,4.886921961E-3
1.090244795E0,1.722639948E-1,-1.368949056E0,5.497787148E-3
1.092257406E0,1.759291887E-1,-1.373225093E0,3.054326167E-3
1.094241171E0,1.753183305E-1,-1.378111959E0,6.108652451E-4
1.096254630E0,1.783726513E-1,-1.388496757E0,-4.276056774E-3
1.098240241E0,1.759291887E-1,-1.390940189E0,-5.497787148E-3
1.100253469E0,1.704314053E-1,-1.393383622E0,-6.108652335E-3
1.102236465E0,1.685988009E-1,-1.398881435E0,-7.941247895E-3
1.104251230E0,1.655444801E-1,-1.399492264E0,-1.038470957E-2
1.106235612E0,1.588249654E-1,-1.398270488E0,-1.343903504E-2
1.108249069E0,1.533271819E-1,-1.393383622E0,-2.076941915E-2
1.110233142E0,1.453859210E-1,-1.387274981E0,-2.321287990E-2
1.112246370E0,1.343903542E-1,-1.374446750E0,-2.748893574E-2
1.114230058E0,1.282816976E-1,-1.359786034E0,-3.237585723E-2
1.116245054E0,1.227839142E-1,-1.348179579E0,-3.604105115E-2
1.118227897E0,1.142318025E-1,-1.326188445E0,-4.214970022E-2
1.120242355E0,1.093448773E-1,-1.313360333E0,-4.214970022E-2
1.122256736E0,9.896016866E-2,-1.290147424E0,-4.764748737E-2
1.124239502E0,8.918632567E-2,-1.267545342E0,-5.253441259E-2
1.126254344E0,8.368854225E-2,-1.255938888E0,-5.314527452E-2
1.128238032E0,7.819075137E-2,-1.229671717E0,-6.108652428E-2
1.130253645E0,6.597344577E-2,-1.205237150E0,-6.780604273E-2
1.132235795E0,6.047565863E-2,-1.191798091E0,-6.963863969E-2
1.134249637E0,4.886921868E-2,-1.160033107E0,-7.757988572E-2
1.136232711E0,3.604105115E-2,-1.127657294E0,-8.246681094E-2
1.138247476E0,3.237585723E-2,-1.112996459E0,-8.613199741E-2
1.140231781E0,2.321287990E-2,-1.078788042E0,-9.468411654E-2
1.142245392E0,1.466076635E-2,-1.045190454E0,-1.001819000E-1
1.144229311E0,1.160643995E-2,-1.025642753E0,-1.026253626E-1
1.146244077E0,4.276056774E-3,-9.938777685E-1,-1.130100712E-1
1.148257689E0,-3.665191587E-3,-9.572258592E-1,-1.203404516E-1
1.150242300E0,-4.886921961E-3,-9.413433671E-1,-1.246165112E-1
1.152255836E0,-1.282817032E-2,-9.071348906E-1,-1.343903542E-1
1.154238832E0,-1.221730467E-2,-8.881980777E-1,-1.386664063E-1
1.156253289E0,-1.954768784E-2,-8.503243923E-1,-1.447750628E-1
1.158236978E0,-2.321287990E-2,-8.155050874E-1,-1.508837193E-1
1.160251436E0,-2.443460934E-2,-7.929030657E-1,-1.563815027E-1
1.162233970E0,-2.626720630E-2,-7.513642311E-1,-1.576032341E-1
1.164248121E0,-2.565634064E-2,-7.086036801E-1,-1.606575549E-1
1.166232117E0,-2.504547499E-2,-6.847799420E-1,-1.594358236E-1
1.168246498E0,-2.199114859E-2,-6.383541822E-1,-1.569923609E-1
1.170230803E0,-2.199114859E-2,-5.876523852E-1,-1.533271819E-1
1.172245260E0,-2.382374369E-2,-5.638286471E-1,-1.514945775E-1
1.174228026E0,-2.504547499E-2,-5.100724697E-1,-1.441642046E-1
1.176241330E0,-2.626720630E-2,-4.569272101E-1,-1.374446750E-1
1.178256634E0,-2.626720630E-2,-4.294382632E-1,-1.301143020E-1
1.180240015E0,-2.321287990E-2,-3.781255782E-1,-1.185078546E-1
1.182253242E0,-2.260201424E-2,-3.280346394E-1,-1.001819000E-1
1.184237007E0,-2.260201424E-2,-3.048217595E-1,-9.285151958E-2
1.186251774E0,-2.260201424E-2,-2.614503205E-1,-7.391469181E-2
1.188235462E0,-2.504547499E-2,-2.419026345E-1,-6.352998316E-2
1.190251150E0,-2.871066704E-2,-2.015855312E-1,-4.825835302E-2
1.192232993E0,-3.115412779E-2,-1.685988009E-1,-2.443460934E-2
1.194247374E0,-3.481931984E-2,-1.508837193E-1,-1.527163107E-2
1.196231755E0,-3.726277873E-2,-1.185078546E-1,3.054326167E-3
1.198244905E0,-4.276056588E-2,-8.918632567E-2,2.199114859E-2
1.200228363E0,-4.520402849E-2,-7.330382615E-2,3.176499158E-2
1.202243128E0,-5.009094998E-2,-4.459316283E-2,4.948008433E-2
1.204256894E0,-5.314527452E-2,-1.893682219E-2,6.414084882E-2
1.206241198E0,-5.314527452E-2,-6.108652335E-3,7.208210230E-2
1.208255040E0,-5.558873713E-2,1.954768784E-2,8.735372871E-2
1.210239653E0,-5.742133409E-2,4.398229718E-2,9.896016866E-2
1.212253495E0,-5.742133409E-2,5.375614017E-2,1.044579595E-1
1.214236646E0,-5.681046844E-2,7.452555746E-2,1.136209369E-1
1.216250103E0,-5.681046844E-2,8.918632567E-2,1.221730486E-1
1.218233176E0,-5.497787148E-2,9.651670605E-2,1.258382350E-1
1.220249173E0,-5.253441259E-2,1.099557430E-1,1.325577646E-1
1.222231708E0,-4.948008433E-2,1.148426682E-1,1.301143020E-1
1.224246704E0,-4.581489414E-2,1.215621829E-1,1.331686229E-1
1.226229855E0,-4.398229718E-2,1.246165112E-1,1.362229437E-1
1.228244312E0,-3.909537569E-2,1.240056455E-1,1.343903542E-1
1.230258462E0,-3.543018550E-2,1.227839142E-1,1.313360333E-1
1.232242151E0,-2.932153270E-2,1.160643995E-1,1.282816976E-1
1.234255301E0,-2.565634064E-2,1.130100712E-1,1.240056455E-1
1.236240220E0,-2.015855350E-2,1.032362282E-1,1.221730486E-1
1.238253756E0,-1.649336144E-2,9.529497474E-2,1.160643995E-1
1.240236905E0,-1.343903504E-2,8.857546002E-2,1.111774743E-1
1.242251594E0,-9.162978269E-3,7.574728876E-2,1.044579595E-1
1.244234668E0,-6.719517522E-3,6.658431143E-2,9.468411654E-2
1.246249818E0,-6.108652335E-3,6.047565863E-2,8.979719132E-2
1.248233199E0,-4.276056774E-3,4.703662544E-2,8.124507964E-2
1.250247964E0,-3.665191587E-3,3.970624134E-2,7.513642311E-2
1.252231037E0,0.000000000E0,2.626720630E-2,6.780604273E-2
1.254244573E0,-1.221730490E-3,1.221730467E-2,5.742133409E-2
1.256228492E0,-1.832595794E-3,4.886921961E-3,5.070181563E-2
1.258243642E0,0.000000000E0,-9.773843922E-3,4.092797264E-2
1.260257485E0,1.221730490E-3,-2.748893574E-2,3.298672289E-2
1.262239558E0,-6.108652451E-4,-3.543018550E-2,2.626720630E-2
1.264254323E0,-1.221730490E-3,-5.314527452E-2,1.466076635E-2
1.266238089E0,6.108652451E-4,-6.963863969E-2,9.162978269E-3
1.268252239E0,0.000000000E0,-7.880161703E-2,6.719517522E-3
1.270236774E0,-1.221730490E-3,-9.773843735E-2,-4.886921961E-3
1.272249155E0,0.000000000E0,-1.136209369E-1,-1.282817032E-2
1.274233767E0,-1.221730490E-3,-1.197295859E-1,-1.466076635E-2
1.276248840E0,6.108652451E-4,-1.350012124E-1,-2.076941915E-2
1.278232144E0,6.108652451E-4,-1.466076523E-1,-2.748893574E-2
1.280245371E0,1.221730490E-3,-1.521054506E-1,-3.054326214E-2
1.282229445E0,6.719517522E-3,-1.631010175E-1,-3.543018550E-2
1.284243595E0,6.108652335E-3,-1.655444801E-1,-4.214970022E-2
1.286257745E0,8.552113548E-3,-1.679879427E-1,-4.825835302E-2
1.288241434E0,9.773843922E-3,-1.692096740E-1,-5.253441259E-2
1.290255584E0,1.282817032E-2,-1.722639948E-1,-5.558873713E-2
1.292239272E0,1.832595654E-2,-1.679879427E-1,-5.864306539E-2
1.294253038E0,2.504547499E-2,-1.624901593E-1,-6.352998316E-2
1.296236188E0,2.748893574E-2,-1.606575549E-1,-6.719517708E-2
1.298249723E0,3.298672289E-2,-1.533271819E-1,-6.902777404E-2
1.300234643E0,4.214970022E-2,-1.447750628E-1,-7.208210230E-2
1.302248793E0,4.337143153E-2,-1.404990107E-1,-7.452555746E-2
1.304232173E0,5.009094998E-2,-1.337794960E-1,-7.513642311E-2
1.306246939E0,5.986479297E-2,-1.252273768E-1,-7.330382615E-2
1.308230628E0,6.169738993E-2,-1.221730486E-1,-7.574728876E-2
1.310245624E0,6.780604273E-2,-1.172861308E-1,-7.391469181E-2
1.312228390E0,7.208210230E-2,-1.123992056E-1,-7.513642311E-2
1.314242617E0,7.757988572E-2,-1.111774743E-1,-7.086037099E-2
1.316256151E0,7.941248268E-2,-1.062905490E-1,-6.597344577E-2
1.318240071E0,8.429940045E-2,-1.075122803E-1,-6.230825558E-2
1.320253990E0,8.552113175E-2,-1.081231460E-1,-5.681046844E-2
1.322237603E0,8.979719132E-2,-1.099557430E-1,-4.948008433E-2
1.324252137E0,9.162978828E-2,-1.093448773E-1,-4.337143153E-2
1.326235826E0,9.162978828E-2,-1.166752651E-1,-3.665191308E-2
1.328249900E0,9.529497474E-2,-1.252273768E-1,-2.687807009E-2
1.330233588E0,9.712757170E-2,-1.282816976E-1,-1.954768784E-2
1.332248122E0,9.651670605E-2,-1.368338168E-1,-1.466076635E-2
1.334230581E0,9.834930301E-2,-1.533271819E-1,-4.276056774E-3
1.336244961E0,1.007927656E-1,-1.576032341E-1,6.108652451E-4
1.338229573E0,9.834930301E-2,-1.740965992E-1,6.108652335E-3
1.340244031E0,9.651670605E-2,-1.899790913E-1,1.588249579E-2
1.342256720E0,9.896016866E-2,-1.973094791E-1,1.954768784E-2
1.344240639E0,9.468411654E-2,-2.174680233E-1,2.504547499E-2
1.346256097E0,9.162978828E-2,-2.339613885E-1,3.481931984E-2
1.348239093E0,8.857546002E-2,-2.437352389E-1,3.604105115E-2
1.350253859E0,8.613199741E-2,-2.632829249E-1,4.214970022E-2
1.352236933E0,8.491026610E-2,-2.761110961E-1,4.459316283E-2
1.354250467E0,8.002334833E-2,-2.950479090E-1,4.825835302E-2
1.356234540E0,7.208210230E-2,-3.182607889E-1,5.436700583E-2
1.358249229E0,6.780604273E-2,-3.292563558E-1,5.681046844E-2
1.360231687E0,6.352998316E-2,-3.549126983E-1,6.414084882E-2
1.362245915E0,5.986479297E-2,-3.775147200E-1,7.024950534E-2
1.364229911E0,5.803219974E-2,-3.878994286E-1,7.208210230E-2
1.366243983E0,4.886921868E-2,-4.111123085E-1,7.819075137E-2
1.368258519E0,4.459316283E-2,-4.355469346E-1,8.429940045E-2
1.370243438E0,4.214970022E-2,-4.471533597E-1,8.674286306E-2
1.372256049E0,3.604105115E-2,-4.685336351E-1,9.346238524E-2
1.374239662E0,3.115412779E-2,-4.929682612E-1,9.896016866E-2
1.376253812E0,2.993239649E-2,-5.027421117E-1,1.044579595E-1
1.378237500E0,2.687807009E-2,-5.253441334E-1,1.087340117E-1
1.380251420E0,2.382374369E-2,-5.351179838E-1,1.117883399E-1
1.382235416E0,1.954768784E-2,-5.528330207E-1,1.142318025E-1
1.384249258E0,1.771509275E-2,-5.729916096E-1,1.203404516E-1
1.386232640E0,1.771509275E-2,-5.809328556E-1,1.227839142E-1
1.388247944E0,2.260201424E-2,-5.974262357E-1,1.270599663E-1
1.390232247E0,2.199114859E-2,-6.096435189E-1,1.319468915E-1
1.392245167E0,2.015855350E-2,-6.120869517E-1,1.325577646E-1
1.394228548E0,1.832595654E-2,-6.200281978E-1,1.368338168E-1
1.396243621E0,1.527163107E-2,-6.230825782E-1,1.411098689E-1
1.398257233E0,1.404990070E-2,-6.224716902E-1,1.423316002E-1
1.400240614E0,1.099557430E-2,-6.224716902E-1,1.447750628E-1
1.402254457E0,6.108652335E-3,-6.188064814E-1,1.459967941E-1
1.404237761E0,5.497787148E-3,-6.169738770E-1,1.466076523E-1
1.406252295E0,2.443460980E-3,-6.084218025E-1,1.466076523E-1
1.408236215E0,1.832595794E-3,-6.004805565E-1,1.484402567E-1
1.410251596E0,0.000000000E0,-5.962044597E-1,1.478293836E-1
1.412233823E0,-6.719517522E-3,-5.833762884E-1,1.472185254E-1
1.414248512E0,-7.941247895E-3,-5.772676468E-1,1.466076523E-1
1.416231046E0,-1.649336144E-2,-5.619960427E-1,1.453859210E-1
1.418245812E0,-2.138028294E-2,-5.430592299E-1,1.423316002E-1
1.420230347E0,-2.626720630E-2,-5.345070958E-1,1.398881376E-1
1.422242959E0,-3.359758854E-2,-5.149593949E-1,1.337794960E-1
1.424258108E0,-4.092797264E-2,-4.929682612E-1,1.295034289E-1
1.426241721E0,-4.520402849E-2,-4.801400900E-1,1.270599663E-1
1.428255255E0,-5.131268129E-2,-4.569272101E-1,1.185078546E-1
1.430240867E0,-5.986479297E-2,-4.324925840E-1,1.105666086E-1
1.432253787E0,-6.169738993E-2,-4.190535545E-1,1.038470939E-1
1.434237090E0,-7.208210230E-2,-3.897320330E-1,9.712757170E-2
1.436251934E0,-7.819075137E-2,-3.683517575E-1,8.735372871E-2
1.438235237E0,-8.368854225E-2,-3.549126983E-1,8.307767659E-2
1.440248772E0,-9.162978828E-2,-3.304781020E-1,7.147123665E-2
1.442232461E0,-9.957103431E-2,-3.072652221E-1,6.352998316E-2
1.444246303E0,-1.069014147E-1,-2.932153046E-1,5.742133409E-2
1.446230068E0,-1.148426682E-1,-2.736676335E-1,4.825835302E-2
1.448244758E0,-1.191187203E-1,-2.651155293E-1,4.520402849E-2
1.450229138E0,-1.276708394E-1,-2.449569702E-1,3.359758854E-2
1.452243211E0,-1.362229437E-1,-2.260201424E-1,2.321287990E-2
1.454256131E0,-1.423316002E-1,-2.174680233E-1,1.710422710E-2
1.456239512E0,-1.508837193E-1,-1.991420686E-1,7.941247895E-3
1.458254046E0,-1.576032341E-1,-1.832595766E-1,-4.276056774E-3
1.460238582E0,-1.612684280E-1,-1.722639948E-1,-9.162978269E-3
1.462252193E0,-1.716531366E-1,-1.582140923E-1,-1.893682219E-2
1.464236189E0,-1.777617931E-1,-1.435533315E-1,-2.871066704E-2
1.466249956E0,-1.832595766E-1,-1.350012124E-1,-3.054326214E-2
1.468233336E0,-1.899790913E-1,-1.197295859E-1,-4.276056588E-2
1.470249101E0,-1.948660165E-1,-1.069014147E-1,-5.131268129E-2
1.472231560E0,-1.991420686E-1,-9.896016866E-2,-5.681046844E-2
1.474246325E0,-2.034181207E-1,-8.185594529E-2,-6.658431143E-2
1.476229707E0,-2.034181207E-1,-7.635815442E-2,-7.086037099E-2
1.478242934E0,-2.089159191E-1,-6.414084882E-2,-8.063421398E-2
1.480257314E0,-2.089159191E-1,-4.764748737E-2,-8.979719132E-2
1.482241311E0,-2.107485086E-1,-3.909537569E-2,-9.162978828E-2
1.484254923E0,-2.168571651E-1,-2.626720630E-2,-1.001819000E-1
1.486238842E0,-2.199114859E-1,-1.221730467E-2,-1.044579595E-1
1.488253069E0,-2.217440903E-1,-3.054326167E-3,-1.117883399E-1
1.490237373E0,-2.241875380E-1,1.160643995E-2,-1.178969890E-1
1.492251138E0,-2.278527319E-1,2.565634064E-2,-1.246165112E-1
1.494234597E0,-2.302961946E-1,3.298672289E-2,-1.282816976E-1
1.496248439E0,-2.327396572E-1,4.948008433E-2,-1.350012124E-1
1.498232666E0,-2.321287990E-1,6.475171447E-2,-1.404990107E-1
1.500247124E0,-2.321287990E-1,7.269296050E-2,-1.441642046E-1
1.502229351E0,-2.345722616E-1,9.346238524E-2,-1.490511149E-1
1.504244347E0,-2.357939780E-1,1.130100712E-1,-1.545489132E-1
1.506228652E0,-2.357939780E-1,1.227839142E-1,-1.569923609E-1
1.508241956E0,-2.382374406E-1,1.472185254E-1,-1.594358236E-1
1.510257259E0,-2.364048511E-1,1.704314053E-1,-1.637118906E-1
1.512240102E0,-2.364048511E-1,1.857030392E-1,-1.631010175E-1
1.514254175E0,-2.357939780E-1,2.125810981E-1,-1.649336219E-1
1.516238249E0,-2.376265824E-1,2.247984111E-1,-1.649336219E-1
1.518251784E0,-2.376265824E-1,2.559525371E-1,-1.631010175E-1
1.520235164E0,-2.370157093E-1,2.822197378E-1,-1.631010175E-1
1.522249623E0,-2.376265824E-1,2.968805134E-1,-1.612684280E-1
1.524233004E0,-2.388483137E-1,3.249803185E-1,-1.600466967E-1
1.526247769E0,-2.364048511E-1,3.463605940E-1,-1.582140923E-1
1.528230766E0,-2.351831198E-1,3.555235863E-1,-1.545489132E-1
1.530245916E0,-2.296853364E-1,3.701843321E-1,-1.533271819E-1
1.532228912E0,-2.284636050E-1,3.878994286E-1,-1.514945775E-1
1.534243370E0,-2.247984111E-1,3.903428912E-1,-1.521054506E-1
1.536256059E0,-2.193006277E-1,4.019493461E-1,-1.490511149E-1
1.538240285E0,-2.119702399E-1,4.098905921E-1,-1.484402567E-1
1.540255128E0,-2.058615834E-1,4.159992337E-1,-1.490511149E-1
1.542238740E0,-1.991420686E-1,4.239404798E-1,-1.484402567E-1
1.544252351E0,-1.942551434E-1,4.276056588E-1,-1.490511149E-1
1.546236271E0,-1.844813079E-1,4.337143302E-1,-1.484402567E-1
1.548250806E0,-1.747074574E-1,4.422664344E-1,-1.478293836E-1
1.550235418E0,-1.679879427E-1,4.465425014E-1,-1.472185254E-1
1.552248568E0,-1.545489132E-1,4.508185387E-1,-1.453859210E-1
1.554231333E0,-1.417207420E-1,4.581489265E-1,-1.429424733E-1
1.556246099E0,-1.343903542E-1,4.593706727E-1,-1.423316002E-1
1.558230172E0,-1.227839142E-1,4.667010605E-1,-1.386664063E-1
1.560243938E0,-1.050688252E-1,4.728097022E-1,-1.374446750E-1
1.562257781E0,-9.651670605E-2,4.770857692E-1,-1.331686229E-1
1.564241238E0,-8.063421398E-2,4.844161272E-1,-1.319468915E-1
1.566256311E0,-6.841690838E-2,4.960225821E-1,-1.276708394E-1
1.568239308E0,-6.291911751E-2,5.002986193E-1,-1.252273768E-1
1.570255074E0,-5.009094998E-2,5.161811113E-1,-1.215621829E-1
1.572237762E0,-4.214970022E-2,5.308418870E-1,-1.178969890E-1
1.574251297E0,-3.665191308E-2,5.375614166E-1,-1.142318025E-1
1.576234678E0,-2.748893574E-2,5.546656251E-1,-1.111774743E-1
1.578250443E0,-2.382374369E-2,5.668829679E-1,-1.075122803E-1
1.580233440E0,-1.282817032E-2,5.864306092E-1,-1.056796908E-1
1.582246436E0,-2.443460980E-3,6.041457057E-1,-9.957103431E-2
1.584230741E0,6.108652451E-4,6.169738770E-1,-9.712757170E-2
1.586245429E0,6.108652335E-3,6.395758986E-1,-9.285151958E-2
1.588228502E0,9.162978269E-3,6.676757336E-1,-8.979719132E-2
1.590243576E0,1.221730467E-2,6.774495840E-1,-8.674286306E-2
1.592255957E0,1.343903504E-2,7.037167549E-1,-8.552113175E-2
1.594240568E0,1.221730467E-2,7.299839854E-1,-8.185594529E-2
1.596255257E0,1.160643995E-2,7.452555895E-1,-7.880161703E-2
1.598238946E0,4.886921961E-3,7.727445364E-1,-7.391469181E-2
1.600252557E0,-1.221730490E-3,8.038986921E-1,-6.902777404E-2
1.602236554E0,-4.276056774E-3,8.197811842E-1,-6.658431143E-2
1.604250012E0,-1.099557430E-2,8.442157507E-1,-5.864306539E-2
1.606234315E0,-1.466076635E-2,8.704829812E-1,-5.497787148E-2
1.608247928E0,-1.832595654E-2,8.845328689E-1,-4.642575979E-2
1.610233078E0,-2.076941915E-2,9.120218158E-1,-4.092797264E-2
1.612245458E0,-1.893682219E-2,9.224064946E-1,-3.787364438E-2
1.614228840E0,-1.954768784E-2,9.462302923E-1,-3.359758854E-2
1.616239836E0,-1.832595654E-2,9.657779336E-1,-2.687807009E-2
1.618257139E0,-1.710422710E-2,9.743300676E-1,-2.321287990E-2
1.620241367E0,-9.773843922E-3,9.950994849E-1,-2.076941915E-2
1.622254979E0,-6.719517522E-3,1.013425469E0,-2.138028294E-2
1.624239283E0,-1.832595794E-3,1.023810148E0,-2.015855350E-2
1.626253664E0,4.886921961E-3,1.042747021E0,-2.443460934E-2
1.628237352E0,1.282817032E-2,1.059851170E0,-2.932153270E-2
1.630252195E0,1.404990070E-2,1.070846796E0,-3.115412779E-2
1.632234961E0,2.871066704E-2,1.088561893E0,-4.153883830E-2
1.634249418E0,4.520402849E-2,1.103833556E0,-5.070181563E-2
1.636233415E0,5.314527452E-2,1.112385631E0,-5.497787148E-2
1.638247257E0,7.269296050E-2,1.126435518E0,-6.475171447E-2
1.640230869E0,8.613199741E-2,1.131933331E0,-7.208210230E-2
1.642244173E0,1.117883399E-1,1.143539786E0,-8.185594529E-2
1.644227554E0,1.392772794E-1,1.155757070E0,-9.651670605E-2
1.646242858E0,1.527163088E-1,1.160643935E0,-1.014036313E-1
1.648256393E0,1.857030392E-1,1.166752577E0,-1.123992056E-1
1.650240466E0,2.193006277E-1,1.173472166E0,-1.191187203E-1
1.652254231E0,2.357939780E-1,1.178969979E0,-1.252273768E-1
1.654237998E0,2.730567753E-1,1.182635069E0,-1.288925707E-1
1.656251224E0,3.090978265E-1,1.185689449E0,-1.313360333E-1
1.658236143E0,3.268128932E-1,1.188743711E0,-1.343903542E-1
1.660250525E0,3.683517575E-1,1.188132882E0,-1.337794960E-1
1.662233060E0,4.092797041E-1,1.188743711E0,-1.307251602E-1
1.664248057E0,4.282165468E-1,1.191187263E0,-1.276708394E-1
1.666230822E0,4.685336351E-1,1.186911225E0,-1.172861308E-1
1.668245664E0,5.070181489E-1,1.181413412E0,-1.014036313E-1
1.670230276E0,5.296201706E-1,1.179580808E0,-9.529497474E-2
1.672243503E0,5.772676468E-1,1.173472166E0,-7.208210230E-2
1.674257345E0,6.212499738E-1,1.161865711E0,-4.764748737E-2
1.676241573E0,6.481280327E-1,1.156978726E0,-3.298672289E-2
1.678255184E0,7.037167549E-1,1.146594048E0,1.832595794E-3
1.680238180E0,7.312057018E-1,1.144761443E0,2.015855350E-2
1.682253024E0,7.867944241E-1,1.141096234E0,6.108652428E-2
1.684236635E0,8.484918475E-1,1.141096234E0,1.038470939E-1
1.686251169E0,8.796459436E-1,1.145983219E0,1.252273768E-1
1.688235474E0,9.388998747E-1,1.158811331E0,1.753183305E-1
1.690249239E0,9.975429177E-1,1.180191636E0,2.266310006E-1
1.692232928E0,1.027475357E0,1.192408919E0,2.516764700E-1
1.694245925E0,1.084285855E0,1.217454433E0,3.042109013E-1
1.696229305E0,1.138041973E0,1.240056396E0,3.597996235E-1
1.698243149E0,1.163087368E0,1.252884626E0,3.872885704E-1
1.700258529E0,1.218065262E0,1.267545342E0,4.453207552E-1
1.702241602E0,1.271821499E0,1.279762745E0,5.033529401E-1
1.704255138E0,1.298088670E0,1.284038782E0,5.326744914E-1
1.706239441E0,1.350623012E0,1.287093043E0,5.900958180E-1
1.708253899E0,1.381777167E0,1.284649611E0,6.206390858E-1
1.710238511E0,1.434311628E0,1.282817006E0,6.701191664E-1
1.712251738E0,1.486845970E0,1.276097536E0,7.257078886E-1
1.714235349E0,1.511891484E0,1.269377947E0,7.470881939E-1
1.716249269E0,1.567480206E0,1.254717231E0,7.947356701E-1
1.718232958E0,1.621847272E0,1.232726097E0,8.338310719E-1
1.720247108E0,1.648114443E0,1.221119642E0,8.521569967E-1
1.722231335E0,1.701870561E0,1.187522054E0,8.814785480E-1
1.724245177E0,1.758070230E0,1.149037480E0,9.065240026E-1
1.726229173E0,1.787391663E0,1.127046347E0,9.175195694E-1
1.728243632E0,1.841758728E0,1.076955438E0,9.279043078E-1
1.730257782E0,1.897347450E0,1.021366715E0,9.388998747E-1
1.732240932E0,1.924836397E0,9.920451641E-1,9.443976879E-1
1.734255390E0,1.976149082E0,9.303477407E-1,9.456194043E-1
1.736237848E0,2.028072596E0,8.668177724E-1,9.431759119E-1
1.738253153E0,2.054339886E0,8.338310719E-1,9.407324791E-1
1.740237764E0,2.108706713E0,7.623597980E-1,9.352346659E-1
1.742249529E0,2.134363174E0,7.293730974E-1,9.309586287E-1
1.744234372E0,2.186897516E0,6.591235995E-1,9.266825914E-1
1.746248830E0,2.232712507E0,5.907067060E-1,9.230173826E-1
1.748231672E0,2.260201454E0,5.552765131E-1,9.230173826E-1
1.750246746E0,2.307238102E0,4.844161272E-1,9.211847782E-1
1.752229742E0,2.351220369E0,4.184426963E-1,9.211847782E-1
1.754243584E0,2.374433279E0,3.842342496E-1,9.205739498E-1
1.756258658E0,2.419637203E0,3.170390725E-1,9.242390990E-1
1.758241500E0,2.459343433E0,2.541199327E-1,9.260717034E-1
1.760255573E0,2.480112791E0,2.211332172E-1,9.285151958E-1
1.762239647E0,2.516154051E0,1.594358236E-1,9.291260242E-1
1.764254105E0,2.550973177E0,9.834930301E-2,9.315695167E-1
1.766237793E0,2.568688393E0,6.658431143E-2,9.309586287E-1
1.768251021E0,2.598009825E0,9.162978269E-3,9.327912331E-1
1.770235940E0,2.627331495E0,-4.214970022E-2,9.291260242E-1
1.772249397E0,2.642603159E0,-6.780604273E-2,9.279043078E-1
1.774232856E0,2.667648554E0,-1.142318025E-1,9.272934198E-1
1.776244467E0,2.693915844E0,-1.502728462E-1,9.230173826E-1
1.778231233E0,2.706743956E0,-1.661553532E-1,9.199630618E-1
1.780245153E0,2.730567694E0,-1.942551434E-1,9.101892114E-1
1.782228533E0,2.740952253E0,-2.052507252E-1,9.065240026E-1
1.784242684E0,2.759889126E0,-2.217440903E-1,8.961393237E-1
1.786257372E0,2.776993513E0,-2.278527319E-1,8.881980777E-1
1.788240445E0,2.787988901E0,-2.284636050E-1,8.827002645E-1
1.790254981E0,2.808758497E0,-2.241875380E-1,8.729264140E-1
1.792238361E0,2.828306198E0,-2.168571651E-1,8.600982428E-1
1.794252127E0,2.837469101E0,-2.076941878E-1,8.564330935E-1
1.796236431E0,2.861292839E0,-1.905899495E-1,8.466592431E-1
1.798249658E0,2.885727406E0,-1.698205322E-1,8.350527883E-1
1.800234039E0,2.896723032E0,-1.576032341E-1,8.301658630E-1
1.802247497E0,2.918714046E0,-1.295034289E-1,8.197811842E-1
1.804231186E0,2.927266359E0,-1.117883399E-1,8.142833710E-1
1.806245720E0,2.949257374E0,-7.635815442E-2,8.020660877E-1
1.808229640E0,2.973691940E0,-3.665191308E-2,7.922922373E-1
1.810244175E0,2.982855082E0,-1.466076635E-2,7.886270285E-1
1.812226941E0,3.005456924E0,3.237585723E-2,7.800748944E-1
1.814241321E0,3.024393797E0,7.819075137E-2,7.703011036E-1
1.816254317E0,3.034167767E0,1.044579595E-1,7.660250068E-1
1.818239468E0,3.052493572E0,1.594358236E-1,7.574729323E-1
1.820253695E0,3.069597960E0,2.217440903E-1,7.507534027E-1
1.822236383E0,3.076317310E0,2.498438805E-1,7.458664775E-1
1.824250611E0,3.092810631E0,3.182607889E-1,7.397578359E-1
1.826235223E0,3.107471466E0,3.909537494E-1,7.348709106E-1
1.828249680E0,3.115412712E0,4.269948006E-1,7.336491346E-1
1.830233985E0,3.128851891E0,5.033529401E-1,7.312057018E-1
1.832246904E0,3.138625622E0,5.833762884E-1,7.287622094E-1
1.834230208E0,3.146566868E0,6.206390858E-1,7.293730974E-1
1.836245358E0,3.154508114E0,7.000515461E-1,7.299839854E-1
1.838228662E0,3.160616875E0,7.385360599E-1,7.305948138E-1
1.840241966E0,3.168558121E0,8.155050874E-1,7.342600226E-1
1.842256424E0,3.176499367E0,8.900306821E-1,7.373143435E-1
1.844240036E0,3.177721024E0,9.266825914E-1,7.403686643E-1
1.846254493E0,3.184440613E0,9.950994849E-1,7.422012687E-1
1.848237644E0,3.187494755E0,1.062905550E0,7.476990819E-1
1.850252640E0,3.188105822E0,1.096503139E0,7.483099103E-1
1.852236329E0,3.191159964E0,1.154535294E0,7.513642311E-1
1.854250172E0,3.196657896E0,1.210124016E0,7.550294399E-1
1.856232937E0,3.199101210E0,1.232726097E0,7.574729323E-1
1.858247088E0,3.203988314E0,1.279151797E0,7.568620443E-1
1.860231468E0,3.209486008E0,1.317025423E0,7.574729323E-1
1.862245310E0,3.211929560E0,1.335351467E0,7.593054771E-1
1.864228923E0,3.218038082E0,1.364672899E0,7.586946487E-1
1.866243457E0,3.221703291E0,1.389718413E0,7.574729323E-1
1.868257915E0,3.225368500E0,1.397659659E0,7.580837607E-1
1.870242220E0,3.230866194E0,1.408655286E0,7.580837607E-1
1.872255754E0,3.232088089E0,1.411098719E0,7.568620443E-1
1.874238212E0,3.238196611E0,1.411709547E0,7.568620443E-1
1.876254439E0,3.243694544E0,1.404379249E0,7.562511563E-1
1.878237281E0,3.248581409E0,1.398881435E0,7.562511563E-1
1.880250431E0,3.254689932E0,1.381777167E0,7.550294399E-1
1.882234198E0,3.264463902E0,1.358564258E0,7.538077235E-1
1.884248578E0,3.271183491E0,1.344514370E0,7.544185519E-1
1.886232575E0,3.282789946E0,1.315803766E0,7.507534027E-1
1.888246725E0,3.293174505E0,1.280373573E0,7.483099103E-1
1.890230106E0,3.297450542E0,1.263269305E0,7.464773059E-1
1.892243410E0,3.309056997E0,1.225395679E0,7.446447611E-1
1.894227945E0,3.320663452E0,1.186300278E0,7.391469479E-1
1.896241556E0,3.322496176E0,1.166752577E0,7.360926270E-1
1.898256861E0,3.329826355E0,1.130100727E0,7.281513810E-1
1.900240318E0,3.335935116E0,1.093448758E0,7.208209634E-1
1.902252930E0,3.338378668E0,1.078177214E0,7.134906054E-1
1.904237465E0,3.345708847E0,1.046412110E0,7.043276429E-1
1.906251923E0,3.349985123E0,1.031140566E0,6.976081133E-1
1.908235303E0,3.355482817E0,1.009149432E0,6.860016584E-1
1.910250685E0,3.360980511E0,9.926560521E-1,6.756169796E-1
1.912233835E0,3.359148026E0,9.902125597E-1,6.682865620E-1
1.914247600E0,3.360980511E0,9.883799553E-1,6.566801667E-1
1.916231289E0,3.359758854E0,9.944885969E-1,6.432411075E-1
1.918245439E0,3.358537197E0,1.004262447E0,6.371324658E-1
1.920228281E0,3.357926369E0,1.028086185E0,6.243042946E-1
1.922243048E0,3.353650093E0,1.057407737E0,6.157521605E-1
1.924256198E0,3.352428436E0,1.074512005E0,6.102544069E-1
1.926241118E0,3.344487190E0,1.116661668E0,5.986479521E-1
1.928254729E0,3.344487190E0,1.162476540E0,5.858197808E-1
1.930239571E0,3.337767601E0,1.186300278E0,5.815436840E-1
1.932252261E0,3.337156773E0,1.238834739E0,5.699372888E-1
1.934235872E0,3.334713459E0,1.298699498E0,5.607742667E-1
1.936247253E0,3.331659079E0,1.326188445E0,5.534439087E-1
1.938233711E0,3.326161146E0,1.386664152E0,5.418374538E-1
1.940248784E0,3.324328661E0,1.419039965E0,5.363397002E-1
1.942231318E0,3.321274281E0,1.484402537E0,5.283984542E-1
1.944246392E0,3.316387415E0,1.546099901E0,5.161811113E-1
1.946229696E0,3.314554930E0,1.572978020E0,5.106833577E-1
1.948243307E0,3.306002617E0,1.628566742E0,5.021312237E-1
1.950258920E0,3.298061371E0,1.684155464E0,4.929682612E-1
1.952241070E0,3.295618057E0,1.710422635E0,4.899139404E-1
1.954255835E0,3.287676811E0,1.763567924E0,4.801400900E-1
1.956240140E0,3.280346394E0,1.810604572E0,4.764748812E-1
1.958253674E0,3.276070356E0,1.835650086E0,4.740314186E-1
1.960237747E0,3.273015976E0,1.884519339E0,4.709770977E-1
1.962251513E0,3.266296387E0,1.925447226E0,4.673119187E-1
1.964234663E0,3.266907215E0,1.946216702E0,4.654793143E-1
1.966249660E0,3.262631178E0,1.981646895E0,4.660901725E-1
1.968233348E0,3.264463902E0,1.995696783E0,4.667010605E-1
1.970248191E0,3.259577036E0,2.023185730E0,4.667010605E-1
1.972230572E0,3.255300999E0,2.037235498E0,4.703662395E-1
1.974244722E0,3.252246618E0,2.043955088E0,4.728097022E-1
1.976227872E0,3.247359753E0,2.047620296E0,4.770857692E-1
1.978242946E0,3.241250992E0,2.045176744E0,4.844161272E-1
1.980256711E0,3.233309746E0,2.039068222E0,4.850270152E-1
1.982239553E0,3.223536015E0,2.022574902E0,4.960225821E-1
1.984254858E0,3.209486008E0,1.998140216E0,5.057964325E-1
1.986238546E0,3.201544762E0,1.983479500E0,5.131267905E-1
1.988252158E0,3.185662270E0,1.946827531E0,5.229006410E-1
1.990237385E0,3.166725397E0,1.907121301E0,5.375614166E-1
1.992250305E0,3.158784151E0,1.887573600E0,5.448917747E-1
1.994233608E0,3.145345211E0,1.842369556E0,5.571091175E-1
1.996248374E0,3.134960413E0,1.797776461E0,5.717698932E-1
1.998231447E0,3.128851891E0,1.773952723E0,5.784893632E-1
2.000244675E0,3.117856264E0,1.729359508E0,5.919284225E-1
2.002229594E0,3.111136675E0,1.706757545E0,6.004805565E-1
2.004243744E0,3.104417086E0,1.660942554E0,6.078109145E-1
2.006227203E0,3.096475840E0,1.613906026E0,6.151412725E-1
2.008241891E0,3.090978146E0,1.593136549E0,6.181956530E-1
2.010256733E0,3.085480452E0,1.549154282E0,6.218608022E-1
2.012238499E0,3.077539206E0,1.508837104E0,6.206390858E-1
2.014253572E0,3.075095654E0,1.488678575E0,6.212499738E-1
2.016235722E0,3.065932751E0,1.453859329E0,6.169738770E-1
2.018250181E0,3.058602333E0,1.419650793E0,6.096435189E-1
2.020234561E0,3.056769609E0,1.401935697E0,6.072000265E-1
2.022248711E0,3.053715467E0,1.370781660E0,5.986479521E-1
2.024232631E0,3.051271915E0,1.339627504E0,5.833762884E-1
2.026247166E0,3.048217535E0,1.327410221E0,5.784893632E-1
2.028230777E0,3.046995878E0,1.296866894E0,5.681046844E-1
2.030245005E0,3.046385050E0,1.272432327E0,5.583308339E-1
2.032227770E0,3.043941498E0,1.259604096E0,5.552765131E-1
2.034242458E0,3.043330669E0,1.237002134E0,5.448917747E-1
2.036256071E0,3.041497946E0,1.227839112E0,5.393940210E-1
2.038240374E0,3.039665461E0,1.210124016E0,5.351179838E-1
2.040253525E0,3.036000252E0,1.197906733E0,5.283984542E-1
2.042236983E0,3.036611080E0,1.193630695E0,5.247332454E-1
2.044252056E0,3.036000252E0,1.185689449E0,5.204572082E-1
2.046235976E0,3.032945871E0,1.177137375E0,5.192354321E-1
2.048249818E0,3.034778595E0,1.174693823E0,5.204572082E-1
2.050234199E0,3.034778595E0,1.172250390E0,5.198463202E-1
2.052247350E0,3.036000252E0,1.167363524E0,5.198463202E-1
2.054231422E0,3.037832975E0,1.168585181E0,5.180137157E-1
2.056244957E0,3.037832975E0,1.166752577E0,5.210680366E-1
2.058230108E0,3.043330669E0,1.164919972E0,5.241223574E-1
2.060243335E0,3.043330669E0,1.164919972E0,5.253441334E-1
2.062226177E0,3.046995878E0,1.167363524E0,5.271766782E-1
2.064241174E0,3.051271915E0,1.169196129E0,5.283984542E-1
2.066255324E0,3.053104401E0,1.169196129E0,5.283984542E-1
2.068238473E0,3.056158781E0,1.171028733E0,5.302310586E-1
2.070253855E0,3.059823990E0,1.172861218E0,5.338962078E-1
2.072236543E0,3.063489199E0,1.179580808E0,5.345070958E-1
2.074251001E0,3.065932751E0,1.184467673E0,5.338962078E-1
2.076234767E0,3.068376064E0,1.184467673E0,5.363397002E-1
2.078247994E0,3.075706482E0,1.188132882E0,5.357288122E-1
2.080231375E0,3.081815243E0,1.190576315E0,5.351179838E-1
2.082245833E0,3.087312937E0,1.190576315E0,5.357288122E-1
2.084229521E0,3.098919392E0,1.188132882E0,5.320636034E-1
2.086243980E0,3.106860638E0,1.185689449E0,5.271766782E-1
2.088227361E0,3.110525846E0,1.180191636E0,5.259549618E-1
2.090242664E0,3.119077921E0,1.171639562E0,5.210680366E-1
2.092255969E0,3.126408339E0,1.160033107E0,5.167919993E-1
2.094239657E0,3.134349585E0,1.149648428E0,5.131267905E-1
2.096250038E0,3.143512487E0,1.133765936E0,5.076290369E-1
2.098236266E0,3.147788525E0,1.125213742E0,5.051855445E-1
2.100251569E0,3.156951666E0,1.102611780E0,4.990769029E-1
2.102234642E0,3.166725397E0,1.075122833E0,4.923573732E-1
2.104248793E0,3.172834158E0,1.060462117E0,4.886921942E-1
2.106233404E0,3.182607889E0,1.034805775E0,4.831944108E-1
2.108247554E0,3.194214344E0,9.969320893E-1,4.764748812E-1
2.110231859E0,3.197268724E0,9.810495973E-1,4.740314186E-1
2.112244547E0,3.205820799E0,9.431759119E-1,4.679227769E-1
2.114228467E0,3.216816425E0,8.991936445E-1,4.599815309E-1
2.116243925E0,3.223536015E0,8.765916228E-1,4.587597847E-1
2.118226306E0,3.233920574E0,8.271115422E-1,4.532620013E-1
2.120240456E0,3.245527029E0,7.757988572E-1,4.416555762E-1
2.122254914E0,3.249803066E0,7.483099103E-1,4.398229718E-1
2.124238295E0,3.260798693E0,6.890559793E-1,4.312708676E-1
2.126252830E0,3.270572424E0,6.273586154E-1,4.214970171E-1
2.128236441E0,3.276681185E0,5.943718553E-1,4.184426963E-1
2.130251822E0,3.288898468E0,5.259549618E-1,4.043927789E-1
2.132234973E0,3.291342020E0,4.923573732E-1,3.995058835E-1
2.134247584E0,3.303559303E0,4.166100919E-1,3.842342496E-1
2.136230965E0,3.308446169E0,3.396410644E-1,3.714060783E-1
2.138245962E0,3.310278654E0,3.005456924E-1,3.628539443E-1
2.140229419E0,3.317609072E0,2.199114859E-1,3.433062732E-1
2.142243569E0,3.318219900E0,1.423316002E-1,3.274237812E-1
2.144227489E0,3.320052624E0,1.014036313E-1,3.158173263E-1
2.146241639E0,3.321274281E0,2.382374369E-2,2.956587672E-1
2.148255789E0,3.320052624E0,-4.703662544E-2,2.706133127E-1
2.150241017E0,3.314554930E0,-8.124507964E-2,2.602286041E-1
2.152253398E0,3.302948475E0,-1.423316002E-1,2.327396572E-1
2.154236471E0,3.285844088E0,-1.985312104E-1,2.040289938E-1
2.156252467E0,3.279124737E0,-2.278527319E-1,1.887573600E-1
2.158234617E0,3.256522655E0,-2.712241709E-1,1.582140923E-1
2.160248076E0,3.230255365E0,-3.097086847E-1,1.276708394E-1
2.162232380E0,3.216816425E0,-3.243694305E-1,1.130100712E-1
2.164246222E0,3.185051441E0,-3.488040566E-1,7.941248268E-2
2.166230526E0,3.167947054E0,-3.573561609E-1,6.108652428E-2
2.168244676E0,3.137403965E0,-3.695734739E-1,2.748893574E-2
2.170228365E0,3.103195429E0,-3.726277947E-1,-5.497787148E-3
2.172241900E0,3.081815243E0,-3.695734739E-1,-2.382374369E-2
2.174256742E0,3.046385050E0,-3.597996235E-1,-5.497787148E-2
2.176239200E0,3.009732962E0,-3.414736688E-1,-8.552113175E-2
2.178253889E0,2.992628813E0,-3.280346394E-1,-1.007927656E-1
2.180238270E0,2.955976963E0,-2.974913716E-1,-1.288925707E-1
2.182252035E0,2.913216352E0,-2.553416789E-1,-1.557706445E-1
2.184236109E0,2.891836166E0,-2.345722616E-1,-1.667662114E-1
2.186249874E0,2.849686384E0,-1.838704348E-1,-1.881465018E-1
2.188232410E0,2.808147430E0,-1.301143020E-1,-2.064724565E-1
2.190249252E0,2.787378073E0,-1.038470939E-1,-2.138028294E-1
2.192230555E0,2.744617462E0,-4.153883830E-2,-2.309070677E-1
2.194245629E0,2.706743956E0,2.443460934E-2,-2.461786866E-1
2.196229625E0,2.684752703E0,5.436700583E-2,-2.522873580E-1
2.198242852E0,2.647490025E0,1.240056455E-1,-2.632829249E-1
2.200227080E0,2.629774809E0,1.594358236E-1,-2.693915665E-1
2.202241614E0,2.591290474E0,2.321287990E-1,-2.767219543E-1
2.204255380E0,2.550362349E0,3.066543639E-1,-2.803871334E-1
2.206239069E0,2.528982162E0,3.451388776E-1,-2.822197378E-1
2.208253526E0,2.486221552E0,4.190535545E-1,-2.864958048E-1
2.210237599E0,2.437963247E0,4.929682612E-1,-2.877175212E-1
2.212251058E0,2.412917614E0,5.314527750E-1,-2.883284092E-1
2.214234208E0,2.360994101E0,6.017022729E-1,-2.895501256E-1
2.216247742E0,2.308459759E0,6.725626588E-1,-2.901609838E-1
2.218233201E0,2.282803535E0,7.079927921E-1,-2.889392674E-1
2.220247428E0,2.224771261E0,7.709119320E-1,-2.895501256E-1
2.222229194E0,2.163073778E0,8.313875794E-1,-2.926044464E-1
2.224244651E0,2.127643585E0,8.613200188E-1,-2.938261926E-1
2.226228340E0,2.064113617E0,9.138544202E-1,-2.962696552E-1
2.228241875E0,1.987755537E0,9.633345008E-1,-3.011565804E-1
2.230256871E0,1.949881911E0,9.877691269E-1,-3.042109013E-1
2.232241175E0,1.872912884E0,1.031751394E0,-3.084869385E-1
2.234254172E0,1.833817482E0,1.051909924E0,-3.145956099E-1
2.236237783E0,1.753183246E0,1.091616154E0,-3.237585723E-1
2.238251318E0,1.669494748E0,1.126435518E0,-3.323107064E-1
2.240235392E0,1.627955914E0,1.143539786E0,-3.378084898E-1
2.242249772E0,1.543656468E0,1.175304770E0,-3.488040566E-1
2.244233153E0,1.455691934E0,1.207680583E0,-3.591887653E-1
2.246247073E0,1.411098719E0,1.224173903E0,-3.634648323E-1
2.248230454E0,1.324355841E0,1.248608589E0,-3.744603992E-1
2.250246373E0,1.238223910E0,1.274264932E0,-3.830125034E-1
2.252229139E0,1.193630695E0,1.283427835E0,-3.848451078E-1
2.254243058E0,1.108720422E0,1.300532103E0,-3.915646076E-1
2.256225823E0,1.020755768E0,1.310305953E0,-3.952298164E-1
2.258240282E0,9.761626720E-1,1.309695125E0,-3.976732790E-1
2.260254970E0,8.918632865E-1,1.310305953E0,-3.964515328E-1
2.262238659E0,8.454375267E-1,1.305419087E0,-3.970624208E-1
2.264252501E0,7.605272532E-1,1.291980028E0,-3.940080702E-1
2.266235959E0,6.701191664E-1,1.271210551E0,-3.915646076E-1
2.268250418E0,6.267477274E-1,1.257771492E0,-3.885102868E-1
2.270234952E0,5.357288122E-1,1.222952247E0,-3.854559660E-1
2.272248486E0,4.483750761E-1,1.185078621E0,-3.830125034E-1
2.274231945E0,4.031710625E-1,1.163087368E0,-3.836233616E-1
2.276247249E0,3.182607889E-1,1.117272496E0,-3.824016452E-1
2.278230322E0,2.382374406E-1,1.067792416E0,-3.817907870E-1
2.280244165E0,1.973094791E-1,1.042747021E0,-3.799581826E-1
2.282227545E0,1.203404516E-1,9.896016717E-1,-3.787364662E-1
2.284241080E0,4.581489414E-2,9.407324791E-1,-3.836233616E-1
2.286256231E0,1.038470957E-2,9.150761366E-1,-3.824016452E-1
2.288239534E0,-5.436700583E-2,8.668177724E-1,-3.866777122E-1
2.290254377E0,-1.148426682E-1,8.222246170E-1,-3.891211748E-1
2.292237758E0,-1.423316002E-1,8.008443117E-1,-3.921754956E-1
2.294250985E0,-1.979203373E-1,7.605272532E-1,-3.958406746E-1
2.296234981E0,-2.247984111E-1,7.440338731E-1,-4.001167417E-1
2.298249440E0,-2.718350291E-1,7.116580009E-1,-4.074471295E-1
2.300232743E0,-3.176499307E-1,6.817256212E-1,-4.147774875E-1
2.302246586E0,-3.371976018E-1,6.670648456E-1,-4.190535545E-1
2.304230890E0,-3.781255782E-1,6.432411075E-1,-4.239404798E-1
2.306245425E0,-4.172209501E-1,6.236934066E-1,-4.318817258E-1
2.308227883E0,-4.361577928E-1,6.133087277E-1,-4.331034720E-1
2.310243879E0,-4.752531648E-1,5.968153477E-1,-4.404338300E-1
2.312226567E0,-5.119050741E-1,5.827654600E-1,-4.434881806E-1
2.314240718E0,-5.314527750E-1,5.754350424E-1,-4.434881806E-1
2.316254945E0,-5.699372888E-1,5.632177591E-1,-4.502076805E-1
2.318237941E0,-6.072000265E-1,5.503895879E-1,-4.495968223E-1
2.320252092E0,-6.218608022E-1,5.436700583E-1,-4.514294267E-1
2.322235780E0,-6.572909951E-1,5.296201706E-1,-4.520402849E-1
2.324250315E0,-6.933320761E-1,5.174028873E-1,-4.495968223E-1
2.326234004E0,-7.092145681E-1,5.094616413E-1,-4.465425014E-1
2.328247538E0,-7.397578359E-1,4.911356568E-1,-4.422664344E-1
2.330232996E0,-7.544185519E-1,4.838052690E-1,-4.428772926E-1
2.332245685E0,-7.837401032E-1,4.642575979E-1,-4.392121136E-1
2.334229681E0,-8.118399382E-1,4.434881806E-1,-4.324925840E-1
2.336243523E0,-8.246681094E-1,4.331034720E-1,-4.269948006E-1
2.338226520E0,-8.497135639E-1,4.062253833E-1,-4.190535545E-1
2.340241286E0,-8.698720932E-1,3.781255782E-1,-4.135557711E-1
2.342255437E0,-8.833111525E-1,3.634648323E-1,-4.086688459E-1
2.344239202E0,-9.046914577E-1,3.274237812E-1,-3.988949955E-1
2.346252967E0,-9.266825914E-1,2.889392674E-1,-3.903428912E-1
2.348237349E0,-9.413433671E-1,2.718350291E-1,-3.860668242E-1
2.350252114E0,-9.621127844E-1,2.247984111E-1,-3.787364662E-1
2.352234495E0,-9.847147465E-1,1.765400618E-1,-3.665191531E-1
2.354248415E0,-9.963212013E-1,1.514945775E-1,-3.622430861E-1
2.356233334E0,-1.015258074E0,9.529497474E-2,-3.524692357E-1
2.358245868E0,-1.037249207E0,3.359758854E-2,-3.433062732E-1
2.360230173E0,-1.048244715E0,3.054326167E-3,-3.365867436E-1
2.362244323E0,-1.064127207E0,-6.536258012E-2,-3.280346394E-1
2.364227780E0,-1.075733662E0,-1.014036313E-1,-3.237585723E-1
2.366242470E0,-1.093448758E0,-1.740965992E-1,-3.139847219E-1
2.368256619E0,-1.108109593E0,-2.565633953E-1,-3.066543639E-1
2.370240308E0,-1.117883444E0,-2.974913716E-1,-3.005456924E-1
2.372254459E0,-1.134376764E0,-3.836233616E-1,-2.895501256E-1
2.374237839E0,-1.150259256E0,-4.740314186E-1,-2.852740586E-1
2.376251989E0,-1.156978726E0,-5.204572082E-1,-2.828305960E-1
2.378236601E0,-1.171639562E0,-6.114761233E-1,-2.779437006E-1
2.380251059E0,-1.186911225E0,-7.049384713E-1,-2.706133127E-1
2.382232671E0,-1.195463300E0,-7.525860071E-1,-2.687807083E-1
2.384247129E0,-1.210124016E0,-8.442157507E-1,-2.700024247E-1
2.386231048E0,-1.223563075E0,-9.303477407E-1,-2.681698501E-1
2.388245814E0,-1.230282545E0,-9.743300676E-1,-2.687807083E-1
2.390230426E0,-1.247386813E0,-1.053131700E0,-2.706133127E-1
2.392243345E0,-1.253495455E0,-1.095281363E0,-2.730567753E-1
2.394227034E0,-1.266323686E0,-1.170417786E0,-2.797762752E-1
2.396241568E0,-1.279762745E0,-1.234558702E0,-2.858849466E-1
2.398254795E0,-1.284649611E0,-1.268767118E0,-2.895501256E-1
2.400238715E0,-1.298088670E0,-1.326799273E0,-2.962696552E-1
2.402253173E0,-1.316414595E0,-1.373835921E0,-3.060434759E-1
2.404236630E0,-1.320690632E0,-1.399492264E0,-3.103195429E-1
2.406250474E0,-1.335351467E0,-1.438587666E0,-3.207042515E-1
2.408234393E0,-1.354899168E0,-1.466076612E0,-3.298672438E-1
2.410249235E0,-1.361618638E0,-1.480737329E0,-3.347541690E-1
2.412232232E0,-1.381166339E0,-1.496619821E0,-3.469714522E-1
2.414245536E0,-1.400103092E0,-1.506393671E0,-3.591887653E-1
2.416229456E0,-1.410487890E0,-1.509448051E0,-3.640756905E-1
2.418244221E0,-1.430646420E0,-1.505782843E0,-3.762930036E-1
2.420227678E0,-1.452026725E0,-1.496008992E0,-3.909537494E-1
2.422242137E0,-1.461800575E0,-1.486845970E0,-3.952298164E-1
2.424255979E0,-1.483180761E0,-1.471574426E0,-4.080579877E-1
2.426239360E0,-1.491732955E0,-1.456913590E0,-4.147774875E-1
2.428254357E0,-1.510058880E0,-1.429424644E0,-4.269948006E-1
2.430237814E0,-1.531439185E0,-1.394605398E0,-4.361577928E-1
2.432251964E0,-1.536326051E0,-1.376890302E0,-4.422664344E-1
2.434235038E0,-1.554041147E0,-1.338405728E0,-4.483750761E-1
2.436250726E0,-1.569312811E0,-1.296256065E0,-4.557054639E-1
2.438232261E0,-1.577254057E0,-1.273043156E0,-4.587597847E-1
2.440247027E0,-1.588860512E0,-1.230893493E0,-4.599815309E-1
2.442230946E0,-1.604132175E0,-1.186300278E0,-4.636467099E-1
2.444244865E0,-1.607186437E0,-1.166752577E0,-4.654793143E-1
2.446228555E0,-1.616960287E0,-1.128878951E0,-4.660901725E-1
2.448242935E0,-1.624290705E0,-1.089783549E0,-4.679227769E-1
2.450226624E0,-1.625512362E0,-1.071457624E0,-4.679227769E-1
2.452240544E0,-1.633453608E0,-1.034805775E0,-4.685336351E-1
2.454254078E0,-1.637118816E0,-1.006705880E0,-4.697553813E-1
2.456237383E0,-1.637729764E0,-9.926560521E-1,-4.703662395E-1
2.458253379E0,-1.638340592E0,-9.682214260E-1,-4.721988440E-1
2.460237067E0,-1.636507988E0,-9.578366876E-1,-4.728097022E-1
2.462249372E0,-1.636507988E0,-9.370672703E-1,-4.758640230E-1
2.464234675E0,-1.635286212E0,-9.193521738E-1,-4.819726646E-1
2.466248748E0,-1.632842779E0,-9.108000994E-1,-4.807509482E-1
2.468231591E0,-1.628566742E0,-9.004153609E-1,-4.838052690E-1
2.470246895E0,-1.621847272E0,-8.881980777E-1,-4.874704778E-1
2.472230276E0,-1.617571115E0,-8.851437569E-1,-4.880813360E-1
2.474243581E0,-1.609019041E0,-8.772025108E-1,-4.929682612E-1
2.476227807E0,-1.600466967E0,-8.692612648E-1,-4.935791194E-1
2.478241649E0,-1.593136549E0,-8.692612648E-1,-4.941899776E-1
2.480255800E0,-1.582751870E0,-8.649851680E-1,-4.960225821E-1
2.482239489E0,-1.571145415E0,-8.631525636E-1,-4.972442985E-1
2.484253023E0,-1.567480206E0,-8.600982428E-1,-4.972442985E-1
2.486237328E0,-1.560760736E0,-8.558222055E-1,-4.984660447E-1
2.488251247E0,-1.555262923E0,-8.527678847E-1,-4.954117239E-1
2.490235552E0,-1.557706356E0,-8.478809595E-1,-4.954117239E-1
2.492248701E0,-1.555262923E0,-8.417723179E-1,-4.972442985E-1
2.494232774E0,-1.552208543E0,-8.393288255E-1,-4.929682612E-1
2.496243156E0,-1.550986886E0,-8.289441466E-1,-4.917465150E-1
2.498229998E0,-1.549765110E0,-8.173376918E-1,-4.917465150E-1
2.500244763E0,-1.549154282E0,-8.142833710E-1,-4.905247986E-1
2.502228453E0,-1.550986886E0,-8.026769161E-1,-4.874704778E-1
2.504242910E0,-1.550986886E0,-7.904596329E-1,-4.856378734E-1
2.506226214E0,-1.552208543E0,-7.849618196E-1,-4.862487316E-1
2.508240365E0,-1.551597714E0,-7.745771408E-1,-4.825835526E-1
2.510254822E0,-1.554652095E0,-7.654141784E-1,-4.789183438E-1
2.512238511E0,-1.556484699E0,-7.586946487E-1,-4.776966274E-1
2.514252046E0,-1.559538960E0,-7.476990819E-1,-4.764748812E-1
2.516236657E0,-1.560760736E0,-7.403686643E-1,-4.728097022E-1
2.518250577E0,-1.564425945E0,-7.354817390E-1,-4.679227769E-1
2.520233574E0,-1.565036774E0,-7.275404930E-1,-4.624249935E-1
2.522247723E0,-1.565036774E0,-7.195992470E-1,-4.624249935E-1
2.524231413E0,-1.565036774E0,-7.165449262E-1,-4.587597847E-1
2.526245947E0,-1.566258430E0,-7.079927921E-1,-4.514294267E-1
2.528228943E0,-1.565647602E0,-7.073819637E-1,-4.502076805E-1
2.530244402E0,-1.560760736E0,-7.012733221E-1,-4.453207552E-1
2.532227475E0,-1.559538960E0,-6.939429045E-1,-4.398229718E-1
2.534242163E0,-1.557095528E0,-6.963863969E-1,-4.367686510E-1
2.536254468E0,-1.549765110E0,-6.939429045E-1,-4.282165468E-1
2.538239694E0,-1.541213036E0,-7.006624341E-1,-4.251621962E-1
2.540252998E0,-1.535104394E0,-7.049384713E-1,-4.221078753E-1
2.542236072E0,-1.522887111E0,-7.183775306E-1,-4.172209501E-1
2.544252068E0,-1.511891484E0,-7.434229851E-1,-4.135557711E-1
2.546235756E0,-1.507004619E0,-7.556403279E-1,-4.105014503E-1
2.548249215E0,-1.494176388E0,-7.886270285E-1,-4.068362415E-1
2.550234134E0,-1.482569933E0,-8.307767510E-1,-4.019493461E-1
2.552246822E0,-1.475850463E0,-8.509352803E-1,-4.001167417E-1
2.554230512E0,-1.465465665E0,-8.979719281E-1,-3.988949955E-1
2.556244969E0,-1.460578799E0,-9.254608750E-1,-3.976732790E-1
2.558227965E0,-1.451415777E0,-9.749409556E-1,-3.964515328E-1
2.560242424E0,-1.444085479E0,-1.024420977E0,-3.946189582E-1
2.562225266E0,-1.439198494E0,-1.049466491E0,-3.940080702E-1
2.564240032E0,-1.433700681E0,-1.094670534E0,-3.921754956E-1
2.566254413E0,-1.420872569E0,-1.137431145E0,-3.891211748E-1
2.568237255E0,-1.413542151E0,-1.158200502E0,-3.836233616E-1
2.570252944E0,-1.405600905E0,-1.193630695E0,-3.824016452E-1
2.572235633E0,-1.395216227E0,-1.227228284E0,-3.799581826E-1
2.574249552E0,-1.391551018E0,-1.237612963E0,-3.793473244E-1
2.576232626E0,-1.382998943E0,-1.263269305E0,-3.738495409E-1
2.578246775E0,-1.375057697E0,-1.282817006E0,-3.683517575E-1
2.580231002E0,-1.374446750E0,-1.292590857E0,-3.665191531E-1
2.582245538E0,-1.366505504E0,-1.307251573E0,-3.634648323E-1
2.584229149E0,-1.359175205E0,-1.320079803E0,-3.585779071E-1
2.586242991E0,-1.361007810E0,-1.323745012E0,-3.561344445E-1
2.588227065E0,-1.355509996E0,-1.333518863E0,-3.530801237E-1
2.590241830E0,-1.353066564E0,-1.336573124E0,-3.494149148E-1
2.592255365E0,-1.347568750E0,-1.340849161E0,-3.463605940E-1
2.594238054E0,-1.345125318E0,-1.339627504E0,-3.402519524E-1
2.596253512E0,-1.346957922E0,-1.339016676E0,-3.396410644E-1
2.598235969E0,-1.345736146E0,-1.331686258E0,-3.341432810E-1
2.600250659E0,-1.343903542E0,-1.323134065E0,-3.280346394E-1
2.602233808E0,-1.345736146E0,-1.317636371E0,-3.262020350E-1
2.604249421E0,-1.346346974E0,-1.302975535E0,-3.200933933E-1
2.606231648E0,-1.349401355E0,-1.282817006E0,-3.145956099E-1
2.608245797E0,-1.348790407E0,-1.273653984E0,-3.097086847E-1
2.610230410E0,-1.348790407E0,-1.252273798E0,-3.036000133E-1
2.612244175E0,-1.348790407E0,-1.232115149E0,-2.950479090E-1
2.614227556E0,-1.348179579E0,-1.221730471E0,-2.932153046E-1
2.616242014E0,-1.348179579E0,-1.196074128E0,-2.858849466E-1
2.618257395E0,-1.347568750E0,-1.173472166E0,-2.767219543E-1
2.620240468E0,-1.346957922E0,-1.163698316E0,-2.730567753E-1
2.622253388E0,-1.342070937E0,-1.142928839E0,-2.663372457E-1
2.624237153E0,-1.337794900E0,-1.133154988E0,-2.608394623E-1
2.626251534E0,-1.333518863E0,-1.120326877E0,-2.528982162E-1
2.628235223E0,-1.329242826E0,-1.108109593E0,-2.412917763E-1
2.630250373E0,-1.326188445E0,-1.102611780E0,-2.388483137E-1
2.632233369E0,-1.318858027E0,-1.096503139E0,-2.296853364E-1
2.634246981E0,-1.313360333E0,-1.093448758E0,-2.217440903E-1
2.636231208E0,-1.308473349E0,-1.094059706E0,-2.168571651E-1
2.638244819E0,-1.304197311E0,-1.090394497E0,-2.070833147E-1
2.640227816E0,-1.299921274E0,-1.091616154E0,-2.009746730E-1
2.642242351E0,-1.296866894E0,-1.095892191E0,-1.979203373E-1
2.644226271E0,-1.291980028E0,-1.097113967E0,-1.924225539E-1
2.646240728E0,-1.284038782E0,-1.105666041E0,-1.857030392E-1
2.648254878E0,-1.282206178E0,-1.107498646E0,-1.826487035E-1
2.650238875E0,-1.274264932E0,-1.115439892E0,-1.771509200E-1
2.652252102E0,-1.266934514E0,-1.127046347E0,-1.728748679E-1
2.654235790E0,-1.263269305E0,-1.133765936E0,-1.728748679E-1
2.656250249E0,-1.256549835E0,-1.147204876E0,-1.698205322E-1
2.658233937E0,-1.254106402E0,-1.156978726E0,-1.692096740E-1
2.660248472E0,-1.246775985E0,-1.177137375E0,-1.679879427E-1
2.662231776E0,-1.241278172E0,-1.198517561E0,-1.704314053E-1
2.664245696E0,-1.238223910E0,-1.209513187E0,-1.704314053E-1
2.666229615E0,-1.232115149E0,-1.233336926E0,-1.740965992E-1
2.668243842E0,-1.230893493E0,-1.257160664E0,-1.734857261E-1
2.670228761E0,-1.226006508E0,-1.267545342E0,-1.777617931E-1
2.672240450E0,-1.217454433E0,-1.292590857E0,-1.802052408E-1
2.674255139E0,-1.214400053E0,-1.315192819E0,-1.850921661E-1
2.676239443E0,-1.212567568E0,-1.324355841E0,-1.869247705E-1
2.678253285E0,-1.208902359E0,-1.346346974E0,-1.857030392E-1
2.680237590E0,-1.205237150E0,-1.365283847E0,-1.924225539E-1
2.682250893E0,-1.204015374E0,-1.374446750E0,-1.924225539E-1
2.684235121E0,-1.201571941E0,-1.394605398E0,-1.954768747E-1
2.686249040E0,-1.201571941E0,-1.405600905E0,-1.973094791E-1
2.688233344E0,-1.201571941E0,-1.422705173E0,-1.985312104E-1
2.690246879E0,-1.198517561E0,-1.437976837E0,-1.991420686E-1
2.692230183E0,-1.193630695E0,-1.446528912E0,-1.979203373E-1
2.694244410E0,-1.194241524E0,-1.459967971E0,-1.960877478E-1
2.696228099E0,-1.189965487E0,-1.477072120E0,-1.997529417E-1
2.698243711E0,-1.189354658E0,-1.483180761E0,-1.985312104E-1
2.700226168E0,-1.185078621E0,-1.493565559E0,-1.973094791E-1
2.702239165E0,-1.186300278E0,-1.503339410E0,-1.979203373E-1
2.704254546E0,-1.185689449E0,-1.508226275E0,-1.948660165E-1
2.706238234E0,-1.189354658E0,-1.513113260E0,-1.936442852E-1
2.708252308E0,-1.193019867E0,-1.517389297E0,-1.881465018E-1
2.710236996E0,-1.195463300E0,-1.514945865E0,-1.881465018E-1
2.712250146E0,-1.199128509E0,-1.513113260E0,-1.844813079E-1
2.714234143E0,-1.202793717E0,-1.507004619E0,-1.795943826E-1
2.716248370E0,-1.207069755E0,-1.499063253E0,-1.795943826E-1
2.718231751E0,-1.213789225E0,-1.484402537E0,-1.783726513E-1
2.720245209E0,-1.216232657E0,-1.476461291E0,-1.765400618E-1
2.722228590E0,-1.224784851E0,-1.454470158E0,-1.747074574E-1
2.724243433E0,-1.233947754E0,-1.428202987E0,-1.753183305E-1
2.726227429E0,-1.238223910E0,-1.411709547E0,-1.759291887E-1
2.728240886E0,-1.246775985E0,-1.376279354E0,-1.783726513E-1
2.730255653E0,-1.255328059E0,-1.340238333E0,-1.771509200E-1
2.732238726E0,-1.262658477E0,-1.322523236E0,-1.795943826E-1
2.734252568E0,-1.271210551E0,-1.282206178E0,-1.820378453E-1
2.736236257E0,-1.279762745E0,-1.243721604E0,-1.869247705E-1
2.738250099E0,-1.284038782E0,-1.224784851E0,-1.899790913E-1
2.740235018E0,-1.295034289E0,-1.188132882E0,-1.966986060E-1
2.742248246E0,-1.305419087E0,-1.147815824E0,-2.052507252E-1
2.744232011E0,-1.312749386E0,-1.130100727E0,-2.095267773E-1
2.746246776E0,-1.320079803E0,-1.093448758E0,-2.186897546E-1
2.748230081E0,-1.328021049E0,-1.061683774E0,-2.272418737E-1
2.750245462E0,-1.331075311E0,-1.043357849E0,-2.333505303E-1
2.752227920E0,-1.336573124E0,-1.017090678E0,-2.419026345E-1
2.754242147E0,-1.337184072E0,-1.004262447E0,-2.461786866E-1
2.756226066E0,-1.334740520E0,-9.847147465E-1,-2.535090744E-1
2.758239602E0,-1.331686258E0,-9.700540304E-1,-2.596177161E-1
2.760254675E0,-1.329242826E0,-9.633345008E-1,-2.638937831E-1
2.762237748E0,-1.320690632E0,-9.590584636E-1,-2.675589919E-1
2.764251668E0,-1.313971162E0,-9.590584636E-1,-2.712241709E-1
2.766234971E0,-1.310305953E0,-9.657779336E-1,-2.712241709E-1
2.768249506E0,-1.302364707E0,-9.773843884E-1,-2.712241709E-1
2.770233503E0,-1.293201685E0,-9.963212013E-1,-2.687807083E-1
2.772247345E0,-1.287703991E0,-1.010371089E0,-2.657263875E-1
2.774231264E0,-1.280373573E0,-1.039692640E0,-2.590068579E-1
2.776244799E0,-1.275486588E0,-1.075733662E0,-2.498438805E-1
2.778229488E0,-1.269988894E0,-1.095281363E0,-2.443460971E-1
2.780242945E0,-1.262658477E0,-1.137431145E0,-2.321287990E-1
2.782225788E0,-1.257160664E0,-1.179580808E0,-2.254092693E-1
2.784241092E0,-1.255328059E0,-1.203404546E0,-2.144137025E-1
2.786255627E0,-1.248608589E0,-1.247386813E0,-2.015855312E-1
2.788238624E0,-1.245554209E0,-1.268156290E0,-1.936442852E-1
2.790253466E0,-1.241278172E0,-1.305419087E0,-1.832595766E-1
2.792236847E0,-1.241278172E0,-1.336573124E0,-1.747074574E-1
2.794249690E0,-1.240667343E0,-1.351233959E0,-1.692096740E-1
2.796234070E0,-1.240667343E0,-1.378111959E0,-1.594358236E-1
2.798248529E0,-1.241278172E0,-1.394605398E0,-1.557706445E-1
2.800232448E0,-1.241889000E0,-1.402546644E0,-1.545489132E-1
2.802245982E0,-1.241278172E0,-1.411709547E0,-1.508837193E-1
2.804230287E0,-1.242499948E0,-1.411098719E0,-1.521054506E-1
2.806243821E0,-1.241278172E0,-1.411098719E0,-1.527163088E-1
2.808227510E0,-1.244943380E0,-1.401324868E0,-1.576032341E-1
2.810242353E0,-1.247997642E0,-1.387274981E0,-1.643227488E-1
2.812225964E0,-1.249830246E0,-1.378722906E0,-1.685988009E-1
2.814239499E0,-1.255328059E0,-1.356120825E0,-1.789835095E-1
2.816253727E0,-1.262047648E0,-1.330464482E0,-1.875356287E-1
2.818236415E0,-1.267545342E0,-1.315803766E0,-1.930334121E-1
2.820251795E0,-1.271210551E0,-1.289536476E0,-2.052507252E-1
2.822235177E0,-1.277319193E0,-1.272432327E0,-2.095267773E-1
2.824249327E0,-1.286482215E0,-1.238223910E0,-2.186897546E-1
2.826233016E0,-1.295034289E0,-1.208291411E0,-2.278527319E-1
2.828247782E0,-1.301753879E0,-1.192408919E0,-2.315179259E-1
2.830231162E0,-1.307251573E0,-1.159422278E0,-2.400700450E-1
2.832245082E0,-1.318858027E0,-1.128268123E0,-2.449569702E-1
2.834228463E0,-1.324355841E0,-1.113607287E0,-2.467895597E-1
2.836243228E0,-1.337184072E0,-1.086118460E0,-2.510656118E-1
2.838226302E0,-1.343903542E0,-1.061072946E0,-2.504547536E-1
2.840240375E0,-1.347568750E0,-1.050688267E0,-2.474004179E-1
2.842253986E0,-1.359175205E0,-1.037249207E0,-2.425135076E-1
2.844238214E0,-1.367727280E0,-1.025031924E0,-2.394591719E-1
2.846252441E0,-1.371392488E0,-1.019534111E0,-2.327396572E-1
2.848236129E0,-1.376890302E0,-1.017701507E0,-2.241875380E-1
2.850250588E0,-1.379944563E0,-1.018923283E0,-2.193006277E-1
2.852233661E0,-1.382998943E0,-1.021366715E0,-2.083050460E-1
2.854247503E0,-1.386664152E0,-1.029918790E0,-1.960877478E-1
2.856230884E0,-1.389718413E0,-1.032973170E0,-1.881465018E-1
2.858245957E0,-1.391551018E0,-1.045190454E0,-1.759291887E-1
2.860230261E0,-1.388496757E0,-1.062905550E0,-1.631010175E-1
2.862242797E0,-1.390940189E0,-1.072068453E0,-1.588249654E-1
2.864226869E0,-1.386664152E0,-1.089783549E0,-1.472185254E-1
2.866241636E0,-1.384220600E0,-1.114218235E0,-1.374446750E-1
2.868224939E0,-1.386053205E0,-1.127046347E0,-1.337794960E-1
2.870239474E0,-1.383609772E0,-1.155146122E0,-1.252273768E-1
2.872252932E0,-1.384220600E0,-1.182024240E0,-1.209513173E-1
2.874237236E0,-1.384220600E0,-1.197295904E0,-1.191187203E-1
2.876251771E0,-1.384831548E0,-1.229671717E0,-1.160643995E-1
2.878234768E0,-1.388496757E0,-1.258993268E0,-1.160643995E-1
2.880248302E0,-1.388496757E0,-1.275486588E0,-1.166752651E-1
2.882232606E0,-1.389718413E0,-1.304197311E0,-1.172861308E-1
2.884247141E0,-1.391551018E0,-1.316414595E0,-1.166752651E-1
2.886230522E0,-1.389718413E0,-1.341460109E0,-1.215621829E-1
2.888243979E0,-1.390329242E0,-1.364062071E0,-1.240056455E-1
2.890228669E0,-1.387274981E0,-1.375057697E0,-1.276708394E-1
2.892242126E0,-1.378111959E0,-1.393383622E0,-1.276708394E-1
2.894226122E0,-1.374446750E0,-1.409266114E0,-1.362229437E-1
2.896239658E0,-1.368949056E0,-1.419039965E0,-1.362229437E-1
2.898253500E0,-1.356731653E0,-1.430646420E0,-1.386664063E-1
2.900237804E0,-1.348179579E0,-1.438587666E0,-1.411098689E-1
2.902252031E0,-1.346346974E0,-1.444085479E0,-1.435533315E-1
2.904236027E0,-1.337794900E0,-1.452637553E0,-1.472185254E-1
2.906249870E0,-1.329242826E0,-1.455080986E0,-1.429424733E-1
2.908233866E0,-1.324355841E0,-1.458746195E0,-1.466076523E-1
2.910248939E0,-1.319468975E0,-1.460578799E0,-1.447750628E-1
2.912231013E0,-1.310305953E0,-1.459967971E0,-1.411098689E-1
2.914244625E0,-1.304808140E0,-1.459357023E0,-1.392772794E-1
2.916229775E0,-1.301142931E0,-1.458746195E0,-1.313360333E-1
2.918243310E0,-1.296866894E0,-1.455691934E0,-1.264491081E-1
2.920226998E0,-1.294423461E0,-1.453859329E0,-1.191187203E-1
2.922240841E0,-1.294423461E0,-1.453859329E0,-1.099557430E-1
2.924255068E0,-1.291980028E0,-1.450804949E0,-1.032362282E-1
2.926239295E0,-1.293812633E0,-1.445307136E0,-9.162978828E-2
2.928252291E0,-1.296866894E0,-1.440420270E0,-7.880161703E-2
2.930236827E0,-1.298699498E0,-1.436144233E0,-7.147123665E-2
2.932251053E0,-1.306640744E0,-1.430035591E0,-5.864306539E-2
2.934234049E0,-1.315803766E0,-1.421483397E0,-4.520402849E-2
2.936248277E0,-1.322523236E0,-1.415985584E0,-3.726277873E-2
2.938232812E0,-1.334740520E0,-1.400103092E0,-2.443460934E-2
2.940247038E0,-1.352455616E0,-1.380555511E0,-1.160643995E-2
2.942229189E0,-1.362229466E0,-1.370170712E0,-4.276056774E-3
2.944243954E0,-1.382387996E0,-1.342681766E0,6.108652335E-3
2.946227644E0,-1.397659659E0,-1.324355841E0,1.160643995E-2
2.948242409E0,-1.422094345E0,-1.290147424E0,2.138028294E-2
2.950226328E0,-1.454470158E0,-1.246775985E0,2.809980139E-2
2.952239940E0,-1.470352650E0,-1.221119642E0,3.054326214E-2
2.954254090E0,-1.502728462E0,-1.167363524E0,3.420845419E-2
2.956238009E0,-1.535104394E0,-1.109942198E0,3.481931984E-2
2.958251545E0,-1.549765110E0,-1.078788042E0,3.665191308E-2
2.960235310E0,-1.580308437E0,-1.015258074E0,3.237585723E-2
2.962249075E0,-1.609019041E0,-9.523389339E-1,2.932153270E-2
2.964233072E0,-1.621236324E0,-9.205739498E-1,2.382374369E-2
2.966247914E0,-1.645060062E0,-8.576548100E-1,1.099557430E-2
2.968231218E0,-1.663996935E0,-7.977899909E-1,-1.832595794E-3
2.970246061E0,-1.674381614E0,-7.678576112E-1,-1.221730467E-2
2.972228442E0,-1.696372747E0,-7.116580009E-1,-2.687807009E-2
2.974242669E0,-1.714087844E0,-6.652322412E-1,-4.825835302E-2
2.976225666E0,-1.720196486E0,-6.426302195E-1,-5.803219974E-2
2.978239892E0,-1.734857321E0,-6.004805565E-1,-8.002334833E-2
2.980254965E0,-1.744020224E0,-5.619960427E-1,-9.346238524E-2
2.982238885E0,-1.755626678E0,-5.473352671E-1,-1.185078546E-1
2.984251881E0,-1.767233133E0,-5.186246037E-1,-1.404990107E-1
2.986236186E0,-1.772730947E0,-5.033529401E-1,-1.527163088E-1
2.988250567E0,-1.782504797E0,-4.831944108E-1,-1.759291887E-1
2.990234871E0,-1.793500304E0,-4.636467099E-1,-1.991420686E-1
2.992247868E0,-1.795943856E0,-4.544837475E-1,-2.113593817E-1
2.994231248E0,-1.804495931E0,-4.416555762E-1,-2.327396572E-1
2.996246860E0,-1.811826348E0,-4.251621962E-1,-2.504547536E-1
2.998230549E0,-1.814269781E0,-4.190535545E-1,-2.577851415E-1
3.000243853E0,-1.817324162E0,-4.050036669E-1,-2.712241709E-1
3.002227156E0,-1.816102386E0,-3.909537494E-1,-2.791654170E-1
3.004241692E0,-1.814269781E0,-3.830125034E-1,-2.846632004E-1
3.006225688E0,-1.809382915E0,-3.714060783E-1,-2.883284092E-1
3.008239530E0,-1.800830722E0,-3.567453027E-1,-2.919935882E-1
3.010254527E0,-1.797776461E0,-3.494149148E-1,-2.919935882E-1
3.012236677E0,-1.783115625E0,-3.347541690E-1,-2.895501256E-1
3.014251211E0,-1.776396155E0,-3.237585723E-1,-2.858849466E-1
3.016234285E0,-1.759902716E0,-3.158173263E-1,-2.803871334E-1
3.018249358E0,-1.736078978E0,-3.084869385E-1,-2.736676335E-1
3.020232740E0,-1.726305127E0,-3.048217595E-1,-2.693915665E-1
3.022246505E0,-1.701870561E0,-3.005456924E-1,-2.614503205E-1
3.024231116E0,-1.679268599E0,-3.005456924E-1,-2.516764700E-1
3.026244729E0,-1.667051196E0,-3.023782969E-1,-2.474004179E-1
3.028228109E0,-1.643838406E0,-3.042109013E-1,-2.382374406E-1
3.030243182E0,-1.626123309E0,-3.103195429E-1,-2.290744632E-1
3.032226487E0,-1.615127683E0,-3.145956099E-1,-2.254092693E-1
3.034240406E0,-1.598634362E0,-3.207042515E-1,-2.156354338E-1
3.036255171E0,-1.581530094E0,-3.280346394E-1,-2.058615834E-1
3.038238245E0,-1.573588848E0,-3.316998184E-1,-2.040289938E-1
3.040251780E0,-1.556484699E0,-3.420845270E-1,-1.954768747E-1
3.042236314E0,-1.541823864E0,-3.494149148E-1,-1.893682331E-1
3.044249850E0,-1.534493446E0,-3.549126983E-1,-1.844813079E-1
3.046234461E0,-1.518610954E0,-3.646865487E-1,-1.783726513E-1
3.048248688E0,-1.511280656E0,-3.720169365E-1,-1.747074574E-1
3.050232069E0,-1.496008992E0,-3.878994286E-1,-1.710422635E-1
3.052245527E0,-1.477072120E0,-4.056145251E-1,-1.631010175E-1
3.054229293E0,-1.469130874E0,-4.153883755E-1,-1.606575549E-1
3.056242443E0,-1.452026725E0,-4.379903674E-1,-1.557706445E-1
3.058227131E0,-1.436144233E0,-4.612032473E-1,-1.521054506E-1
3.060241513E0,-1.431868076E0,-4.740314186E-1,-1.484402567E-1
3.062225201E0,-1.420261741E0,-5.009095073E-1,-1.411098689E-1
3.064239351E0,-1.411709547E0,-5.338962078E-1,-1.350012124E-1
3.066253194E0,-1.407433510E0,-5.491678715E-1,-1.337794960E-1
3.068237267E0,-1.397659659E0,-5.815436840E-1,-1.246165112E-1
3.070251955E0,-1.388496757E0,-6.163630486E-1,-1.185078546E-1
3.072234799E0,-1.381166339E0,-6.328563690E-1,-1.136209369E-1
3.074248025E0,-1.366505504E0,-6.713408828E-1,-1.081231460E-1
3.076232637E0,-1.353677392E0,-7.116580009E-1,-1.032362282E-1
3.078246711E0,-1.344514370E0,-7.360926270E-1,-1.020144969E-1
3.080230399E0,-1.331686258E0,-7.800748944E-1,-9.407325089E-2
3.082244010E0,-1.324966669E0,-8.038986921E-1,-9.224065393E-2
3.084227623E0,-1.309084177E0,-8.539896011E-1,-9.101892263E-2
3.086242388E0,-1.294423461E0,-9.053022861E-1,-8.796459436E-2
3.088226154E0,-1.287093043E0,-9.315695167E-1,-8.491026610E-2
3.090240535E0,-1.274264932E0,-9.859365225E-1,-8.307767659E-2
3.092254146E0,-1.265101910E0,-1.033583999E0,-8.002334833E-2
3.094237220E0,-1.260825872E0,-1.061072946E0,-8.124507964E-2
3.096251293E0,-1.252884626E0,-1.106887817E0,-7.880161703E-2
3.098236212E0,-1.243110776E0,-1.145983219E0,-7.880161703E-2
3.100250440E0,-1.240667343E0,-1.164919972E0,-7.513642311E-2
3.102232513E0,-1.236391306E0,-1.196074128E0,-7.819075137E-2
3.104247278E0,-1.232726097E0,-1.217454433E0,-7.880161703E-2
3.106231275E0,-1.230282545E0,-1.222952247E0,-7.635815442E-2
3.108245194E0,-1.224784851E0,-1.231504321E0,-7.757988572E-2
3.110230344E0,-1.221730471E0,-1.230893493E0,-8.002334833E-2
3.112242726E0,-1.214400053E0,-1.222952247E0,-8.246681094E-2
3.114227029E0,-1.207680583E0,-1.202793717E0,-8.552113175E-2
3.116241179E0,-1.208291411E0,-1.191187263E0,-8.857546002E-2
3.118255561E0,-1.200350165E0,-1.157589674E0,-9.285151958E-2
3.120238942E0,-1.195463300E0,-1.118494272E0,-1.026253626E-1
3.122252168E0,-1.194852471E0,-1.092227101E0,-1.056796908E-1
3.124236165E0,-1.188132882E0,-1.041525245E0,-1.154535338E-1
3.126250700E0,-1.185689449E0,-9.865473509E-1,-1.227839142E-1
3.128234081E0,-1.183856845E0,-9.596692920E-1,-1.295034289E-1
3.130250308E0,-1.177137375E0,-9.028588533E-1,-1.447750628E-1
3.132232150E0,-1.174693823E0,-8.436049223E-1,-1.569923609E-1
3.134246301E0,-1.171639562E0,-8.136724830E-1,-1.637118906E-1
3.136228836E0,-1.167363524E0,-7.519751191E-1,-1.771509200E-1
3.138243524E0,-1.164309144E0,-6.969972253E-1,-1.905899495E-1
3.140226982E0,-1.164309144E0,-6.676757336E-1,-1.936442852E-1
3.142242286E0,-1.158811331E0,-6.151412725E-1,-2.058615834E-1
3.144225667E0,-1.157589674E0,-5.882632136E-1,-2.083050460E-1
3.146239202E0,-1.154535294E0,-5.381723046E-1,-2.174680233E-1
3.148254044E0,-1.152702689E0,-4.935791194E-1,-2.199114859E-1
3.150238887E0,-1.152091861E0,-4.734205604E-1,-2.254092693E-1
3.152251499E0,-1.150259256E0,-4.355469346E-1,-2.241875380E-1
3.154235572E0,-1.147204876E0,-4.056145251E-1,-2.199114859E-1
3.156249645E0,-1.146594048E0,-3.927863538E-1,-2.199114859E-1
3.158233103E0,-1.142928839E0,-3.695734739E-1,-2.107485086E-1
3.160246946E0,-1.138041973E0,-3.549126983E-1,-2.009746730E-1
3.162231172E0,-1.136209369E0,-3.506366611E-1,-1.936442852E-1
3.164245092E0,-1.138041973E0,-3.420845270E-1,-1.808161139E-1
3.166229396E0,-1.133765936E0,-3.433062732E-1,-1.643227488E-1
3.168242547E0,-1.132544160E0,-3.426954150E-1,-1.576032341E-1
3.170227466E0,-1.130711555E0,-3.506366611E-1,-1.350012124E-1
3.172240693E0,-1.126435518E0,-3.652974069E-1,-1.185078546E-1
3.174254613E0,-1.127657294E0,-3.707951903E-1,-1.093448773E-1
3.176237993E0,-1.121548533E0,-3.940080702E-1,-9.040805697E-2
3.178252989E0,-1.121548533E0,-4.043927789E-1,-8.002334833E-2
3.180236063E0,-1.120326877E0,-4.324925840E-1,-6.597344577E-2
3.182249598E0,-1.117883444E0,-4.648684561E-1,-4.642575979E-2
3.184233902E0,-1.117883444E0,-4.801400900E-1,-4.214970022E-2
3.186248745E0,-1.116661668E0,-5.167919993E-1,-2.565634064E-2
3.188232048E0,-1.117883444E0,-5.552765131E-1,-1.649336144E-2
3.190246891E0,-1.117272496E0,-5.742133260E-1,-1.038470957E-2
3.192229272E0,-1.117883444E0,-6.145304441E-1,-3.054326167E-3
3.194243422E0,-1.118494272E0,-6.560692787E-1,5.497787148E-3
3.196228033E0,-1.116661668E0,-6.768386960E-1,7.330383174E-3
3.198240954E0,-1.119105101E0,-7.214318514E-1,1.649336144E-2
3.200255103E0,-1.117272496E0,-7.586946487E-1,1.466076635E-2
3.202239407E0,-1.117272496E0,-7.776314616E-1,1.710422710E-2
3.204253250E0,-1.114218235E0,-8.130616546E-1,1.832595654E-2
3.206237246E0,-1.108720422E0,-8.466592431E-1,1.588249579E-2
3.208251166E0,-1.108720422E0,-8.600982428E-1,1.649336144E-2
3.210235162E0,-1.105055213E0,-8.857545853E-1,1.527163107E-2
3.212248620E0,-1.102000952E0,-8.967501521E-1,1.160643995E-2
3.214232386E0,-1.095892191E0,-9.132435322E-1,8.552113548E-3
3.216242767E0,-1.094059706E0,-9.211847782E-1,4.886921961E-3
3.218229301E0,-1.090394497E0,-9.242390990E-1,-6.108652451E-4
3.220244991E0,-1.085507512E0,-9.242390990E-1,-4.276056774E-3
3.222228602E0,-1.082453251E0,-9.126327038E-1,-1.588249579E-2
3.224242752E0,-1.078788042E0,-9.077457786E-1,-1.832595654E-2
3.226225826E0,-1.076955438E0,-8.863654733E-1,-2.932153270E-2
3.228240360E0,-1.072068453E0,-8.637634516E-1,-3.726277873E-2
3.230254818E0,-1.069014192E0,-8.509352803E-1,-4.153883830E-2
3.232238122E0,-1.067181587E0,-8.148942590E-1,-4.886921868E-2
3.234252349E0,-1.064738154E0,-7.782423496E-1,-5.619960278E-2
3.236236037E0,-1.061072946E0,-7.574729323E-1,-6.230825558E-2
3.238250496E0,-1.056185961E0,-7.147123218E-1,-6.780604273E-2
3.240233492E0,-1.055575132E0,-6.695083380E-1,-7.086037099E-2
3.242247950E0,-1.054353356E0,-6.462954283E-1,-7.330382615E-2
3.244231024E0,-1.051909924E0,-5.974262357E-1,-7.696902007E-2
3.246246096E0,-1.051909924E0,-5.711590052E-1,-7.819075137E-2
3.248229170E0,-1.049466491E0,-5.241223574E-1,-7.635815442E-2
3.250244243E0,-1.049466491E0,-4.740314186E-1,-7.391469181E-2
3.252227624E0,-1.049466491E0,-4.526511431E-1,-7.330382615E-2
3.254241236E0,-1.046412110E0,-4.056145251E-1,-6.902777404E-2
3.256224309E0,-1.043968678E0,-3.622430861E-1,-6.352998316E-2
3.258240228E0,-1.046412110E0,-3.396410644E-1,-6.047565863E-2
3.260253764E0,-1.045190454E0,-3.023782969E-1,-5.131268129E-2
3.262235991E0,-1.042136073E0,-2.657263875E-1,-4.337143153E-2
3.264251063E0,-1.043357849E0,-2.480112910E-1,-3.543018550E-2
3.266234676E0,-1.043968678E0,-2.162462920E-1,-2.871066704E-2
3.268248595E0,-1.042136073E0,-1.918116808E-1,-1.466076635E-2
3.270233514E0,-1.040303469E0,-1.814269722E-1,-7.941247895E-3
3.272245819E0,-1.042136073E0,-1.637118906E-1,6.108652335E-3
3.274230430E0,-1.041525245E0,-1.563815027E-1,1.160643995E-2
3.276244811E0,-1.039692640E0,-1.453859210E-1,2.260201424E-2
3.278228808E0,-1.040914416E0,-1.447750628E-1,3.665191308E-2
3.280241804E0,-1.041525245E0,-1.459967941E-1,4.825835302E-2
3.282225108E0,-1.040303469E0,-1.508837193E-1,6.047565863E-2
3.284240181E0,-1.036638379E0,-1.631010175E-1,7.819075137E-2
3.286254408E0,-1.036638379E0,-1.698205322E-1,8.307767659E-2
3.288238405E0,-1.034805775E0,-1.924225539E-1,9.957103431E-2
3.290252247E0,-1.029918790E0,-2.180788964E-1,1.172861308E-1
3.292235628E0,-1.032973170E0,-2.315179259E-1,1.221730486E-1
3.294250010E0,-1.029307961E0,-2.651155293E-1,1.380555481E-1
3.296232236E0,-1.028086185E0,-3.023782969E-1,1.521054506E-1
3.298246694E0,-1.025031924E0,-3.231477141E-1,1.594358236E-1
3.300231306E0,-1.022588372E0,-3.671300113E-1,1.747074574E-1
3.302245148E0,-1.017701507E0,-4.117231667E-1,1.899790913E-1
3.304229375E0,-1.012203693E0,-4.379903674E-1,1.954768747E-1
3.306244141E0,-1.009149432E0,-4.880813360E-1,2.107485086E-1
3.308227291E0,-1.007316828E0,-5.143485069E-1,2.168571651E-1
3.310242057E0,-1.001819015E0,-5.656611919E-1,2.309070677E-1
3.312224823E0,-9.944885969E-1,-6.181956530E-1,2.412917763E-1
3.314238280E0,-9.920451641E-1,-6.432411075E-1,2.474004179E-1
3.316253122E0,-9.883799553E-1,-6.927211881E-1,2.571742535E-1
3.318236812E0,-9.822713137E-1,-7.403686643E-1,2.669481039E-1
3.320250885E0,-9.822713137E-1,-7.586946487E-1,2.712241709E-1
3.322234036E0,-9.767735004E-1,-7.977899909E-1,2.797762752E-1
3.324248416E0,-9.706648588E-1,-8.277224302E-1,2.846632004E-1
3.326231797E0,-9.712757468E-1,-8.387179971E-1,2.895501256E-1
3.328245948E0,-9.706648588E-1,-8.570439219E-1,2.913827300E-1
3.330230636E0,-9.669997096E-1,-8.649851680E-1,2.962696552E-1
3.332244093E0,-9.663888216E-1,-8.637634516E-1,2.962696552E-1
3.334227552E0,-9.633345008E-1,-8.637634516E-1,2.999348342E-1
3.336240702E0,-9.615018964E-1,-8.503243923E-1,2.987131178E-1
3.338256390E0,-9.590584636E-1,-8.429940343E-1,2.993239760E-1
3.340239849E0,-9.633345008E-1,-8.185594082E-1,2.999348342E-1
3.342253076E0,-9.627236128E-1,-8.051204085E-1,2.987131178E-1
3.344236764E0,-9.608910084E-1,-7.703011036E-1,2.987131178E-1
3.346252145E0,-9.608910084E-1,-7.330383062E-1,2.950479090E-1
3.348234526E0,-9.608910084E-1,-7.098253965E-1,2.950479090E-1
3.350249676E0,-9.627236128E-1,-6.609562039E-1,2.877175212E-1
3.352232981E0,-9.627236128E-1,-6.078109145E-1,2.858849466E-1
3.354246592E0,-9.645562172E-1,-5.784893632E-1,2.828305960E-1
3.356231204E0,-9.688322544E-1,-5.186246037E-1,2.803871334E-1
3.358245354E0,-9.737191796E-1,-4.544837475E-1,2.779437006E-1
3.360228119E0,-9.743300676E-1,-4.208861589E-1,2.773328125E-1
3.362242809E0,-9.786061049E-1,-3.530801237E-1,2.779437006E-1
3.364226266E0,-9.834930301E-1,-2.822197378E-1,2.803871334E-1
3.366240416E0,-9.834930301E-1,-2.480112910E-1,2.828305960E-1
3.368254259E0,-9.902125597E-1,-1.795943826E-1,2.864958048E-1
3.370239409E0,-9.914342761E-1,-1.123992056E-1,2.926044464E-1
3.372252713E0,-9.957103729E-1,-7.819075137E-2,2.956587672E-1
3.374236325E0,-9.993755221E-1,-1.771509275E-2,3.029891551E-1
3.376247167E0,-9.993755221E-1,1.404990070E-2,3.084869385E-1
3.378233240E0,-1.004262447E0,6.719517708E-2,3.176499307E-1
3.380247468E0,-1.009149432E0,1.160643995E-1,3.286454976E-1
3.382231695E0,-1.010982037E0,1.398881376E-1,3.298672438E-1
3.384246460E0,-1.014647126E0,1.795943826E-1,3.414736688E-1
3.386229919E0,-1.023199320E0,2.138028294E-1,3.481931984E-1
3.388243684E0,-1.021977544E0,2.272418737E-1,3.543018401E-1
3.390228296E0,-1.023199320E0,2.547308207E-1,3.597996235E-1
3.392241215E0,-1.026253581E0,2.761110961E-1,3.652974069E-1
3.394225288E0,-1.026253581E0,2.852740586E-1,3.677408695E-1
3.396239131E0,-1.023810148E0,2.993239760E-1,3.750712574E-1
3.398253820E0,-1.020144939E0,3.078760803E-1,3.805690408E-1
3.400236970E0,-1.017090678E0,3.121521473E-1,3.805690408E-1
3.402251120E0,-1.007927656E0,3.103195429E-1,3.866777122E-1
3.404234732E0,-1.001819015E0,3.060434759E-1,3.903428912E-1
3.406249189E0,-9.902125597E-1,2.974913716E-1,3.946189582E-1
3.408232340E0,-9.767735004E-1,2.773328125E-1,3.970624208E-1
3.410247106E0,-9.706648588E-1,2.657263875E-1,4.001167417E-1
3.412230178E0,-9.529497623E-1,2.388483137E-1,4.043927789E-1
3.414244560E0,-9.370672703E-1,2.009746730E-1,4.056145251E-1
3.416228018E0,-9.279043078E-1,1.808161139E-1,4.080579877E-1
3.418243706E0,-9.120218158E-1,1.392772794E-1,4.092797041E-1
3.420225549E0,-8.949176073E-1,8.735372871E-2,4.098905921E-1
3.422239930E0,-8.869763613E-1,6.414084882E-2,4.068362415E-1
3.424254695E0,-8.717046976E-1,1.282817032E-2,4.105014503E-1
3.426238153E0,-8.552113175E-1,-4.276056588E-2,4.086688459E-1
3.428251919E0,-8.454375267E-1,-6.780604273E-2,4.105014503E-1
3.430237762E0,-8.277224302E-1,-1.221730486E-1,4.105014503E-1
3.432250142E0,-8.069530129E-1,-1.728748679E-1,4.141666293E-1
3.434233754E0,-7.977899909E-1,-2.021963894E-1,4.117231667E-1
3.436248289E0,-7.794640660E-1,-2.522873580E-1,4.141666293E-1
3.438231593E0,-7.703011036E-1,-2.742784917E-1,4.166100919E-1
3.440245435E0,-7.525860071E-1,-3.182607889E-1,4.178318381E-1
3.442229740E0,-7.330383062E-1,-3.616322279E-1,4.184426963E-1
3.444242736E0,-7.238753438E-1,-3.811798990E-1,4.184426963E-1
3.446227040E0,-7.043276429E-1,-4.166100919E-1,4.153883755E-1
3.448240883E0,-6.860016584E-1,-4.483750761E-1,4.135557711E-1
3.450225417E0,-6.792821288E-1,-4.612032473E-1,4.141666293E-1
3.452238721E0,-6.615670323E-1,-4.862487316E-1,4.105014503E-1
3.454252872E0,-6.450737119E-1,-5.045747161E-1,4.080579877E-1
3.456235868E0,-6.395758986E-1,-5.112941861E-1,4.031710625E-1
3.458250710E0,-6.291912198E-1,-5.186246037E-1,4.013384581E-1
3.460234092E0,-6.175847650E-1,-5.222898126E-1,3.982841372E-1
3.462248549E0,-6.139195561E-1,-5.204572082E-1,3.964515328E-1
3.464232468E0,-6.041457057E-1,-5.155702829E-1,3.885102868E-1
3.466246696E0,-5.931501389E-1,-5.033529401E-1,3.866777122E-1
3.468230077E0,-5.876523852E-1,-4.935791194E-1,3.860668242E-1
3.470245074E0,-5.815436840E-1,-4.758640230E-1,3.817907870E-1
3.472227608E0,-5.778785348E-1,-4.642575979E-1,3.842342496E-1
3.474241681E0,-5.717698932E-1,-4.373795092E-1,3.830125034E-1
3.476225755E0,-5.626068711E-1,-4.123340547E-1,3.830125034E-1
3.478239905E0,-5.607742667E-1,-3.927863538E-1,3.817907870E-1
3.480253362E0,-5.552765131E-1,-3.628539443E-1,3.824016452E-1
3.482238052E0,-5.522221923E-1,-3.310889602E-1,3.811798990E-1
3.484251586E0,-5.497786999E-1,-3.133738637E-1,3.817907870E-1
3.486235582E0,-5.436700583E-1,-2.803871334E-1,3.799581826E-1
3.488249118E0,-5.436700583E-1,-2.449569702E-1,3.817907870E-1
3.490234037E0,-5.418374538E-1,-2.278527319E-1,3.793473244E-1
3.492247879E0,-5.400048494E-1,-1.948660165E-1,3.811798990E-1
3.494231183E0,-5.369505286E-1,-1.649336219E-1,3.775147200E-1
3.496244179E0,-5.363397002E-1,-1.472185254E-1,3.738495409E-1
3.498229329E0,-5.351179838E-1,-1.203404516E-1,3.720169365E-1
3.500243557E0,-5.314527750E-1,-9.407325089E-2,3.683517575E-1
3.502225399E0,-5.265658498E-1,-8.124507964E-2,3.652974069E-1
3.504240472E0,-5.271766782E-1,-5.497787148E-2,3.616322279E-1
3.506225623E0,-5.241223574E-1,-4.642575979E-2,3.585779071E-1
3.508238311E0,-5.174028873E-1,-2.565634064E-2,3.494149148E-1
3.510254001E0,-5.112941861E-1,-6.719517522E-3,3.402519524E-1
3.512236074E0,-5.064072609E-1,-1.221730490E-3,3.341432810E-1
3.514250223E0,-4.978551865E-1,1.527163107E-2,3.231477141E-1
3.516234297E0,-4.874704778E-1,2.443460934E-2,3.115412891E-1
3.518248447E0,-4.838052690E-1,3.115412779E-2,3.029891551E-1
3.520231520E0,-4.721988440E-1,4.153883830E-2,2.877175212E-1
3.522246209E0,-4.599815309E-1,5.009094998E-2,2.675589919E-1
3.524229359E0,-4.563163519E-1,5.558873713E-2,2.571742535E-1
3.526244048E0,-4.410447180E-1,6.230825558E-2,2.382374406E-1
3.528227506E0,-4.282165468E-1,6.963863969E-2,2.162462920E-1
3.530242887E0,-4.196644127E-1,7.086037099E-2,2.095267773E-1
3.532225037E0,-4.050036669E-1,7.696902007E-2,1.857030392E-1
3.534239803E0,-3.921754956E-1,8.002334833E-2,1.637118906E-1
3.536252414E0,-3.854559660E-1,8.185594529E-2,1.527163088E-1
3.538237333E0,-3.732386529E-1,8.185594529E-2,1.313360333E-1
3.540251177E0,-3.665191531E-1,7.696902007E-2,1.233947799E-1
3.542234865E0,-3.524692357E-1,8.124507964E-2,1.050688252E-1
3.544248939E0,-3.390302062E-1,8.002334833E-2,8.491026610E-2
3.546232935E0,-3.347541690E-1,7.880161703E-2,7.513642311E-2
3.548247700E0,-3.219259977E-1,8.002334833E-2,6.047565863E-2
3.550231466E0,-3.133738637E-1,8.246681094E-2,4.214970022E-2
3.552245231E0,-3.060434759E-1,8.246681094E-2,3.665191308E-2
3.554228381E0,-2.926044464E-1,8.429940045E-2,2.443460934E-2
3.556243378E0,-2.852740586E-1,8.674286306E-2,7.941247895E-3
3.558226220E0,-2.809980214E-1,8.674286306E-2,6.108652451E-4
3.560240293E0,-2.712241709E-1,8.979719132E-2,-1.649336144E-2
3.562254213E0,-2.620611787E-1,9.040805697E-2,-2.443460934E-2
3.564237902E0,-2.577851415E-1,8.979719132E-2,-3.115412779E-2
3.566252667E0,-2.510656118E-1,8.918632567E-2,-4.276056588E-2
3.568235741E0,-2.492330223E-1,8.613199741E-2,-4.459316283E-2
3.570250506E0,-2.412917763E-1,8.185594529E-2,-5.375614017E-2
3.572234425E0,-2.364048511E-1,7.208210230E-2,-6.169738993E-2
3.574247345E0,-2.327396572E-1,6.658431143E-2,-6.352998316E-2
3.576230726E0,-2.296853364E-1,5.558873713E-2,-6.963863969E-2
3.578246491E0,-2.223549485E-1,3.848451003E-2,-7.391469181E-2
3.580229488E0,-2.229658216E-1,3.543018550E-2,-7.819075137E-2
3.582243023E0,-2.199114859E-1,1.771509275E-2,-8.124507964E-2
3.584227097E0,-2.150245607E-1,3.054326167E-3,-8.429940045E-2
3.586240631E0,-2.113593817E-1,-3.665191587E-3,-8.796459436E-2
3.588224935E0,-2.064724565E-1,-1.954768784E-2,-8.857546002E-2
3.590239701E0,-2.021963894E-1,-3.481931984E-2,-9.162978828E-2
3.592253159E0,-1.979203373E-1,-4.398229718E-2,-9.162978828E-2
3.594237155E0,-1.924225539E-1,-5.986479297E-2,-9.529497474E-2
3.596251305E0,-1.869247705E-1,-7.696902007E-2,-9.773843735E-2
3.598234455E0,-1.826487035E-1,-8.613199741E-2,-9.773843735E-2
3.600248836E0,-1.747074574E-1,-1.081231460E-1,-9.834930301E-2
3.602231987E0,-1.704314053E-1,-1.160643995E-1,-1.001819000E-1
3.604246367E0,-1.612684280E-1,-1.374446750E-1,-1.001819000E-1
3.606230671E0,-1.545489132E-1,-1.594358236E-1,-9.896016866E-2
3.608244591E0,-1.496619880E-1,-1.728748679E-1,-1.001819000E-1
3.610227972E0,-1.429424733E-1,-1.918116808E-1,-1.014036313E-1
3.612241737E0,-1.325577646E-1,-2.144137025E-1,-1.020144969E-1
3.614225426E0,-1.264491081E-1,-2.241875380E-1,-1.014036313E-1
3.616235268E0,-1.160643995E-1,-2.425135076E-1,-9.773843735E-2
3.618253111E0,-1.026253626E-1,-2.583959997E-1,-9.712757170E-2
3.620237185E0,-1.014036313E-1,-2.638937831E-1,-9.590584040E-2
3.622251873E0,-8.674286306E-2,-2.748893499E-1,-9.468411654E-2
3.624235562E0,-7.452555746E-2,-2.828305960E-1,-9.101892263E-2
3.626249789E0,-6.780604273E-2,-2.840523422E-1,-8.918632567E-2
3.628233400E0,-5.864306539E-2,-2.858849466E-1,-8.613199741E-2
3.630248859E0,-4.642575979E-2,-2.834414840E-1,-8.307767659E-2
3.632231009E0,-3.909537569E-2,-2.834414840E-1,-8.002334833E-2
3.634244543E0,-3.237585723E-2,-2.785545588E-1,-7.696902007E-2
3.636229771E0,-2.626720630E-2,-2.724458873E-1,-7.391469181E-2
3.638243229E0,-1.954768784E-2,-2.632829249E-1,-6.719517708E-2
3.640226378E0,-1.038470957E-2,-2.474004179E-1,-6.169738993E-2
3.642240529E0,-6.108652335E-3,-2.419026345E-1,-5.986479297E-2
3.644224448E0,1.221730490E-3,-2.247984111E-1,-5.192354694E-2
3.646239214E0,8.552113548E-3,-2.089159191E-1,-4.581489414E-2
3.648252518E0,1.099557430E-2,-1.973094791E-1,-4.398229718E-2
3.650237053E0,1.649336144E-2,-1.740965992E-1,-3.543018550E-2
3.652250664E0,2.260201424E-2,-1.514945775E-1,-2.932153270E-2
3.654234046E0,2.748893574E-2,-1.374446750E-1,-2.871066704E-2
3.656248119E0,3.298672289E-2,-1.130100712E-1,-2.015855350E-2
3.658233039E0,3.543018550E-2,-8.491026610E-2,-1.282817032E-2
3.660246573E0,3.726277873E-2,-6.902777404E-2,-1.038470957E-2
3.662229338E0,4.398229718E-2,-3.848451003E-2,-2.443460980E-3
3.664244105E0,4.581489414E-2,-9.162978269E-3,1.221730490E-3
3.666228408E0,4.520402849E-2,6.719517522E-3,6.108652335E-3
3.668241327E0,4.886921868E-2,3.787364438E-2,1.527163107E-2
3.670225940E0,4.948008433E-2,5.436700583E-2,2.015855350E-2
3.672240090E0,5.253441259E-2,8.552113175E-2,2.687807009E-2
3.674254009E0,5.436700583E-2,1.154535338E-1,3.481931984E-2
3.676237621E0,5.131268129E-2,1.301143020E-1,3.848451003E-2
3.678252156E0,5.131268129E-2,1.600466967E-1,4.459316283E-2
3.680235459E0,5.131268129E-2,1.881465018E-1,5.436700583E-2
3.682249610E0,5.009094998E-2,2.021963894E-1,5.558873713E-2
3.684232760E0,5.009094998E-2,2.296853364E-1,6.475171447E-2
3.686247756E0,4.764748737E-2,2.510656118E-1,7.208210230E-2
3.688230291E0,4.642575979E-2,2.620611787E-1,7.513642311E-2
3.690245903E0,4.459316283E-2,2.822197378E-1,8.185594529E-2
3.692228361E0,4.276056588E-2,3.029891551E-1,8.979719132E-2
3.694242896E0,4.153883830E-2,3.097086847E-1,9.529497474E-2
3.696225277E0,3.909537569E-2,3.249803185E-1,1.038470939E-1
3.698240043E0,3.970624134E-2,3.402519524E-1,1.038470939E-1
3.700254808E0,3.665191308E-2,3.463605940E-1,1.142318025E-1
3.702237881E0,3.420845419E-2,3.579670191E-1,1.227839142E-1
3.704252416E0,3.298672289E-2,3.634648323E-1,1.258382350E-1
3.706236105E0,3.054326214E-2,3.738495409E-1,1.356120855E-1
3.708250562E0,2.932153270E-2,3.817907870E-1,1.411098689E-1
3.710234790E0,2.932153270E-2,3.830125034E-1,1.447750628E-1
3.712247786E0,2.260201424E-2,3.903428912E-1,1.539380401E-1
3.714231474E0,1.893682219E-2,3.909537494E-1,1.582140923E-1
3.716246471E0,1.893682219E-2,3.891211748E-1,1.582140923E-1
3.718229237E0,1.282817032E-2,3.885102868E-1,1.624901593E-1
3.720243079E0,8.552113548E-3,3.854559660E-1,1.685988009E-1
3.722227768E0,7.330383174E-3,3.830125034E-1,1.673770845E-1
3.724241226E0,2.443460980E-3,3.750712574E-1,1.685988009E-1
3.726225529E0,-2.443460980E-3,3.652974069E-1,1.698205322E-1
3.728239142E0,-1.832595794E-3,3.622430861E-1,1.728748679E-1
3.730253907E0,-3.665191587E-3,3.488040566E-1,1.698205322E-1
3.732237212E0,-9.773843922E-3,3.469714522E-1,1.710422635E-1
3.734250823E0,-1.221730467E-2,3.323107064E-1,1.716531366E-1
3.736234127E0,-1.588249579E-2,3.262020350E-1,1.698205322E-1
3.738249893E0,-1.527163107E-2,3.194825351E-1,1.716531366E-1
3.740233197E0,-1.710422710E-2,3.097086847E-1,1.710422635E-1
3.742246808E0,-1.771509275E-2,3.005456924E-1,1.722639948E-1
3.744231036E0,-1.954768784E-2,2.956587672E-1,1.698205322E-1
3.746244570E0,-1.954768784E-2,2.883284092E-1,1.692096740E-1
3.748228028E0,-1.771509275E-2,2.816088796E-1,1.667662114E-1
3.750243948E0,-1.527163107E-2,2.803871334E-1,1.649336219E-1
3.752225867E0,-1.038470957E-2,2.742784917E-1,1.618792862E-1
3.754240863E0,-8.552113548E-3,2.724458873E-1,1.582140923E-1
3.756224321E0,-6.108652451E-4,2.712241709E-1,1.576032341E-1
3.758237471E0,4.886921961E-3,2.736676335E-1,1.484402567E-1
3.760252237E0,1.221730467E-2,2.761110961E-1,1.453859210E-1
3.762235080E0,1.282817032E-2,2.773328125E-1,1.411098689E-1
3.764249768E0,2.015855350E-2,2.889392674E-1,1.350012124E-1
3.766233764E0,2.260201424E-2,2.962696552E-1,1.288925707E-1
3.768247607E0,2.626720630E-2,3.109304011E-1,1.197295859E-1
3.770231296E0,3.054326214E-2,3.262020350E-1,1.148426682E-1
3.772245523E0,3.176499158E-2,3.341432810E-1,1.117883399E-1
3.774228904E0,3.665191308E-2,3.555235863E-1,1.056796908E-1
3.776239900E0,4.031710699E-2,3.738495409E-1,9.651670605E-2
3.778257128E0,4.153883830E-2,3.836233616E-1,9.224065393E-2
3.780241124E0,4.825835302E-2,4.019493461E-1,9.162978828E-2
3.782224812E0,5.436700583E-2,4.208861589E-1,8.735372871E-2
3.784238424E0,5.803219974E-2,4.276056588E-1,8.857546002E-2
3.786253728E0,6.841690838E-2,4.410447180E-1,9.101892263E-2
3.788237109E0,7.696902007E-2,4.563163519E-1,9.285151958E-2
3.790251567E0,8.124507964E-2,4.648684561E-1,9.285151958E-2
3.792234640E0,8.979719132E-2,4.795292318E-1,1.001819000E-1
3.794248790E0,9.712757170E-2,4.911356568E-1,1.087340117E-1
3.796232864E0,9.896016866E-2,5.009095073E-1,1.111774743E-1
3.798247629E0,1.062905490E-1,5.167919993E-1,1.166752651E-1
3.800230318E0,1.081231460E-1,5.210680366E-1,1.203404516E-1
3.802244238E0,1.117883399E-1,5.345070958E-1,1.258382350E-1
3.804227926E0,1.178969890E-1,5.455026627E-1,1.282816976E-1
3.806241769E0,1.203404516E-1,5.522221923E-1,1.282816976E-1
3.808225688E0,1.233947799E-1,5.644394755E-1,1.276708394E-1
3.810240453E0,1.295034289E-1,5.760459304E-1,1.246165112E-1
3.812223527E0,1.337794960E-1,5.803219676E-1,1.209513173E-1
3.814237446E0,1.429424733E-1,5.925393105E-1,1.123992056E-1
3.816251519E0,1.490511149E-1,6.035348773E-1,1.014036313E-1
3.818236209E0,1.551597714E-1,6.102544069E-1,9.712757170E-2
3.820249435E0,1.624901593E-1,6.243042946E-1,8.552113175E-2
3.822233047E0,1.747074574E-1,6.438519955E-1,7.024950534E-2
3.824247198E0,1.826487035E-1,6.499606371E-1,6.414084882E-2
3.826231271E0,1.942551434E-1,6.664539576E-1,5.131268129E-2
3.828245651E0,2.089159191E-1,6.860016584E-1,4.337143153E-2
3.830229648E0,2.168571651E-1,6.969972253E-1,3.665191308E-2
3.832243183E0,2.309070677E-1,7.220427394E-1,2.871066704E-2
3.834226563E0,2.382374406E-1,7.367035151E-1,2.687807009E-2
3.836242022E0,2.522873580E-1,7.660250068E-1,2.199114859E-2
3.838223864E0,2.712241709E-1,7.941248417E-1,2.138028294E-2
3.840237706E0,2.791654170E-1,8.148942590E-1,2.260201424E-2
3.842252472E0,2.993239760E-1,8.503243923E-1,2.382374369E-2
3.844236391E0,3.219259977E-1,8.869763613E-1,3.054326214E-2
3.846250312E0,3.323107064E-1,9.053022861E-1,3.237585723E-2
3.848234846E0,3.597996235E-1,9.401215911E-1,3.909537569E-2
3.850249073E0,3.885102868E-1,9.724974632E-1,4.825835302E-2
3.852232377E0,4.031710625E-1,9.877691269E-1,5.131268129E-2
3.854246297E0,4.331034720E-1,1.014647126E0,5.864306539E-2
3.856228754E0,4.654793143E-1,1.031751394E0,6.475171447E-2
3.858243520E0,4.807509482E-1,1.042747021E0,6.597344577E-2
3.860227516E0,5.125159621E-1,1.052520871E0,6.963863969E-2
3.862241666E0,5.308418870E-1,1.056185961E0,7.574728876E-2
3.864225586E0,5.656611919E-1,1.061683774E0,7.696902007E-2
3.866239505E0,6.029239893E-1,1.058018565E0,7.696902007E-2
3.868253040E0,6.206390858E-1,1.055575132E0,7.819075137E-2
3.870237960E0,6.554583907E-1,1.047023058E0,7.696902007E-2
3.872251725E0,6.914994717E-1,1.034194827E0,7.574728876E-2
3.874234490E0,7.079927921E-1,1.027475357E0,7.513642311E-2
3.876249949E0,7.422012687E-1,1.006705880E0,7.330382615E-2
3.878233022E0,7.788531780E-1,9.804387093E-1,7.330382615E-2
3.880247402E0,7.941248417E-1,9.688322544E-1,7.330382615E-2
3.882230553E0,8.289441466E-1,9.376781583E-1,7.391469181E-2
3.884245549E0,8.613200188E-1,9.065240026E-1,7.696902007E-2
3.886229623E0,8.772025108E-1,8.930850029E-1,8.246681094E-2
3.888243081E0,9.095783234E-1,8.594874144E-1,8.918632567E-2
3.890226846E0,9.401215911E-1,8.258898258E-1,9.834930301E-2
3.892240689E0,9.566149712E-1,8.130616546E-1,1.062905490E-1
3.894224301E0,9.871582389E-1,7.831292152E-1,1.215621829E-1
3.896237527E0,9.999864101E-1,7.715228200E-1,1.313360333E-1
3.898252986E0,1.030529618E0,7.446447611E-1,1.514945775E-1
3.900236597E0,1.057407737E0,7.189884186E-1,1.710422635E-1
3.902249516E0,1.071457624E0,7.086036801E-1,1.850921661E-1
3.904234206E0,1.098335743E0,6.914994717E-1,2.095267773E-1
3.906248279E0,1.123381138E0,6.725626588E-1,2.339613885E-1
3.908231428E0,1.136209369E0,6.615670323E-1,2.486221492E-1
3.910246733E0,1.163087368E0,6.493497491E-1,2.730567753E-1
3.912230191E0,1.188132882E0,6.322455406E-1,3.005456924E-1
3.914243417E0,1.201571941E0,6.249151230E-1,3.097086847E-1
3.916228568E0,1.226006508E0,6.120869517E-1,3.378084898E-1
3.918241795E0,1.252884626E0,5.998696685E-1,3.610213697E-1
3.920224638E0,1.262047648E0,5.894849896E-1,3.707951903E-1
3.922239404E0,1.287703991E0,5.760459304E-1,3.976732790E-1
3.924253246E0,1.309084177E0,5.632177591E-1,4.202753007E-1
3.926236935E0,1.317025423E0,5.571091175E-1,4.306600094E-1
3.928251316E0,1.339016676E0,5.375614166E-1,4.495968223E-1
3.930234773E0,1.350012183E0,5.326744914E-1,4.630358517E-1
3.932248539E0,1.368949056E0,5.167919993E-1,4.850270152E-1
3.934233151E0,1.389107585E0,5.002986193E-1,5.057964325E-1
3.936243685E0,1.398270488E0,4.941899776E-1,5.149593949E-1
3.938229451E0,1.420872569E0,4.789183438E-1,5.363397002E-1
3.940244524E0,1.443474531E0,4.593706727E-1,5.577199459E-1
3.942227674E0,1.456913590E0,4.489859641E-1,5.668829679E-1
3.944242748E0,1.478904724E0,4.324925840E-1,5.876523852E-1
3.946226129E0,1.503339410E0,4.117231667E-1,6.041457057E-1
3.948240202E0,1.513113260E0,3.988949955E-1,6.145304441E-1
3.950224506E0,1.536936998E0,3.824016452E-1,6.316346526E-1
3.952237425E0,1.559538960E0,3.646865487E-1,6.432411075E-1
3.954251652E0,1.570534587E0,3.506366611E-1,6.499606371E-1
3.956236572E0,1.592525721E0,3.316998184E-1,6.597344875E-1
3.958250030E0,1.618792892E0,3.115412891E-1,6.676757336E-1
3.960233488E0,1.629788518E0,3.005456924E-1,6.725626588E-1
3.962247331E0,1.654833913E0,2.767219543E-1,6.762278080E-1
3.964231019E0,1.667662144E0,2.675589919E-1,6.792821288E-1
3.966246093E0,1.693929315E0,2.455678284E-1,6.860016584E-1
3.968229166E0,1.717753053E0,2.247984111E-1,6.902777553E-1
3.970244162E0,1.733635545E0,2.138028294E-1,6.933320761E-1
3.972226928E0,1.762346268E0,1.960877478E-1,6.982190013E-1
3.974240847E0,1.791667819E0,1.789835095E-1,7.012733221E-1
3.976224766E0,1.806328535E0,1.710422635E-1,7.043276429E-1
3.978239532E0,1.838093519E0,1.563815027E-1,7.086036801E-1
3.980253144E0,1.873523712E0,1.423316002E-1,7.098253965E-1
3.982235601E0,1.887573600E0,1.386664063E-1,7.122688890E-1
