"Time (s)","Linear Acceleration x (m/s^2)","Linear Acceleration y (m/s^2)","Linear Acceleration z (m/s^2)"
1.624005900E-2,-1.739048958E-1,6.659588814E-1,-5.654931068E-1
2.423635200E-2,-1.236284971E-1,6.269588470E-1,-6.574039459E-1
3.223226000E-2,-1.506037712E-1,6.549301147E-1,-7.629051208E-1
4.025716900E-2,-1.508849859E-1,7.348909378E-1,-7.616462708E-1
4.825315500E-2,-1.336784363E-1,7.715210915E-1,-7.056508064E-1
5.624798600E-2,-1.139975786E-1,7.912640572E-1,-6.973810196E-1
6.424520300E-2,-6.000185013E-2,8.142614365E-1,-6.909232140E-1
7.224088000E-2,-4.043793678E-2,8.495850563E-1,-6.992869377E-1
8.023617400E-2,-8.862805367E-2,8.679642677E-1,-7.122664452E-1
8.823092800E-2,-1.618258953E-1,8.891220093E-1,-7.068076134E-1
9.625375900E-2,-2.194923162E-1,8.922395706E-1,-7.358570099E-1
1.042530530E-1,-2.161902189E-1,8.611903191E-1,-7.014060020E-1
1.122488070E-1,-1.742174625E-1,7.734222412E-1,-7.067351341E-1
1.202434850E-1,-1.314270496E-1,6.614289284E-1,-5.758471489E-1
1.282394700E-1,-4.556989670E-2,5.261697769E-1,-5.500154495E-1
1.362348400E-1,9.194850922E-2,4.295296669E-1,-6.875872612E-1
1.442312110E-1,3.403086662E-1,3.612208366E-1,-8.456025124E-1
1.522572730E-1,5.567657948E-1,3.378281593E-1,-9.345197678E-1
1.602526430E-1,6.313805580E-1,3.852534294E-1,-9.240527153E-1
1.682480130E-1,5.805184841E-1,4.056367874E-1,-8.394880295E-1
1.762434590E-1,5.318896770E-1,3.878188133E-1,-6.926193237E-1
1.842399840E-1,4.816191196E-1,2.660045624E-1,-4.898762703E-1
1.922350460E-1,4.510381222E-1,1.090073586E-1,-1.785287857E-1
2.002307240E-1,4.107649326E-1,-2.958488464E-2,-8.846616745E-2
2.082574780E-1,2.719752789E-1,-1.676230431E-1,7.597160339E-2
2.162519250E-1,1.210539341E-1,-2.841758728E-1,1.629009247E-1
2.242486030E-1,8.959579468E-2,-3.363323212E-1,9.226989746E-2
2.322430500E-1,1.915984154E-1,-4.148130417E-1,-3.630352020E-2
2.402384200E-1,2.440369129E-1,-5.040092468E-1,-4.238033295E-2
2.482347130E-1,3.057179451E-1,-5.508670807E-1,-1.004037857E-1
2.562565440E-1,3.479599953E-1,-5.552787781E-1,-1.197080612E-1
2.642568380E-1,3.548891544E-1,-5.124802589E-1,-2.480726242E-1
2.722515920E-1,3.080263138E-1,-4.827170372E-1,-2.810263634E-1
2.802472710E-1,1.911051273E-1,-4.920520782E-1,-2.807059288E-1
2.882431790E-1,2.507231236E-1,-4.665956497E-1,-2.150688171E-1
2.962382410E-1,1.495382786E-1,-4.718871117E-1,-7.839155197E-2
3.042342270E-1,3.608322144E-2,-5.119762421E-1,7.480430603E-2
3.122299810E-1,1.298327446E-1,-5.839781761E-1,1.959557533E-1
3.202564280E-1,3.188917637E-1,-5.953259468E-1,2.221431732E-1
3.282520290E-1,3.325881958E-1,-5.467686653E-1,3.093132973E-1
3.362450140E-1,2.654531002E-1,-5.584530830E-1,4.215483665E-1
3.442427690E-1,2.248888016E-1,-5.392298698E-1,3.701043129E-1
3.522387540E-1,2.102684975E-1,-5.228757858E-1,3.224868774E-1
3.602338170E-1,1.330354214E-1,-4.971537590E-1,1.426000595E-1
3.682597250E-1,1.005125046E-2,-4.305987358E-1,3.921842575E-2
3.762553260E-1,-3.552484512E-2,-4.520287514E-1,-9.096622467E-3
3.842516190E-1,-2.773499489E-2,-5.157866478E-1,-3.204026222E-1
3.922466810E-1,4.880642891E-2,-6.000556946E-1,-4.375948906E-1
4.002426670E-1,8.080959320E-2,-5.677433014E-1,-6.192584038E-1
4.082384220E-1,4.383563995E-2,-5.394287109E-1,-7.491345406E-1
4.162325610E-1,2.110004425E-3,-5.205068588E-1,-8.062880039E-1
4.242595460E-1,-2.416396141E-2,-4.813156128E-1,-7.897531986E-1
4.322553010E-1,1.040050983E-1,-4.203357697E-1,-6.627690792E-1
4.402509790E-1,1.955692768E-1,-3.660240173E-1,-4.755988121E-1
4.482463490E-1,2.955303192E-1,-3.506994247E-1,-3.258595467E-1
4.562413350E-1,4.514672756E-1,-4.396114349E-1,-2.193217278E-1
4.642373200E-1,5.839607716E-1,-5.658731461E-1,-1.560459137E-1
4.722333050E-1,6.871504784E-1,-6.980667114E-1,-1.418914795E-1
4.802588290E-1,6.507616043E-1,-7.783699036E-1,-1.689047813E-1
4.882545060E-1,5.954167843E-1,-8.617706299E-1,-1.227707863E-1
4.962471850E-1,4.714126587E-1,-9.787769318E-1,-3.451406956E-1
5.042458620E-1,3.777596951E-1,-1.085826874E0,-4.287860394E-1
5.122422320E-1,2.520406246E-1,-1.098453522E0,-5.685415268E-1
5.202372180E-1,1.779379845E-1,-1.014283180E0,-6.086707115E-1
5.282325870E-1,1.477854252E-1,-8.477430344E-1,-5.392642021E-1
5.362584970E-1,1.732227802E-1,-7.237472534E-1,-4.470288754E-1
5.442547120E-1,1.316368580E-1,-5.950336456E-1,-3.351972103E-1
5.522506970E-1,9.697628021E-2,-4.646577835E-1,-2.360801697E-1
5.602452220E-1,6.433248520E-3,-2.543897629E-1,-1.868348122E-1
5.682408220E-1,-1.043839455E-1,-6.004428864E-2,-1.849715710E-1
5.762359620E-1,-2.091021538E-1,1.111268997E-1,-1.876623631E-1
5.842324860E-1,-3.070778847E-1,1.709699631E-1,-2.185418606E-1
5.922592400E-1,-3.660349846E-1,2.063465118E-1,-3.466718197E-1
6.002543030E-1,-4.316532612E-1,2.090892792E-1,-5.494008064E-1
6.082503650E-1,-4.235374928E-1,2.016763687E-1,-6.630945206E-1
6.162448120E-1,-3.569054604E-1,1.763982773E-1,-6.857573986E-1
6.242416430E-1,-2.681200504E-1,1.257486343E-1,-6.272697449E-1
6.322367050E-1,-1.174719334E-1,-4.680442810E-2,-5.028443336E-1
6.402323840E-1,-7.701182365E-2,-1.616954803E-1,-4.158039093E-1
6.482582150E-1,-1.442487240E-1,-2.119007111E-1,-2.924227715E-1
6.562508160E-1,-2.470512390E-1,-2.572317123E-1,-1.784317493E-1
6.642493400E-1,-3.619427681E-1,-2.450542450E-1,-9.502029419E-2
6.722453250E-1,-4.821498394E-1,-2.710247040E-1,1.119804382E-2
6.802403110E-1,-5.723123550E-1,-2.631883621E-1,3.099989891E-2
6.882362960E-1,-6.797513962E-1,-2.333488464E-1,1.723766327E-4
6.962319740E-1,-7.443580627E-1,-1.907072067E-1,-8.288812637E-2
7.042578050E-1,-8.304548264E-1,-9.763240814E-2,-1.842706203E-1
7.122538670E-1,-8.769605160E-1,5.626678467E-5,-2.318105698E-1
7.202489300E-1,-8.549420834E-1,7.117748260E-2,-2.593853474E-1
7.282449150E-1,-7.261891365E-1,7.487487793E-2,-2.912650108E-1
7.362399010E-1,-5.787382126E-1,9.272289276E-2,-3.155910969E-1
7.442355790E-1,-4.815490246E-1,7.469367981E-2,-3.153975010E-1
7.522313330E-1,-3.291027546E-1,5.895709991E-2,-2.577064037E-1
7.602577800E-1,-2.365443707E-1,4.031467438E-2,-1.865780354E-1
7.682531500E-1,-2.016828060E-1,3.203392029E-2,-1.168909073E-1
7.762485210E-1,-2.495679855E-1,4.661560059E-2,-8.924579620E-2
7.842438900E-1,-2.861232758E-1,6.528854370E-2,-5.304551125E-2
7.922401060E-1,-2.659235001E-1,3.069686890E-2,-4.864859581E-2
8.002352460E-1,-1.755380630E-1,-1.669979095E-2,-5.188822746E-2
8.082311540E-1,-1.090648174E-1,-6.501960754E-2,-1.963827610E-1
8.162545250E-1,-6.371068954E-2,-7.575988770E-2,-2.689039707E-1
8.242532790E-1,-1.004211903E-1,-5.813217163E-2,-2.841293812E-1
8.322478020E-1,-1.557025909E-1,-6.212902069E-2,-2.784194946E-1
8.402437880E-1,-2.501447201E-1,-1.564121246E-2,-2.543315887E-1
8.482397730E-1,-4.116055965E-1,3.382968903E-2,-2.211861610E-1
8.562348360E-1,-4.828104973E-1,5.248165131E-2,-1.287522316E-1
8.642313600E-1,-5.325088501E-1,9.388923645E-3,3.245854378E-2
8.722571910E-1,-5.800449848E-1,-7.890701294E-2,1.757683754E-1
8.802526390E-1,-5.824182034E-1,-1.836214066E-1,5.969238281E-2
8.882479310E-1,-5.203530788E-1,-3.358764648E-1,8.635401726E-2
8.962430710E-1,-4.042375088E-1,-4.401922226E-1,1.288399696E-1
9.042386720E-1,-2.525441647E-1,-5.214977264E-1,1.452081203E-1
9.122358880E-1,-1.529183388E-1,-5.466213226E-1,1.046597958E-1
9.202310270E-1,-1.823763847E-1,-5.220813751E-1,2.876973152E-2
9.282562430E-1,-6.865096092E-2,-4.363260269E-1,6.041359901E-2
9.362515370E-1,-2.754449844E-3,-2.676811218E-1,8.448314667E-2
9.442475990E-1,-9.347891808E-2,-1.235933304E-1,1.651198864E-1
9.522435850E-1,-1.701326370E-1,1.284885406E-2,4.349517822E-2
9.602386470E-1,-2.250428200E-1,8.906269073E-2,2.818799019E-2
9.682346320E-1,-2.388813496E-1,8.087062836E-2,1.205372810E-1
9.762290020E-1,-2.053606510E-1,1.223087311E-2,9.890294075E-2
9.842561410E-1,-1.446182728E-1,-5.949783325E-2,8.368325233E-2
9.922518190E-1,-9.771180153E-2,-6.954574585E-2,5.897283554E-2
1.000247112E0,-5.978107452E-2,-2.985954285E-2,6.783390045E-2
1.008242251E0,-1.067588329E-1,2.609062195E-2,1.096935272E-1
1.016238237E0,-2.135353088E-1,3.626155853E-2,1.600272655E-1
1.024234222E0,-3.376064301E-1,2.479362488E-2,2.438826561E-1
1.032230516E0,-5.293409824E-1,-5.529403687E-3,3.122279644E-1
1.040256039E0,-6.246156693E-1,-4.752159119E-2,4.474551678E-1
1.048251409E0,-6.683256626E-1,-1.044282913E-1,6.822841167E-1
1.056246395E0,-6.502914429E-1,-1.499528885E-1,5.086174011E-1
1.064242457E0,-5.274403095E-1,-1.939916611E-1,4.498310089E-1
1.072238058E0,-4.014978409E-1,-1.456718445E-1,3.894376755E-1
1.080233812E0,-2.680783272E-1,-3.617191315E-2,3.036830425E-1
1.088229182E0,-2.149355412E-1,9.894084930E-2,1.043033600E-1
1.096254630E0,-2.249860764E-2,2.693490982E-1,-9.263539314E-2
1.104251230E0,1.010251045E-1,4.438657761E-1,-2.559788227E-1
1.112246370E0,1.892058849E-1,6.443958282E-1,-4.800605774E-1
1.120242355E0,2.651674747E-1,7.993230820E-1,-5.526609421E-1
1.128238032E0,4.040448666E-1,8.585920334E-1,-6.368409395E-1
1.136232711E0,5.116930008E-1,8.150129318E-1,-7.080054283E-1
1.144229311E0,6.677019596E-1,7.376747131E-1,-6.839005947E-1
1.152255836E0,8.832581043E-1,5.706787109E-1,-7.385030985E-1
1.160251436E0,9.157998562E-1,4.167232513E-1,-7.398566008E-1
1.168246498E0,8.316242695E-1,2.211866379E-1,-5.808031559E-1
1.176241330E0,7.127296925E-1,-1.731967926E-2,-7.208636999E-1
1.184237007E0,7.139952183E-1,-2.121152878E-1,-6.024948359E-1
1.192232993E0,7.664995193E-1,-3.770122528E-1,-6.217621565E-1
1.200228363E0,7.511825562E-1,-4.733810425E-1,-4.838898182E-1
1.208255040E0,7.213380337E-1,-5.083427429E-1,-3.439303637E-1
1.216250103E0,6.707925797E-1,-5.373353958E-1,-1.334764957E-1
1.224246704E0,6.018207073E-1,-5.012331009E-1,8.828401566E-3
1.232242151E0,4.973156452E-1,-3.577089310E-1,1.338577271E-1
1.240236905E0,3.427598476E-1,-1.719007492E-1,1.378381252E-1
1.248233199E0,1.796660423E-1,8.483791351E-2,2.516937256E-2
1.256228492E0,2.360272408E-2,2.575435638E-1,-1.001985073E-1
1.264254323E0,-1.305670738E-1,4.302625656E-1,-2.629667521E-1
1.272249155E0,-1.729855537E-1,5.432500839E-1,-3.856122494E-1
1.280245371E0,-1.672406197E-1,5.917892456E-1,-3.832345009E-1
1.288241434E0,-4.534029961E-2,6.304397583E-1,-4.281793833E-1
1.296236188E0,1.392135620E-1,6.395168304E-1,-3.682072163E-1
1.304232173E0,3.187105656E-1,5.994901657E-1,-3.642904758E-1
1.312228390E0,3.574726582E-1,4.914112091E-1,-3.401303291E-1
1.320253990E0,3.069813251E-1,3.997154236E-1,-3.833686113E-1
1.328249900E0,2.810058594E-1,2.797288895E-1,-4.516972303E-1
1.336244961E0,2.895081043E-1,2.060861588E-1,-5.056045055E-1
1.344240639E0,2.869443893E-1,6.893157959E-2,-5.987672806E-1
1.352236933E0,2.564566135E-1,-5.484390259E-2,-6.315703392E-1
1.360231687E0,2.194235325E-1,-1.484355927E-1,-6.679863930E-1
1.368258519E0,1.811125278E-1,-2.212009430E-1,-6.573381424E-1
1.376253812E0,1.895785332E-1,-3.139839172E-1,-6.122910976E-1
1.384249258E0,2.279624939E-1,-3.936967850E-1,-5.105018616E-1
1.392245167E0,3.441772461E-1,-4.683341980E-1,-4.516410828E-1
1.400240614E0,5.157334805E-1,-4.641189575E-1,-5.965373516E-1
1.408236215E0,7.388954163E-1,-4.272031784E-1,-5.581520796E-1
1.416231046E0,8.884663582E-1,-3.602590561E-1,-5.999388695E-1
1.424258108E0,1.025674105E0,-2.276906967E-1,-5.730769634E-1
1.432253787E0,1.032847404E0,-9.190273285E-2,-5.662281513E-1
1.440248772E0,9.526379108E-1,3.974342346E-2,-5.266793966E-1
1.448244758E0,8.332750797E-1,1.003751755E-1,-4.685378075E-1
1.456239512E0,6.395659447E-1,1.669654846E-1,-4.342899323E-1
1.464236189E0,4.557585716E-1,2.204685211E-1,-3.644081354E-1
1.472231560E0,2.879657745E-1,2.373523712E-1,-2.715259790E-1
1.480257314E0,1.467285156E-1,2.489976883E-1,-2.044577599E-1
1.488253069E0,7.360148430E-2,2.605075836E-1,-2.186758518E-1
1.496248439E0,5.606484413E-2,2.389888763E-1,-1.621838808E-1
1.504244347E0,8.550071716E-2,1.751737595E-1,-1.293957233E-1
1.512240102E0,3.744435310E-2,1.122455597E-1,-1.059166193E-1
1.520235164E0,-3.731274605E-2,-1.900482178E-2,-2.747285366E-2
1.528230766E0,-8.154678345E-2,-1.157007217E-1,1.465075016E-1
1.536256059E0,-1.537976265E-1,-2.451524734E-1,3.764507771E-1
1.544252351E0,-2.701373100E-1,-3.458080292E-1,5.308089256E-1
1.552248568E0,-3.950338364E-1,-4.579954147E-1,7.377058268E-1
1.560243938E0,-5.028295517E-1,-5.472974777E-1,1.043829203E0
1.568239308E0,-4.807484150E-1,-6.190681458E-1,1.114665747E0
1.576234678E0,-4.316630363E-1,-6.403369904E-1,1.171840429E0
1.584230741E0,-4.064774513E-1,-6.137495041E-1,1.261510849E0
1.592255957E0,-5.360603333E-1,-5.701971054E-1,1.362025023E0
1.600252557E0,-8.688855171E-1,-4.874973297E-1,1.504509687E0
1.608247928E0,-1.177875042E0,-4.535913467E-1,1.786828041E0
1.616239836E0,-1.488872290E0,-5.381326675E-1,2.375363827E0
1.624239283E0,-1.694109201E0,-7.086391449E-1,2.931109905E0
1.632234961E0,-1.831083536E0,-9.429283142E-1,3.696309566E0
1.640230869E0,-1.963822007E0,-1.197149277E0,4.579839706E0
1.648256393E0,-2.192449093E0,-1.412126541E0,5.792764664E0
1.656251224E0,-2.552121878E0,-1.553077698E0,6.823002815E0
1.664248057E0,-2.902308941E0,-1.665246010E0,7.468168736E0
1.672243503E0,-3.477802515E0,-1.728767395E0,7.989318848E0
1.680238180E0,-4.066918850E0,-1.967907906E0,8.318100929E0
1.688235474E0,-4.822151184E0,-2.489740372E0,8.546881676E0
1.696229305E0,-5.446872234E0,-2.977855682E0,8.511569977E0
1.704255138E0,-5.732859612E0,-3.278727531E0,8.705824852E0
1.712251738E0,-5.820044041E0,-3.581972122E0,9.017466545E0
1.720247108E0,-5.513589859E0,-3.848076820E0,9.214967728E0
1.728243632E0,-4.845242977E0,-4.179812431E0,9.515690804E0
1.736237848E0,-4.233072281E0,-4.531925201E0,9.431969643E0
1.744234372E0,-3.649334431E0,-4.802800179E0,9.261487007E0
1.752229742E0,-3.121901989E0,-5.072189331E0,8.815132141E0
1.760255573E0,-2.530894756E0,-5.335127831E0,8.227886200E0
1.768251021E0,-1.787225008E0,-5.507376671E0,7.316632271E0
1.776244467E0,-1.279448628E0,-5.574405670E0,6.403494835E0
1.784242684E0,-7.699941397E-1,-5.643892288E0,5.526850700E0
1.792238361E0,-2.766630650E-1,-5.768737793E0,4.791137695E0
1.800234039E0,2.477307320E-1,-5.946437836E0,4.346997261E0
1.808229640E0,9.274935722E-1,-6.096105576E0,3.934427738E0
1.816254317E0,1.609298944E0,-6.146359444E0,3.521355152E0
1.824250611E0,2.273794174E0,-6.104131699E0,3.194518089E0
1.832246904E0,2.706514835E0,-6.041131973E0,2.812522411E0
1.840241966E0,2.941302538E0,-6.088408470E0,2.448321342E0
1.848237644E0,3.082971811E0,-6.162195683E0,2.056979656E0
1.856232937E0,3.097319603E0,-6.172502041E0,1.826273441E0
1.864228923E0,2.996347189E0,-6.096106052E0,1.615736961E0
1.872255754E0,2.808249474E0,-6.132073402E0,1.314103603E0
1.880250431E0,2.598322153E0,-6.206082344E0,1.109892845E0
1.888246725E0,2.491923809E0,-6.160692692E0,1.020403385E0
1.896241556E0,2.518984079E0,-6.073025703E0,8.065199852E-1
1.904237465E0,2.695042133E0,-5.967170715E0,4.969954491E-1
1.912233835E0,2.907117367E0,-5.961278439E0,1.004028320E-1
1.920228281E0,3.178361893E0,-5.839403152E0,-1.586990356E-1
1.928254729E0,3.517265320E0,-5.739458561E0,-2.948560715E-1
1.936247253E0,3.744562626E0,-5.720660210E0,-2.171335220E-1
1.944246392E0,3.824467659E0,-5.703873158E0,-1.121635437E-1
1.952241070E0,3.780930281E0,-5.713379860E0,-1.260061264E-1
1.960237747E0,3.530333281E0,-5.581541538E0,-6.958103180E-2
1.968233348E0,3.266853809E0,-5.567907333E0,-1.874103546E-1
1.976227872E0,2.888767958E0,-5.526655197E0,-5.436954498E-1
1.984254858E0,2.444048405E0,-5.459109306E0,-1.065678120E0
1.992250305E0,2.060756445E0,-5.272446632E0,-1.383796215E0
2.000244675E0,1.720479250E0,-5.004278660E0,-1.529433250E0
2.008241891E0,1.768875360E0,-4.921288490E0,-1.381638050E0
2.016235722E0,2.102597475E0,-4.861882210E0,-1.475440502E0
2.024232631E0,2.543686867E0,-4.895923615E0,-1.456264973E0
2.032227770E0,2.839610100E0,-4.914761543E0,-1.523840904E0
2.040253525E0,2.982885838E0,-4.889709473E0,-1.793291569E0
2.048249818E0,3.129160643E0,-4.875636578E0,-2.041921139E0
2.056244957E0,3.218535423E0,-4.753275394E0,-2.231459141E0
2.064241174E0,3.314339638E0,-4.659477711E0,-2.400220871E0
2.072236543E0,3.281148911E0,-4.664933205E0,-2.553094864E0
2.080231375E0,3.216893196E0,-4.635920525E0,-2.639263630E0
2.088227361E0,3.185773373E0,-4.643617630E0,-2.922404766E0
2.096250038E0,3.064874649E0,-4.583320618E0,-3.096132755E0
2.104248793E0,2.898724556E0,-4.517627239E0,-3.329084396E0
2.112244547E0,2.588243723E0,-4.307723045E0,-3.581812859E0
2.120240456E0,2.285273552E0,-4.143797398E0,-3.742167950E0
2.128236441E0,2.069209337E0,-4.129749298E0,-4.011840343E0
2.136230965E0,1.966331482E0,-4.056914330E0,-4.556958199E0
2.144227489E0,1.962997794E0,-3.991929054E0,-5.001253128E0
2.152253398E0,2.078276157E0,-3.725672960E0,-5.918236732E0
2.160248076E0,2.377968073E0,-3.261369228E0,-6.967468262E0
2.168244676E0,2.782760143E0,-2.849393606E0,-7.528167725E0
2.176239200E0,3.154117346E0,-2.327892065E0,-7.872710705E0
2.184236109E0,3.361145973E0,-1.957123280E0,-8.242620468E0
2.192230555E0,3.584822178E0,-1.584364653E0,-8.479745865E0
2.200227080E0,3.688570499E0,-1.381644368E0,-8.428578377E0
2.208253526E0,3.522617340E0,-1.029859304E0,-8.675940514E0
2.216247742E0,3.330751419E0,-5.076187849E-1,-9.083489418E0
2.224244651E0,3.185718060E0,-5.697894096E-2,-9.475124359E0
2.232241175E0,3.098423958E0,4.652602673E-1,-1.001266003E1
2.240235392E0,2.950188637E0,8.477594852E-1,-1.042283058E1
2.248230454E0,2.604983807E0,1.199354649E0,-1.097020340E1
2.256225823E0,2.118425369E0,1.526243210E0,-1.152912712E1
2.264252501E0,1.739661574E0,1.666748047E0,-1.191398621E1
2.272248486E0,1.390534163E0,1.675600767E0,-1.211460876E1
2.280244165E0,1.273437500E0,1.543851614E0,-1.198704147E1
2.288239534E0,1.187641263E0,1.278228045E0,-1.163685989E1
2.296234981E0,1.142531395E0,1.079532385E0,-1.117148209E1
2.304230890E0,1.060763001E0,8.740220070E-1,-1.051944447E1
2.312226567E0,8.942736387E-1,7.966279984E-1,-9.993426323E0
2.320252092E0,6.929861307E-1,7.937240601E-1,-9.559060097E0
2.328247538E0,4.932241440E-1,7.540311813E-1,-9.122467041E0
2.336243523E0,3.010392189E-1,6.978280544E-1,-8.812837601E0
2.344239202E0,5.974149704E-2,6.477971077E-1,-8.417168617E0
2.352234495E0,-1.981775761E-1,6.146657467E-1,-8.079764366E0
2.360230173E0,-3.875105381E-1,5.409525633E-1,-7.703412056E0
2.368256619E0,-4.964177608E-1,2.773876190E-1,-7.152128696E0
2.376251989E0,-4.629948139E-1,-2.317094803E-2,-6.601978302E0
2.384247129E0,-2.340843678E-1,-3.825449944E-1,-5.919084549E0
2.392243345E0,1.251387596E-2,-6.447130442E-1,-5.400095463E0
2.400238715E0,3.409585953E-1,-7.280648351E-1,-4.830120564E0
2.408234393E0,7.267849445E-1,-7.620602250E-1,-4.449158192E0
2.416229456E0,1.047062397E0,-7.622125745E-1,-4.080434799E0
2.424255979E0,1.428238392E0,-8.380140066E-1,-3.530479431E0
2.432251964E0,1.588549614E0,-9.224241972E-1,-2.986982346E0
2.440247027E0,1.637491584E0,-1.059527993E0,-2.379504204E0
2.448242935E0,1.631993532E0,-1.264719486E0,-1.705304623E0
2.456237383E0,1.587412119E0,-1.400285006E0,-1.187395096E0
2.464234675E0,1.405468583E0,-1.504584312E0,-7.256784439E-1
2.472230276E0,1.095773697E0,-1.494365811E0,-4.188642502E-1
2.480255800E0,6.536914110E-1,-1.450096011E0,-1.979732513E-1
2.488251247E0,2.695542574E-1,-1.355806708E0,-2.189311981E-1
2.496243156E0,-1.101601124E-2,-1.145527363E0,-7.722854614E-2
2.504242910E0,-1.653631926E-1,-8.831338286E-1,9.076404572E-2
2.512238511E0,-2.601487637E-1,-6.825641990E-1,2.395706177E-1
2.520233574E0,-3.765585423E-1,-5.324021578E-1,4.697256088E-1
2.528228943E0,-5.176037550E-1,-5.186563730E-1,7.811117172E-1
2.536254468E0,-5.375902653E-1,-6.772780418E-1,1.169157982E0
2.544252068E0,-4.645091295E-1,-8.674095869E-1,1.404586792E0
2.552246822E0,-3.332763910E-1,-1.006197453E0,1.517588615E0
2.560242424E0,-2.831357718E-1,-1.128714442E0,1.634485245E0
2.568237255E0,-2.700065374E-1,-1.094722986E0,1.786515236E0
2.576232626E0,-1.813926101E-1,-8.252440691E-1,1.636504173E0
2.584229149E0,-6.051015854E-2,-4.439460039E-1,1.486787796E0
2.592255365E0,8.018237352E-2,-1.575906277E-1,1.345222473E0
2.600250659E0,1.521098614E-1,-6.326496601E-2,9.490003586E-1
2.608245797E0,2.215680778E-1,-2.027390003E-1,7.390708923E-1
2.616242014E0,2.935948372E-1,-4.435756207E-1,6.126308441E-1
2.624237153E0,3.351113498E-1,-6.222891808E-1,6.127643585E-1
2.632233369E0,3.976317048E-1,-8.166251183E-1,5.547199249E-1
2.640227816E0,3.753762245E-1,-8.707957268E-1,6.202898026E-1
2.648254878E0,3.475241363E-1,-8.277676105E-1,7.232217789E-1
2.656250249E0,3.866424561E-1,-6.786460876E-1,7.915239334E-1
2.664245696E0,4.620453417E-1,-5.172278881E-1,8.107614517E-1
2.672240450E0,5.097697973E-1,-3.483104706E-1,8.887662888E-1
2.680237590E0,5.415661931E-1,-2.463533878E-1,6.856346130E-1
2.688233344E0,5.785578489E-1,-2.618358135E-1,5.700969696E-1
2.696228099E0,6.236141920E-1,-4.774351120E-1,4.611320496E-1
2.704254546E0,6.825263500E-1,-7.635149956E-1,1.936912537E-1
2.712250146E0,7.511734962E-1,-1.030867100E0,-3.973865509E-2
2.720245209E0,8.272773623E-1,-1.149349928E0,-1.862678528E-1
2.728240886E0,1.054748058E0,-1.135871410E0,-2.796106339E-1
2.736236257E0,1.277111530E0,-1.055286169E0,-3.465909958E-1
2.744232011E0,1.379102588E0,-9.369170666E-1,-3.446836472E-1
2.752227920E0,1.385964513E0,-7.947661877E-1,-2.567424774E-1
2.760254675E0,1.216223717E0,-6.219003201E-1,-9.542846680E-2
2.768249506E0,8.665274382E-1,-5.002179146E-1,8.076667786E-2
2.776244799E0,5.068534613E-1,-4.945244789E-1,1.858196259E-1
2.784241092E0,2.719954252E-1,-6.536083221E-1,3.861427307E-1
2.792236847E0,2.787625790E-1,-9.521536827E-1,4.363365173E-1
2.800232448E0,4.737479687E-1,-1.055295944E0,3.434019089E-1
2.808227510E0,7.599153519E-1,-1.067804575E0,2.100372314E-1
2.816253727E0,9.402804375E-1,-9.896390438E-1,-5.550479889E-2
2.824249327E0,1.039298773E0,-8.967909813E-1,-3.123922348E-1
2.832245082E0,9.671556950E-1,-7.836399078E-1,-6.180953979E-1
2.840240375E0,8.075723648E-1,-6.853780746E-1,-8.143448830E-1
2.848236129E0,6.186492443E-1,-5.754184723E-1,-8.479495049E-1
2.856230884E0,4.782772064E-1,-4.368510246E-1,-5.593638420E-1
2.864226869E0,3.197412491E-1,-2.989015579E-1,-2.260313034E-1
2.872252932E0,2.952840328E-1,-2.699136734E-1,1.000585556E-1
2.880248302E0,3.626875877E-1,-4.681763649E-1,3.135786057E-1
2.888243979E0,4.619302750E-1,-7.564916611E-1,4.031534195E-1
2.896239658E0,5.098912716E-1,-8.959169388E-1,5.025091171E-1
2.904236027E0,5.673959255E-1,-9.754261971E-1,4.220485687E-1
2.912231013E0,5.602793694E-1,-8.903484344E-1,3.280935287E-1
2.920226998E0,5.524773598E-1,-7.095088959E-1,6.948566437E-2
2.928252291E0,5.762233734E-1,-3.986063004E-1,-2.508707047E-1
2.936248277E0,6.180274487E-1,-1.244449615E-1,-4.629411697E-1
2.944243954E0,6.523571014E-1,6.331014633E-2,-5.619926453E-1
2.952239940E0,7.098128796E-1,7.427024841E-2,-4.384484291E-1
2.960235310E0,9.211428165E-1,-1.522283554E-1,-6.087732315E-2
2.968231218E0,1.247145176E0,-4.584035873E-1,4.015035629E-1
2.976225666E0,1.481191397E0,-8.674516678E-1,7.508678436E-1
2.984251881E0,1.614613295E0,-1.383347034E0,9.767165184E-1
2.992247868E0,1.585308313E0,-1.633983612E0,9.763383865E-1
3.000243853E0,1.413447380E0,-1.758140564E0,9.466886520E-1
3.008239530E0,1.172898769E0,-1.719418049E0,1.192788124E0
3.016234285E0,9.631371498E-1,-1.503886223E0,1.426118374E0
3.024231116E0,7.060012817E-1,-1.259177685E0,1.613426208E0
3.032226487E0,4.672994614E-1,-1.011770725E0,1.709463596E0
3.040251780E0,1.381354332E-1,-7.751436234E-1,1.710695744E0
3.048248688E0,-1.073057652E-1,-5.847783089E-1,1.785312653E0
3.056242443E0,-3.034563065E-1,-6.177196503E-1,1.876400471E0
3.064239351E0,-4.614343643E-1,-9.100203514E-1,1.850608826E0
3.072234799E0,-5.489349365E-1,-1.256808758E0,1.947182655E0
3.080230399E0,-4.274282455E-1,-1.472111702E0,1.990831852E0
3.088226154E0,-1.680102348E-1,-1.484295845E0,1.901172638E0
3.096251293E0,1.445574760E-1,-1.511263847E0,1.702995777E0
3.104247278E0,3.913989067E-1,-1.483014584E0,1.372745991E0
3.112242726E0,6.071496010E-1,-1.322505474E0,1.423426628E0
3.120238942E0,8.102722168E-1,-9.797525406E-1,1.478170395E0
3.128234081E0,9.376387596E-1,-6.374049187E-1,1.516024590E0
3.136228836E0,1.018707275E0,-3.913092613E-1,1.418437004E0
3.144225667E0,9.410014153E-1,-4.331035614E-1,1.282804489E0
3.152251499E0,6.748723984E-1,-5.871958733E-1,1.100898266E0
3.160246946E0,2.846436501E-1,-6.682157516E-1,9.841265678E-1
3.168242547E0,-7.501316071E-2,-6.055412292E-1,9.515204430E-1
3.176237993E0,-3.288521767E-1,-5.752959251E-1,9.794015884E-1
3.184233902E0,-4.187517166E-1,-6.351170540E-1,9.925365448E-1
3.192229272E0,-4.355292320E-1,-8.616747856E-1,1.014658451E0
3.200255103E0,-3.594532013E-1,-9.801692963E-1,1.008674145E0
3.208251166E0,-2.895112038E-1,-9.508080482E-1,1.079659462E0
3.216242767E0,-1.050562859E-1,-7.791929245E-1,1.115516663E0
3.224242752E0,4.925060272E-2,-6.048045158E-1,1.171401978E0
3.232238122E0,1.752529144E-1,-4.158883095E-1,1.158715725E0
3.240233492E0,2.107372284E-1,-4.065284729E-1,1.052689552E0
3.248229170E0,1.332206726E-1,-4.826374054E-1,9.602284431E-1
3.256224309E0,2.533102036E-2,-6.146254539E-1,8.522956371E-1
3.264251063E0,-1.316280365E-1,-7.036142349E-1,7.819316387E-1
3.272245819E0,-4.016132355E-1,-7.685346603E-1,7.004446983E-1
3.280241804E0,-6.574206352E-1,-7.637219429E-1,6.744446754E-1
3.288238405E0,-9.259896278E-1,-7.338685989E-1,7.443599701E-1
3.296232236E0,-1.126321077E0,-6.883482933E-1,6.907243729E-1
3.304229375E0,-1.214244843E0,-6.650004387E-1,7.388713360E-1
3.312224823E0,-1.176953316E0,-6.592774391E-1,7.850782871E-1
3.328245948E0,-7.479715347E-1,-3.204360008E-1,8.311505318E-1
3.336240702E0,-4.077086449E-1,-1.189088821E-1,7.579023838E-1
3.344236764E0,-5.106449127E-2,-4.658269882E-2,7.480621338E-1
3.352232981E0,2.566165924E-1,-4.902935028E-2,6.595523357E-1
3.360228119E0,3.272757530E-1,-2.068042755E-2,5.773024559E-1
3.368254259E0,2.326269150E-1,-5.381870270E-2,4.694256783E-1
3.376247167E0,1.539416313E-1,-6.593418121E-2,4.031479359E-1
3.384246460E0,6.972551346E-2,-1.900701523E-1,4.001421928E-1
3.392241215E0,-5.848455429E-2,-2.724113464E-1,5.938806534E-1
3.400236970E0,-2.410345078E-1,-3.585376740E-1,8.201484680E-1
3.408232340E0,-4.262490273E-1,-5.493478775E-1,1.055634260E0
3.416228018E0,-5.152735710E-1,-6.393232346E-1,1.122228384E0
3.424254695E0,-5.604875088E-1,-6.625728607E-1,1.102733850E0
3.432250142E0,-6.777756214E-1,-5.740871429E-1,1.092935562E0
3.440245435E0,-6.729354858E-1,-4.772634506E-1,1.062430620E0
3.448240883E0,-4.245860577E-1,-4.871578217E-1,9.399316311E-1
3.456235868E0,-1.322946548E-1,-4.915609360E-1,6.753451824E-1
3.464232468E0,4.173231125E-2,-4.928169250E-1,3.971581459E-1
3.472227608E0,1.442608833E-1,-4.452581406E-1,2.500228882E-1
3.480253362E0,2.106151581E-1,-4.559288025E-1,8.726143837E-2
3.488249118E0,2.940282822E-1,-4.934101105E-1,-4.910707474E-3
3.496244179E0,3.420615196E-1,-4.905395508E-1,-4.958391190E-3
3.504240472E0,3.397283554E-1,-5.146198273E-1,1.183242798E-1
3.512236074E0,3.941957951E-1,-5.873794556E-1,3.100821972E-1
3.520231520E0,5.062241554E-1,-7.001142502E-1,5.268297195E-1
3.528227506E0,6.123652458E-1,-8.364667892E-1,6.276710033E-1
3.536252414E0,6.830878258E-1,-8.962888718E-1,6.746060848E-1
3.544248939E0,6.706304550E-1,-8.674144745E-1,6.296482086E-1
3.552245231E0,5.990567207E-1,-7.954502106E-1,5.879409313E-1
3.560240293E0,5.555231571E-1,-7.398777008E-1,4.558169842E-1
3.568235741E0,4.324021339E-1,-6.934833527E-1,4.247028828E-1
3.576230726E0,1.947417259E-1,-6.556386948E-1,3.682682514E-1
3.584227097E0,-4.233551025E-2,-6.188278198E-1,3.327903748E-1
3.592253159E0,-1.823852062E-1,-5.467786789E-1,3.543167114E-1
3.600248836E0,-2.821016312E-1,-4.991674423E-1,4.753937721E-1
3.608244591E0,-2.288842201E-1,-4.806852341E-1,4.352471828E-1
3.616235268E0,-1.354775429E-1,-4.387092590E-1,4.519116879E-1
3.624235562E0,-3.029608727E-2,-3.589992523E-1,4.430954456E-1
3.632231009E0,9.921979904E-2,-2.846517563E-1,2.546823025E-1
3.640226378E0,2.433557510E-1,-1.867141724E-1,6.474518776E-2
3.648252518E0,3.043940067E-1,-1.341848373E-1,-6.371474266E-2
3.656248119E0,4.000427723E-1,-5.982208252E-2,-1.976730824E-1
3.664244105E0,4.429674149E-1,-3.993606567E-2,-3.524243832E-1
3.672240090E0,4.267327785E-1,-1.704311371E-2,-4.404399395E-1
3.680235459E0,3.889577389E-1,2.306175232E-2,-5.737111568E-1
3.688230291E0,3.256895542E-1,9.005832672E-2,-6.034901142E-1
3.696225277E0,2.120528221E-1,1.076622009E-1,-6.086993217E-1
3.704252416E0,9.869933128E-2,1.289434433E-1,-5.598905087E-1
3.712247786E0,4.835677147E-2,8.715248108E-2,-5.406458378E-1
3.720243079E0,5.868268013E-2,3.978919983E-2,-5.604560375E-1
3.728239142E0,5.722022057E-2,2.466583252E-2,-5.217659473E-1
3.736234127E0,5.091071129E-2,-6.606197357E-2,-5.537910461E-1
3.744231036E0,7.080292702E-2,-1.512460709E-1,-5.326845646E-1
3.752225867E0,1.505460739E-1,-2.960405350E-1,-4.842445850E-1
3.760252237E0,2.490487099E-1,-4.199485779E-1,-4.108991623E-1
3.768247607E0,2.827281952E-1,-4.780988693E-1,-2.864022255E-1
3.776239900E0,2.045834064E-1,-4.730186462E-1,-5.999946594E-2
3.784238424E0,2.837538719E-2,-4.402151108E-1,1.067113876E-2
3.792234640E0,-2.487418652E-1,-3.836431503E-1,4.996204376E-2
3.800230318E0,-4.203913212E-1,-2.884817123E-1,1.282393932E-1
3.808225688E0,-3.850569725E-1,-2.631216049E-1,3.797433376E-1
3.816251519E0,-2.244532108E-1,-4.452877045E-1,7.662363052E-1
3.824247198E0,-2.581293583E-1,-6.390657425E-1,1.336063385E0
3.832243183E0,-5.147566795E-1,-7.585105896E-1,2.081696272E0
3.840237706E0,-7.825071812E-1,-7.541093826E-1,2.811679363E0
3.848234846E0,-1.049956322E0,-8.764047623E-1,3.664404631E0
3.856228754E0,-1.200964689E0,-1.105078697E0,4.296803951E0
3.864225586E0,-1.253512144E0,-1.282098770E0,4.724828720E0
3.872251725E0,-1.321451426E0,-1.373267174E0,5.022922516E0
3.880247402E0,-1.476200104E0,-1.398358345E0,5.144456863E0
3.888243081E0,-1.866896868E0,-1.338038445E0,5.141515732E0
3.896237527E0,-2.253038406E0,-1.297051430E0,5.005309105E0
3.904234206E0,-2.565074205E0,-1.319925308E0,4.908366203E0
3.912230191E0,-2.564102888E0,-1.381997108E0,4.853353500E0
3.920224638E0,-2.457710028E0,-1.500105858E0,4.839811325E0
3.928251316E0,-2.313429356E0,-1.648106575E0,4.767723083E0
3.936243685E0,-2.139094830E0,-1.859658241E0,4.731190681E0
3.944242748E0,-1.978173852E0,-2.070407867E0,4.727906227E0
3.952237425E0,-1.716402650E0,-2.304908752E0,4.652151585E0
3.960233488E0,-1.419799447E0,-2.544858932E0,4.570728302E0
3.968229166E0,-1.099993706E0,-2.797942162E0,4.604287148E0
3.976224766E0,-8.436124325E-1,-2.969318390E0,4.598400593E0
3.984251291E0,-4.517478943E-1,-3.220103264E0,4.444264889E0
3.992246353E0,-1.153032780E-1,-3.376249313E0,4.190952301E0
4.000242262E0,2.678194046E-1,-3.473656654E0,3.912414551E0
4.008237631E0,6.277825832E-1,-3.603518486E0,3.720412254E0
4.016232693E0,8.434677124E-1,-3.674662590E0,3.517457962E0
4.024229064E0,9.228465557E-1,-3.706156731E0,3.332924366E0
4.032224741E0,8.997192383E-1,-3.683392048E0,3.122457981E0
4.040250496E0,8.313689232E-1,-3.661041737E0,2.880351067E0
4.048245943E0,8.457000256E-1,-3.662680149E0,2.665880203E0
4.056241928E0,8.642599583E-1,-3.769453526E0,2.521336079E0
4.064236991E0,8.995103836E-1,-3.929145813E0,2.557299137E0
4.072232976E0,9.221410751E-1,-4.182166576E0,2.605421543E0
4.080228654E0,1.000972748E0,-4.479008675E0,2.773561954E0
4.088224255E0,1.273973227E0,-4.744393349E0,2.527340412E0
4.096246701E0,1.654165268E0,-4.846824169E0,2.213927269E0
4.104245764E0,2.068319082E0,-4.862741470E0,1.904287815E0
4.112241749E0,2.441244364E0,-4.943122864E0,1.716341019E0
4.120236274E0,2.590319633E0,-4.977726936E0,1.454856873E0
4.128232566E0,2.650939226E0,-4.995522022E0,1.192880630E0
4.136227936E0,2.621776581E0,-4.934829235E0,1.066697121E0
4.144223922E0,2.533011436E0,-4.879841328E0,1.033338547E0
4.152250907E0,2.353292942E0,-4.936234951E0,1.022207260E0
4.160244816E0,2.076812744E0,-4.957652569E0,8.918390274E-1
4.168241109E0,1.878908515E0,-4.929307938E0,7.447319031E-1
4.176235786E0,1.711219668E0,-4.863136768E0,6.345109940E-1
4.184231772E0,1.621308923E0,-4.805000782E0,3.906545639E-1
4.192227834E0,1.640624523E0,-4.778242111E0,3.101758957E-1
4.200253359E0,1.761498451E0,-4.736659050E0,2.900562286E-1
4.208249344E0,1.922338009E0,-4.747474194E0,2.984952927E-1
4.216244406E0,2.045939207E0,-4.796936512E0,1.885757446E-1
4.224240084E0,2.131526470E0,-4.847079277E0,3.877449036E-2
4.232236377E0,2.211385727E0,-4.842146397E0,3.223896027E-2
4.240230824E0,2.300395012E0,-4.862947941E0,-3.445053101E-2
4.248227348E0,2.410806656E0,-4.901174545E0,-2.265510559E-1
4.256250102E0,2.384618282E0,-4.831486702E0,-4.048519135E-1
4.264248934E0,2.364291668E0,-4.817815781E0,-6.432399750E-1
4.272244535E0,2.427375793E0,-4.745580673E0,-8.549976349E-1
4.280240521E0,2.571340561E0,-4.686770916E0,-1.092263222E0
4.288235890E0,2.637248516E0,-4.586888790E0,-1.067377090E0
4.296230953E0,2.709650993E0,-4.381318092E0,-7.559537888E-1
4.304226630E0,2.814823866E0,-4.436308861E0,-3.263044357E-1
4.312222692E0,2.818494558E0,-4.582864285E0,7.521438599E-2
4.320248755E0,2.694325447E0,-4.900025368E0,6.809139252E-2
4.328244125E0,2.378519297E0,-5.247241974E0,-1.197814941E-1
4.336236188E0,1.971526146E0,-5.541618347E0,-1.961240768E-1
4.344235250E0,1.798731327E0,-5.659151077E0,-2.398338318E-1
4.352230620E0,1.766234875E0,-5.603234291E0,-2.603178024E-1
4.360227144E0,1.777903080E0,-5.561542034E0,-3.271446228E-1
4.368253360E0,1.720267296E0,-5.571948528E0,-3.613214493E-1
4.376247500E0,1.615875006E0,-5.612906933E0,-4.202480316E-1
4.384243792E0,1.580166459E0,-5.624262333E0,-4.893302917E-1
4.392239470E0,1.474803805E0,-5.537798882E0,-5.970392227E-1
4.400235071E0,1.418138146E0,-5.466850281E0,-7.023696899E-1
4.408230748E0,1.314678788E0,-5.425764084E0,-8.747558594E-1
4.416225581E0,1.249968290E0,-5.467386723E0,-9.991922379E-1
4.424252566E0,1.231423616E0,-5.544223785E0,-1.231492043E0
4.432247935E0,1.246114016E0,-5.494667530E0,-1.536837578E0
4.440243306E0,1.253648877E0,-5.356310368E0,-2.022415161E0
4.448238983E0,1.251511693E0,-5.129235268E0,-2.619790554E0
4.456233738E0,1.163060904E0,-4.961384773E0,-3.255360603E0
4.464230416E0,1.075235605E0,-4.795964241E0,-4.094387054E0
4.472226016E0,9.546100497E-1,-4.549979210E0,-4.926202297E0
4.480252156E0,8.720554709E-1,-4.298397064E0,-5.840795040E0
4.488248218E0,8.822529316E-1,-3.919380665E0,-7.030778885E0
4.496242589E0,1.138364434E0,-3.607682467E0,-8.048030853E0
4.504238958E0,1.729705572E0,-3.192226410E0,-9.150578499E0
4.512235482E0,2.442506552E0,-2.801951885E0,-1.001709652E1
4.520229699E0,2.914695501E0,-2.563733101E0,-1.039587116E1
4.528225914E0,3.086818457E0,-2.287337780E0,-1.081895638E1
4.536250823E0,2.973814011E0,-2.087453365E0,-1.131617928E1
4.544247732E0,2.658509254E0,-1.801782608E0,-1.174464035E1
4.552243717E0,2.290803909E0,-1.590420961E0,-1.210781002E1
4.560238779E0,1.883853555E0,-1.294521570E0,-1.250882721E1
4.568234226E0,1.542830348E0,-1.066039085E0,-1.293735123E1
4.576229289E0,1.324546576E0,-8.293714523E-1,-1.346222687E1
4.584225274E0,1.145727158E0,-5.946450233E-1,-1.383959007E1
4.592251951E0,9.628721476E-1,-4.605064392E-1,-1.401832008E1
4.600247399E0,6.829434037E-1,-5.003776550E-1,-1.381564236E1
4.608242692E0,4.464235306E-1,-8.115096092E-1,-1.342227364E1
4.616237755E0,2.558363676E-1,-1.225165129E0,-1.293196201E1
4.624233509E0,5.066215992E-2,-1.607576370E0,-1.220211792E1
4.632230110E0,-1.092942953E-1,-1.776777506E0,-1.167487431E1
4.640224864E0,-3.811873198E-1,-1.870687962E0,-1.108419132E1
4.648250619E0,-5.802741051E-1,-1.908753395E0,-1.059095192E1
4.656245989E0,-6.651465893E-1,-2.011491060E0,-1.010864067E1
4.664242359E0,-5.626622438E-1,-2.156445026E0,-9.587721825E0
4.672237960E0,-4.119874239E-1,-2.269232035E0,-9.034972191E0
4.680232792E0,-2.300291061E-1,-2.210441828E0,-8.258062363E0
4.688228392E0,-3.747344017E-2,-2.150643587E0,-7.533103943E0
4.696223763E0,2.380513549E-1,-2.193104267E0,-6.564203262E0
4.704249978E0,6.303306818E-1,-2.343673706E0,-5.692095757E0
4.712246272E0,9.856417179E-1,-2.462298393E0,-5.087485790E0
4.720241949E0,1.398608446E0,-2.530764341E0,-4.435341358E0
4.728237627E0,1.719478250E0,-2.464964390E0,-3.854879856E0
4.736232382E0,1.946428418E0,-2.309889793E0,-3.077838421E0
4.744228982E0,1.985230207E0,-2.136519909E0,-2.357319355E0
4.752224276E0,1.894118309E0,-2.005103588E0,-1.588150978E0
4.760250800E0,1.642723083E0,-2.026221514E0,-7.608737946E-1
4.768247092E0,1.325366497E0,-2.029442787E0,-1.194086075E-1
4.776241155E0,8.879054785E-1,-2.097881317E0,4.130582809E-1
4.784236833E0,5.432627797E-1,-2.081326008E0,5.922393799E-1
4.792232203E0,2.051449120E-1,-1.950080752E0,6.404266357E-1
4.800228188E0,-1.971373335E-3,-1.741988540E0,4.283037186E-1
4.808224558E0,-5.810483918E-2,-1.578542948E0,2.356081009E-1
4.816246621E0,4.440306127E-2,-1.571334720E0,3.307285309E-1
4.824245683E0,1.778281033E-1,-1.639913321E0,5.753421783E-1
4.832241361E0,3.541994691E-1,-1.905743837E0,1.032133102E0
4.840237346E0,4.964958727E-1,-2.199900389E0,1.516802788E0
4.848231562E0,6.933553219E-1,-2.309422970E0,1.727568626E0
4.856227548E0,8.360983729E-1,-2.367231369E0,1.649090767E0
4.864224379E0,8.230586648E-1,-2.351407766E0,1.541827202E0
4.872250288E0,6.138715148E-1,-2.273594856E0,1.216221809E0
4.880244965E0,4.009930491E-1,-2.027898073E0,7.539787292E-1
4.888240643E0,1.630663872E-1,-1.474148393E0,4.297065735E-1
4.896236398E0,5.209040642E-2,-1.029054046E0,3.603343964E-1
4.904231998E0,2.032568455E-1,-8.308708668E-1,6.481227875E-1
4.912227446E0,6.740930080E-1,-8.011690974E-1,9.952011108E-1
4.920223046E0,1.219789147E0,-8.105391860E-1,1.304709435E0
4.928248955E0,1.789465666E0,-9.311859012E-1,1.434301376E0
4.936244325E0,2.030310154E0,-1.163923502E0,1.361576080E0
4.944240310E0,1.976402640E0,-1.355590105E0,1.086405754E0
4.952235912E0,1.729218125E0,-1.480660558E0,6.832799911E-1
4.960232512E0,1.367245555E0,-1.413747191E0,3.088350296E-1
4.968227343E0,8.047509193E-1,-1.529613733E0,1.441411972E-1
4.976221791E0,3.801853657E-1,-1.745411277E0,1.931791306E-1
4.984248853E0,3.007864952E-1,-2.016861677E0,2.742147446E-1
4.992245454E0,5.551671982E-1,-1.948108435E0,3.177309036E-1
5.000240439E0,9.040122032E-1,-1.577586889E0,4.114589691E-1
5.008236116E0,1.332007647E0,-1.042320728E0,2.911186218E-1
5.016230564E0,1.572396755E0,-6.669313908E-1,7.638168335E-2
5.024226857E0,1.740645170E0,-5.844061375E-1,-3.600807190E-1
5.032222304E0,1.724274397E0,-7.618839741E-1,-6.969099045E-1
5.040247828E0,1.597747326E0,-8.902428150E-1,-7.456626892E-1
5.048244659E0,1.465978622E0,-1.059117317E0,-4.595336914E-1
5.056239183E0,1.313169479E0,-1.288610458E0,1.851940155E-2
5.064235168E0,1.192394018E0,-1.748592138E0,4.463100433E-1
5.072231077E0,1.236325502E0,-1.933372974E0,7.674570084E-1
5.080227062E0,1.392661810E0,-1.869876146E0,8.744163513E-1
5.088222125E0,1.369930267E0,-1.608669758E0,9.048719406E-1
5.096248034E0,1.262139082E0,-1.458466768E0,8.115472794E-1
5.104243634E0,1.126773834E0,-1.416954994E0,5.330038071E-1
5.112240312E0,1.009250164E0,-1.316503048E0,1.995058060E-1
5.120234990E0,9.050648212E-1,-1.158827782E0,-2.967357635E-2
5.128230976E0,8.148400784E-1,-8.215208054E-1,-3.128829002E-1
5.136225422E0,7.055540085E-1,-5.056657791E-1,-3.643584251E-1
5.144221792E0,5.852735043E-1,-5.680990219E-1,-4.319906235E-2
5.152248470E0,6.391973495E-1,-9.702758789E-1,3.338027000E-1
5.160243609E0,9.381744862E-1,-1.553990364E0,7.848081589E-1
5.168238980E0,1.324706793E0,-1.881000996E0,1.265033245E0
5.176233734E0,1.692662239E0,-1.928888321E0,1.613318443E0
5.184229950E0,1.896333456E0,-1.898968220E0,1.723240852E0
5.192226013E0,1.901457310E0,-1.912037373E0,1.540143967E0
5.200220998E0,1.668304682E0,-1.940107346E0,1.120083332E0
5.208247522E0,1.328216553E0,-1.789121151E0,6.941046715E-1
5.216239815E0,8.367516994E-1,-1.257349968E0,3.446331024E-1
5.224238184E0,4.247550964E-1,-3.873624802E-1,2.044587135E-1
5.232234863E0,1.681628227E-1,3.215885162E-2,2.800660133E-1
5.240229540E0,2.028141022E-1,-2.733817101E-1,3.870596886E-1
5.248224988E0,5.380053520E-1,-9.120168686E-1,4.136948586E-1
5.256220896E0,1.132810593E0,-1.608090878E0,6.764450073E-1
5.264247342E0,1.690350294E0,-1.938472271E0,8.535141945E-1
5.272243021E0,2.120111704E0,-2.013968468E0,9.853839874E-1
5.280238390E0,2.456737757E0,-2.105841160E0,9.481086731E-1
5.288233761E0,2.584874153E0,-2.176277637E0,8.391213417E-1
5.296228592E0,2.463886499E0,-2.032934666E0,8.347263336E-1
5.304224500E0,2.108190536E0,-1.496387482E0,8.112893105E-1
5.312221179E0,1.598499775E0,-8.108215332E-1,7.609095573E-1
5.320246625E0,1.025345087E0,-3.691711426E-1,7.494344711E-1
5.328242688E0,5.585949421E-1,-2.190833092E-1,7.427325249E-1
5.336237135E0,1.899504662E-1,-3.502793312E-1,8.190298080E-1
5.344233350E0,6.667327881E-2,-7.353186607E-1,8.706455231E-1
5.352229413E0,2.403073311E-1,-1.174499512E0,8.743758202E-1
5.360224168E0,7.294201851E-1,-1.392248154E0,8.271102905E-1
5.368251154E0,1.131278276E0,-1.365073681E0,8.777074814E-1
5.376242908E0,1.439809561E0,-1.332918644E0,8.640460968E-1
5.384241893E0,1.498136759E0,-1.355891705E0,8.061933517E-1
5.392237648E0,1.427243948E0,-1.333406448E0,9.040021896E-1
5.400233325E0,1.333339930E0,-1.133839607E0,1.043747425E0
5.408229235E0,1.215721369E0,-8.034133911E-1,1.169156551E0
5.416224296E0,9.793653488E-1,-3.855991364E-1,1.225437164E0
5.424250435E0,6.914045811E-1,-1.750631332E-1,1.154081583E0
5.432246191E0,2.477793694E-1,-1.162271500E-1,1.055069685E0
5.440242483E0,-8.840656281E-2,-1.939706802E-1,1.021116018E0
5.448237546E0,-3.283028603E-1,-4.286384583E-1,9.870409966E-1
5.456231993E0,-3.034801483E-1,-6.659631729E-1,9.186637402E-1
5.464228286E0,-7.752180099E-2,-8.581399918E-1,8.820066452E-1
5.472224272E0,2.158868313E-1,-1.005392075E0,9.577219486E-1
5.480250103E0,4.096221924E-1,-1.017302513E0,7.369418144E-1
5.488246319E0,5.218403339E-1,-9.414443970E-1,6.784346104E-1
5.496241074E0,6.000139713E-1,-7.750597000E-1,6.560463905E-1
5.504236521E0,6.811227798E-1,-5.657482147E-1,8.676156998E-1
5.512233660E0,7.352256775E-1,-3.205709457E-1,1.086459160E0
5.520228799E0,6.921868324E-1,-1.647491455E-1,1.236520529E0
5.528223477E0,5.191056728E-1,-1.367607117E-1,1.340779305E0
5.536246309E0,2.859411240E-1,-1.888933182E-1,1.357891321E0
5.544245679E0,-6.879758835E-2,-2.868032455E-1,1.363353968E0
5.552240741E0,-3.532171249E-1,-3.388128281E-1,1.339280605E0
5.560236649E0,-5.116121769E-1,-3.750467300E-1,1.328611374E0
5.568232712E0,-5.121984482E-1,-4.780912399E-1,1.380315065E0
5.576227082E0,-4.032182693E-1,-6.020021439E-1,1.353391409E0
5.584223375E0,-1.184074879E-1,-7.917423248E-1,1.333354235E0
5.592249822E0,1.522893906E-1,-9.419088364E-1,1.555185318E0
5.600245499E0,4.157974720E-1,-9.691953659E-1,1.810216427E0
5.608240870E0,6.944568157E-1,-9.688882828E-1,2.042979240E0
5.616233470E0,9.309096336E-1,-9.371557236E-1,2.101786375E0
5.624231687E0,1.127260685E0,-8.476772308E-1,2.036297321E0
5.632226980E0,1.134217262E0,-7.558374405E-1,1.957763791E0
5.640223888E0,9.564850330E-1,-7.259054184E-1,1.857749581E0
5.648249182E0,7.427208424E-1,-8.078126907E-1,1.842145920E0
5.656244474E0,6.364636421E-1,-8.839197159E-1,1.828712463E0
5.664240230E0,4.977157116E-1,-8.920507431E-1,1.721018314E0
5.672235599E0,3.158090115E-1,-9.425506592E-1,1.737743258E0
5.680232123E0,1.141920090E-1,-1.009152412E0,1.802542806E0
5.688227493E0,-1.082420349E-4,-1.049017906E0,2.060905457E0
5.696222632E0,-1.613361835E-1,-1.052584648E0,2.153453350E0
5.704247849E0,-3.264946938E-1,-1.007803917E0,2.386956692E0
5.712244988E0,-4.207379818E-1,-8.521966934E-1,2.490454912E0
5.720239819E0,-4.691975117E-1,-6.403245926E-1,2.662952185E0
5.728236036E0,-4.332933426E-1,-3.935995102E-1,2.767972469E0
5.736231098E0,-3.482689857E-1,-1.787204742E-1,2.969079018E0
5.744227392E0,-2.477281094E-1,-1.800374985E-1,2.981461525E0
5.752221838E0,-1.555178165E-1,-2.633686066E-1,3.236707449E0
5.760248900E0,-1.745510101E-1,-4.118127823E-1,3.604502201E0
5.768244655E0,-2.567009926E-1,-5.439558029E-1,3.700883389E0
5.776236333E0,-2.195956707E-1,-5.449466705E-1,3.649832487E0
5.784235319E0,-3.681588173E-2,-4.244518280E-1,3.454205513E0
5.792231611E0,8.366799355E-2,-2.972459793E-1,3.145145893E0
5.800226444E0,2.262229919E-1,-2.085647583E-1,2.732638121E0
5.808223044E0,3.867270947E-1,-1.605701447E-1,2.444021225E0
5.816247644E0,5.608456135E-1,-1.818037033E-1,2.138351917E0
5.824243553E0,7.608902454E-1,-2.557363510E-1,2.096063852E0
5.832239231E0,9.283208847E-1,-2.605400085E-1,2.230340481E0
5.840235217E0,8.449697495E-1,-1.653461456E-1,2.437147141E0
5.848230586E0,6.120386124E-1,-7.295608521E-2,2.754829407E0
5.856225418E0,3.000202179E-1,-5.705070496E-2,3.315917015E0
5.864222327E0,1.081612110E-1,-8.341598511E-2,4.004602909E0
5.872247850E0,-1.320052147E-1,-1.237258911E-1,4.860535622E0
5.880243452E0,-3.931319714E-1,-2.172079086E-1,5.580306530E0
5.888239206E0,-5.110132694E-1,-3.427305222E-1,6.125587463E0
5.896233960E0,-5.580973625E-1,-4.718713760E-1,6.192130566E0
5.904229946E0,-5.272257328E-1,-4.824266434E-1,6.097527504E0
5.912225854E0,-2.971696854E-1,-4.047975540E-1,6.073695660E0
5.920220917E0,1.606602669E-1,-4.540367126E-1,6.388943195E0
5.928247133E0,8.575847149E-1,-9.464902878E-1,7.052047253E0
5.936239964E0,1.495422602E0,-1.746827126E0,7.655072689E0
5.944238412E0,1.776163816E0,-2.480773926E0,8.134073257E0
5.952234781E0,1.429991722E0,-3.255021095E0,8.455595970E0
5.960230075E0,8.201677799E-1,-3.730844498E0,8.466053009E0
5.968225445E0,2.508091927E-2,-4.083104134E0,8.322003365E0
5.976220276E0,-7.659561634E-1,-4.244976997E0,7.961604118E0
5.984247339E0,-1.311300755E0,-4.285279274E0,7.503196239E0
5.992241708E0,-1.755534053E0,-4.225142479E0,7.013359070E0
6.000238387E0,-1.920642257E0,-4.179596901E0,6.647313118E0
6.008234679E0,-1.877330661E0,-4.163795471E0,6.224627495E0
6.016228511E0,-1.514931917E0,-4.290518761E0,5.938214302E0
6.024224727E0,-1.095667243E0,-4.380830765E0,5.586523056E0
6.032220712E0,-5.861327648E-1,-4.480579376E0,5.281628609E0
6.040246852E0,-1.263070107E-1,-4.621569633E0,4.880290031E0
6.048242914E0,3.534390926E-1,-4.799057961E0,4.101430893E0
6.056237053E0,6.548416615E-1,-4.952636719E0,3.453034401E0
6.064233578E0,8.524694443E-1,-4.945100784E0,2.729982853E0
6.072229332E0,9.324257374E-1,-4.833408356E0,1.977943897E0
6.080225241E0,9.926910400E-1,-4.696855545E0,1.470761776E0
6.088219995E0,1.105022669E0,-4.638545036E0,1.163102150E0
6.096242519E0,1.270949125E0,-4.713811398E0,9.763493538E-1
6.104241582E0,1.423866510E0,-4.889771461E0,7.059578896E-1
6.112237567E0,1.472437143E0,-5.058888912E0,4.975657463E-1
6.120233476E0,1.520337582E0,-5.132802010E0,2.086205482E-1
6.128228922E0,1.747145176E0,-5.083563328E0,-1.756687164E-1
6.136223907E0,2.029511690E0,-5.062871933E0,-4.952840805E-1
6.144250662E0,2.391462326E0,-4.999038219E0,-1.065316677E0
6.152246417E0,2.715365887E0,-4.972145557E0,-1.273129463E0
6.160241172E0,3.111817360E0,-4.893138885E0,-1.120105267E0
6.168236772E0,3.366896868E0,-4.760086060E0,-7.946887016E-1
6.176231835E0,3.508572340E0,-4.615209579E0,-5.499701500E-1
6.184227897E0,3.544455528E0,-4.417426109E0,-3.032336235E-1
6.192223882E0,3.420778513E0,-4.431272030E0,-3.271780014E-1
6.200249945E0,3.163220406E0,-4.526979923E0,-6.371092796E-1
6.208245699E0,2.774104118E0,-4.644589901E0,-1.026329041E0
6.216240993E0,2.455300808E0,-4.588996887E0,-1.409785271E0
6.224237671E0,2.118147850E0,-4.392789841E0,-1.497241974E0
6.232232732E0,1.983460665E0,-4.269713879E0,-1.686856747E0
6.240228103E0,2.121144295E0,-4.179095745E0,-1.611515999E0
6.248223780E0,2.410918474E0,-4.190438271E0,-1.320163727E0
6.256218228E0,2.749404430E0,-4.140865326E0,-8.208174706E-1
6.264245905E0,2.992927551E0,-4.090567112E0,-1.623086929E-1
6.272241275E0,3.108695269E0,-4.178756714E0,2.359619141E-1
6.280236569E0,3.126393795E0,-4.298893929E0,6.802148819E-1
6.288231708E0,2.965233326E0,-4.513552666E0,9.882402420E-1
6.296227309E0,2.536179066E0,-4.757532120E0,1.034861565E0
6.304223063E0,2.025779724E0,-4.885251045E0,7.109165192E-1
6.312249202E0,1.643364429E0,-4.878376961E0,3.722724915E-1
6.320244880E0,1.326175809E0,-4.648891449E0,-6.163215637E-2
6.328241481E0,1.201777935E0,-4.516292572E0,-1.236371994E-1
6.336232774E0,1.179101944E0,-4.353848457E0,-1.468982697E-1
6.344231836E0,1.201728821E0,-4.297916889E0,-1.729621887E-1
6.352227283E0,1.153666735E0,-4.412178040E0,-4.839992523E-2
6.360223269E0,1.097938061E0,-4.655454159E0,2.335491180E-1
6.368218869E0,1.160584569E0,-4.831437111E0,-3.851795197E-2
6.376243855E0,1.297296047E0,-4.848738194E0,-4.572954178E-1
6.384240456E0,1.441705585E0,-4.705306053E0,-1.127700806E0
6.392236364E0,1.551802516E0,-4.287384033E0,-2.051723003E0
6.400231811E0,1.623070598E0,-3.815172434E0,-2.932383060E0
6.408226489E0,1.599072695E0,-3.450886488E0,-3.563139439E0
6.416221936E0,1.461372375E0,-2.965058327E0,-4.139148712E0
6.424248691E0,1.363376617E0,-2.775948286E0,-4.617914677E0
6.432244676E0,1.276756763E0,-2.744875431E0,-5.058614731E0
6.440240277E0,1.136587024E0,-2.943459749E0,-5.517167568E0
6.448235647E0,1.042475462E0,-3.123713493E0,-5.865179062E0
6.456231094E0,1.062608957E0,-3.047011137E0,-6.723427296E0
6.464227079E0,1.299146891E0,-2.803337574E0,-7.298008919E0
6.472222141E0,1.678873062E0,-2.383155346E0,-7.965313911E0
6.480249204E0,1.959066629E0,-2.052803516E0,-8.634996414E0
6.488243881E0,2.166401386E0,-1.533068419E0,-9.630805969E0
6.496239560E0,2.257485628E0,-1.057469130E0,-1.048422718E1
6.504235622E0,2.166507006E0,-7.534581423E-1,-1.118618393E1
6.512231914E0,1.947681427E0,-3.500900269E-1,-1.184962654E1
6.520226593E0,1.714037061E0,-1.639947891E-1,-1.198704815E1
6.528221732E0,1.392745614E0,-9.620404243E-2,-1.184530449E1
6.536247872E0,1.158143640E0,6.504940987E-2,-1.176248074E1
6.544244395E0,1.066740036E0,1.453423500E-1,-1.149724579E1
6.552239842E0,1.142705917E0,2.436249256E-1,-1.142366600E1
6.560235520E0,1.412050247E0,1.530563831E-1,-1.118834305E1
6.568230582E0,1.706789374E0,-5.444145203E-2,-1.109086704E1
6.576225568E0,1.758989453E0,-1.957626343E-1,-1.097433472E1
6.584221630E0,1.523690820E0,-1.784377098E-1,-1.064440536E1
6.592247461E0,1.169024229E0,-4.616641998E-2,-1.027341557E1
6.600243370E0,7.978188992E-1,-5.728721619E-2,-1.002854538E1
6.608238432E0,4.136694670E-1,-2.394571304E-1,-9.912149429E0
6.616234187E0,1.527066231E-1,-3.741905689E-1,-9.723822594E0
6.624230788E0,-1.454982758E-1,-4.635654688E-1,-9.334753990E0
6.632226158E0,-2.887630463E-1,-4.480079412E-1,-8.936536789E0
6.640221451E0,-2.395519018E-1,-3.384377956E-1,-8.438226700E0
6.648247974E0,5.671083927E-2,-2.089595795E-1,-7.803063393E0
6.656239345E0,4.245687723E-1,-4.350543022E-2,-7.245985031E0
6.664238330E0,9.614249468E-1,2.148866653E-2,-6.470784664E0
6.672234624E0,1.341840267E0,-7.187604904E-2,-5.763034821E0
6.680229686E0,1.601436853E0,-1.835777760E-1,-4.946456432E0
6.688225671E0,1.705912113E0,-3.899208307E-1,-4.149079800E0
6.696219888E0,1.724632740E0,-4.724113941E-1,-3.581155300E0
6.704247488E0,1.640211105E0,-5.788205266E-1,-2.771009445E0
6.712242628E0,1.466650248E0,-5.856195092E-1,-2.140102386E0
6.720238536E0,1.150332928E0,-5.599174500E-1,-1.616853714E0
6.728233983E0,8.204450011E-1,-4.212371111E-1,-1.213746071E0
6.736228661E0,6.228584647E-1,-2.318101525E-1,-9.001379013E-1
6.744225261E0,6.381114721E-1,-1.598566771E-1,-5.178842545E-1
6.752221016E0,8.280017376E-1,-3.007489443E-1,-1.722192764E-1
6.760247155E0,1.052798986E0,-6.549062133E-1,2.233324051E-1
6.768242525E0,1.098077297E0,-1.017052412E0,5.420007706E-1
6.776237511E0,9.418511391E-1,-1.179487228E0,6.280202866E-1
6.784233804E0,6.196939349E-1,-1.279612899E0,9.000530243E-1
6.792229482E0,2.825986445E-1,-1.169189811E0,1.125545502E0
6.800224852E0,-1.194840670E-2,-9.999501109E-1,1.380976677E0
6.808220221E0,-1.229791045E-1,-8.808154464E-1,1.430964470E0
6.816242669E0,-2.165566683E-1,-8.111388087E-1,1.335917473E0
6.824241731E0,-2.974572778E-1,-7.191094160E-1,1.167992592E0
6.832237717E0,-4.042419195E-1,-5.183981061E-1,9.318380356E-1
6.840232856E0,-5.364450812E-1,-2.048430145E-1,5.818510056E-1
6.848228456E0,-6.220382452E-1,6.829923391E-2,4.532136917E-1
6.856224519E0,-6.083270311E-1,2.530740201E-1,4.379148483E-1
6.864219889E0,-3.742278516E-1,2.639954984E-1,5.718126297E-1
6.872246259E0,2.570886910E-2,2.202395201E-1,5.268115997E-1
6.880241706E0,4.184082150E-1,1.084733009E-1,6.118669510E-1
6.888236999E0,5.709046721E-1,-8.934623003E-2,6.882963181E-1
6.896231831E0,5.925282836E-1,-4.549328089E-1,7.348461151E-1
6.904228970E0,4.966125190E-1,-7.279407978E-1,4.761924744E-1
6.912223494E0,3.713717461E-1,-7.478981018E-1,-1.091518402E-1
6.920219787E0,2.494559288E-1,-3.363697529E-1,-4.275436401E-1
6.928245849E0,2.226793170E-1,1.363176107E-1,-6.065740585E-1
6.936240912E0,2.812169492E-1,5.441330075E-1,-8.334789276E-1
6.944236974E0,4.236458540E-1,6.077856421E-1,-8.625764847E-1
6.952232652E0,6.339026690E-1,3.442509174E-1,-7.364807129E-1
6.960227945E0,7.825644016E-1,-1.751925945E-1,-5.839757919E-1
6.968223392E0,8.361278772E-1,-7.201825380E-1,-3.523931503E-1
6.976218070E0,8.406145573E-1,-1.307632446E0,-1.155576706E-1
6.984245208E0,7.267072797E-1,-1.648726702E0,4.721641541E-3
6.992241194E0,4.507102072E-1,-1.872802734E0,-6.065559387E-2
7.000236795E0,1.635398865E-1,-1.927574873E0,-8.687496185E-2
7.008232473E0,-1.980619729E-1,-1.899941683E0,-2.774314880E-1
7.016227535E0,-3.339364529E-1,-1.543138266E0,-4.022436142E-1
7.024223828E0,-2.735667527E-1,-1.056068182E0,-4.100961685E-1
7.032219583E0,6.013524532E-2,-5.109460354E-1,-3.409757614E-1
7.040245107E0,4.020488858E-1,-2.610070705E-1,-2.971744537E-1
7.048240708E0,6.957283616E-1,-4.154436588E-1,-2.605314255E-1
7.056234924E0,7.846046686E-1,-8.643438816E-1,-1.234149933E-1
7.064232063E0,7.825803161E-1,-1.187174082E0,3.262329102E-2
7.072227741E0,6.773303747E-1,-1.424580336E0,2.196950912E-1
7.080222880E0,5.642923117E-1,-1.519572735E0,2.932920456E-1
7.088218558E0,4.000261426E-1,-1.612391710E0,3.703279495E-1
7.096244312E0,1.677113175E-1,-1.612656593E0,3.550233841E-1
7.104240297E0,-7.612824440E-2,-1.525426388E0,3.645057678E-1
7.112235745E0,-2.507122457E-1,-1.363797665E0,5.729084015E-1
7.120230499E0,-3.245297372E-1,-1.189709187E0,8.797655106E-1
7.128227024E0,-3.699026704E-1,-9.382157326E-1,1.230021477E0
7.136221778E0,-3.149636686E-1,-7.422909737E-1,1.329616547E0
7.144217532E0,-2.127589285E-1,-5.584812164E-1,1.106858253E0
7.152244903E0,-1.053665280E-1,-5.398907661E-1,7.342376709E-1
7.160240196E0,-5.511146784E-2,-6.070628166E-1,6.836519241E-1
7.168235258E0,-3.047943115E-2,-6.355261803E-1,6.125001907E-1
7.176230090E0,5.648028851E-2,-5.131287575E-1,7.047414780E-1
7.184226998E0,1.749336720E-1,-5.945658684E-1,9.983911514E-1
7.192222368E0,3.061724305E-1,-9.384646416E-1,1.242742538E0
7.200218276E0,5.627387762E-1,-1.297813416E0,1.412286758E0
7.208244109E0,8.544155359E-1,-1.591991901E0,1.307550430E0
7.216236709E0,1.030284882E0,-1.722609520E0,1.062584877E0
7.224235463E0,1.041791797E0,-1.664730072E0,4.313898087E-1
7.232230603E0,9.270197153E-1,-1.416281700E0,-1.321187019E-1
7.240225973E0,7.005581856E-1,-9.271922112E-1,-7.628364563E-1
7.248222190E0,5.606909990E-1,-2.881250381E-1,-1.127586842E0
7.256247098E0,5.184974670E-1,1.357784271E-1,-1.056791782E0
7.264244083E0,4.895859957E-1,9.625864029E-2,-6.569280624E-1
7.272239992E0,5.990470648E-1,-2.560300827E-1,-3.543620110E-1
7.280234823E0,7.664875984E-1,-8.146829605E-1,1.924562454E-2
7.288230501E0,9.139927626E-1,-1.359025478E0,5.144143105E-1
7.296224640E0,1.011992097E0,-1.631970406E0,6.556077003E-1
7.304221242E0,1.068043590E0,-1.737122059E0,4.660716057E-1
7.312216919E0,9.927270412E-1,-1.595905304E0,9.629535675E-2
7.320243904E0,8.227185011E-1,-1.281690121E0,-4.575285912E-1
7.328238736E0,6.186770201E-1,-8.835186958E-1,-9.873776436E-1
7.336233183E0,3.337216377E-1,-4.299111366E-1,-1.593258381E0
7.344230092E0,9.074676037E-2,-3.870582581E-2,-1.753568649E0
7.352226077E0,-3.369152546E-2,1.635842323E-1,-1.750418663E0
7.360221369E0,4.448413849E-2,1.466650963E-1,-1.667472839E0
7.368217125E0,2.478278875E-1,-1.086883545E-1,-1.356620312E0
7.376242264E0,6.007280350E-1,-6.142420769E-1,-8.691415787E-1
7.384238865E0,9.090503454E-1,-1.100429058E0,-3.177556992E-1
7.392234542E0,1.112839580E0,-1.423569202E0,1.872801781E-1
7.400229066E0,1.210778952E0,-1.671329975E0,7.193412781E-1
7.408225052E0,1.138164401E0,-1.752880573E0,9.782924652E-1
7.416220421E0,8.430063725E-1,-1.669208050E0,8.156423569E-1
7.424247100E0,4.640206099E-1,-1.295585632E0,4.417595863E-1
7.432242546E0,-6.126725674E-2,-8.631520271E-1,-9.510946274E-2
7.440238147E0,-5.788518190E-1,-5.565733910E-1,-2.002563477E-1
7.448233594E0,-8.660559654E-1,-4.960708618E-1,-1.636714935E-1
7.456228349E0,-8.442831039E-1,-6.716098785E-1,-1.853308678E-1
7.464224335E0,-5.592314005E-1,-9.377512932E-1,-2.092456818E-2
7.472220550E0,-5.895400047E-2,-1.198567390E0,1.057095528E-1
7.480246689E0,4.102513790E-1,-1.260161400E0,1.562571526E-1
7.488242137E0,7.130675316E-1,-1.139473915E0,1.851930618E-1
7.496236891E0,9.513020515E-1,-1.038260460E0,3.945560455E-1
7.504233108E0,9.715368748E-1,-9.450349808E-1,8.208718300E-1
7.512229477E0,7.572505474E-1,-7.649812698E-1,1.110250950E0
7.520225078E0,3.396894932E-1,-5.462512970E-1,1.186752796E0
7.528219833E0,-2.667092085E-1,-4.366760254E-1,1.110490322E0
7.536242972E0,-9.147959948E-1,-4.652271271E-1,8.942656517E-1
7.544242035E0,-1.287407398E0,-6.182413101E-1,8.864235878E-1
7.552237712E0,-1.490430236E0,-8.558959961E-1,9.944829941E-1
7.560232697E0,-1.448457956E0,-1.117405891E0,1.130268097E0
7.568228991E0,-1.184388161E0,-1.360048294E0,1.142165661E0
7.576223514E0,-7.454695702E-1,-1.393754959E0,9.755055904E-1
7.584220116E0,-4.060176611E-1,-1.213620186E0,7.641265392E-1
7.592245332E0,-7.636952400E-2,-9.294233322E-1,5.250263214E-1
7.600241855E0,8.509635925E-2,-6.579027176E-1,3.493874073E-1
7.608236918E0,1.757531166E-1,-4.494705200E-1,1.002423763E-1
7.616229826E0,3.005349636E-1,-3.023052216E-1,-6.197738647E-2
7.624228274E0,4.389469624E-1,-2.137203217E-1,-1.985697746E-1
7.632223951E0,4.732809067E-1,-3.222770691E-1,-1.707799435E-1
7.640219398E0,4.154496193E-1,-6.269598007E-1,9.526705742E-2
7.648245537E0,3.623619080E-1,-1.012130737E0,4.256608486E-1
7.656240292E0,4.404156208E-1,-1.207337379E0,7.515919209E-1
7.664237201E0,5.094711781E-1,-1.306438446E0,1.092286825E0
7.672231955E0,5.023384094E-1,-1.279894829E0,1.239580154E0
7.680227863E0,4.280743599E-1,-1.178783417E0,1.238970995E0
7.688223849E0,2.819464207E-1,-1.036668777E0,1.226351261E0
7.696218603E0,1.124525070E-1,-8.771457672E-1,1.211688519E0
7.704245128E0,-9.915828705E-4,-6.950588226E-1,1.174208403E0
7.712240190E0,-6.536340714E-2,-5.237283707E-1,1.083226681E0
7.720236790E0,-1.217808723E-1,-4.398040771E-1,1.008297205E0
7.728232469E0,-1.350178719E-1,-4.697761536E-1,1.255737185E0
7.736227531E0,-1.321544647E-1,-6.593627930E-1,1.487481475E0
7.744223747E0,-1.498668194E-1,-1.066257477E0,1.750758171E0
7.752218809E0,-7.360005379E-2,-1.422498703E0,2.044487000E0
7.760244718E0,9.644341469E-2,-1.694638252E0,2.236154556E0
7.768240703E0,3.066465855E-1,-1.846994400E0,2.322360516E0
7.776233227E0,4.412891865E-1,-1.788698196E0,2.312090397E0
7.784231751E0,4.739058018E-1,-1.577057838E0,2.172044754E0
7.792228044E0,3.814728260E-1,-1.360073090E0,2.137645245E0
7.800222799E0,2.702450752E-1,-1.154253960E0,2.107929707E0
7.808219092E0,1.194765568E-1,-9.137516022E-1,2.148234844E0
7.816244231E0,-2.295899391E-2,-6.911392212E-1,2.179727554E0
7.824240294E0,-2.293316126E-1,-5.510044098E-1,2.306123495E0
7.832235971E0,-4.291329384E-1,-5.007686615E-1,2.434123993E0
7.840230726E0,-7.210040092E-1,-4.470281601E-1,2.504877567E0
7.848227019E0,-9.565894604E-1,-3.920812607E-1,2.598511457E0
7.856221696E0,-1.175114632E0,-3.355627060E-1,2.631630421E0
7.864218067E0,-1.111920714E0,-3.370027542E-1,2.618914127E0
7.872244206E0,-8.614336252E-1,-3.170909882E-1,2.548275232E0
7.880240115E0,-4.134327173E-1,-2.805643082E-1,2.353508949E0
7.888235177E0,-4.815983772E-2,-2.322998047E-1,2.208817244E0
7.896230316E0,2.863976955E-1,-1.556339264E-1,2.112894058E0
7.904227148E0,5.416326523E-1,-1.487751007E-1,2.044801950E0
7.912222518E0,6.502008438E-1,-1.398515701E-1,2.075232744E0
7.920217965E0,6.020629406E-1,-2.197484970E-1,2.198065519E0
7.928244412E0,4.260628223E-1,-3.906126022E-1,2.285241604E0
7.936235397E0,3.627848625E-2,-4.966239929E-1,2.437100410E0
7.944234844E0,-2.986402512E-1,-5.185489655E-1,2.612558365E0
7.952231060E0,-6.336746216E-1,-4.923639297E-1,2.734043360E0
7.960226123E0,-8.565092087E-1,-4.469404221E-1,2.793671370E0
7.968222108E0,-9.511343241E-1,-4.040737152E-1,2.714547634E0
7.972219024E0,-9.446028471E-1,-3.783473969E-1,2.587791920E0
7.974233866E0,-9.469970465E-1,-3.855295181E-1,2.571032524E0
7.976217170E0,-9.182665348E-1,-3.879241943E-1,2.542302132E0
7.984243002E0,-7.086304426E-1,-3.461456299E-1,2.384493828E0
7.992238987E0,-4.544924498E-1,-2.933063507E-1,2.207668543E0
8.000234973E0,-3.086326122E-1,-2.988185883E-1,1.978162408E0
8.008230112E0,-2.834830284E-1,-2.737932205E-1,1.786140680E0
8.016224866E0,-2.404732704E-1,-1.462249756E-1,1.648774862E0
8.024221468E0,-2.594356537E-1,-1.121759415E-1,1.525754094E0
8.032217145E0,-2.596056461E-1,-1.811609268E-1,1.515885592E0
8.040243593E0,-2.729394436E-1,-2.264146805E-1,1.699575663E0
8.048238655E0,-3.909422159E-1,-2.408342361E-1,1.984375834E0
8.056233640E0,-5.819795132E-1,-2.984104156E-1,2.407339573E0
8.064229933E0,-6.449276209E-1,-2.840948105E-1,2.765934944E0
8.072225918E0,-6.143673658E-1,-2.578344345E-1,3.142596245E0
8.080220674E0,-4.995599985E-1,-2.794809341E-1,3.379410744E0
8.088216966E0,-3.647258282E-1,-2.675485611E-1,3.615117073E0
8.096241951E0,-3.086842299E-1,-3.865356445E-1,3.759748459E0
8.104238553E0,-3.031845093E-1,-5.916929245E-1,3.878509045E0
8.112234461E0,-3.120200634E-1,-8.315238953E-1,3.972503185E0
8.120230447E0,-3.587099314E-1,-9.888534546E-1,4.012617111E0
8.128225586E0,-4.809925556E-1,-1.123617172E0,3.993932009E0
8.136220341E0,-5.450860262E-1,-1.192644119E0,3.917843342E0
8.144247095E0,-5.173053741E-1,-1.174303055E0,3.880984783E0
8.152243003E0,-3.284978867E-1,-1.202705383E0,3.982217550E0
8.160237759E0,-7.446634769E-2,-1.424166679E0,4.173199654E0
8.168233744E0,2.495095730E-1,-1.904085159E0,4.449493408E0
8.176225806E0,4.899842739E-1,-2.566897392E0,4.406265259E0
8.184224868E0,5.987046957E-1,-3.051642418E0,4.217844963E0
8.192220469E0,5.407994986E-1,-3.337134361E0,3.971265316E0
8.200215224E0,4.158583879E-1,-3.358912468E0,3.717884541E0
8.208242286E0,2.344322205E-1,-3.222248077E0,3.227261066E0
8.216237118E0,5.337917805E-2,-3.178174019E0,2.776633501E0
8.224233334E0,2.695488930E-2,-3.163884163E0,2.501529932E0
8.232228781E0,2.459753752E-1,-3.133758545E0,2.387388706E0
8.240225074E0,5.968383551E-1,-3.156730652E0,2.557436466E0
8.248220059E0,1.097758055E0,-3.401171684E0,2.923596144E0
8.256215199E0,1.428480268E0,-3.717839241E0,3.265001774E0
8.264241338E0,1.553748131E0,-4.098644257E0,3.376555920E0
8.272238246E0,1.395689964E0,-4.401252747E0,3.145160198E0
8.280233232E0,9.719480276E-1,-4.532282829E0,2.749994755E0
8.288228986E0,5.096644759E-1,-4.462748528E0,2.259891987E0
8.296223434E0,2.073915005E-1,-4.344126701E0,1.896734238E0
8.304220034E0,1.115951538E-1,-4.235522270E0,1.750247955E0
8.312215327E0,1.953715086E-1,-4.347612381E0,1.678926945E0
8.320241775E0,4.109857678E-1,-4.615785599E0,1.620232582E0
8.328237221E0,8.134273291E-1,-4.971181870E0,1.616353989E0
8.336228592E0,1.200098753E0,-5.254110336E0,1.508543968E0
8.344228192E0,1.558803558E0,-5.400948048E0,1.379793167E0
8.352224562E0,1.728533626E0,-5.435349464E0,1.142556190E0
8.360219240E0,1.704443216E0,-5.329038620E0,7.896475792E-1
8.368214994E0,1.548865795E0,-5.251384258E0,4.156956673E-1
8.376240134E0,1.402095318E0,-5.318541527E0,8.448410034E-2
8.384237042E0,1.366021872E0,-5.388678074E0,-3.327846527E-2
8.392232489E0,1.443556547E0,-5.384551525E0,-1.786713600E-1
8.400228167E0,1.618649006E0,-5.464621544E0,-2.251663208E-1
8.408223537E0,1.793602347E0,-5.580312252E0,-4.641160965E-1
8.416217984E0,1.936986208E0,-5.660728455E0,-6.711320877E-1
8.424214893E0,1.834491014E0,-5.620072365E0,-9.180531502E-1
8.432241262E0,1.586853147E0,-5.558951378E0,-1.216502190E0
8.440236325E0,1.292851448E0,-5.318226337E0,-1.697035789E0
8.448232079E0,1.223099470E0,-5.097516537E0,-2.030428886E0
8.456226758E0,1.323069811E0,-4.769750595E0,-2.206959248E0
8.464223358E0,1.472703338E0,-4.502620697E0,-2.385713577E0
8.472219421E0,1.639425039E0,-4.398998260E0,-2.555133820E0
8.480245175E0,1.888156891E0,-4.477647781E0,-2.598222733E0
8.488240006E0,2.122257710E0,-4.583340168E0,-2.575505257E0
8.496232839E0,2.320471525E0,-4.575185299E0,-2.631145477E0
8.504231593E0,2.406671047E0,-4.483600616E0,-2.595108986E0
8.512227348E0,2.364697218E0,-4.184719563E0,-2.489351749E0
8.520222641E0,2.173631668E0,-3.781449795E0,-2.269867897E0
8.528218626E0,1.991078496E0,-3.518246651E0,-2.181081295E0
8.536244458E0,1.807159901E0,-3.397559166E0,-1.985956669E0
8.544240135E0,1.692761898E0,-3.539025545E0,-1.928654671E0
8.552235506E0,1.512997150E0,-3.739363670E0,-1.956607342E0
8.560231491E0,1.353302956E0,-3.877396822E0,-2.054519653E0
8.568226553E0,1.221232414E0,-3.804872751E0,-2.090048790E0
8.576221616E0,1.081335068E0,-3.619029760E0,-2.124163628E0
8.584218293E0,9.299549460E-1,-3.478937149E0,-2.153970718E0
8.592213664E0,7.936215401E-1,-3.312416077E0,-1.956574917E0
8.600239187E0,7.324164510E-1,-3.028238535E0,-2.018221378E0
8.608235403E0,6.752078533E-1,-2.807046175E0,-1.875642776E0
8.616229620E0,7.537247539E-1,-2.527645111E0,-1.760965824E0
8.624226220E0,9.480367899E-1,-2.321280003E0,-1.950175762E0
8.632222437E0,1.272931099E0,-2.225745440E0,-2.342603207E0
8.640216884E0,1.553103924E0,-2.293203831E0,-2.724769115E0
8.648243715E0,1.676472902E0,-2.447745323E0,-3.184659958E0
8.656239701E0,1.591285229E0,-2.572326660E0,-3.622828960E0
8.664234994E0,1.369619489E0,-2.643384695E0,-3.838932037E0
8.672230672E0,1.041267276E0,-2.578213692E0,-3.847550392E0
8.680226657E0,8.193407059E-1,-2.467658520E0,-3.811782360E0
8.688222103E0,6.796774864E-1,-2.351519823E0,-3.980808735E0
8.696216859E0,6.280170083E-1,-2.236479759E0,-4.431394100E0
8.704243921E0,5.085164905E-1,-2.140601158E0,-5.058102608E0
8.712238599E0,2.717440128E-1,-1.713080525E0,-5.817777157E0
8.720234353E0,-1.898066700E-2,-1.322382689E0,-6.368010044E0
8.728230338E0,-3.909979761E-1,-7.883775234E-1,-7.192566872E0
8.736224786E0,-5.969823599E-1,-3.295512199E-1,-7.889644623E0
8.744221386E0,-6.614955664E-1,2.165367603E-1,-8.481539726E0
8.752216680E0,-6.048347354E-1,6.225004196E-1,-9.004989624E0
8.760243434E0,-5.184539557E-1,8.350479603E-1,-9.353135109E0
8.768238804E0,-4.311153889E-1,1.030339360E0,-9.505056381E0
8.776233867E0,-4.321596622E-1,1.174489498E0,-9.791780472E0
8.784229313E0,-3.501840532E-1,1.335849404E0,-1.029269791E1
8.792225530E0,-3.011902273E-1,1.502125025E0,-1.037399197E1
8.800220900E0,-3.906690478E-1,1.620871782E0,-1.033275509E1
8.808216039E0,-5.931313038E-1,1.810835004E0,-1.025502014E1
8.816239332E0,-7.581735849E-1,1.880137205E0,-1.023400784E1
8.824238394E0,-7.842768431E-1,1.790199995E0,-1.014996243E1
8.832234688E0,-7.771975994E-1,1.544450879E0,-9.873872757E0
8.840229519E0,-8.912588954E-1,1.217743754E0,-9.422554016E0
8.848225736E0,-9.802373648E-1,8.465713263E-1,-8.882805824E0
8.856220567E0,-8.596348763E-1,5.584487915E-1,-8.144842148E0
8.864216552E0,-5.254853368E-1,1.660324335E-1,-7.234735012E0
8.872242000E0,-1.882915497E-1,-1.265236139E-1,-6.434709549E0
8.880238062E0,9.421420097E-2,-4.130361676E-1,-5.755716324E0
8.888234048E0,1.730983257E-1,-6.803523302E-1,-5.268757820E0
8.896228494E0,1.708803773E-1,-8.195322752E-1,-4.941887379E0
8.904224710E0,1.972182691E-1,-9.032365680E-1,-4.764920235E0
8.912220388E0,3.295804262E-1,-8.721765280E-1,-4.505136490E0
8.920215219E0,5.845814347E-1,-9.182388783E-1,-3.985133171E0
8.928241359E0,8.591946363E-1,-9.805800915E-1,-3.803328991E0
8.936236729E0,1.227531195E0,-9.368369579E-1,-3.471457958E0
8.944233022E0,1.498557448E0,-8.914097548E-1,-3.011257172E0
8.952228392E0,1.616632223E0,-8.842278719E-1,-2.552173615E0
8.960224300E0,1.559892178E0,-8.160811067E-1,-2.036811352E0
8.968219748E0,1.368195891E0,-7.953727245E-1,-1.570562363E0
8.976214733E0,1.050455332E0,-8.521250486E-1,-1.119924545E0
8.984241564E0,6.429854035E-1,-9.268624783E-1,-7.328033447E-1
8.992236935E0,3.199080825E-1,-7.394392490E-1,-4.427299500E-1
9.000232535E0,3.613196313E-2,-3.704985976E-1,-5.813407898E-2
9.008228521E0,-7.302242517E-2,-5.460679531E-2,2.151355743E-1
9.016223660E0,-7.475170493E-2,1.243119836E-1,3.244838715E-1
9.024220568E0,-7.470473647E-3,1.106131673E-1,2.268819809E-1
9.032214939E0,9.484121203E-2,-2.036672831E-2,-7.271480560E-2
9.040241385E0,1.582954228E-1,-2.604911923E-1,-4.281072617E-1
9.048237141E0,2.154408395E-1,-4.124557972E-1,-5.087976456E-1
9.056231510E0,2.636651397E-1,-5.217481852E-1,-1.999673843E-1
9.064228188E0,3.973193169E-1,-4.804576635E-1,1.699352264E-1
9.072224174E0,5.713616014E-1,-3.369280100E-1,7.057209015E-1
9.080219851E0,7.169137001E-1,-1.523039341E-1,1.202894211E0
9.088215452E0,7.508854270E-1,-6.183922291E-2,1.342391968E0
9.096240668E0,6.574940681E-1,-3.434491158E-2,1.387737274E0
9.104236653E0,4.923596978E-1,-4.086303711E-2,1.115119934E0
9.112232639E0,2.034793496E-1,-8.172023296E-2,7.568092346E-1
9.120227701E0,-3.078210354E-2,-2.997974157E-1,4.207630157E-1
9.128223149E0,-2.468600869E-1,-5.803592205E-1,1.481647491E-1
9.136219057E0,-4.111789167E-1,-7.879290581E-1,1.050472260E-1
9.144214734E0,-4.674431980E-1,-6.768150330E-1,2.428770065E-1
9.152240566E0,-2.824382186E-1,-4.118740559E-1,6.161842346E-1
9.160236859E0,4.712057114E-2,-2.203328609E-1,8.997564316E-1
9.168231691E0,4.851113558E-1,-1.956367493E-1,1.158555984E0
9.176227061E0,7.053796053E-1,-3.803284168E-1,1.277951241E0
9.184223046E0,7.115578651E-1,-6.188867092E-1,1.185445786E0
9.192219032E0,5.795103312E-1,-8.071193695E-1,8.641033173E-1
9.200214094E0,3.539562225E-1,-8.471782207E-1,4.788322449E-1
9.208240772E0,8.143651485E-2,-8.190302849E-1,1.556873322E-2
9.216232219E0,-1.367076635E-1,-8.765573502E-1,-5.128126144E-1
9.224231896E0,-1.866229773E-1,-8.578758240E-1,-9.112157822E-1
9.232227190E0,-5.187654495E-2,-5.219886303E-1,-9.662561417E-1
9.240222636E0,2.293865681E-1,-1.318314075E-1,-6.912851334E-1
9.248218622E0,7.481619120E-1,2.119400501E-1,-3.433332443E-1
9.256213300E0,1.283202648E0,2.807502747E-1,5.369186401E-4
9.264240131E0,1.832396269E0,1.346924305E-1,2.906465530E-1
9.272236655E0,2.117788792E0,-2.513878345E-1,3.269519806E-1
9.280231102E0,2.112570047E0,-5.934238434E-1,3.947238922E-1
9.288227472E0,1.882566214E0,-1.001558304E0,6.295757294E-1
9.296221611E0,1.555731297E0,-1.188737631E0,5.677585602E-1
9.304217597E0,1.087868452E0,-1.253840208E0,3.122711182E-1
9.312214121E0,5.733151436E-1,-1.125135660E0,1.153745651E-1
9.320239644E0,8.334040642E-2,-1.161100626E0,1.733303070E-2
9.328235630E0,-3.582997322E-1,-1.422166348E0,-4.172611237E-2
9.336230461E0,-5.969810486E-1,-1.524919987E0,-4.753208160E-2
9.344226371E0,-7.336616516E-1,-1.453872681E0,-7.468509674E-2
9.352222125E0,-7.832129002E-1,-1.201070786E0,7.374000549E-2
9.360217494E0,-7.463498116E-1,-8.323063850E-1,6.705284119E-2
9.368243634E0,-5.886929035E-1,-5.909495354E-1,3.368568420E-2
9.376236773E0,-3.887922764E-1,-4.566316605E-1,-1.203832626E-1
9.384235528E0,-9.204411507E-2,-3.981552124E-1,-2.991771698E-1
9.392230360E0,1.635918617E-1,-3.690304756E-1,-6.141843796E-1
9.400226268E0,3.529021740E-1,-3.703284264E-1,-8.031682968E-1
9.408221638E0,4.400005341E-1,-5.807356834E-1,-7.887563705E-1
9.416216700E0,5.409600735E-1,-7.368092537E-1,-7.195639610E-1
9.424243148E0,7.728242874E-1,-8.478674889E-1,-3.898434639E-1
9.432239210E0,1.008944035E0,-8.849797249E-1,-5.647754669E-2
9.440234503E0,1.192472458E0,-9.299087524E-1,1.903915405E-1
9.448230258E0,1.187074184E0,-1.008410454E0,1.352972984E-1
9.456224935E0,9.123229980E-1,-1.010572910E0,-1.081995964E-1
9.464220383E0,4.472475052E-1,-1.009247303E0,-3.054070473E-1
9.472217214E0,-1.445603371E-2,-8.106355667E-1,-4.579319954E-1
9.480243045E0,-4.644956589E-1,-4.319925308E-1,-5.528140068E-1
9.488238416E0,-7.961497307E-1,-1.787996292E-1,-5.018501282E-1
9.496234093E0,-1.037683964E0,-1.340451241E-1,-4.220328331E-1
9.504230079E0,-8.875660896E-1,-1.610722542E-1,-2.225980759E-1
9.512224833E0,-4.892625809E-1,-1.812891960E-1,-2.012968063E-2
9.520220511E0,7.307410240E-2,-3.209681511E-1,7.837343216E-2
9.528217112E0,4.689905643E-1,-5.277743340E-1,-2.014112473E-2
9.536239866E0,7.239410877E-1,-8.264603615E-1,-3.740224838E-1
9.544237775E0,7.625150681E-1,-1.065839767E0,-8.869748116E-1
9.552234299E0,7.432768345E-1,-1.168385506E0,-1.349255562E0
9.560229053E0,6.932382584E-1,-1.182933331E0,-1.870392799E0
9.568224731E0,6.317648888E-1,-1.079181671E0,-2.089236259E0
9.576220101E0,5.821616650E-1,-9.828147888E-1,-2.170032978E0
9.584216702E0,4.714980125E-1,-7.424960136E-1,-1.765101433E0
9.592242303E0,3.672447205E-1,-3.847136497E-1,-1.317777634E0
9.600237980E0,3.833072186E-1,-2.677936554E-1,-8.918366432E-1
9.608233889E0,4.982628822E-1,-4.628243446E-1,-5.551018715E-1
9.616228336E0,6.537568569E-1,-8.653330803E-1,-4.156994820E-1
9.624224091E0,8.096487522E-1,-1.134610653E0,-4.064965248E-1
9.632220384E0,9.681634903E-1,-1.275272846E0,-4.953503609E-1
9.640215139E0,9.509148598E-1,-1.278645515E0,-6.526679993E-1
9.648243124E0,8.445868492E-1,-1.218775749E0,-6.728448868E-1
9.656236878E0,5.662412643E-1,-9.832792282E-1,-4.778547287E-1
9.664233480E0,3.427944183E-1,-7.001538277E-1,-1.697769165E-1
9.672228619E0,1.426107883E-1,-5.164914131E-1,3.670830727E-1
9.680224297E0,-3.097677231E-2,-5.696921349E-1,9.586124420E-1
9.688220513E0,-1.909980774E-1,-9.638323784E-1,1.362833500E0
9.696214421E0,-2.057421207E-1,-1.354084969E0,1.659346104E0
9.704241407E0,-1.479437351E-1,-1.514775753E0,1.834932804E0
9.712236853E0,-1.115577221E-1,-1.583469391E0,1.874696255E0
9.720232839E0,-1.271882057E-1,-1.545966148E0,1.818500996E0
9.728228517E0,-1.510145664E-1,-1.514497757E0,1.630224705E0
9.736223271E0,-2.012994289E-1,-1.524369240E0,1.413104057E0
9.744220103E0,-2.340221405E-1,-1.424427986E0,1.308149815E0
9.752215242E0,-2.486214638E-1,-1.130128860E0,1.304339886E0
9.760241613E0,-2.302689552E-1,-7.630920410E-1,1.385519505E0
9.768236982E0,-7.315182686E-2,-4.714422226E-1,1.492173433E0
9.776228736E0,1.109380722E-1,-6.191339493E-1,1.709820747E0
9.784228338E0,4.188256264E-1,-9.812860489E-1,1.840750933E0
9.792224015E0,7.125532627E-1,-1.404922485E0,1.902482986E0
9.800219386E0,9.449651241E-1,-1.589080811E0,1.892167807E0
9.808214832E0,1.104247808E0,-1.619824409E0,1.766298056E0
9.816240664E0,1.118618965E0,-1.571481705E0,1.641261101E0
9.824236650E0,9.618206024E-1,-1.503925323E0,1.485132694E0
9.832231712E0,6.525297165E-1,-1.407545090E0,1.424763203E0
9.840227313E0,2.924396992E-1,-1.330283165E0,1.525445461E0
9.848223067E0,-2.186567783E-1,-1.205009460E0,1.688716412E0
9.856217821E0,-6.295828819E-1,-9.844007492E-1,1.752683878E0
9.864214115E0,-1.071652889E0,-7.040634155E-1,1.751537323E0
9.872240562E0,-1.347984552E0,-4.644546509E-1,1.694931030E0
9.880236163E0,-1.559432507E0,-3.706188202E-1,1.660971403E0
9.888232456E0,-1.564172029E0,-3.576717377E-1,1.669213772E0
9.896227210E0,-1.387913704E0,-4.039020538E-1,1.640789032E0
9.904223196E0,-1.046104908E0,-4.563474655E-1,1.501223564E0
9.912218643E0,-7.575790882E-1,-4.909725189E-1,1.400075436E0
9.920214552E0,-4.084305763E-1,-5.746936798E-1,1.222178698E0
9.928239460E0,-5.722165108E-2,-6.546106339E-1,1.011549234E0
9.936234829E0,1.913552284E-1,-7.040319443E-1,8.064092398E-1
9.944231431E0,3.975009918E-1,-7.178459167E-1,6.119008064E-1
9.952227416E0,4.594342709E-1,-6.406946182E-1,5.392940044E-1
9.960222863E0,4.636170864E-1,-5.061130524E-1,5.011748075E-1
9.968217925E0,4.267756939E-1,-3.599128723E-1,4.737018347E-1
9.976213527E0,4.190633297E-1,-2.886037827E-1,5.032645464E-1
9.984239666E0,2.977354527E-1,-2.613172531E-1,5.645838976E-1
9.992236035E0,1.528453827E-1,-1.800699234E-1,6.868844032E-1
1.000023071E1,-4.225969315E-2,-1.095638275E-1,7.695869207E-1
1.000822585E1,-1.228461266E-1,-7.376670837E-2,9.305523634E-1
1.001622176E1,-2.584478855E-1,-8.910751343E-2,1.086692929E0
1.002421836E1,-4.583115578E-1,-2.413272858E-1,1.211033463E0
1.003221404E1,-6.000440121E-1,-3.887805939E-1,1.353047848E0
1.004023933E1,-7.337632179E-1,-5.790386200E-1,1.638663292E0
1.004823524E1,-7.810387611E-1,-6.350641251E-1,1.556053519E0
1.005623038E1,-7.490117550E-1,-5.641241074E-1,1.521209955E0
1.006422606E1,-7.060079575E-1,-4.260196686E-1,1.347632289E0
1.007222235E1,-5.698137283E-1,-2.971954346E-1,1.123080611E0
1.008021734E1,-3.522539139E-1,-1.705389023E-1,9.306213856E-1
1.008821332E1,-1.142065525E-1,-1.324710846E-1,7.903307676E-1
1.009623892E1,1.141171455E-1,-1.594066620E-1,7.033832073E-1
1.010423391E1,2.575366497E-1,-1.677627563E-1,6.729962826E-1
1.011223028E1,3.204889297E-1,-1.768178940E-1,7.159165144E-1
1.012022534E1,2.654967308E-1,-2.054243088E-1,7.603015900E-1
1.012822125E1,1.695783138E-1,-1.794118881E-1,1.044386744E0
1.013621670E1,1.642508507E-1,-2.472763062E-1,1.242622733E0
1.014424337E1,1.198947430E-1,-3.753471375E-1,1.397325873E0
1.015223905E1,1.125869751E-1,-6.137247086E-1,1.668713570E0
1.016023388E1,1.741559505E-1,-8.858203888E-1,2.050509453E0
1.016823010E1,4.657959938E-2,-1.083729744E0,2.226684093E0
1.017622209E1,-1.766409874E-1,-1.147754669E0,1.992630363E0
1.018422153E1,-1.944122314E-1,-1.037248611E0,1.658060670E0
1.019221713E1,-1.143312454E-1,-8.169946671E-1,1.137788892E0
1.020021258E1,1.918218136E-1,-6.473627090E-1,8.241027594E-1
1.020823810E1,5.963740349E-1,-5.135984421E-1,3.350036144E-1
1.021623347E1,8.918886185E-1,-2.790460587E-1,-1.245183945E-1
1.022422938E1,1.071337700E0,-8.735656738E-2,-4.303371906E-1
1.023222506E1,1.320194483E0,5.874729156E-2,-6.677513719E-1
1.024022074E1,1.543339491E0,1.083297729E-1,-7.578046322E-1
1.024821618E1,1.671022892E0,8.220481873E-2,-8.544943929E-1
1.025621117E1,1.507115841E0,1.185379028E-1,-8.924562335E-1
1.026423831E1,1.126993179E0,9.761333466E-2,-8.809112906E-1
1.027223368E1,5.964367390E-1,6.348323822E-2,-8.669091463E-1
1.028022990E1,1.464445591E-1,4.119491577E-2,-8.848890066E-1
1.028822473E1,-2.690310478E-1,6.319713593E-2,-9.288906455E-1
1.029621917E1,-5.237770081E-1,6.832695007E-2,-9.772727489E-1
1.030421608E1,-6.448571682E-1,7.614231110E-2,-8.946622014E-1
1.031221238E1,-6.728248596E-1,1.129035950E-1,-9.376561642E-1
1.032023759E1,-6.342351437E-1,1.346673965E-1,-8.947919607E-1
1.032823389E1,-5.275166035E-1,1.690301895E-1,-9.621708989E-1
1.033622526E1,-4.534149170E-1,1.177139282E-1,-9.795277119E-1
1.034422432E1,-2.971117496E-1,5.000591278E-2,-9.617168307E-1
1.035222061E1,-1.256060600E-1,-5.325508118E-2,-9.566291571E-1
1.036021560E1,-1.824116707E-2,-1.466684341E-1,-9.734656811E-1
1.036821166E1,1.064038277E-2,-1.680126190E-1,-9.691495299E-1
1.037623688E1,-2.651977539E-2,-1.195497513E-1,-9.796937704E-1
1.038423348E1,-6.716561317E-2,-4.448890686E-2,-9.252636433E-1
1.039222969E1,-5.682301521E-2,5.206012726E-2,-8.832149506E-1
1.040022475E1,-2.721881866E-2,5.485725403E-2,-7.658113837E-1
1.040821959E1,-6.676602364E-2,7.409477234E-2,-7.145850062E-1
1.041621434E1,-1.269824505E-1,6.208419800E-2,-6.246528029E-1
1.042424132E1,-1.428575516E-1,4.762554169E-2,-4.969494343E-1
1.043223708E1,-1.000986099E-1,1.984596252E-3,-4.848766923E-1
1.044023268E1,-2.056217194E-2,-6.764411926E-2,-4.678191841E-1
1.044822813E1,8.351516724E-2,-1.470355988E-1,-3.219470978E-1
1.045622381E1,1.449544430E-1,-1.908550262E-1,-1.446171403E-1
1.046421971E1,2.039177418E-1,-2.022466660E-1,4.771161079E-2
1.047221508E1,1.849787235E-1,-2.334318161E-1,2.663543820E-1
1.048024122E1,1.083786488E-1,-3.388900757E-1,6.472703815E-1
1.048823728E1,-8.595514297E-2,-4.369440079E-1,9.984552264E-1
1.049622866E1,-2.246031761E-1,-5.131874084E-1,1.246875763E0
1.050422764E1,-3.623623848E-1,-6.081361771E-1,1.672166824E0
1.051222424E1,-5.153748989E-1,-6.143684387E-1,2.193819523E0
1.052021930E1,-6.314883232E-1,-5.443077087E-1,2.895152092E0
1.052821467E1,-6.756095886E-1,-5.276622772E-1,3.434907913E0
1.053624020E1,-6.450703144E-1,-6.390218735E-1,4.019633293E0
1.054423618E1,-6.547846794E-1,-7.347011566E-1,4.386587620E0
1.055223217E1,-7.033855915E-1,-6.707115173E-1,4.406244278E0
1.056022754E1,-8.052761555E-1,-5.566053391E-1,4.488558292E0
1.056822322E1,-8.429486752E-1,-5.402898788E-1,4.695193291E0
1.057621797E1,-8.085346222E-1,-7.636318207E-1,5.106608868E0
1.058421496E1,-7.117037773E-1,-1.214590073E0,5.735822678E0
1.059223979E1,-6.773152351E-1,-1.723330498E0,6.145793438E0
1.060023585E1,-7.692642212E-1,-2.196797371E0,6.677976608E0
1.060823184E1,-9.530436993E-1,-2.551852226E0,6.977856636E0
1.061622659E1,-1.293543696E0,-2.877714157E0,7.118096352E0
1.062422258E1,-1.642267227E0,-3.107860565E0,6.951449871E0
1.063221856E1,-2.082399368E0,-3.115316391E0,6.776363373E0
1.064021416E1,-2.461183071E0,-2.979118347E0,6.478226662E0
1.064824007E1,-2.665114403E0,-2.883647919E0,6.230201721E0
1.065623260E1,-2.765438080E0,-2.920159340E0,6.057996750E0
1.066423135E1,-2.751786947E0,-3.048474312E0,5.887590408E0
1.067222680E1,-2.568827391E0,-3.274061203E0,5.690173149E0
1.068022270E1,-2.208605051E0,-3.501928329E0,5.450431824E0
1.068821877E1,-1.748165607E0,-3.675070763E0,5.219504356E0
1.069621283E1,-1.166747570E0,-3.985445976E0,5.054126740E0
1.070423997E1,-6.786447763E-1,-4.283298492E0,4.846951962E0
1.071223526E1,-1.584688425E-1,-4.621908188E0,4.414404869E0
1.072023125E1,3.495861292E-1,-4.932446480E0,3.927498341E0
1.072822669E1,7.400760651E-1,-5.107352257E0,3.512638092E0
1.073622106E1,1.212911129E0,-5.259829521E0,2.917714596E0
1.074421805E1,1.516058207E0,-5.271759987E0,2.258470058E0
1.075221342E1,1.676067114E0,-5.159203529E0,1.718984604E0
1.076023918E1,1.644490242E0,-5.065233231E0,1.405618668E0
1.076823516E1,1.572314501E0,-5.008542061E0,1.282914639E0
1.077622930E1,1.573231936E0,-4.996288300E0,1.341520786E0
1.078422590E1,1.564579368E0,-5.057556152E0,1.419033527E0
1.079222166E1,1.520163655E0,-5.188530445E0,1.496034622E0
1.080021726E1,1.539731741E0,-5.346066952E0,1.365638733E0
1.080821293E1,1.589123011E0,-5.353868484E0,1.006214619E0
1.081623569E1,1.625427365E0,-5.338663578E0,6.869516373E-1
1.082423475E1,1.675694227E0,-5.333617210E0,3.628664017E-1
1.083223012E1,1.755331159E0,-5.266490459E0,9.669876099E-2
1.084022618E1,1.833959460E0,-5.107510090E0,-2.324972153E-1
1.084822155E1,1.922581911E0,-4.858335495E0,-4.948716164E-1
1.085621662E1,2.046761036E0,-4.755946636E0,-6.213603020E-1
1.086421314E1,2.195094109E0,-4.718819141E0,-6.509284973E-1
1.087223928E1,2.308682919E0,-4.683826447E0,-4.566779137E-1
1.088023380E1,2.474245071E0,-4.689829826E0,-3.222374916E-1
1.088823010E1,2.554388046E0,-4.716446877E0,-9.553098679E-2
1.089622200E1,2.522809982E0,-4.791400433E0,1.364040375E-1
1.090422053E1,2.323555946E0,-4.719684601E0,3.180646896E-1
1.091221674E1,2.064200878E0,-4.581121445E0,3.839197159E-1
1.092021211E1,1.991121292E0,-4.418462276E0,1.764917374E-1
1.092823856E1,2.123114586E0,-4.354774952E0,-3.707885742E-2
1.093623332E1,2.227756500E0,-4.472798347E0,-2.032384872E-1
1.094422930E1,2.134629726E0,-4.563417435E0,-4.557151794E-1
1.095222529E1,1.960100889E0,-4.532569408E0,-6.292686462E-1
1.096022066E1,1.622925758E0,-4.545686245E0,-7.624912262E-1
1.096821664E1,1.339612603E0,-4.550046444E0,-6.054058075E-1
1.097621078E1,1.275281429E0,-4.589867592E0,-4.197463989E-1
1.098423823E1,1.430315256E0,-4.682688713E0,2.249269485E-1
1.099223391E1,1.760190487E0,-4.775626659E0,2.359771729E-1
1.100022920E1,2.191736221E0,-4.785421371E0,2.788896561E-1
1.100822518E1,2.456527710E0,-4.753424644E0,1.884164810E-1
1.101621971E1,2.516912222E0,-4.668096542E0,-8.556747437E-2
1.102421716E1,2.400122166E0,-4.494866848E0,-4.245223999E-1
1.103221160E1,2.241796732E0,-4.367092609E0,-5.527124405E-1
1.104023751E1,2.043271065E0,-4.267162323E0,-7.354907990E-1
1.104823288E1,1.935454965E0,-4.254128933E0,-7.666358948E-1
1.105622787E1,1.898805857E0,-4.273151398E0,-7.897939682E-1
1.106422385E1,1.896956444E0,-4.234326839E0,-8.027563095E-1
1.107221991E1,1.984819174E0,-4.227556229E0,-8.632125854E-1
1.108021582E1,2.059732914E0,-4.228549957E0,-1.022169113E0
1.108821119E1,2.141369343E0,-4.324655056E0,-1.292311668E0
1.109623641E1,2.204715252E0,-4.322971821E0,-1.689113617E0
1.110423309E1,2.196479321E0,-4.229381561E0,-2.178016663E0
1.111222815E1,2.183681011E0,-4.127690792E0,-2.597121239E0
1.112022375E1,2.141426563E0,-3.915004730E0,-2.965429306E0
1.112821974E1,2.084264755E0,-3.749965668E0,-3.316397190E0
1.113621511E1,2.037148714E0,-3.479236364E0,-3.560743332E0
1.114421055E1,1.995393276E0,-3.257784605E0,-3.645736694E0
1.115223723E1,1.951833010E0,-3.051808119E0,-3.995635509E0
1.116023175E1,1.944774389E0,-2.785846710E0,-4.544094563E0
1.116822797E1,1.951888084E0,-2.633184433E0,-5.110195160E0
1.117622342E1,1.938028097E0,-2.457312107E0,-6.008282661E0
1.118421940E1,2.037875175E0,-2.314294577E0,-7.141694069E0
1.119221470E1,2.320397854E0,-2.017358065E0,-8.458589554E0
1.120021014E1,2.813042641E0,-1.707389951E0,-9.495852470E0
1.120823651E1,3.347021580E0,-1.539737225E0,-9.786721230E0
1.121622850E1,4.030064583E0,-1.345481038E0,-1.021352386E1
1.122422764E1,4.562744141E0,-1.184656978E0,-1.044950294E1
1.123222385E1,4.911435604E0,-8.804287910E-1,-1.083113575E1
1.124021922E1,4.851653099E0,-4.166176319E-1,-1.102080441E1
1.124821490E1,4.605997086E0,1.376528740E-1,-1.119332123E1
1.125620973E1,4.182817936E0,8.100006580E-1,-1.121155262E1
1.126423641E1,3.744678497E0,1.164311886E0,-1.107899380E1
1.127223216E1,3.163464546E0,1.241659641E0,-1.105929756E1
1.128022838E1,2.767100811E0,1.118822813E0,-1.098714256E1
1.128822321E1,2.352537632E0,8.206348419E-1,-1.067518616E1
1.129621828E1,2.028978348E0,4.713013172E-1,-1.022400665E1
1.130421395E1,1.797650695E0,1.816103458E-1,-9.797394753E0
1.131220955E1,1.594776273E0,1.713013649E-2,-9.102665901E0
1.132023631E1,1.488789320E0,2.654552460E-2,-8.345647812E0
1.132823168E1,1.422311664E0,4.120826721E-3,-7.512106895E0
1.133622674E1,1.305724740E0,-3.227782249E-2,-6.914195061E0
1.134422273E1,1.141227007E0,6.157398224E-3,-6.629691124E0
1.135221871E1,8.972761631E-1,1.652855873E-1,-6.254328728E0
1.136021408E1,6.670074463E-1,3.163604736E-1,-5.959171295E0
1.136820922E1,4.826807976E-1,3.158667088E-1,-5.664635658E0
1.137623221E1,4.708702564E-1,1.504423618E-1,-5.307758331E0
1.138423135E1,5.997567177E-1,6.448602676E-2,-4.976973057E0
1.139222672E1,8.012244701E-1,1.322369576E-1,-4.563840389E0
1.140022239E1,9.666727781E-1,3.139500618E-1,-4.147194862E0
1.140821899E1,1.095311165E0,6.018598080E-1,-3.609992027E0
1.141621282E1,1.052639246E0,7.182922363E-1,-2.946989536E0
1.142424073E1,9.592022896E-1,5.039186478E-1,-2.278032303E0
1.143223495E1,7.940094471E-1,9.383535385E-2,-1.692569733E0
1.144023086E1,5.796196461E-1,-2.644183636E-1,-1.361985683E0
1.144822561E1,3.257083893E-1,-4.657914639E-1,-1.201375961E0
1.145622191E1,1.620631218E-1,-4.273724556E-1,-1.115902901E0
1.146421735E1,1.637065411E-1,-2.380561829E-1,-1.050095558E0
1.147221395E1,2.747614384E-1,-7.540249825E-2,-8.836050034E-1
1.148023948E1,3.388571739E-1,2.228736877E-3,-7.928504944E-1
1.148823485E1,2.689754963E-1,-7.783651352E-3,-7.054824829E-1
1.149623014E1,1.308970451E-1,-8.876872063E-2,-6.235380173E-1
1.150422590E1,-8.838558197E-2,-2.628784180E-1,-4.442300797E-1
1.151222273E1,-2.228577137E-1,-4.105116129E-1,-2.661533356E-1
1.152021687E1,-2.577137947E-1,-5.641239882E-1,6.600570679E-2
1.152821293E1,-2.306373119E-1,-6.717917919E-1,3.579072952E-1
1.153623538E1,-1.739890575E-1,-6.577941775E-1,4.129762650E-1
1.154423467E1,-1.500439644E-1,-6.158071756E-1,4.111375809E-1
1.155222981E1,-1.635851860E-1,-3.927825689E-1,3.714466095E-1
1.156022579E1,-1.927304268E-1,-8.515989780E-2,2.672958374E-1
1.156822201E1,-1.761777401E-1,1.780447960E-1,2.091102600E-1
1.157621623E1,-4.334950447E-2,3.356375694E-1,-3.799438477E-3
1.158421337E1,6.469225883E-2,2.957606316E-1,-8.196544647E-2
1.159223835E1,1.322216988E-1,1.689481735E-2,-1.573295593E-1
1.160023334E1,1.727802753E-1,-3.468377590E-1,-9.097957611E-2
1.160822971E1,1.682140827E-1,-5.181793571E-1,3.844165802E-2
1.161622200E1,1.313421726E-1,-5.198738575E-1,1.897602081E-1
1.162422129E1,7.290053368E-2,-4.017449915E-1,2.791271210E-1
1.163221705E1,6.175279617E-3,-1.963018179E-1,2.300262451E-1
1.164021265E1,2.128410339E-2,-1.507759094E-3,1.118154526E-1
1.164823848E1,6.749963760E-2,1.053664088E-1,5.126380920E-2
1.165623354E1,1.184232235E-1,5.923080444E-2,9.605216980E-2
1.166422868E1,1.668996811E-1,-1.646710634E-1,1.573543549E-1
1.167222528E1,1.848461628E-1,-4.193958342E-1,3.261976242E-1
1.168021996E1,2.160828114E-1,-7.247487307E-1,3.202819824E-1
1.168821633E1,1.729376316E-1,-9.732806683E-1,4.441432953E-1
1.169621101E1,9.853029251E-2,-1.080516696E0,3.316812515E-1
1.170423776E1,6.116771698E-2,-9.539141059E-1,2.800750732E-1
1.171223375E1,4.776048660E-2,-6.839572191E-1,1.004285812E-1
1.172022881E1,1.352987289E-1,-3.569142520E-1,-3.242969513E-2
1.172822449E1,1.658585072E-1,-1.229576916E-1,-9.696197510E-2
1.173622016E1,2.062209845E-1,3.141052276E-2,-1.962003708E-1
1.174421592E1,2.133671045E-1,4.176124930E-2,-1.774835587E-1
1.175221183E1,9.540653229E-2,-2.903191447E-1,-2.473545074E-2
1.176023743E1,-4.489398003E-2,-7.643014193E-1,1.850709915E-1
1.176823311E1,-7.435202599E-2,-1.029698133E0,4.374713898E-1
1.177622532E1,-3.569006920E-3,-1.179878950E0,6.992273331E-1
1.178422439E1,1.055645943E-1,-1.171978235E0,7.238616943E-1
1.179222068E1,1.938170195E-1,-9.486616254E-1,4.804258347E-1
1.180021582E1,2.062958479E-1,-5.185314417E-1,2.446765900E-1
1.180821111E1,2.204986811E-1,-1.772813797E-1,2.919197083E-3
1.181623664E1,1.864107847E-1,7.321894169E-3,-1.341228485E-1
1.182423270E1,1.246151924E-1,-2.127659321E-2,-2.597627640E-1
1.183222868E1,5.793356895E-2,-2.139619589E-1,-3.863563538E-1
1.184022467E1,1.881599426E-2,-4.355245829E-1,-2.175331116E-1
1.184821973E1,-7.603645325E-2,-7.293952703E-1,7.148647308E-2
1.185621448E1,-1.858814955E-1,-1.007033229E0,3.726758957E-1
1.186421078E1,-2.182192802E-1,-9.794896841E-1,5.614080429E-1
1.187223692E1,-1.312193871E-1,-7.378005981E-1,6.109123230E-1
1.188023221E1,3.879499435E-2,-4.961798191E-1,3.558425903E-1
1.188822889E1,2.257118225E-1,-2.591506243E-1,3.109073639E-2
1.189622303E1,2.872981429E-1,-9.135663509E-2,-2.741842270E-1
1.190421924E1,2.602646351E-1,-6.288945675E-2,-3.873271942E-1
1.191221523E1,3.338828087E-1,-1.130772829E-1,-5.576829910E-1
1.192020998E1,4.039071202E-1,-3.288201094E-1,-6.486883163E-1
1.192823620E1,5.626149178E-1,-6.478950977E-1,-6.665067673E-1
1.193623149E1,7.113789320E-1,-7.090866566E-1,-5.123910904E-1
1.194422779E1,9.495683908E-1,-5.148947239E-1,-3.923549652E-1
1.195222408E1,1.108480811E0,-3.352222443E-1,-3.201971054E-1
1.196021914E1,1.090534687E0,-2.776327133E-1,-2.622919083E-1
1.196821459E1,8.827364445E-1,-3.343544006E-1,-3.581542969E-1
1.197620934E1,6.219986081E-1,-4.594881535E-1,-3.588056564E-1
1.198423671E1,3.784570992E-1,-6.269063950E-1,-3.578672409E-1
1.199223178E1,2.131354064E-1,-7.131078243E-1,-3.821620941E-1
1.200022707E1,1.112676114E-1,-8.001329899E-1,-4.680147171E-1
1.200822336E1,-2.762335539E-2,-9.484462738E-1,-3.636379242E-1
1.201621781E1,-1.202677190E-1,-1.109884501E0,-2.524566650E-1
1.202421418E1,-1.186711788E-1,-1.240560293E0,-7.812118530E-2
1.203220986E1,-9.073533118E-3,-1.114279509E0,1.233720779E-1
1.204023561E1,3.025422692E-1,-9.249782562E-1,4.000940323E-1
1.204823129E1,6.175457835E-1,-7.973616123E-1,5.907564163E-1
1.205622674E1,8.268346786E-1,-7.445070744E-1,5.688505173E-1
1.206422241E1,9.187537432E-1,-7.453415394E-1,4.498929977E-1
1.207221871E1,8.994023800E-1,-7.199056149E-1,2.748489380E-1
1.208021408E1,8.173928261E-1,-6.786537170E-1,1.198987961E-1
1.208820852E1,7.041968107E-1,-6.263794899E-1,1.573104858E-1
1.209623559E1,5.627696514E-1,-6.852440834E-1,2.504634857E-1
1.210423180E1,4.102481604E-1,-8.638870716E-1,2.871141434E-1
1.211222686E1,3.596405685E-1,-9.560713768E-1,3.558979034E-1
1.212022131E1,3.544005752E-1,-1.048538208E0,4.278650284E-1
1.212821830E1,3.351519704E-1,-1.171232700E0,3.492879868E-1
1.213621274E1,2.151720524E-1,-1.213858128E0,1.945848465E-1
1.214420965E1,2.285248041E-2,-1.255184174E0,7.123947144E-3
1.215223518E1,-7.460343838E-2,-1.162478447E0,-2.339048386E-1
1.216023109E1,-2.858161926E-2,-1.068335533E0,-4.724454880E-1
1.216822622E1,1.618456841E-1,-8.657536507E-1,-8.581371307E-1
1.217622129E1,3.525210023E-1,-5.814046860E-1,-1.031663895E0
1.218421750E1,4.302318692E-1,-3.645701408E-1,-1.018568039E0
1.219221410E1,4.401209950E-1,-3.550362587E-1,-8.696618080E-1
1.220020855E1,5.370615721E-1,-4.068613052E-1,-7.502632141E-1
1.220823500E1,6.675500870E-1,-4.269070625E-1,-6.366777420E-1
1.221623037E1,8.833941221E-1,-5.007205009E-1,-6.388134956E-1
1.222422582E1,9.740403891E-1,-5.500640869E-1,-8.322591782E-1
1.223222149E1,9.603441954E-1,-5.116333961E-1,-1.060495853E0
1.224021740E1,8.193733692E-1,-3.828501701E-1,-1.309031963E0
1.224821316E1,6.550285816E-1,-2.628321648E-1,-1.416179657E0
1.225620783E1,5.545346737E-1,-1.278338432E-1,-1.545082569E0
1.226423405E1,4.868742228E-1,6.704139709E-2,-1.468775749E0
1.227223027E1,4.779964685E-1,2.712697983E-1,-1.204175949E0
1.228022594E1,5.071562529E-1,2.527894974E-1,-9.184317589E-1
1.228822070E1,6.071547270E-1,-4.119396210E-2,-5.318527222E-1
1.229621607E1,7.302117348E-1,-5.521497726E-1,-3.320837021E-1
1.230421205E1,7.958073616E-1,-8.872580528E-1,-1.939458847E-1
1.231220842E1,8.189547062E-1,-1.101507187E0,-3.064885139E-1
1.232023449E1,8.903007507E-1,-1.141215801E0,-5.583896637E-1
1.232822986E1,9.485635757E-1,-1.018455982E0,-8.685975075E-1
1.233622184E1,1.071311712E0,-8.058080673E-1,-1.082219124E0
1.234422060E1,1.235652924E0,-6.861042976E-1,-1.035479546E0
1.235221666E1,1.384150982E0,-7.054986954E-1,-8.213329315E-1
1.236021226E1,1.356648684E0,-7.624831200E-1,-5.798106194E-1
1.236820763E1,1.115334034E0,-8.272137642E-1,-1.726875305E-1
1.237623354E1,7.819337845E-1,-9.648885727E-1,3.930501938E-1
1.238422952E1,5.679237843E-1,-1.101245403E0,7.592506409E-1
1.239222520E1,2.523119450E-1,-1.328081608E0,1.125893593E0
1.240022057E1,-5.202412605E-2,-1.416233063E0,1.347768307E0
1.240821679E1,-3.285872936E-1,-1.349869251E0,1.294520855E0
1.241621123E1,-4.362311363E-1,-1.114290237E0,9.679670334E-1
1.242423714E1,-4.106736183E-1,-7.902870178E-1,6.480803490E-1
1.243223367E1,-2.012877464E-1,-4.105401039E-1,4.556970596E-1
1.244022850E1,1.040196419E-1,-2.496366501E-1,4.224948883E-1
1.244822418E1,5.465085506E-1,-2.995252609E-1,5.120038986E-1
1.245621978E1,9.093966484E-1,-3.938417435E-1,7.322688103E-1
1.246421576E1,1.276820421E0,-6.681060791E-1,1.005424500E0
1.247221144E1,1.602462053E0,-1.028962612E0,1.208436012E0
1.248023673E1,1.771012068E0,-1.377056599E0,1.410206795E0
1.248823326E1,1.711025715E0,-1.780195236E0,1.507472515E0
1.249622678E1,1.462030172E0,-2.061677933E0,1.552487850E0
1.250422338E1,9.967343807E-1,-2.190521240E0,1.600296497E0
1.251221944E1,5.460925102E-1,-2.159386635E0,1.551114082E0
1.252021504E1,2.056641579E-1,-2.018903732E0,1.293371201E0
1.252821111E1,-8.685779572E-2,-1.629146576E0,1.036555767E0
1.253623686E1,-2.180180550E-1,-1.250428200E0,1.012949467E0
1.254423292E1,-2.088932991E-1,-9.498548508E-1,9.876356125E-1
1.255222883E1,-4.649710655E-2,-7.465076447E-1,9.840764999E-1
1.256022451E1,1.864614487E-1,-7.168979645E-1,1.083132267E0
1.256821957E1,4.292230606E-1,-8.706493378E-1,1.218856573E0
1.257621410E1,6.645014286E-1,-1.103063583E0,1.414346933E0
1.258421008E1,9.336700439E-1,-1.493491173E0,1.514573336E0
1.259223645E1,1.014005184E0,-1.814813614E0,1.582912445E0
1.260023275E1,8.521909714E-1,-2.072019577E0,1.573415518E0
1.260822812E1,4.691634178E-1,-2.107123375E0,1.414190531E0
1.261622295E1,4.613375664E-2,-2.005951881E0,1.211776972E0
1.262421947E1,-4.897952080E-1,-1.779680252E0,1.052902222E0
1.263221484E1,-8.834030628E-1,-1.420738220E0,1.159870625E0
1.264021060E1,-1.190466166E0,-8.090991974E-1,1.376418352E0
1.264823696E1,-1.260299683E0,-2.583713531E-1,1.597650766E0
1.265622903E1,-1.111999512E0,-4.177474976E-2,1.959284782E0
1.266422778E1,-7.692618370E-1,-3.537750244E-2,2.191156626E0
1.267222400E1,-5.450217724E-1,-1.892280579E-1,2.429975986E0
1.268021852E1,-2.534701824E-1,-3.811712265E-1,2.644796371E0
1.268821451E1,-1.178576946E-1,-4.555778503E-1,2.600170135E0
1.269620896E1,-1.008923054E-1,-4.235239029E-1,2.392272949E0
1.270423632E1,-1.577997208E-1,-3.942184448E-1,2.069123745E0
1.271223170E1,-2.499225140E-1,-4.075403214E-1,1.730916262E0
1.272022699E1,-4.474039078E-1,-3.288822174E-1,1.548148155E0
1.272822244E1,-6.907153130E-1,-1.388473511E-1,1.685045242E0
1.273621780E1,-8.316025734E-1,1.632137299E-1,1.966039896E0
1.274421348E1,-8.507449627E-1,3.639087677E-1,2.515198946E0
1.275220947E1,-8.111824989E-1,2.435903549E-1,3.198413610E0
1.276023645E1,-1.085116386E0,-4.112052917E-2,4.058065414E0
1.276823129E1,-1.232369900E0,-3.754081726E-1,4.480806351E0
1.277622635E1,-1.094370365E0,-7.456045151E-1,5.045232773E0
1.278422202E1,-9.577846527E-1,-9.739980698E-1,5.440402985E0
1.279221740E1,-1.201808691E0,-9.404268265E-1,5.090941429E0
1.280021369E1,-1.154084206E0,-8.547191620E-1,4.791906834E0
1.280820929E1,-8.567979336E-1,-6.917572021E-1,4.434193611E0
1.281623274E1,-6.263599396E-1,-4.239940643E-1,3.887473822E0
1.282423088E1,-4.657754898E-1,-2.541046143E-1,3.221199512E0
1.283222678E1,-9.566235542E-2,-1.934957504E-1,2.400703907E0
1.284022254E1,5.463466644E-1,-3.141460419E-1,1.563329577E0
1.284821876E1,1.133984804E0,-3.652591705E-1,6.735070944E-1
1.285621266E1,1.849075794E0,-3.281326294E-1,3.108428717E-1
1.286420980E1,2.234579563E0,-1.645174026E-1,1.014373302E-1
1.287223540E1,2.086265802E0,8.758735657E-2,8.756256104E-2
1.288023077E1,1.527240276E0,2.992115021E-1,8.989191055E-2
1.288822614E1,8.687903881E-1,3.879594803E-1,2.774761915E-1
1.289621836E1,4.308509827E-1,3.734855652E-1,4.933283329E-1
1.290421750E1,1.630725861E-1,3.205909729E-1,7.773007154E-1
1.291221402E1,-1.133272648E-1,1.818075180E-1,1.215724230E0
1.292020909E1,-3.269410133E-1,2.206134796E-2,1.551662922E0
1.292823469E1,-5.792415142E-1,-3.322324753E-1,1.983518600E0
1.293622967E1,-7.784352303E-1,-7.840471268E-1,2.186414957E0
1.294422604E1,-8.307564259E-1,-9.260244370E-1,2.308778763E0
1.295222134E1,-8.132171631E-1,-5.977582932E-1,2.718199730E0
1.296021678E1,-7.123746872E-1,-7.886886597E-3,3.218588591E0
1.296821208E1,-6.469409466E-1,4.631919861E-1,4.156104565E0
1.297620721E1,-6.889698505E-1,3.588628769E-1,5.518131256E0
1.298423481E1,-1.071733475E0,-5.919551849E-2,6.504703999E0
1.299222965E1,-1.530600667E0,-6.580219269E-1,7.445720673E0
1.300022586E1,-1.854460597E0,-1.199135780E0,7.769969940E0
1.300822162E1,-2.050808430E0,-1.745346069E0,7.930505753E0
1.301621599E1,-2.133994579E0,-2.077234268E0,7.871256828E0
1.302421320E1,-2.271070719E0,-2.281027794E0,7.805783272E0
1.303220796E1,-2.523062468E0,-2.428969383E0,7.553044319E0
1.304023387E1,-2.668714285E0,-2.542081833E0,7.263330460E0
1.304822893E1,-2.666970253E0,-2.746528625E0,7.071637630E0
1.305622299E1,-2.503645182E0,-3.010923386E0,6.928071022E0
1.306422113E1,-2.205939054E0,-3.354836464E0,6.865036011E0
1.307221689E1,-1.885678053E0,-3.743531227E0,6.746071815E0
1.308021218E1,-1.574054122E0,-4.153999329E0,6.453789711E0
1.308820786E1,-1.197916865E0,-4.386291504E0,6.043609142E0
1.309623276E1,-9.014791250E-1,-4.424187660E0,5.715206623E0
1.310423006E1,-5.103689432E-1,-4.603561401E0,5.178050518E0
1.311222474E1,-9.150981903E-2,-4.807715416E0,4.627702236E0
1.312022041E1,3.084939718E-1,-4.959582329E0,3.923662186E0
1.312821586E1,5.536996126E-1,-5.057024956E0,3.239777088E0
1.313621123E1,7.521435022E-1,-4.950230598E0,2.724117756E0
1.314420745E1,9.135547876E-1,-4.813180447E0,2.361045361E0
1.315223366E1,1.039791942E0,-4.858778000E0,2.076807976E0
1.316022896E1,1.183273315E0,-4.993691444E0,1.972761631E0
1.316822463E1,1.303596616E0,-5.158846378E0,1.737815380E0
1.317621946E1,1.363940597E0,-5.321969032E0,1.457858562E0
1.318421599E1,1.359772325E0,-5.278661728E0,1.125557423E0
1.319221144E1,1.371539712E0,-5.098554611E0,8.033957481E-1
1.320023696E1,1.450492620E0,-4.857171535E0,3.895988464E-1
1.320823294E1,1.620117664E0,-4.709445953E0,-2.921676636E-2
1.321622493E1,1.857832789E0,-4.637537003E0,-2.992248535E-1
1.322422338E1,2.031620502E0,-4.571530819E0,-4.228405952E-1
1.323221967E1,2.233522415E0,-4.641627789E0,-6.095671654E-1
1.324021527E1,2.459662676E0,-4.664933205E0,-7.915744781E-1
1.324821072E1,2.567251444E0,-4.589583397E0,-8.785777092E-1
1.325620640E1,2.524556398E0,-4.439700127E0,-1.059755802E0
1.326423307E1,2.443021774E0,-4.138410568E0,-1.148081779E0
1.327222875E1,2.368670464E0,-3.948814392E0,-1.224782467E0
1.328022351E1,2.155723572E0,-3.788796902E0,-1.255981922E0
1.328821957E1,2.060445309E0,-3.691860676E0,-1.246610641E0
1.329621402E1,2.085181236E0,-3.615407944E0,-1.248316288E0
1.330421054E1,2.171302557E0,-3.657672882E0,-1.371463299E0
1.331220599E1,2.246443748E0,-3.775248051E0,-1.376518250E0
1.332023305E1,2.304993868E0,-3.784447670E0,-1.464971066E0
1.332822750E1,2.321421146E0,-3.726863384E0,-1.637232304E0
1.333622340E1,2.300983191E0,-3.489633083E0,-1.794881821E0
1.334421916E1,2.254534483E0,-3.276578188E0,-1.806181908E0
1.335221484E1,2.165033817E0,-2.932679892E0,-1.833114624E0
1.336021021E1,2.021167278E0,-2.759033442E0,-1.743705750E0
1.336820581E1,1.806638837E0,-2.639665842E0,-1.422610760E0
1.337622887E1,1.521914721E0,-2.533591032E0,-8.469114304E-1
1.338422770E1,1.323043108E0,-2.476568937E0,-4.591989517E-1
1.339222269E1,1.126395583E0,-2.300039053E0,9.424686432E-2
1.340021844E1,9.649341106E-1,-2.199321747E0,3.907966614E-2
1.340821474E1,8.340676427E-1,-2.274939775E0,-1.991758347E-1
1.341620941E1,6.644665003E-1,-2.531835079E0,-7.214698792E-1
1.342423678E1,5.096772909E-1,-2.774730682E0,-1.226362228E0
1.343223246E1,2.656590939E-1,-2.817566395E0,-1.551391125E0
1.344022729E1,1.501274109E-1,-2.696660519E0,-1.654018879E0
1.344822297E1,1.096370220E-1,-2.388030529E0,-1.365676403E0
1.345621742E1,2.179539204E-1,-2.068239689E0,-1.095333099E0
1.346421463E1,4.227964878E-1,-1.902999401E0,-1.041791916E0
1.347221000E1,6.902391911E-1,-1.740072966E0,-8.988800049E-1
1.348023545E1,9.401268959E-1,-1.424748540E0,-1.297497749E0
1.348823174E1,1.153777599E0,-1.068447232E0,-1.600271225E0
1.349622619E1,1.398895502E0,-9.056075811E-1,-2.006904125E0
1.350422248E1,1.533515930E0,-9.603838921E-1,-2.375932693E0
1.351221816E1,1.666314244E0,-9.726574421E-1,-2.789349556E0
1.352021392E1,1.719953656E0,-9.445965290E-1,-3.086625576E0
1.352820890E1,1.685753345E0,-8.382077217E-1,-3.335351944E0
1.353623504E1,1.544112682E0,-7.384604812E-1,-3.337569714E0
1.354423080E1,1.345161915E0,-5.520356297E-1,-3.268969059E0
1.355222678E1,1.308120847E0,-5.087978244E-1,-3.166677952E0
1.356022215E1,1.349079251E0,-5.247240663E-1,-3.259160519E0
1.356821783E1,1.435898066E0,-5.071067214E-1,-3.348365307E0
1.357621258E1,1.613566279E0,-5.054104924E-1,-3.573619366E0
1.358420941E1,1.747293472E0,-3.932669163E-1,-3.697745800E0
1.359223494E1,1.907886505E0,-2.040143609E-1,-4.004806042E0
1.360023039E1,1.998901010E0,-1.123100370E-1,-4.177753925E0
1.360822545E1,1.946613312E0,-1.806282252E-1,-4.108123302E0
1.361621866E1,1.814684033E0,-2.223619819E-1,-4.118792534E0
1.362421765E1,1.598851562E0,-1.478214860E-1,-4.061895370E0
1.363221371E1,1.469051957E0,-2.783745527E-2,-3.996591091E0
1.364020816E1,1.412550211E0,1.439676881E-1,-4.005420208E0
1.364823484E1,1.470458984E0,3.444580436E-1,-4.223393917E0
1.365622959E1,1.614392161E0,5.032023191E-1,-4.351502419E0
1.366422619E1,1.719889164E0,5.461162329E-1,-4.425077438E0
1.367222218E1,1.716186643E0,5.257040262E-1,-4.359282494E0
1.368021724E1,1.654560208E0,5.959758759E-1,-4.408997059E0
1.368821199E1,1.528061748E0,7.403976917E-1,-4.435339451E0
1.369620736E1,1.423365831E0,7.789125443E-1,-4.462911129E0
1.370423358E1,1.296588659E0,9.320330620E-1,-4.502568722E0
1.371223010E1,1.236414433E0,1.090646029E0,-4.478852272E0
1.372022547E1,1.188658476E0,1.168326855E0,-4.473864555E0
1.372822092E1,1.187632084E0,1.035806775E0,-4.404608727E0
1.373621591E1,1.159035921E0,8.408701420E-1,-4.338198662E0
1.374421282E1,1.216127872E0,7.364971638E-1,-4.169086933E0
1.375220818E1,1.221673489E0,7.461491823E-1,-3.927755356E0
1.376023402E1,1.233214855E0,9.026401043E-1,-3.742417812E0
1.376822969E1,1.254768848E0,1.107643366E0,-3.643540859E0
1.377622145E1,1.241261005E0,1.272820711E0,-3.671728134E0
1.378422143E1,1.226808071E0,1.279565215E0,-3.805424690E0
1.379221650E1,1.181300163E0,1.200069547E0,-3.840785027E0
1.380021179E1,1.042497158E0,1.141323686E0,-3.808777809E0
1.380820785E1,8.942909241E-1,1.117356420E0,-3.685339451E0
1.381623299E1,6.794826984E-1,1.125342727E0,-3.341992855E0
1.382422928E1,4.214134216E-1,1.200806022E0,-2.868544102E0
1.383222473E1,2.183384895E-1,1.388735652E0,-2.524501801E0
1.384022095E1,5.628347397E-2,1.521218181E0,-2.286779881E0
1.384821609E1,6.050825119E-3,1.663687229E0,-2.189547539E0
1.385621053E1,9.313368797E-2,1.725589514E0,-2.057443619E0
1.386420706E1,2.768750191E-1,1.719178081E0,-1.989996910E0
1.387223320E1,4.938726425E-1,1.576751232E0,-1.932780266E0
1.388022864E1,6.142730713E-1,1.338206291E0,-1.990159035E0
1.388822463E1,6.375377178E-1,1.218226314E0,-2.144392490E0
1.389622023E1,6.319489479E-1,1.194846749E0,-2.184156895E0
1.390421568E1,6.308679581E-1,1.220508695E0,-2.123929024E0
1.391221135E1,4.920992851E-1,1.278886914E0,-2.031219482E0
1.392020696E1,3.146951199E-1,1.329632401E0,-1.906729221E0
1.392823309E1,1.585917473E-1,1.284289360E0,-1.816128731E0
1.393622485E1,8.702993393E-2,1.217254162E0,-1.657106876E0
1.394422391E1,7.878398895E-2,1.159246087E0,-1.531068802E0
1.395221990E1,1.299629211E-1,1.078395128E0,-1.421794415E0
1.396021519E1,1.770424843E-1,1.060713291E0,-1.442350864E0
1.396821095E1,2.399530411E-1,1.084313393E0,-1.429511070E0
1.397620601E1,2.744073868E-1,1.161037803E0,-1.593379021E0
1.398423268E1,2.990913391E-1,1.265112281E0,-1.600360870E0
1.399222844E1,2.934422493E-1,1.387532115E0,-1.578307152E0
1.400022381E1,3.154857159E-1,1.463480830E0,-1.506715775E0
1.400821972E1,4.166619778E-1,1.411106110E0,-1.447261810E0
1.401621447E1,4.911780357E-1,1.240148544E0,-1.424105644E0
1.402421046E1,4.844810963E-1,1.096603394E0,-1.414113045E0
1.403220614E1,3.444619179E-1,9.922392368E-1,-1.315098763E0
1.404023205E1,2.177069187E-1,9.793179035E-1,-1.235558033E0
1.404822803E1,1.001472473E-1,1.036479831E0,-1.135538578E0
1.405622240E1,1.009454727E-1,1.134960413E0,-1.051366329E0
1.406421962E1,1.533308029E-1,1.234437823E0,-1.018857002E0
1.407221383E1,1.693706512E-1,1.328649640E0,-1.080883026E0
1.408021012E1,1.960296631E-1,1.338543653E0,-1.112256527E0
1.408820642E1,2.466666698E-1,1.230153918E0,-1.181731224E0
1.409622940E1,2.719869614E-1,1.096652031E0,-1.207441807E0
1.410422731E1,2.558510303E-1,9.946534038E-1,-1.208196640E0
1.411222268E1,1.693179607E-1,9.836917520E-1,-1.162518501E0
1.412021928E1,3.792071342E-2,1.039631963E0,-1.075530529E0
1.412821488E1,-1.200368404E-1,1.150117397E0,-9.212436676E-1
1.413620972E1,-1.964273453E-1,1.284508705E0,-8.954935074E-1
1.414423639E1,-1.986875534E-1,1.405482650E0,-8.501052856E-1
1.415223153E1,-1.771500111E-1,1.390614033E0,-8.307590485E-1
1.416022660E1,-1.719555855E-1,1.328296185E0,-8.852357864E-1
1.416822220E1,-9.972071648E-2,1.157520533E0,-9.947042465E-1
1.417621703E1,-5.931687355E-2,9.660723209E-1,-1.042176723E0
1.418421301E1,-4.256725311E-2,7.036482096E-1,-1.061711788E0
1.419220992E1,-8.017492294E-2,5.726815462E-1,-1.058847904E0
1.420020406E1,-1.660358906E-1,4.729335904E-1,-9.716987610E-1
1.420823174E1,-2.926886082E-1,5.714308023E-1,-8.312044144E-1
1.421622611E1,-2.729053497E-1,7.601072788E-1,-8.095417023E-1
1.422422271E1,-1.613807678E-1,9.814315438E-1,-9.113483429E-1
1.423221839E1,-3.444385529E-2,1.095864773E0,-1.057458878E0
1.424021345E1,1.209852695E-1,9.922457933E-1,-1.244924545E0
1.424820920E1,2.261161804E-1,8.448184133E-1,-1.530916691E0
1.425620365E1,3.002130985E-1,7.488371134E-1,-1.624589443E0
1.426423041E1,2.741360664E-1,6.088695526E-1,-1.524935246E0
1.427222608E1,1.412582397E-1,5.416765809E-1,-1.321261883E0
1.428022230E1,-9.139895439E-2,5.442442894E-1,-9.762287140E-1
1.428821798E1,-2.656443119E-1,6.669853926E-1,-7.396078110E-1
1.429621219E1,-3.351876736E-1,8.412592411E-1,-5.729722977E-1
1.430420872E1,-3.554165363E-1,9.274699688E-1,-6.107397079E-1
1.431220440E1,-3.775308132E-1,8.834207058E-1,-7.429389954E-1
1.432022992E1,-2.953121662E-1,7.577087879E-1,-8.780393600E-1
1.432822598E1,-2.146868706E-1,6.869063377E-1,-9.816522598E-1
1.433621851E1,-2.385830879E-2,6.130745411E-1,-1.048202515E0
1.434421764E1,1.540682316E-1,5.299577117E-1,-1.065105438E0
1.435221302E1,2.025468349E-1,3.853708506E-1,-1.005903244E0
1.436020838E1,9.243941307E-2,2.752749920E-1,-8.613643646E-1
1.436820429E1,-1.080455780E-1,2.276347876E-1,-6.099739075E-1
1.437622928E1,-2.736003399E-1,1.766164303E-1,-2.831640244E-1
1.438422588E1,-3.410542011E-1,2.605727911E-1,-1.258211136E-1
1.439222094E1,-3.738360405E-1,3.318236470E-1,-3.777503967E-2
1.440021693E1,-3.551607132E-1,3.162918091E-1,-1.583089828E-1
1.440821253E1,-2.630255222E-1,2.645373344E-1,-3.966178894E-1
1.441620759E1,-1.176500320E-1,2.448337078E-1,-6.686019897E-1
1.442423434E1,5.243277550E-2,2.125319242E-1,-7.871999741E-1
1.443223010E1,1.864686012E-1,4.765903950E-2,-8.100051880E-1
1.444022632E1,2.244336605E-1,-2.602937222E-1,-7.681770325E-1
1.444822107E1,1.998493671E-1,-4.420920610E-1,-6.450214386E-1
1.445621583E1,1.258316040E-1,-5.441821814E-1,-3.852310181E-1
1.446421250E1,5.218386650E-2,-4.289728403E-1,-2.422866821E-1
1.447220810E1,1.271414757E-1,-1.588904858E-1,-2.306003571E-1
1.448023363E1,1.876093149E-1,7.747650146E-2,-3.740177155E-1
1.448822930E1,2.742571831E-1,1.739670038E-1,-5.692024231E-1
1.449622129E1,3.660918474E-1,1.617300510E-1,-9.327354431E-1
1.450422012E1,4.726309776E-1,1.355972290E-1,-1.054308891E0
1.451221611E1,5.873570442E-1,5.478787422E-2,-1.086935043E0
1.452021140E1,6.172240973E-1,-2.764749527E-2,-1.050100327E0
1.452820777E1,6.440337896E-1,-2.389628887E-1,-8.843069077E-1
1.453623360E1,6.073597074E-1,-4.393751621E-1,-5.635938644E-1
1.454422920E1,5.805234909E-1,-6.228401661E-1,-2.415523529E-1
1.455222465E1,6.476270556E-1,-7.457404137E-1,-1.097755432E-1
1.456022056E1,6.210643053E-1,-6.858522892E-1,-1.586084366E-1
1.456821624E1,6.690922976E-1,-5.311796665E-1,-2.822694778E-1
1.457621068E1,7.479885817E-1,-3.770940304E-1,-4.704504013E-1
1.458420667E1,9.263635874E-1,-2.658360004E-1,-5.309057236E-1
1.459223312E1,1.061645269E0,-2.883248329E-1,-6.189718246E-1
1.460022910E1,1.069607377E0,-3.642539978E-1,-5.003519058E-1
1.460822416E1,9.664354920E-1,-4.969515800E-1,-4.772481918E-1
1.461621923E1,8.065289259E-1,-6.433825493E-1,-2.649660110E-1
1.462421552E1,6.083571911E-1,-8.369367123E-1,5.247020721E-2
1.463221127E1,2.924844623E-1,-1.007118464E0,4.624977112E-1
1.464020687E1,-5.417832732E-2,-1.071509361E0,7.776594162E-1
1.464823309E1,-3.456159830E-1,-1.030819654E0,8.321838379E-1
1.465622477E1,-3.959792852E-1,-8.567011356E-1,8.292818069E-1
1.466422406E1,-2.072296739E-1,-6.228525639E-1,6.159811020E-1
1.467221974E1,8.739289641E-2,-4.169926643E-1,4.058132172E-1
1.468021603E1,2.688471973E-1,-3.554968834E-1,2.543611526E-1
1.468821140E1,4.463438392E-1,-4.709467888E-1,8.785915375E-2
1.469620562E1,5.829258561E-1,-6.038260460E-1,-2.357769012E-2
1.470423230E1,7.133813500E-1,-8.084130287E-1,4.495906830E-2
1.471222805E1,6.240725517E-1,-9.209227562E-1,2.257642746E-1
1.472022373E1,3.488223553E-1,-9.934372902E-1,3.766918182E-1
1.472821879E1,1.290299892E-1,-9.452457428E-1,5.213880539E-1
1.473621447E1,7.197642326E-2,-8.436536789E-1,5.975904465E-1
1.474421068E1,1.666957140E-1,-8.037981987E-1,6.148929596E-1
1.475220644E1,2.429125309E-1,-6.839652061E-1,5.713024139E-1
1.476023258E1,3.263787627E-1,-5.706334114E-1,4.738521576E-1
1.476822795E1,4.134441614E-1,-5.548167229E-1,2.864284515E-1
1.477622209E1,5.580128431E-1,-6.189374924E-1,1.648445129E-1
1.478421923E1,7.226849198E-1,-7.310152054E-1,1.861028671E-1
1.479221491E1,6.711984873E-1,-7.975926399E-1,3.405389786E-1
1.480021035E1,4.564810991E-1,-7.583804131E-1,5.668678284E-1
1.480820572E1,2.243731022E-1,-6.144185066E-1,7.041254044E-1
1.481622840E1,-5.763423443E-2,-4.851951599E-1,7.983379364E-1
1.482422723E1,-2.696866393E-1,-4.613890648E-1,8.455939293E-1
1.483222314E1,-4.436550736E-1,-5.470423698E-1,7.680759430E-1
1.484021828E1,-4.568747282E-1,-6.597876549E-1,6.002521515E-1
1.484821450E1,-1.849408150E-1,-5.598025322E-1,4.118204117E-1
1.485620933E1,3.053808212E-1,-2.621679306E-1,2.590065002E-1
1.486420500E1,7.540942430E-1,-1.016387939E-1,3.043360710E-1
1.487223114E1,1.020132542E0,-1.666817665E-1,4.730615616E-1
1.488022621E1,1.154774427E0,-3.560123444E-1,5.595083237E-1
1.488822219E1,1.092860818E0,-4.011764526E-1,6.734437943E-1
1.489621810E1,9.252794981E-1,-5.381560326E-1,8.563127518E-1
1.490421439E1,7.203009129E-1,-7.251939774E-1,1.085337639E0
1.491220923E1,3.993380070E-1,-9.005522728E-1,1.267287731E0
1.492020429E1,1.272022724E-1,-1.176815510E0,1.343361855E0
1.492823135E1,-8.000636101E-2,-1.402982712E0,1.360349178E0
1.493622603E1,-1.941978931E-1,-1.524092674E0,1.316804886E0
1.494422170E1,-1.387453079E-1,-1.478232861E0,1.103274822E0
1.495221831E1,2.805042267E-2,-1.277074337E0,6.656045914E-1
1.496021344E1,3.484995365E-1,-8.089032173E-1,3.356285095E-1
1.496820935E1,7.019441128E-1,-3.241186142E-1,2.918453217E-1
1.497620418E1,1.112577915E0,7.845401764E-3,3.820047379E-1
1.498423032E1,1.292314768E0,-4.076099396E-2,6.445312500E-1
1.499222600E1,1.225425959E0,-3.656358719E-1,1.098906517E0
1.500022199E1,9.385626316E-1,-8.459391594E-1,1.580167770E0
1.500821736E1,4.929683208E-1,-1.245349884E0,1.923416615E0
1.501621211E1,-7.735419273E-2,-1.596283913E0,2.126489639E0
1.502420925E1,-5.168788433E-1,-1.767275810E0,2.050528526E0
1.503220439E1,-9.223151207E-1,-1.848876953E0,1.709923744E0
1.504023107E1,-1.174062252E0,-1.754533291E0,1.341496944E0
1.504822590E1,-1.334170580E0,-1.439943790E0,8.490867615E-1
1.505622027E1,-1.273236036E0,-9.038820267E-1,4.911961555E-1
1.506421749E1,-1.084549427E0,-2.720260620E-1,1.969556808E-1
1.507221355E1,-6.900427341E-1,4.091792107E-1,1.677742004E-1
1.508020792E1,-2.663416862E-1,7.469067574E-1,4.069862366E-1
1.508820360E1,3.457083702E-1,7.293200493E-1,4.818849564E-1
1.509622943E1,8.532793522E-1,3.611326218E-1,5.265159607E-1
1.510422641E1,1.142503738E0,-3.973579407E-2,5.606079102E-1
1.511222078E1,1.411279202E0,-4.610219002E-1,6.129684448E-1
1.512021646E1,1.456095219E0,-7.359323502E-1,6.051521301E-1
1.512821275E1,1.264534950E0,-1.016453743E0,5.399374962E-1
1.513620697E1,9.846200943E-1,-1.252130508E0,4.948067665E-1
1.514420357E1,6.321673393E-1,-1.396580696E0,4.391226768E-1
1.515222971E1,2.032589912E-1,-1.503457546E0,3.987703323E-1
1.516022539E1,-1.620955467E-1,-1.367449284E0,4.241533279E-1
1.516822107E1,-5.248239040E-1,-9.149441719E-1,6.351706982E-1
1.517621582E1,-7.418327332E-1,-2.953300476E-1,8.942697048E-1
1.518421234E1,-7.333621979E-1,3.593096733E-1,1.424168348E0
1.519220779E1,-3.882608414E-1,5.587215424E-1,1.663801670E0
1.520020308E1,-1.059989929E-1,3.841252327E-1,1.822562218E0
1.520822961E1,1.507453918E-1,-4.467582703E-2,2.095920801E0
1.521622159E1,2.871665955E-1,-3.615760803E-1,2.329740286E0
1.522422120E1,4.455280304E-1,-5.669918060E-1,2.417593241E0
1.523221626E1,4.727306366E-1,-6.068754196E-1,2.310823441E0
1.524021163E1,4.221630096E-1,-5.612392426E-1,2.022524834E0
1.524820707E1,2.598981857E-1,-5.371265411E-1,1.672118902E0
1.525620275E1,4.492092133E-2,-5.125627518E-1,1.362429380E0
1.526422889E1,-1.806325912E-1,-4.537868500E-1,1.212877274E0
1.527222542E1,-2.190494537E-1,-4.041185379E-1,1.815872669E0
1.528022025E1,-7.645845413E-2,-4.943370819E-2,2.045023918E0
1.528821685E1,1.221485138E-1,3.071403503E-1,2.638613224E0
1.529621152E1,4.471998215E-1,3.242559433E-1,3.474868536E0
1.530420690E1,6.686525345E-1,-1.579418182E-1,4.439419746E0
1.531220288E1,5.187797546E-1,-6.384248734E-1,4.578229904E0
1.532022848E1,3.169026375E-1,-1.033634186E0,4.473122597E0
1.532822470E1,1.601576805E-1,-1.020030022E0,4.082057953E0
1.533621945E1,8.890628815E-3,-8.236227036E-1,3.657652140E0
1.534421582E1,-6.789016724E-2,-5.692148209E-1,3.117763996E0
1.535221088E1,-4.192066193E-2,-4.007768631E-1,2.715179682E0
1.536020710E1,1.875720024E-1,-2.975416183E-1,2.249208689E0
1.536823263E1,5.714178085E-1,-3.044042587E-1,2.020993710E0
1.537622522E1,1.136312962E0,-2.908468246E-1,1.785303593E0
1.538422336E1,1.688890934E0,-1.699047089E-1,1.189281702E0
1.539221912E1,2.019229889E0,-6.486701965E-2,9.804723263E-1
1.540021449E1,2.191237450E0,8.147430420E-2,7.186936140E-1
1.540821078E1,2.169411182E0,2.190780640E-1,5.046732426E-1
1.541620577E1,1.918589592E0,2.887620926E-1,2.058429718E-1
1.542423222E1,1.595473766E0,2.337656021E-1,-4.270172119E-2
1.543222858E1,1.230844975E0,3.127832413E-1,7.682371140E-2
1.544022365E1,6.648802757E-1,5.122232437E-1,2.801232338E-1
1.544821894E1,1.936702728E-1,5.717396736E-1,4.189648628E-1
1.545621439E1,-2.354960442E-1,4.622774124E-1,6.338696480E-1
1.546421060E1,-4.860067368E-1,3.272743225E-1,7.704846859E-1
1.547220597E1,-7.748615742E-1,1.519451141E-1,9.473142624E-1
1.548023242E1,-9.691944122E-1,1.283636093E-1,1.142626286E0
1.548822779E1,-1.058839083E0,1.564865112E-1,1.191951275E0
1.549622231E1,-1.062340975E0,2.099428177E-1,1.309697866E0
1.550433508E1,-9.766993523E-1,1.498022079E-1,1.320091724E0
1.551233069E1,-8.929715157E-1,-4.919052124E-2,1.379917622E0
1.552032615E1,-8.262968063E-1,-2.792549133E-1,1.647349834E0
1.552832153E1,-8.214912415E-1,-4.329452515E-1,2.008351088E0
1.553634545E1,-9.499657154E-1,-5.202779770E-1,2.416146040E0
1.554434299E1,-1.111619473E0,-5.653018951E-1,2.637043953E0
1.555233906E1,-1.345894575E0,-5.489215851E-1,2.816528797E0
1.556033414E1,-1.534358025E0,-5.501556396E-1,2.949314117E0
1.556832983E1,-1.719894171E0,-6.193981171E-1,3.085697651E0
1.557632574E1,-1.857833862E0,-7.921934128E-1,3.253933191E0
1.558432151E1,-1.877955556E0,-1.008304596E0,3.444255352E0
1.559234759E1,-1.884945750E0,-1.267463684E0,3.841609001E0
1.560034328E1,-1.851243258E0,-1.547065735E0,4.252893448E0
1.560833897E1,-1.701940179E0,-1.898396492E0,4.529582977E0
1.561633104E1,-1.566481233E0,-2.178538322E0,4.727941513E0
1.562432981E1,-1.441893578E0,-2.337563515E0,4.844266891E0
1.563232580E1,-1.385223866E0,-2.294196129E0,4.892027378E0
1.564032111E1,-1.417456269E0,-2.215856552E0,4.794451237E0
1.564834726E1,-1.432116032E0,-2.195221901E0,4.713054180E0
1.565634272E1,-1.245209575E0,-2.447525024E0,4.733945370E0
1.566433779E1,-7.155592442E-1,-2.829901695E0,4.706244946E0
1.567233441E1,-2.172369957E-1,-3.214257240E0,4.605187893E0
1.568033010E1,6.454420090E-2,-3.412254333E0,4.457305431E0
1.568832579E1,1.849668026E-1,-3.548664093E0,4.278906345E0
1.569632024E1,2.010540962E-1,-3.638158798E0,4.142411709E0
1.570434694E1,1.712636948E-1,-3.673486710E0,3.953683853E0
1.571234262E1,1.417801380E-1,-3.681147575E0,3.835995674E0
1.572033870E1,1.655278206E-1,-3.711610317E0,3.809586525E0
1.572833400E1,2.626297474E-1,-3.801229000E0,3.666345596E0
1.573632939E1,3.730742931E-1,-4.018131256E0,3.457655430E0
1.574432538E1,6.149016619E-1,-4.371308327E0,3.172451019E0
1.575232023E1,9.489120245E-1,-4.611771107E0,2.772257328E0
1.576034669E1,1.390689492E0,-4.782446861E0,2.441705227E0
1.576834207E1,1.849904776E0,-4.888230801E0,2.010976315E0
1.577633591E1,2.127377510E0,-4.902498722E0,1.648630142E0
1.578433337E1,2.298696756E0,-4.826752186E0,1.329992771E0
1.579232937E1,2.311119556E0,-4.737551689E0,1.249292850E0
1.580032514E1,2.281620979E0,-4.770564079E0,1.228068352E0
1.580832052E1,2.298474312E0,-4.842958927E0,1.241547108E0
1.581634536E1,2.395328522E0,-4.962516308E0,1.184374809E0
1.582434290E1,2.473963976E0,-5.052563667E0,9.014997482E-1
1.583233836E1,2.481445074E0,-5.208493233E0,6.830511093E-1
1.584033335E1,2.506365061E0,-5.391803265E0,4.786534309E-1
1.584832881E1,2.678810358E0,-5.486021996E0,2.179641724E-1
1.585632419E1,2.868360281E0,-5.477182865E0,-2.066326141E-2
1.586432050E1,3.037527323E0,-5.451082230E0,-7.645416260E-2
1.587234657E1,3.086758137E0,-5.414649963E0,-4.732942581E-2
1.588034226E1,3.090369225E0,-5.269610882E0,1.904106140E-2
1.588833765E1,3.083810091E0,-5.145127773E0,-1.590728760E-3
1.589633210E1,3.027437687E0,-4.913933277E0,-5.374813080E-2
1.590432933E1,2.945478201E0,-4.796070099E0,-4.388523102E-2
1.591232533E1,2.877444029E0,-4.758799076E0,-1.075782776E-1
1.592031948E1,2.798434734E0,-4.771972179E0,-9.936046600E-2
1.592834563E1,2.849104166E0,-4.903702736E0,-2.686567307E-1
1.593633886E1,2.779175997E0,-5.077768326E0,-5.747756958E-1
1.594433740E1,2.694139481E0,-5.284563065E0,-8.954277039E-1
1.595233270E1,2.692935705E0,-5.240729332E0,-1.141485691E0
1.596032847E1,2.708003759E0,-5.047344208E0,-1.382455826E0
1.596832408E1,2.690056801E0,-4.902621269E0,-1.547759056E0
1.597631915E1,2.628105879E0,-4.763248920E0,-1.778614521E0
1.598434623E1,2.602936268E0,-4.655509949E0,-2.077489853E0
1.599234192E1,2.472473145E0,-4.732623577E0,-2.303414822E0
1.600033730E1,2.297466516E0,-4.821520805E0,-2.607501984E0
1.600833268E1,2.088986158E0,-4.796844482E0,-2.875195980E0
1.601632722E1,1.832945943E0,-4.594114304E0,-2.855721474E0
1.602432383E1,1.781144857E0,-4.417878628E0,-2.606847286E0
1.603232006E1,1.965021133E0,-4.314433098E0,-2.158217907E0
1.604034567E1,2.236426830E0,-4.290006161E0,-2.225229263E0
1.604834128E1,2.387475252E0,-4.422495842E0,-2.055480480E0
1.605633605E1,2.520253658E0,-4.486668587E0,-2.291328907E0
1.606433236E1,2.597823858E0,-4.358044147E0,-2.557176590E0
1.607232774E1,2.557221174E0,-3.943468571E0,-3.120976925E0
1.608032343E1,2.453541279E0,-3.461980820E0,-3.557471752E0
1.608831920E1,2.243777990E0,-3.208195210E0,-4.021106243E0
1.609634442E1,1.984652758E0,-3.077413559E0,-4.428026199E0
1.610434034E1,1.759612322E0,-3.083191156E0,-4.684173584E0
1.611233665E1,1.511961579E0,-3.023216009E0,-4.435691357E0
1.612033203E1,1.379676461E0,-2.963395357E0,-4.468837738E0
1.612832718E1,1.368763804E0,-2.808508158E0,-5.071156025E0
1.613632226E1,1.606601000E0,-2.768254042E0,-5.402537346E0
1.614434964E1,1.949450016E0,-2.708510637E0,-6.109278679E0
