"Time (s)","Acceleration x (m/s^2)","Acceleration y (m/s^2)","Acceleration z (m/s^2)"
4.928117000E-3,-3.864241600E0,-5.853823185E0,6.754043102E0
6.973956000E-3,-3.876212597E0,-5.846640587E0,6.766014099E0
9.079485000E-3,-3.888183594E0,-5.820304394E0,6.768408298E0
1.106255400E-2,-3.909731388E0,-5.803544998E0,6.770802498E0
1.307700800E-2,-3.909731388E0,-5.810727596E0,6.785167694E0
1.506099900E-2,-3.883395195E0,-5.813121796E0,6.806715488E0
1.707483700E-2,-3.869029999E0,-5.810727596E0,6.818686485E0
1.905936700E-2,-3.847482204E0,-5.846640587E0,6.833051682E0
2.107351300E-2,-3.785232782E0,-5.868188381E0,6.830657482E0
2.305635000E-2,-3.749319792E0,-5.875370979E0,6.825869083E0
2.507041900E-2,-3.699041605E0,-5.908889771E0,6.849811077E0
2.705379600E-2,-3.682282209E0,-5.908889771E0,6.856993675E0
2.906824900E-2,-3.667917013E0,-5.908889771E0,6.847416878E0
3.105170200E-2,-3.660734415E0,-5.904101372E0,6.842628479E0
3.306607800E-2,-3.682282209E0,-5.906495571E0,6.823474884E0
3.507968600E-2,-3.694253206E0,-5.889736176E0,6.813898087E0
3.706390900E-2,-3.725377798E0,-5.844246387E0,6.813898087E0
3.907713000E-2,-3.739742994E0,-5.837063789E0,6.811503887E0
4.106181500E-2,-3.768473387E0,-5.832275391E0,6.809109688E0
4.307596100E-2,-3.790021181E0,-5.817910194E0,6.821080685E0
4.505987600E-2,-3.813963413E0,-5.801150799E0,6.825869083E0
4.707379000E-2,-3.845088005E0,-5.796362400E0,6.842628479E0
4.905739700E-2,-3.861847401E0,-5.805939198E0,6.876147270E0
5.107069700E-2,-3.869029999E0,-5.803544998E0,6.890512466E0
5.305553500E-2,-3.888183594E0,-5.796362400E0,6.902483463E0
5.506968000E-2,-3.916913986E0,-5.813121796E0,6.892906666E0
5.705313300E-2,-3.921702385E0,-5.820304394E0,6.895300865E0
5.906781800E-2,-3.938461781E0,-5.805939198E0,6.897695065E0
6.105065600E-2,-3.926490784E0,-5.798756599E0,6.904877663E0
6.306449300E-2,-3.904942989E0,-5.808333397E0,6.912060261E0
6.507863900E-2,-3.895366192E0,-5.813121796E0,6.907271862E0
6.706263100E-2,-3.881000996E0,-5.815515995E0,6.907271862E0
6.907608300E-2,-3.861847401E0,-5.813121796E0,6.904877663E0
7.106069100E-2,-3.869029999E0,-5.822698593E0,6.878541470E0
7.307452900E-2,-3.861847401E0,-5.803544998E0,6.849811077E0
7.505790600E-2,-3.857059002E0,-5.786785603E0,6.835445881E0
7.707297300E-2,-3.837905407E0,-5.793968201E0,6.816292286E0
7.905788900E-2,-3.825934410E0,-5.789179802E0,6.818686485E0
8.106903400E-2,-3.809175014E0,-5.786785603E0,6.813898087E0
8.305394900E-2,-3.809175014E0,-5.772420406E0,6.792350292E0
8.506801700E-2,-3.811569214E0,-5.760449409E0,6.792350292E0
8.705139400E-2,-3.792415380E0,-5.729324818E0,6.797138691E0
8.906469400E-2,-3.778050184E0,-5.724536419E0,6.801927090E0
9.107976300E-2,-3.780444384E0,-5.714959621E0,6.797138691E0
9.306306100E-2,-3.787626982E0,-5.712565422E0,6.813898087E0
9.507851500E-2,-3.799597979E0,-5.710171223E0,6.811503887E0
9.706181500E-2,-3.799597979E0,-5.719748020E0,6.811503887E0
9.907626800E-2,-3.799597979E0,-5.714959621E0,6.804321289E0
1.010600280E-1,-3.804386616E0,-5.714959621E0,6.809109688E0
1.030723280E-1,-3.813963413E0,-5.722142220E0,6.813898087E0
1.050565510E-1,-3.821146011E0,-5.726930618E0,6.799532890E0
1.070713120E-1,-3.811569214E0,-5.746084213E0,6.775590897E0
1.090541490E-1,-3.809175014E0,-5.765237808E0,6.761225700E0
1.110688340E-1,-3.821146011E0,-5.770026207E0,6.751648903E0
1.130522870E-1,-3.816357613E0,-5.772420406E0,6.749254704E0
1.150660480E-1,-3.806780815E0,-5.779603004E0,6.751648903E0
1.170805010E-1,-3.811569214E0,-5.779603004E0,6.739677906E0
1.190635700E-1,-3.809175014E0,-5.767632008E0,6.734889507E0
1.210783310E-1,-3.821146011E0,-5.758055210E0,6.715735912E0
1.230620920E-1,-3.825934410E0,-5.760449409E0,6.710947514E0
1.250770830E-1,-3.833117008E0,-5.748478413E0,6.713341713E0
1.270599210E-1,-3.842693806E0,-5.755661011E0,6.715735912E0
1.290739900E-1,-3.873818398E0,-5.746084213E0,6.706159115E0
1.310568290E-1,-3.892971992E0,-5.753266811E0,6.710947514E0
1.330715120E-1,-3.919308186E0,-5.755661011E0,6.706159115E0
1.350555040E-1,-3.924096584E0,-5.734113216E0,6.703764915E0
1.370699570E-1,-3.933673382E0,-5.731719017E0,6.715735912E0
1.390539490E-1,-3.943250179E0,-5.731719017E0,6.720524311E0
1.410675560E-1,-3.936067581E0,-5.729324818E0,6.730101109E0
1.430511630E-1,-3.943250179E0,-5.736507416E0,6.732495308E0
1.450650780E-1,-3.950432777E0,-5.736507416E0,6.737283707E0
1.470788380E-1,-3.945644379E0,-5.743690014E0,6.730101109E0
1.490629070E-1,-3.967192173E0,-5.758055210E0,6.727706909E0
1.510778990E-1,-3.967192173E0,-5.753266811E0,6.725312710E0
1.530600450E-1,-3.967192173E0,-5.753266811E0,6.720524311E0
1.550738820E-1,-3.971980572E0,-5.760449409E0,6.710947514E0
1.570588740E-1,-3.988739967E0,-5.750872612E0,6.713341713E0
1.590736360E-1,-3.988739967E0,-5.750872612E0,6.715735912E0
1.610554740E-1,-3.991134167E0,-5.748478413E0,6.732495308E0
1.630704650E-1,-3.991134167E0,-5.755661011E0,6.742072105E0
1.650535340E-1,-3.998316765E0,-5.746084213E0,6.737283707E0
1.670676800E-1,-4.005499363E0,-5.750872612E0,6.730101109E0
1.690516720E-1,-4.010287762E0,-5.765237808E0,6.734889507E0
1.710655860E-1,-4.012681961E0,-5.753266811E0,6.739677906E0
1.730797320E-1,-3.998316765E0,-5.758055210E0,6.744466305E0
1.750646470E-1,-3.998316765E0,-5.760449409E0,6.744466305E0
1.770772540E-1,-4.010287762E0,-5.762843609E0,6.720524311E0
1.790623990E-1,-4.017470360E0,-5.765237808E0,6.720524311E0
1.810756990E-1,-4.012681961E0,-5.755661011E0,6.715735912E0
1.830593060E-1,-3.995922565E0,-5.750872612E0,6.727706909E0
1.850725290E-1,-4.007893562E0,-5.777208805E0,6.727706909E0
1.870565200E-1,-4.017470360E0,-5.789179802E0,6.744466305E0
1.890713580E-1,-4.010287762E0,-5.784391403E0,6.751648903E0
1.910547350E-1,-3.991134167E0,-5.803544998E0,6.734889507E0
1.930684960E-1,-3.981557369E0,-5.803544998E0,6.732495308E0
1.950521790E-1,-3.979163170E0,-5.810727596E0,6.742072105E0
1.970676330E-1,-3.983951569E0,-5.803544998E0,6.730101109E0
1.990500090E-1,-3.986345768E0,-5.796362400E0,6.737283707E0
2.010653860E-1,-3.969586372E0,-5.805939198E0,6.725312710E0
2.030786850E-1,-3.964797974E0,-5.779603004E0,6.715735912E0
2.050626770E-1,-3.971980572E0,-5.767632008E0,6.715735912E0
2.070765150E-1,-3.979163170E0,-5.753266811E0,6.730101109E0
2.090604300E-1,-3.974374771E0,-5.755661011E0,6.739677906E0
2.110743440E-1,-3.971980572E0,-5.760449409E0,6.730101109E0
2.130582590E-1,-3.960009575E0,-5.741295815E0,6.710947514E0
2.150727120E-1,-3.964797974E0,-5.741295815E0,6.713341713E0
2.170558580E-1,-3.967192173E0,-5.746084213E0,6.715735912E0
2.190711570E-1,-3.979163170E0,-5.719748020E0,6.713341713E0
2.210536870E-1,-3.979163170E0,-5.724536419E0,6.713341713E0
2.230672180E-1,-3.995922565E0,-5.724536419E0,6.703764915E0
2.250512100E-1,-4.010287762E0,-5.726930618E0,6.706159115E0
2.270652780E-1,-4.007893562E0,-5.729324818E0,6.708553314E0
2.290795010E-1,-4.000710964E0,-5.736507416E0,6.696582317E0
2.310628000E-1,-4.005499363E0,-5.750872612E0,6.684611320E0
2.330770220E-1,-4.015076160E0,-5.753266811E0,6.689399719E0
2.350606300E-1,-4.027047157E0,-5.748478413E0,6.691793919E0
2.370754680E-1,-4.043806553E0,-5.758055210E0,6.691793919E0
2.390603060E-1,-4.043806553E0,-5.758055210E0,6.694188118E0
2.410723740E-1,-4.053383350E0,-5.758055210E0,6.703764915E0
2.430572890E-1,-4.050989151E0,-5.750872612E0,6.703764915E0
2.450705120E-1,-4.046200752E0,-5.760449409E0,6.703764915E0
2.470547340E-1,-4.058171749E0,-5.755661011E0,6.710947514E0
2.490685720E-1,-4.053383350E0,-5.750872612E0,6.718130112E0
2.510520250E-1,-4.060565948E0,-5.760449409E0,6.730101109E0
2.530657860E-1,-4.041412354E0,-5.765237808E0,6.744466305E0
2.550507010E-1,-4.050989151E0,-5.755661011E0,6.746860504E0
2.570642310E-1,-4.043806553E0,-5.755661011E0,6.744466305E0
2.590796080E-1,-4.046200752E0,-5.755661011E0,6.746860504E0
2.610621380E-1,-4.039018154E0,-5.750872612E0,6.737283707E0
2.630759760E-1,-4.027047157E0,-5.746084213E0,6.715735912E0
2.650595830E-1,-4.010287762E0,-5.707777023E0,6.670246124E0
2.670740360E-1,-3.991134167E0,-5.717353821E0,6.648698330E0
2.690577970E-1,-3.943250179E0,-5.724536419E0,6.610390663E0
2.710712510E-1,-3.919308186E0,-5.714959621E0,6.636727333E0
2.730552420E-1,-3.869029999E0,-5.710171223E0,6.691793919E0
2.750687720E-1,-3.878606796E0,-5.736507416E0,6.813898087E0
2.770528410E-1,-3.924096584E0,-5.772420406E0,6.885724068E0
2.790639100E-1,-3.952826977E0,-5.772420406E0,6.871358871E0
2.810817470E-1,-3.983951569E0,-5.784391403E0,6.852205276E0
2.830644320E-1,-4.027047157E0,-5.791574001E0,6.821080685E0
2.850791930E-1,-4.098873138E0,-5.777208805E0,6.780379295E0
2.870631850E-1,-4.149151325E0,-5.758055210E0,6.787561893E0
2.890774070E-1,-4.168305397E0,-5.758055210E0,6.801927090E0
2.910610910E-1,-4.199429989E0,-5.784391403E0,6.828263283E0
2.930743140E-1,-4.182670593E0,-5.765237808E0,6.840234280E0
2.950585370E-1,-4.163516521E0,-5.760449409E0,6.833051682E0
2.970729890E-1,-4.134786129E0,-5.770026207E0,6.821080685E0
2.990569810E-1,-4.118026733E0,-5.784391403E0,6.830657482E0
3.010702810E-1,-4.108449936E0,-5.784391403E0,6.833051682E0
3.030533500E-1,-4.079719543E0,-5.784391403E0,6.830657482E0
3.050678020E-1,-4.055777550E0,-5.798756599E0,6.835445881E0
3.070517170E-1,-4.058171749E0,-5.805939198E0,6.830657482E0
3.090662480E-1,-4.036623955E0,-5.810727596E0,6.828263283E0
3.110492400E-1,-4.027047157E0,-5.803544998E0,6.821080685E0
3.130633850E-1,-4.039018154E0,-5.784391403E0,6.799532890E0
3.150775300E-1,-4.036623955E0,-5.772420406E0,6.794744492E0
3.170615990E-1,-4.046200752E0,-5.770026207E0,6.787561893E0
3.190775910E-1,-4.060565948E0,-5.762843609E0,6.754043102E0
3.210587360E-1,-4.086902142E0,-5.746084213E0,6.751648903E0
3.230735740E-1,-4.101267338E0,-5.736507416E0,6.763619900E0
3.250569510E-1,-4.118026733E0,-5.741295815E0,6.782773495E0
3.270707890E-1,-4.132391930E0,-5.726930618E0,6.809109688E0
3.290544730E-1,-4.144362926E0,-5.734113216E0,6.811503887E0
3.310689260E-1,-4.161122322E0,-5.738901615E0,6.840234280E0
3.330523030E-1,-4.137180328E0,-5.748478413E0,6.828263283E0
3.350670640E-1,-4.134786129E0,-5.760449409E0,6.821080685E0
3.370509780E-1,-4.115632534E0,-5.765237808E0,6.801927090E0
3.390648930E-1,-4.113238335E0,-5.767632008E0,6.789956093E0
3.410795770E-1,-4.113238335E0,-5.772420406E0,6.773196697E0
3.430617230E-1,-4.101267338E0,-5.796362400E0,6.780379295E0
3.450756370E-1,-4.103661537E0,-5.805939198E0,6.794744492E0
3.470602450E-1,-4.110844135E0,-5.810727596E0,6.816292286E0
3.490737750E-1,-4.096478939E0,-5.832275391E0,6.828263283E0
3.510583060E-1,-4.082113743E0,-5.841852188E0,6.816292286E0
3.530722200E-1,-4.058171749E0,-5.858611584E0,6.804321289E0
3.550555190E-1,-4.043806553E0,-5.856217384E0,6.794744492E0
3.570708960E-1,-4.034229755E0,-5.851428986E0,6.785167694E0
3.590531190E-1,-4.024652958E0,-5.856217384E0,6.768408298E0
3.610681100E-1,-4.005499363E0,-5.858611584E0,6.756437302E0
3.630511790E-1,-4.000710964E0,-5.863399982E0,6.754043102E0
3.650656320E-1,-4.003105164E0,-5.872976780E0,6.739677906E0
3.670484700E-1,-3.998316765E0,-5.853823185E0,6.722918510E0
3.690635380E-1,-4.007893562E0,-5.849034786E0,6.732495308E0
3.710773000E-1,-4.019864559E0,-5.837063789E0,6.739677906E0
3.730610610E-1,-4.031835556E0,-5.832275391E0,6.749254704E0
3.750763600E-1,-4.053383350E0,-5.829881191E0,6.761225700E0
3.770588130E-1,-4.065354347E0,-5.801150799E0,6.766014099E0
3.790736510E-1,-4.067748547E0,-5.786785603E0,6.770802498E0
3.810570280E-1,-4.065354347E0,-5.758055210E0,6.770802498E0
3.830702500E-1,-4.060565948E0,-5.762843609E0,6.756437302E0
3.850544720E-1,-4.060565948E0,-5.753266811E0,6.749254704E0
3.870683110E-1,-4.053383350E0,-5.748478413E0,6.720524311E0
3.890516870E-1,-4.041412354E0,-5.746084213E0,6.734889507E0
3.910670630E-1,-4.034229755E0,-5.738901615E0,6.732495308E0
3.930495930E-1,-4.039018154E0,-5.726930618E0,6.725312710E0
3.950637390E-1,-4.024652958E0,-5.695806026E0,6.727706909E0
3.970794230E-1,-4.019864559E0,-5.686229229E0,6.727706909E0
3.990631070E-1,-4.005499363E0,-5.679046631E0,6.694188118E0
4.010753300E-1,-4.005499363E0,-5.681440830E0,6.682217121E0
4.030600140E-1,-3.995922565E0,-5.679046631E0,6.667851925E0
4.050735440E-1,-4.012681961E0,-5.650316238E0,6.643909931E0
4.070577660E-1,-4.017470360E0,-5.647922039E0,6.636727333E0
4.090716040E-1,-4.003105164E0,-5.669469833E0,6.627150536E0
4.110555960E-1,-4.010287762E0,-5.671864033E0,6.641515732E0
4.130692040E-1,-4.010287762E0,-5.676652431E0,6.641515732E0
4.150535020E-1,-4.000710964E0,-5.702988625E0,6.646304131E0
4.170673410E-1,-4.000710964E0,-5.676652431E0,6.629544735E0
4.190516400E-1,-4.010287762E0,-5.686229229E0,6.622362137E0
4.210651710E-1,-4.017470360E0,-5.695806026E0,6.622362137E0
4.230488540E-1,-4.019864559E0,-5.691017628E0,6.629544735E0
4.250629230E-1,-4.022258759E0,-5.700594425E0,6.634333134E0
4.270767610E-1,-4.029441357E0,-5.719748020E0,6.634333134E0
4.290595990E-1,-4.039018154E0,-5.743690014E0,6.646304131E0
4.310752060E-1,-4.034229755E0,-5.736507416E0,6.643909931E0
4.330576590E-1,-4.048594952E0,-5.746084213E0,6.629544735E0
4.350714970E-1,-4.050989151E0,-5.746084213E0,6.629544735E0
4.370567200E-1,-4.065354347E0,-5.738901615E0,6.636727333E0
4.390693260E-1,-4.074931145E0,-5.762843609E0,6.636727333E0
4.410546260E-1,-4.072536945E0,-5.772420406E0,6.641515732E0
4.430677720E-1,-4.086902142E0,-5.760449409E0,6.651092529E0
4.450517640E-1,-4.084507942E0,-5.760449409E0,6.667851925E0
4.470659090E-1,-4.086902142E0,-5.770026207E0,6.665457726E0
4.490493620E-1,-4.094084740E0,-5.762843609E0,6.660669327E0
4.510644310E-1,-4.096478939E0,-5.755661011E0,6.643909931E0
4.530779610E-1,-4.103661537E0,-5.772420406E0,6.641515732E0
4.550615680E-1,-4.086902142E0,-5.791574001E0,6.631938934E0
4.570754830E-1,-4.055777550E0,-5.808333397E0,6.634333134E0
4.590597060E-1,-4.046200752E0,-5.810727596E0,6.624756336E0
4.610732360E-1,-4.060565948E0,-5.817910194E0,6.627150536E0
4.630576120E-1,-4.036623955E0,-5.813121796E0,6.596025467E0
4.650710660E-1,-4.019864559E0,-5.822698593E0,6.593631268E0
4.670541350E-1,-4.005499363E0,-5.841852188E0,6.593631268E0
4.690685870E-1,-3.998316765E0,-5.832275391E0,6.598419666E0
4.710520410E-1,-4.005499363E0,-5.829881191E0,6.619967937E0
4.730664170E-1,-4.003105164E0,-5.817910194E0,6.615179062E0
4.750501020E-1,-3.998316765E0,-5.810727596E0,6.612784863E0
4.770654770E-1,-3.991134167E0,-5.810727596E0,6.591237068E0
4.790494690E-1,-3.981557369E0,-5.803544998E0,6.579266071E0
4.810612310E-1,-3.974374771E0,-5.808333397E0,6.579266071E0
4.830762990E-1,-3.971980572E0,-5.808333397E0,6.576871872E0
4.850602140E-1,-3.960009575E0,-5.810727596E0,6.600813866E0
4.870744360E-1,-3.957615376E0,-5.801150799E0,6.605602264E0
4.890571980E-1,-3.952826977E0,-5.793968201E0,6.605602264E0
4.910718820E-1,-3.960009575E0,-5.779603004E0,6.588842869E0
4.930559500E-1,-3.964797974E0,-5.770026207E0,6.574477673E0
4.950704030E-1,-3.964797974E0,-5.758055210E0,6.557718277E0
4.970540110E-1,-3.964797974E0,-5.743690014E0,6.560112476E0
4.990681570E-1,-3.967192173E0,-5.736507416E0,6.557718277E0
5.010515320E-1,-3.988739967E0,-5.726930618E0,6.579266071E0
5.030654470E-1,-3.988739967E0,-5.729324818E0,6.596025467E0
5.050493620E-1,-4.003105164E0,-5.717353821E0,6.612784863E0
5.070632000E-1,-4.015076160E0,-5.686229229E0,6.610390663E0
5.090776530E-1,-4.024652958E0,-5.691017628E0,6.607996464E0
5.110611070E-1,-4.050989151E0,-5.702988625E0,6.619967937E0
5.130745600E-1,-4.062960148E0,-5.707777023E0,6.619967937E0
5.150586290E-1,-4.067748547E0,-5.710171223E0,6.610390663E0
5.170721590E-1,-4.072536945E0,-5.683835030E0,6.526593685E0
5.190558430E-1,-4.070142746E0,-5.671864033E0,6.471527100E0
5.210696810E-1,-4.070142746E0,-5.659893036E0,6.418854713E0
5.230545960E-1,-4.086902142E0,-5.657498837E0,6.426037312E0
5.250686640E-1,-4.082113743E0,-5.679046631E0,6.607996464E0
5.270526560E-1,-4.074931145E0,-5.693411827E0,6.718130112E0
5.290661860E-1,-4.053383350E0,-5.736507416E0,6.880935669E0
5.310496400E-1,-4.053383350E0,-5.760449409E0,6.873753071E0
5.330630930E-1,-4.084507942E0,-5.760449409E0,6.813898087E0
5.350793920E-1,-4.139574528E0,-5.750872612E0,6.672640324E0
5.370616150E-1,-4.161122322E0,-5.743690014E0,6.610390663E0
5.390766830E-1,-4.177882195E0,-5.729324818E0,6.538564682E0
5.410597520E-1,-4.170699596E0,-5.722142220E0,6.476315498E0
5.430732820E-1,-4.163516521E0,-5.712565422E0,6.473921299E0
5.450575820E-1,-4.134786129E0,-5.714959621E0,6.579266071E0
5.470714190E-1,-4.101267338E0,-5.750872612E0,6.754043102E0
5.490551040E-1,-4.098873138E0,-5.770026207E0,6.811503887E0
5.510692490E-1,-4.077325344E0,-5.808333397E0,6.818686485E0
5.530526260E-1,-4.084507942E0,-5.784391403E0,6.682217121E0
5.550667710E-1,-4.096478939E0,-5.758055210E0,6.617573261E0
5.570516090E-1,-4.110844135E0,-5.770026207E0,6.600813866E0
5.590661390E-1,-4.110844135E0,-5.801150799E0,6.660669327E0
5.610479010E-1,-4.120420933E0,-5.796362400E0,6.694188118E0
5.630632760E-1,-4.115632534E0,-5.820304394E0,6.730101109E0
5.650771140E-1,-4.118026733E0,-5.822698593E0,6.722918510E0
5.670604910E-1,-4.129997730E0,-5.813121796E0,6.710947514E0
5.690744060E-1,-4.146757126E0,-5.815515995E0,6.694188118E0
5.710587050E-1,-4.156333923E0,-5.822698593E0,6.696582317E0
5.730725430E-1,-4.144362926E0,-5.829881191E0,6.691793919E0
5.750565350E-1,-4.153939724E0,-5.832275391E0,6.646304131E0
5.770702960E-1,-4.146757126E0,-5.829881191E0,6.627150536E0
5.790545950E-1,-4.129997730E0,-5.808333397E0,6.586448669E0
5.810687410E-1,-4.089296341E0,-5.798756599E0,6.528987885E0
5.830512710E-1,-4.067748547E0,-5.793968201E0,6.517016888E0
5.850657250E-1,-4.050989151E0,-5.786785603E0,6.610390663E0
5.870491000E-1,-4.043806553E0,-5.820304394E0,6.813898087E0
5.890638620E-1,-4.043806553E0,-5.841852188E0,6.895300865E0
5.910779310E-1,-4.062960148E0,-5.858611584E0,6.959944248E0
5.930610760E-1,-4.134786129E0,-5.872976780E0,6.868964672E0
5.950749140E-1,-4.165910721E0,-5.868188381E0,6.799532890E0
5.970595210E-1,-4.206612587E0,-5.870582581E0,6.653486729E0
5.990724360E-1,-4.235342979E0,-5.846640587E0,6.572083473E0
6.010576590E-1,-4.252102375E0,-5.829881191E0,6.564900875E0
6.030711110E-1,-4.211400986E0,-5.839457989E0,6.622362137E0
6.050544880E-1,-4.189853191E0,-5.865794182E0,6.660669327E0
6.070684030E-1,-4.158728123E0,-5.884947777E0,6.749254704E0
6.090529340E-1,-4.120420933E0,-5.918466568E0,6.768408298E0
6.110668480E-1,-4.106055737E0,-5.925649166E0,6.763619900E0
6.130501470E-1,-4.096478939E0,-5.944802761E0,6.718130112E0
6.150652930E-1,-4.101267338E0,-5.935225964E0,6.703764915E0
6.170482850E-1,-4.098873138E0,-5.942408562E0,6.698976517E0
6.190628150E-1,-4.120420933E0,-5.956773758E0,6.710947514E0
6.210772680E-1,-4.134786129E0,-5.949591160E0,6.727706909E0
6.230602600E-1,-4.141968727E0,-5.954379559E0,6.737283707E0
6.250735590E-1,-4.161122322E0,-5.963956356E0,6.739677906E0
6.270581660E-1,-4.170699596E0,-5.959167957E0,6.725312710E0
6.290719280E-1,-4.170699596E0,-5.966350555E0,6.722918510E0
6.310556120E-1,-4.180276394E0,-5.978321552E0,6.708553314E0
6.330694490E-1,-4.182670593E0,-6.002263546E0,6.710947514E0
6.350528260E-1,-4.185064793E0,-5.992686749E0,6.715735912E0
6.370685100E-1,-4.180276394E0,-6.009446144E0,6.722918510E0
6.390531940E-1,-4.175487995E0,-6.009446144E0,6.725312710E0
6.410642620E-1,-4.204218388E0,-6.019022942E0,6.725312710E0
6.430488700E-1,-4.177882195E0,-6.019022942E0,6.732495308E0
6.450626310E-1,-4.175487995E0,-6.021417141E0,6.734889507E0
6.470774690E-1,-4.185064793E0,-6.007051945E0,6.730101109E0
6.490607680E-1,-4.189853191E0,-6.014234543E0,6.734889507E0
6.510749900E-1,-4.182670593E0,-6.007051945E0,6.737283707E0
6.530583670E-1,-4.180276394E0,-6.011840343E0,6.751648903E0
6.550727440E-1,-4.180276394E0,-6.007051945E0,6.761225700E0
6.570558890E-1,-4.177882195E0,-6.004657745E0,6.766014099E0
6.590714960E-1,-4.185064793E0,-5.973533154E0,6.763619900E0
6.610545650E-1,-4.175487995E0,-5.990292549E0,6.756437302E0
6.630690950E-1,-4.153939724E0,-5.980715752E0,6.758831501E0
6.650517790E-1,-4.151545525E0,-5.987898350E0,6.761225700E0
6.670663090E-1,-4.151545525E0,-5.987898350E0,6.766014099E0
6.690496860E-1,-4.139574528E0,-5.966350555E0,6.758831501E0
6.710643700E-1,-4.118026733E0,-5.983109951E0,6.756437302E0
6.730477460E-1,-4.110844135E0,-5.983109951E0,6.768408298E0
6.750612760E-1,-4.103661537E0,-5.990292549E0,6.754043102E0
6.770761140E-1,-4.082113743E0,-5.980715752E0,6.742072105E0
6.790591060E-1,-4.079719543E0,-5.985504150E0,6.746860504E0
6.810736360E-1,-4.074931145E0,-5.997475147E0,6.734889507E0
6.830567050E-1,-4.079719543E0,-6.011840343E0,6.732495308E0
6.850710810E-1,-4.062960148E0,-6.019022942E0,6.730101109E0
6.870548430E-1,-4.062960148E0,-6.033388138E0,6.727706909E0
6.890689870E-1,-4.096478939E0,-6.071695328E0,6.722918510E0
6.910522870E-1,-4.094084740E0,-6.078877926E0,6.732495308E0
6.930670480E-1,-4.074931145E0,-6.076483727E0,6.744466305E0
6.950505020E-1,-4.074931145E0,-6.086060524E0,6.758831501E0
6.970649540E-1,-4.070142746E0,-6.071695328E0,6.761225700E0
6.990494850E-1,-4.074931145E0,-6.081272125E0,6.768408298E0
7.010627850E-1,-4.094084740E0,-6.086060524E0,6.763619900E0
7.030762380E-1,-4.108449936E0,-6.095637321E0,6.749254704E0
7.050599980E-1,-4.098873138E0,-6.098031521E0,6.744466305E0
7.070741440E-1,-4.096478939E0,-6.090848923E0,6.746860504E0
7.090586750E-1,-4.096478939E0,-6.062118530E0,6.739677906E0
7.110722050E-1,-4.106055737E0,-6.059724331E0,6.742072105E0
7.130561960E-1,-4.106055737E0,-6.069301128E0,6.744466305E0
7.150698040E-1,-4.089296341E0,-6.057330132E0,6.725312710E0
7.170544110E-1,-4.084507942E0,-6.040570736E0,6.727706909E0
7.190697880E-1,-4.074931145E0,-6.023811340E0,6.730101109E0
7.210510090E-1,-4.070142746E0,-5.995080948E0,6.708553314E0
7.230656940E-1,-4.070142746E0,-5.995080948E0,6.710947514E0
7.250493780E-1,-4.065354347E0,-5.997475147E0,6.713341713E0
7.270632930E-1,-4.079719543E0,-5.961562157E0,6.703764915E0
7.290771300E-1,-4.077325344E0,-5.971138954E0,6.708553314E0
7.310614300E-1,-4.074931145E0,-5.975927353E0,6.718130112E0
7.330754990E-1,-4.096478939E0,-5.959167957E0,6.710947514E0
7.350601060E-1,-4.094084740E0,-5.951985359E0,6.710947514E0
7.370730970E-1,-4.091690540E0,-5.940014362E0,6.713341713E0
7.390573200E-1,-4.118026733E0,-5.966350555E0,6.722918510E0
7.410708500E-1,-4.122815132E0,-5.966350555E0,6.725312710E0
7.430551500E-1,-4.127603531E0,-5.966350555E0,6.725312710E0
7.450687570E-1,-4.149151325E0,-5.975927353E0,6.737283707E0
7.470514410E-1,-4.149151325E0,-5.978321552E0,6.749254704E0
7.490665100E-1,-4.156333923E0,-5.975927353E0,6.751648903E0
7.510502710E-1,-4.151545525E0,-5.971138954E0,6.744466305E0
7.530647240E-1,-4.158728123E0,-5.985504150E0,6.749254704E0
7.550480230E-1,-4.156333923E0,-5.985504150E0,6.739677906E0
7.570619380E-1,-4.139574528E0,-5.978321552E0,6.730101109E0
7.590776220E-1,-4.132391930E0,-5.985504150E0,6.727706909E0
7.610603060E-1,-4.127603531E0,-5.980715752E0,6.718130112E0
7.630745290E-1,-4.127603531E0,-5.971138954E0,6.727706909E0
7.650572130E-1,-4.110844135E0,-5.963956356E0,6.734889507E0
7.670720500E-1,-4.101267338E0,-5.961562157E0,6.727706909E0
7.690553500E-1,-4.101267338E0,-5.951985359E0,6.720524311E0
7.710698030E-1,-4.091690540E0,-5.944802761E0,6.718130112E0
7.730528720E-1,-4.089296341E0,-5.935225964E0,6.737283707E0
7.750676330E-1,-4.101267338E0,-5.920860767E0,6.742072105E0
7.770507780E-1,-4.098873138E0,-5.911283970E0,6.744466305E0
7.790657700E-1,-4.091690540E0,-5.923254967E0,6.749254704E0
7.810501470E-1,-4.082113743E0,-5.918466568E0,6.744466305E0
7.830630610E-1,-4.072536945E0,-5.920860767E0,6.758831501E0
7.850774380E-1,-4.060565948E0,-5.923254967E0,6.761225700E0
7.870605070E-1,-4.062960148E0,-5.906495571E0,6.756437302E0
7.890752680E-1,-4.053383350E0,-5.904101372E0,6.758831501E0
7.910589510E-1,-4.060565948E0,-5.894524574E0,6.742072105E0
7.930721740E-1,-4.062960148E0,-5.894524574E0,6.739677906E0
7.950555510E-1,-4.067748547E0,-5.880159378E0,6.734889507E0
7.970716200E-1,-4.072536945E0,-5.877765179E0,6.734889507E0
7.990568410E-1,-4.089296341E0,-5.889736176E0,6.732495308E0
8.010678330E-1,-4.106055737E0,-5.894524574E0,6.727706909E0
8.030525180E-1,-4.108449936E0,-5.889736176E0,6.722918510E0
8.050665870E-1,-4.113238335E0,-5.882553577E0,6.710947514E0
8.070496550E-1,-4.108449936E0,-5.887341976E0,6.715735912E0
8.090638770E-1,-4.113238335E0,-5.872976780E0,6.708553314E0
8.110474850E-1,-4.113238335E0,-5.861005783E0,6.696582317E0
8.130614000E-1,-4.089296341E0,-5.856217384E0,6.696582317E0
8.150761600E-1,-4.074931145E0,-5.863399982E0,6.689399719E0
8.170597670E-1,-4.084507942E0,-5.865794182E0,6.682217121E0
8.190745290E-1,-4.077325344E0,-5.865794182E0,6.675034523E0
8.210575980E-1,-4.067748547E0,-5.875370979E0,6.672640324E0
8.230718190E-1,-4.062960148E0,-5.875370979E0,6.663063526E0
8.250545040E-1,-4.060565948E0,-5.875370979E0,6.651092529E0
8.270689570E-1,-4.050989151E0,-5.870582581E0,6.634333134E0
8.290523340E-1,-4.048594952E0,-5.877765179E0,6.612784863E0
8.310667860E-1,-4.058171749E0,-5.863399982E0,6.607996464E0
8.330501630E-1,-4.053383350E0,-5.846640587E0,6.605602264E0
8.350643860E-1,-4.046200752E0,-5.853823185E0,6.591237068E0
8.370486850E-1,-4.039018154E0,-5.870582581E0,6.591237068E0
8.390624460E-1,-4.034229755E0,-5.875370979E0,6.586448669E0
8.410781300E-1,-4.031835556E0,-5.877765179E0,6.610390663E0
8.430599680E-1,-4.036623955E0,-5.880159378E0,6.617573261E0
8.450741900E-1,-4.034229755E0,-5.892130375E0,6.615179062E0
8.470578740E-1,-4.055777550E0,-5.894524574E0,6.619967937E0
8.490716350E-1,-4.053383350E0,-5.906495571E0,6.607996464E0
8.510560120E-1,-4.048594952E0,-5.911283970E0,6.598419666E0
8.530700800E-1,-4.043806553E0,-5.916072369E0,6.586448669E0
8.550540720E-1,-4.046200752E0,-5.908889771E0,6.591237068E0
8.570679870E-1,-4.050989151E0,-5.930437565E0,6.581660271E0
8.590525180E-1,-4.043806553E0,-5.940014362E0,6.579266071E0
8.610655090E-1,-4.041412354E0,-5.935225964E0,6.576871872E0
8.630500390E-1,-4.065354347E0,-5.949591160E0,6.584054470E0
8.650629540E-1,-4.067748547E0,-5.956773758E0,6.576871872E0
8.670771770E-1,-4.077325344E0,-5.956773758E0,6.576871872E0
8.690608600E-1,-4.072536945E0,-5.947196960E0,6.576871872E0
8.710746210E-1,-4.070142746E0,-5.949591160E0,6.569689274E0
8.730586130E-1,-4.077325344E0,-5.963956356E0,6.567295074E0
8.750719130E-1,-4.091690540E0,-5.951985359E0,6.569689274E0
8.770574430E-1,-4.094084740E0,-5.951985359E0,6.572083473E0
8.790724350E-1,-4.098873138E0,-5.951985359E0,6.579266071E0
8.810534270E-1,-4.110844135E0,-5.942408562E0,6.572083473E0
8.830694190E-1,-4.113238335E0,-5.944802761E0,6.567295074E0
8.850521020E-1,-4.132391930E0,-5.949591160E0,6.562506676E0
8.870663250E-1,-4.146757126E0,-5.944802761E0,6.560112476E0
8.890496240E-1,-4.153939724E0,-5.944802761E0,6.564900875E0
8.910637700E-1,-4.175487995E0,-5.925649166E0,6.572083473E0
8.930477610E-1,-4.185064793E0,-5.935225964E0,6.576871872E0
8.950625990E-1,-4.199429989E0,-5.937620163E0,6.591237068E0
8.970760530E-1,-4.189853191E0,-5.944802761E0,6.591237068E0
8.990600450E-1,-4.199429989E0,-5.944802761E0,6.600813866E0
9.010738820E-1,-4.216189384E0,-5.935225964E0,6.607996464E0
9.030579510E-1,-4.218583584E0,-5.932831764E0,6.600813866E0
9.050723280E-1,-4.211400986E0,-5.940014362E0,6.600813866E0
9.070547810E-1,-4.213795185E0,-5.963956356E0,6.600813866E0
9.090692340E-1,-4.225766182E0,-5.959167957E0,6.603208065E0
9.110533030E-1,-4.228160381E0,-5.963956356E0,6.598419666E0
9.130670640E-1,-4.218583584E0,-5.966350555E0,6.605602264E0
9.150505170E-1,-4.218583584E0,-5.959167957E0,6.605602264E0
9.170655850E-1,-4.213795185E0,-5.963956356E0,6.605602264E0
9.190482700E-1,-4.228160381E0,-5.968744755E0,6.607996464E0
9.210621850E-1,-4.240131378E0,-5.973533154E0,6.619967937E0
9.230769450E-1,-4.247313976E0,-5.978321552E0,6.619967937E0
9.250606290E-1,-4.206612587E0,-5.959167957E0,6.591237068E0
9.270741600E-1,-4.204218388E0,-5.956773758E0,6.591237068E0
9.290584590E-1,-4.199429989E0,-5.940014362E0,6.596025467E0
9.310726040E-1,-4.185064793E0,-5.932831764E0,6.579266071E0
9.330562890E-1,-4.180276394E0,-5.937620163E0,6.574477673E0
9.350707420E-1,-4.144362926E0,-5.925649166E0,6.586448669E0
9.370537340E-1,-4.106055737E0,-5.935225964E0,6.584054470E0
9.390682640E-1,-4.110844135E0,-5.935225964E0,6.588842869E0
9.410527940E-1,-4.115632534E0,-5.928043365E0,6.586448669E0
9.430660940E-1,-4.103661537E0,-5.920860767E0,6.596025467E0
9.450500090E-1,-4.094084740E0,-5.923254967E0,6.593631268E0
9.470630000E-1,-4.089296341E0,-5.937620163E0,6.576871872E0
9.490472230E-1,-4.082113743E0,-5.928043365E0,6.574477673E0
9.510613690E-1,-4.079719543E0,-5.925649166E0,6.562506676E0
9.530749760E-1,-4.084507942E0,-5.911283970E0,6.560112476E0
9.550588900E-1,-4.082113743E0,-5.923254967E0,6.545747280E0
9.570736510E-1,-4.094084740E0,-5.923254967E0,6.526593685E0
9.590591820E-1,-4.103661537E0,-5.906495571E0,6.517016888E0
9.610702510E-1,-4.110844135E0,-5.901707172E0,6.514622688E0
9.630554720E-1,-4.096478939E0,-5.896918774E0,6.509834290E0
9.650690800E-1,-4.079719543E0,-5.889736176E0,6.490680695E0
9.670521490E-1,-4.072536945E0,-5.884947777E0,6.495469093E0
9.690662180E-1,-4.050989151E0,-5.868188381E0,6.483498096E0
9.710502090E-1,-4.067748547E0,-5.863399982E0,6.469132900E0
9.730641240E-1,-4.070142746E0,-5.861005783E0,6.461950302E0
9.750481160E-1,-4.058171749E0,-5.846640587E0,6.464344501E0
9.770625690E-1,-4.082113743E0,-5.839457989E0,6.447585106E0
9.790772530E-1,-4.091690540E0,-5.839457989E0,6.452373505E0
9.810606290E-1,-4.077325344E0,-5.810727596E0,6.466738701E0
9.830739290E-1,-4.084507942E0,-5.803544998E0,6.488286495E0
9.850575360E-1,-4.091690540E0,-5.801150799E0,6.483498096E0
9.870717580E-1,-4.101267338E0,-5.798756599E0,6.469132900E0
9.890560580E-1,-4.106055737E0,-5.781997204E0,6.473921299E0
9.910701270E-1,-4.118026733E0,-5.784391403E0,6.473921299E0
9.930532730E-1,-4.103661537E0,-5.793968201E0,6.473921299E0
9.950676480E-1,-4.113238335E0,-5.798756599E0,6.483498096E0
9.970513330E-1,-4.141968727E0,-5.815515995E0,6.488286495E0
9.990661710E-1,-4.151545525E0,-5.815515995E0,6.495469093E0
1.001048547E0,-4.149151325E0,-5.808333397E0,6.502651691E0
1.003063308E0,-4.165910721E0,-5.803544998E0,6.536170483E0
1.005046992E0,-4.170699596E0,-5.815515995E0,6.521805286E0
1.007060907E0,-4.177882195E0,-5.815515995E0,6.528987885E0
1.009074975E0,-4.194641590E0,-5.839457989E0,6.550535679E0
1.011059044E0,-4.244919777E0,-5.841852188E0,6.548141479E0
1.013073190E0,-4.252102375E0,-5.851428986E0,6.545747280E0
1.015057105E0,-4.249708176E0,-5.884947777E0,6.545747280E0
1.017070403E0,-4.283226967E0,-5.882553577E0,6.531382084E0
1.019055011E0,-4.280832767E0,-5.887341976E0,6.533776283E0
1.021068464E0,-4.285621166E0,-5.875370979E0,6.540958881E0
1.023052533E0,-4.292803764E0,-5.884947777E0,6.555324078E0
1.025066063E0,-4.285621166E0,-5.899312973E0,6.562506676E0
1.027049132E0,-4.295197964E0,-5.901707172E0,6.567295074E0
1.029064201E0,-4.295197964E0,-5.901707172E0,6.564900875E0
1.031048116E0,-4.299986362E0,-5.896918774E0,6.569689274E0
1.033061645E0,-4.311957359E0,-5.882553577E0,6.567295074E0
1.035075560E0,-4.326322556E0,-5.884947777E0,6.569689274E0
1.037060475E0,-4.347870350E0,-5.877765179E0,6.555324078E0
1.039074621E0,-4.355052948E0,-5.872976780E0,6.536170483E0
1.041056766E0,-4.362235546E0,-5.865794182E0,6.536170483E0
1.043071758E0,-4.393360138E0,-5.861005783E0,6.560112476E0
1.045055442E0,-4.405331135E0,-5.861005783E0,6.555324078E0
1.047069896E0,-4.410119534E0,-5.856217384E0,6.545747280E0
1.049052656E0,-4.426878929E0,-5.870582581E0,6.572083473E0
1.051066879E0,-4.431667328E0,-5.882553577E0,6.588842869E0
1.053051179E0,-4.426878929E0,-5.877765179E0,6.600813866E0
1.055065863E0,-4.434061527E0,-5.880159378E0,6.631938934E0
1.057048931E0,-4.431667328E0,-5.892130375E0,6.639121532E0
1.059063461E0,-4.429273129E0,-5.899312973E0,6.639121532E0
1.061047146E0,-4.426878929E0,-5.906495571E0,6.634333134E0
1.063061291E0,-4.424484730E0,-5.906495571E0,6.634333134E0
1.065074821E0,-4.436455727E0,-5.899312973E0,6.648698330E0
1.067058505E0,-4.443638325E0,-5.906495571E0,6.646304131E0
1.069072574E0,-4.446032524E0,-5.908889771E0,6.641515732E0
1.071055951E0,-4.458003521E0,-5.906495571E0,6.593631268E0
1.073070096E0,-4.460397720E0,-5.899312973E0,6.550535679E0
1.075054088E0,-4.458003521E0,-5.892130375E0,6.536170483E0
1.077068926E0,-4.467580318E0,-5.887341976E0,6.517016888E0
1.079051072E0,-4.467580318E0,-5.882553577E0,6.493074894E0
1.081066370E0,-4.455609322E0,-5.880159378E0,6.485892296E0
1.083049208E0,-4.446032524E0,-5.889736176E0,6.476315498E0
1.085063354E0,-4.424484730E0,-5.882553577E0,6.454767704E0
1.087046962E0,-4.410119534E0,-5.877765179E0,6.452373505E0
1.089061491E0,-4.386177540E0,-5.868188381E0,6.483498096E0
1.091075945E0,-4.376600742E0,-5.870582581E0,6.509834290E0
1.093058398E0,-4.359841347E0,-5.868188381E0,6.505045891E0
1.095073775E0,-4.335899353E0,-5.865794182E0,6.466738701E0
1.097057074E0,-4.326322556E0,-5.863399982E0,6.452373505E0
1.099071835E0,-4.319139957E0,-5.863399982E0,6.428431511E0
1.101054981E0,-4.314351559E0,-5.861005783E0,6.418854713E0
1.103069434E0,-4.302380562E0,-5.863399982E0,6.423643112E0
1.105052733E0,-4.302380562E0,-5.863399982E0,6.445190907E0
1.107066956E0,-4.319139957E0,-5.858611584E0,6.440402508E0
1.109050255E0,-4.321534157E0,-5.844246387E0,6.433219910E0
1.111064478E0,-4.333505154E0,-5.829881191E0,6.423643112E0
1.113048085E0,-4.345476151E0,-5.846640587E0,6.411672115E0
1.115061384E0,-4.345476151E0,-5.849034786E0,6.399701118E0
1.117076684E0,-4.326322556E0,-5.872976780E0,6.394912720E0
1.119061907E0,-4.328716755E0,-5.894524574E0,6.387730122E0
1.121073667E0,-4.362235546E0,-5.887341976E0,6.387730122E0
1.123057044E0,-4.371812344E0,-5.892130375E0,6.387730122E0
1.125072112E0,-4.378994942E0,-5.896918774E0,6.380547523E0
1.127055797E0,-4.381389141E0,-5.901707172E0,6.382941723E0
1.129069865E0,-4.393360138E0,-5.916072369E0,6.385335922E0
1.131053241E0,-4.402936935E0,-5.928043365E0,6.387730122E0
1.133068003E0,-4.414907932E0,-5.911283970E0,6.378153324E0
1.135052610E0,-4.422090530E0,-5.908889771E0,6.399701118E0
1.137066139E0,-4.426878929E0,-5.911283970E0,6.402095318E0
1.139050131E0,-4.450820923E0,-5.916072369E0,6.382941723E0
1.141063431E0,-4.465186119E0,-5.913678169E0,6.375759125E0
1.143046115E0,-4.460397720E0,-5.918466568E0,6.370970726E0
1.145061183E0,-4.489128113E0,-5.906495571E0,6.354211330E0
1.147075022E0,-4.508281708E0,-5.916072369E0,6.366182327E0
1.149058475E0,-4.534617901E0,-5.908889771E0,6.370970726E0
1.151072312E0,-4.534617901E0,-5.899312973E0,6.382941723E0
1.153056843E0,-4.539406300E0,-5.899312973E0,6.380547523E0
1.155070450E0,-4.575319290E0,-5.892130375E0,6.356605530E0
1.157055288E0,-4.589684486E0,-5.875370979E0,6.356605530E0
1.159067972E0,-4.589684486E0,-5.872976780E0,6.356605530E0
1.161052502E0,-4.604049683E0,-5.861005783E0,6.335057735E0
1.163066725E0,-4.599261284E0,-5.861005783E0,6.330269337E0
1.165049794E0,-4.599261284E0,-5.863399982E0,6.339846134E0
1.167063862E0,-4.616020679E0,-5.877765179E0,6.380547523E0
1.169048161E0,-4.618414879E0,-5.875370979E0,6.399701118E0
1.171061692E0,-4.620809078E0,-5.875370979E0,6.399701118E0
1.173074992E0,-4.623203278E0,-5.875370979E0,6.418854713E0
1.175059829E0,-4.625597477E0,-5.882553577E0,6.423643112E0
1.177073975E0,-4.647145271E0,-5.894524574E0,6.433219910E0
1.179057659E0,-4.673481941E0,-5.901707172E0,6.438008308E0
1.181071805E0,-4.687847137E0,-5.889736176E0,6.442796707E0
1.183054873E0,-4.685452938E0,-5.887341976E0,6.442796707E0
1.185069095E0,-4.678270340E0,-5.906495571E0,6.442796707E0
1.187053087E0,-4.685452938E0,-5.911283970E0,6.447585106E0
1.189067156E0,-4.678270340E0,-5.904101372E0,6.454767704E0
1.191051147E0,-4.668693542E0,-5.906495571E0,6.471527100E0
1.193064447E0,-4.671087742E0,-5.911283970E0,6.481103897E0
1.195048439E0,-4.678270340E0,-5.894524574E0,6.505045891E0
1.197063200E0,-4.656722069E0,-5.889736176E0,6.502651691E0
1.199047422E0,-4.654327869E0,-5.882553577E0,6.500257492E0
1.201059491E0,-4.649539471E0,-5.865794182E0,6.490680695E0
1.203075483E0,-4.642356873E0,-5.832275391E0,6.473921299E0
1.205058167E0,-4.642356873E0,-5.820304394E0,6.464344501E0
1.207072004E0,-4.632780075E0,-5.810727596E0,6.461950302E0
1.209055766E0,-4.604049683E0,-5.796362400E0,6.457161903E0
1.211069912E0,-4.601655483E0,-5.770026207E0,6.454767704E0
1.213054211E0,-4.594472885E0,-5.753266811E0,6.452373505E0
1.215067741E0,-4.568136692E0,-5.746084213E0,6.440402508E0
1.217052040E0,-4.560954094E0,-5.741295815E0,6.428431511E0
1.219066109E0,-4.544194698E0,-5.712565422E0,6.423643112E0
1.221049255E0,-4.541800499E0,-5.707777023E0,6.435614109E0
1.223063631E0,-4.513070107E0,-5.724536419E0,6.445190907E0
1.225046161E0,-4.510675907E0,-5.712565422E0,6.435614109E0
1.227060923E0,-4.508281708E0,-5.714959621E0,6.433219910E0
1.229076221E0,-4.515464306E0,-5.702988625E0,6.433219910E0
1.231058367E0,-4.522646904E0,-5.724536419E0,6.418854713E0
1.233073513E0,-4.522646904E0,-5.729324818E0,6.418854713E0
1.235056582E0,-4.532223701E0,-5.719748020E0,6.418854713E0
1.237070111E0,-4.537012100E0,-5.719748020E0,6.399701118E0
1.239054026E0,-4.537012100E0,-5.719748020E0,6.399701118E0
1.241067941E0,-4.570530891E0,-5.726930618E0,6.394912720E0
1.243052472E0,-4.577713490E0,-5.726930618E0,6.380547523E0
1.245066617E0,-4.575319290E0,-5.731719017E0,6.378153324E0
1.247050070E0,-4.580107689E0,-5.750872612E0,6.363788128E0
1.249063601E0,-4.584896088E0,-5.750872612E0,6.366182327E0
1.251048208E0,-4.592078686E0,-5.753266811E0,6.347028732E0
1.253062661E0,-4.594472885E0,-5.760449409E0,6.349422932E0
1.255046576E0,-4.594472885E0,-5.750872612E0,6.361393929E0
1.257060183E0,-4.596867085E0,-5.755661011E0,6.358999729E0
1.259074637E0,-4.582501888E0,-5.774814606E0,6.347028732E0
1.261058012E0,-4.589684486E0,-5.777208805E0,6.349422932E0
1.263071851E0,-4.587290287E0,-5.774814606E0,6.358999729E0
1.265055227E0,-4.568136692E0,-5.777208805E0,6.347028732E0
1.267068988E0,-4.572925091E0,-5.781997204E0,6.339846134E0
1.269053595E0,-4.572925091E0,-5.789179802E0,6.337451935E0
1.271067125E0,-4.601655483E0,-5.791574001E0,6.303933144E0
1.273051117E0,-4.594472885E0,-5.789179802E0,6.287173748E0
1.275065032E0,-4.589684486E0,-5.789179802E0,6.277596951E0
1.277049562E0,-4.606443882E0,-5.805939198E0,6.268020153E0
1.279065861E0,-4.613626480E0,-5.805939198E0,6.263231754E0
1.281046546E0,-4.625597477E0,-5.810727596E0,6.258443356E0
1.283060922E0,-4.625597477E0,-5.813121796E0,6.251260757E0
1.285074529E0,-4.630385876E0,-5.815515995E0,6.258443356E0
1.287058752E0,-4.635174274E0,-5.822698593E0,6.260837555E0
1.289072282E0,-4.639962673E0,-5.832275391E0,6.251260757E0
1.291056043E0,-4.647145271E0,-5.825092793E0,6.227318764E0
1.293070419E0,-4.647145271E0,-5.829881191E0,6.208165169E0
1.295055026E0,-4.651933670E0,-5.837063789E0,6.191405773E0
1.297068557E0,-4.647145271E0,-5.829881191E0,6.165069580E0
1.299052856E0,-4.666299343E0,-5.813121796E0,6.124367714E0
1.301066771E0,-4.673481941E0,-5.820304394E0,6.114790916E0
1.303050070E0,-4.680664539E0,-5.815515995E0,6.107608318E0
1.305063908E0,-4.687847137E0,-5.805939198E0,6.088454723E0
1.307047900E0,-4.683058739E0,-5.798756599E0,6.088454723E0
1.309061507E0,-4.668693542E0,-5.813121796E0,6.050147533E0
1.311045191E0,-4.671087742E0,-5.808333397E0,6.026205540E0
1.313059645E0,-4.668693542E0,-5.801150799E0,6.035782337E0
1.315072789E0,-4.683058739E0,-5.796362400E0,6.040570736E0
1.317058397E0,-4.683058739E0,-5.827486992E0,6.045359135E0
1.319070697E0,-4.656722069E0,-5.822698593E0,6.047753334E0
1.321056150E0,-4.654327869E0,-5.810727596E0,6.040570736E0
1.323069449E0,-4.651933670E0,-5.813121796E0,6.040570736E0
1.325053056E0,-4.661510944E0,-5.810727596E0,6.045359135E0
1.327067279E0,-4.659116745E0,-5.827486992E0,6.040570736E0
1.329050886E0,-4.663905144E0,-5.837063789E0,6.035782337E0
1.331064800E0,-4.673481941E0,-5.827486992E0,6.047753334E0
1.333048408E0,-4.680664539E0,-5.827486992E0,6.054935932E0
1.335063477E0,-4.673481941E0,-5.832275391E0,6.059724331E0
1.337046315E0,-4.666299343E0,-5.844246387E0,6.081272125E0
1.339060767E0,-4.671087742E0,-5.856217384E0,6.093243122E0
1.341073990E0,-4.668693542E0,-5.865794182E0,6.098031521E0
1.343057982E0,-4.683058739E0,-5.875370979E0,6.090848923E0
1.345072436E0,-4.680664539E0,-5.901707172E0,6.090848923E0
1.347056119E0,-4.673481941E0,-5.904101372E0,6.090848923E0
1.349070265E0,-4.649539471E0,-5.904101372E0,6.064512730E0
1.351054488E0,-4.639962673E0,-5.899312973E0,6.064512730E0
1.353067480E0,-4.618414879E0,-5.930437565E0,6.071695328E0
1.355051778E0,-4.616020679E0,-5.932831764E0,6.081272125E0
1.357066155E0,-4.611232281E0,-5.932831764E0,6.069301128E0
1.359050839E0,-4.596867085E0,-5.935225964E0,6.054935932E0
1.361062754E0,-4.599261284E0,-5.930437565E0,6.033388138E0
1.363047053E0,-4.592078686E0,-5.925649166E0,6.035782337E0
1.365060661E0,-4.596867085E0,-5.918466568E0,6.019022942E0
1.367075345E0,-4.565742493E0,-5.913678169E0,6.019022942E0
1.369059029E0,-4.560954094E0,-5.908889771E0,6.014234543E0
1.371073482E0,-4.553771496E0,-5.904101372E0,6.007051945E0
1.373056935E0,-4.534617901E0,-5.901707172E0,6.007051945E0
1.375071620E0,-4.525041103E0,-5.894524574E0,6.023811340E0
1.377054381E0,-4.527435303E0,-5.880159378E0,6.014234543E0
1.379069449E0,-4.515464306E0,-5.865794182E0,6.009446144E0
1.381052287E0,-4.510675907E0,-5.861005783E0,5.992686749E0
1.383067587E0,-4.498704910E0,-5.861005783E0,5.978321552E0
1.385050117E0,-4.489128113E0,-5.853823185E0,5.966350555E0
1.387065108E0,-4.498704910E0,-5.846640587E0,5.925649166E0
1.389047639E0,-4.496310711E0,-5.851428986E0,5.892130375E0
1.391062631E0,-4.493916512E0,-5.844246387E0,5.875370979E0
1.393045469E0,-4.491522312E0,-5.834669590E0,5.853823185E0
1.395059537E0,-4.491522312E0,-5.825092793E0,5.851428986E0
1.397075529E0,-4.493916512E0,-5.810727596E0,5.851428986E0
1.399057367E0,-4.479551315E0,-5.789179802E0,5.853823185E0
1.401071896E0,-4.477157116E0,-5.793968201E0,5.851428986E0
1.403055504E0,-4.477157116E0,-5.796362400E0,5.861005783E0
1.405069649E0,-4.501099110E0,-5.784391403E0,5.861005783E0
1.407053411E0,-4.496310711E0,-5.772420406E0,5.834669590E0
1.409066940E0,-4.496310711E0,-5.770026207E0,5.829881191E0
1.411050855E0,-4.472368717E0,-5.786785603E0,5.810727596E0
1.413065386E0,-4.458003521E0,-5.789179802E0,5.791574001E0
1.415049378E0,-4.465186119E0,-5.793968201E0,5.791574001E0
1.417063138E0,-4.458003521E0,-5.796362400E0,5.798756599E0
1.419047207E0,-4.460397720E0,-5.798756599E0,5.781997204E0
1.421061276E0,-4.446032524E0,-5.786785603E0,5.784391403E0
1.423044345E0,-4.446032524E0,-5.817910194E0,5.813121796E0
1.425059105E0,-4.446032524E0,-5.832275391E0,5.820304394E0
1.427073328E0,-4.450820923E0,-5.841852188E0,5.827486992E0
1.429056935E0,-4.455609322E0,-5.865794182E0,5.841852188E0
1.431070235E0,-4.462791920E0,-5.870582581E0,5.844246387E0
1.433054226E0,-4.455609322E0,-5.877765179E0,5.846640587E0
1.435067372E0,-4.453215122E0,-5.882553577E0,5.853823185E0
1.437052056E0,-4.455609322E0,-5.894524574E0,5.844246387E0
1.439067356E0,-4.460397720E0,-5.904101372E0,5.841852188E0
1.441048962E0,-4.472368717E0,-5.911283970E0,5.839457989E0
1.443064646E0,-4.477157116E0,-5.925649166E0,5.827486992E0
1.445048254E0,-4.486733913E0,-5.942408562E0,5.827486992E0
1.447061553E0,-4.479551315E0,-5.932831764E0,5.839457989E0
1.449045468E0,-4.477157116E0,-5.956773758E0,5.856217384E0
1.451060229E0,-4.460397720E0,-5.978321552E0,5.865794182E0
1.453073759E0,-4.450820923E0,-5.980715752E0,5.870582581E0
1.455057828E0,-4.450820923E0,-5.987898350E0,5.861005783E0
1.457071050E0,-4.467580318E0,-6.019022942E0,5.858611584E0
1.459055888E0,-4.465186119E0,-6.021417141E0,5.851428986E0
1.461069419E0,-4.474762917E0,-6.019022942E0,5.837063789E0
1.463053411E0,-4.460397720E0,-6.040570736E0,5.849034786E0
1.465066940E0,-4.469974518E0,-6.040570736E0,5.834669590E0
1.467050624E0,-4.489128113E0,-6.047753334E0,5.849034786E0
1.469064847E0,-4.491522312E0,-6.062118530E0,5.880159378E0
1.471047916E0,-4.493916512E0,-6.078877926E0,5.892130375E0
1.473063292E0,-4.510675907E0,-6.090848923E0,5.908889771E0
1.475045976E0,-4.532223701E0,-6.086060524E0,5.899312973E0
1.477060122E0,-4.551377296E0,-6.110002518E0,5.887341976E0
1.479074037E0,-4.548983097E0,-6.110002518E0,5.887341976E0
1.481057720E0,-4.553771496E0,-6.119579315E0,5.884947777E0
1.483072482E0,-4.577713490E0,-6.141127586E0,5.856217384E0
1.485056089E0,-4.606443882E0,-6.138733387E0,5.846640587E0
1.487069927E0,-4.606443882E0,-6.138733387E0,5.851428986E0
1.489053610E0,-4.604049683E0,-6.131550789E0,5.868188381E0
1.491067833E0,-4.592078686E0,-6.148310184E0,5.872976780E0
1.493051210E0,-4.592078686E0,-6.157886982E0,5.872976780E0
1.495066586E0,-4.601655483E0,-6.160281181E0,5.870582581E0
1.497048962E0,-4.613626480E0,-6.167463779E0,5.863399982E0
1.499064339E0,-4.620809078E0,-6.150704384E0,5.863399982E0
1.501047792E0,-4.647145271E0,-6.148310184E0,5.846640587E0
1.503061630E0,-4.659116745E0,-6.138733387E0,5.839457989E0
1.505045006E0,-4.663905144E0,-6.126761913E0,5.849034786E0
1.507058536E0,-4.685452938E0,-6.136339188E0,5.868188381E0
1.509072990E0,-4.685452938E0,-6.153098583E0,5.875370979E0
1.511056674E0,-4.690241337E0,-6.172252178E0,5.875370979E0
1.513070511E0,-4.695029736E0,-6.148310184E0,5.906495571E0
1.515054196E0,-4.699818134E0,-6.160281181E0,5.913678169E0
1.517069803E0,-4.690241337E0,-6.165069580E0,5.932831764E0
1.519053872E0,-4.695029736E0,-6.148310184E0,5.956773758E0
1.521065248E0,-4.683058739E0,-6.148310184E0,5.956773758E0
1.523050086E0,-4.675876141E0,-6.184223175E0,5.968744755E0
1.525063924E0,-4.659116745E0,-6.179434776E0,5.983109951E0
1.527047301E0,-4.659116745E0,-6.193799973E0,5.990292549E0
1.529061522E0,-4.651933670E0,-6.189011574E0,5.999869347E0
1.531045745E0,-4.647145271E0,-6.196194172E0,6.007051945E0
1.533059968E0,-4.642356873E0,-6.198588371E0,5.997475147E0
1.535074959E0,-4.627991676E0,-6.200982571E0,5.985504150E0
1.537057720E0,-4.632780075E0,-6.181828976E0,5.980715752E0
1.539071866E0,-4.632780075E0,-6.189011574E0,5.959167957E0
1.541055627E0,-4.637568474E0,-6.191405773E0,5.925649166E0
1.543069464E0,-4.642356873E0,-6.162675381E0,5.913678169E0
1.545052841E0,-4.642356873E0,-6.145915985E0,5.896918774E0
1.547066602E0,-4.651933670E0,-6.157886982E0,5.889736176E0
1.549050902E0,-4.659116745E0,-6.155492783E0,5.887341976E0
1.551065047E0,-4.649539471E0,-6.155492783E0,5.856217384E0
1.553048731E0,-4.637568474E0,-6.162675381E0,5.851428986E0
1.555062262E0,-4.630385876E0,-6.157886982E0,5.846640587E0
1.557047484E0,-4.620809078E0,-6.141127586E0,5.863399982E0
1.559060398E0,-4.608838081E0,-6.148310184E0,5.858611584E0
1.561075775E0,-4.601655483E0,-6.136339188E0,5.856217384E0
1.563057998E0,-4.565742493E0,-6.141127586E0,5.829881191E0
1.565072682E0,-4.546588898E0,-6.133944988E0,5.827486992E0
1.567056135E0,-4.539406300E0,-6.131550789E0,5.825092793E0
1.569069973E0,-4.501099110E0,-6.119579315E0,5.813121796E0
1.571053965E0,-4.486733913E0,-6.133944988E0,5.786785603E0
1.573068111E0,-4.486733913E0,-6.133944988E0,5.770026207E0
1.575052409E0,-4.469974518E0,-6.129156113E0,5.753266811E0
1.577065863E0,-4.481945515E0,-6.133944988E0,5.746084213E0
1.579049932E0,-4.489128113E0,-6.131550789E0,5.760449409E0
1.581064078E0,-4.484339714E0,-6.136339188E0,5.770026207E0
1.583047453E0,-4.481945515E0,-6.131550789E0,5.774814606E0
1.585061522E0,-4.501099110E0,-6.126761913E0,5.781997204E0
1.587044899E0,-4.498704910E0,-6.165069580E0,5.760449409E0
1.589059352E0,-4.505887508E0,-6.177040577E0,5.755661011E0
1.591072651E0,-4.532223701E0,-6.181828976E0,5.755661011E0
1.593056566E0,-4.539406300E0,-6.200982571E0,5.770026207E0
1.595070481E0,-4.541800499E0,-6.196194172E0,5.772420406E0
1.597055704E0,-4.553771496E0,-6.203376770E0,5.758055210E0
1.599070772E0,-4.568136692E0,-6.217741966E0,5.748478413E0
1.601051918E0,-4.575319290E0,-6.215347767E0,5.738901615E0
1.603066371E0,-4.592078686E0,-6.239289761E0,5.731719017E0
1.605051056E0,-4.601655483E0,-6.244078159E0,5.736507416E0
1.607064585E0,-4.599261284E0,-6.253654957E0,5.741295815E0
1.609047654E0,-4.611232281E0,-6.268020153E0,5.760449409E0
1.611062108E0,-4.616020679E0,-6.272808552E0,5.765237808E0
1.613045715E0,-4.630385876E0,-6.277596951E0,5.758055210E0
1.615060552E0,-4.654327869E0,-6.282385349E0,5.784391403E0
1.617044467E0,-4.663905144E0,-6.284779549E0,5.791574001E0
1.619059536E0,-4.671087742E0,-6.299144745E0,5.803544998E0
1.621072835E0,-4.697423935E0,-6.296750546E0,5.808333397E0
1.623055288E0,-4.709394932E0,-6.308721542E0,5.815515995E0
1.625069973E0,-4.733336926E0,-6.320692539E0,5.832275391E0
1.627053734E0,-4.781220913E0,-6.318298340E0,5.849034786E0
1.629067879E0,-4.795586109E0,-6.318298340E0,5.861005783E0
1.631051486E0,-4.819528103E0,-6.339846134E0,5.863399982E0
1.633065401E0,-4.860229492E0,-6.361393929E0,5.841852188E0
1.635048393E0,-4.862623692E0,-6.363788128E0,5.837063789E0
1.637064077E0,-4.874594688E0,-6.361393929E0,5.832275391E0
1.639046607E0,-4.898536682E0,-6.404489517E0,5.837063789E0
1.641061907E0,-4.893748283E0,-6.409277916E0,5.844246387E0
1.643044668E0,-4.910507679E0,-6.416460514E0,5.837063789E0
1.645058890E0,-4.924872875E0,-6.433219910E0,5.837063789E0
1.647072651E0,-4.939238071E0,-6.457161903E0,5.839457989E0
1.649057258E0,-4.932055473E0,-6.485892296E0,5.851428986E0
1.651070174E0,-4.934449673E0,-6.505045891E0,5.868188381E0
1.653054549E0,-4.936843872E0,-6.545747280E0,5.889736176E0
1.655069003E0,-4.941632271E0,-6.567295074E0,5.899312973E0
1.657052687E0,-4.939238071E0,-6.588842869E0,5.901707172E0
1.659066525E0,-4.941632271E0,-6.617573261E0,5.918466568E0
1.661051055E0,-4.948814869E0,-6.629544735E0,5.940014362E0
1.663064354E0,-4.953603268E0,-6.641515732E0,5.949591160E0
1.665047962E0,-4.989516258E0,-6.679822922E0,5.949591160E0
1.667062108E0,-5.015852451E0,-6.708553314E0,5.923254967E0
1.669045868E0,-5.018246651E0,-6.710947514E0,5.920860767E0
1.671059014E0,-5.049371243E0,-6.715735912E0,5.932831764E0
1.673074390E0,-5.056553841E0,-6.754043102E0,5.942408562E0
1.675057228E0,-5.070919037E0,-6.770802498E0,5.944802761E0
1.677072527E0,-5.087678432E0,-6.799532890E0,5.944802761E0
1.679056596E0,-5.099649429E0,-6.794744492E0,5.942408562E0
1.681069203E0,-5.114014626E0,-6.821080685E0,5.920860767E0
1.683053503E0,-5.116408825E0,-6.840234280E0,5.896918774E0
1.685067571E0,-5.114014626E0,-6.847416878E0,5.887341976E0
1.687051025E0,-5.123591423E0,-6.873753071E0,5.877765179E0
1.689064555E0,-5.102043629E0,-6.868964672E0,5.863399982E0
1.691049086E0,-5.099649429E0,-6.866570473E0,5.865794182E0
1.693063230E0,-5.087678432E0,-6.868964672E0,5.861005783E0
1.695046376E0,-5.046977043E0,-6.868964672E0,5.870582581E0
1.697060445E0,-5.044582844E0,-6.876147270E0,5.872976780E0
1.699045129E0,-5.011064053E0,-6.864176273E0,5.870582581E0
1.701058351E0,-4.979939461E0,-6.840234280E0,5.880159378E0
1.703073036E0,-4.967968464E0,-6.833051682E0,5.877765179E0
1.705055874E0,-4.946420670E0,-6.799532890E0,5.834669590E0
1.707070019E0,-4.944026470E0,-6.770802498E0,5.815515995E0
1.709053088E0,-4.932055473E0,-6.751648903E0,5.796362400E0
1.711068080E0,-4.924872875E0,-6.696582317E0,5.762843609E0
1.713051148E0,-4.929661274E0,-6.670246124E0,5.748478413E0
1.715065986E0,-4.929661274E0,-6.634333134E0,5.729324818E0
1.717049055E0,-4.915296078E0,-6.562506676E0,5.707777023E0
1.719060739E0,-4.905719280E0,-6.548141479E0,5.702988625E0
1.721047500E0,-4.898536682E0,-6.531382084E0,5.691017628E0
1.723061030E0,-4.881777287E0,-6.505045891E0,5.659893036E0
1.725045252E0,-4.874594688E0,-6.483498096E0,5.645527840E0
1.727059167E0,-4.857835293E0,-6.445190907E0,5.623979568E0
1.729073929E0,-4.848258495E0,-6.399701118E0,5.616796970E0
1.731057227E0,-4.841075897E0,-6.390124321E0,5.619191170E0
1.733071989E0,-4.807557106E0,-6.382941723E0,5.655104637E0
1.735055365E0,-4.781220913E0,-6.358999729E0,5.662287235E0
1.737069511E0,-4.774038315E0,-6.339846134E0,5.652710438E0
1.739052887E0,-4.774038315E0,-6.325480938E0,5.621585369E0
1.741067033E0,-4.766855717E0,-6.306327343E0,5.614402771E0
1.743050178E0,-4.762067318E0,-6.299144745E0,5.635950565E0
1.745064555E0,-4.742913723E0,-6.270414352E0,5.645527840E0
1.747048854E0,-4.735731125E0,-6.258443356E0,5.650316238E0
1.749061769E0,-4.740519524E0,-6.227318764E0,5.645527840E0
1.751045530E0,-4.740519524E0,-6.196194172E0,5.602431774E0
1.753060291E0,-4.745307922E0,-6.181828976E0,5.600037575E0
1.755043282E0,-4.757278919E0,-6.160281181E0,5.600037575E0
1.757058659E0,-4.774038315E0,-6.148310184E0,5.602431774E0
1.759073420E0,-4.781220913E0,-6.141127586E0,5.609614372E0
1.761055335E0,-4.781220913E0,-6.129156113E0,5.645527840E0
1.763070018E0,-4.788403511E0,-6.119579315E0,5.671864033E0
1.765054010E0,-4.800374508E0,-6.117185116E0,5.679046631E0
1.767067618E0,-4.829104900E0,-6.126761913E0,5.700594425E0
1.769051302E0,-4.857835293E0,-6.150704384E0,5.741295815E0
1.771065447E0,-4.869806290E0,-6.157886982E0,5.750872612E0
1.773048824E0,-4.896142483E0,-6.165069580E0,5.765237808E0
1.775063893E0,-4.922478676E0,-6.174646378E0,5.779603004E0
1.777047269E0,-4.946420670E0,-6.203376770E0,5.791574001E0
1.779062568E0,-4.955997467E0,-6.215347767E0,5.808333397E0
1.781045406E0,-4.963180065E0,-6.215347767E0,5.815515995E0
1.783059167E0,-4.975151062E0,-6.212953568E0,5.846640587E0
1.785072697E0,-4.991910458E0,-6.215347767E0,5.872976780E0
1.787056458E0,-5.003881454E0,-6.227318764E0,5.889736176E0
1.789070604E0,-5.020640850E0,-6.236895561E0,5.899312973E0
1.791053596E0,-5.023035049E0,-6.256049156E0,5.918466568E0
1.793068356E0,-5.027823448E0,-6.253654957E0,5.920860767E0
1.795051810E0,-5.073313236E0,-6.265625954E0,5.928043365E0
1.797066494E0,-5.099649429E0,-6.260837555E0,5.937620163E0
1.799049563E0,-5.111620426E0,-6.256049156E0,5.944802761E0
1.801065015E0,-5.133168221E0,-6.224924564E0,5.947196960E0
1.803047777E0,-5.142745018E0,-6.222530365E0,5.954379559E0
1.805061615E0,-5.178658485E0,-6.222530365E0,5.956773758E0
1.807046222E0,-5.214571476E0,-6.217741966E0,5.975927353E0
1.809059367E0,-5.238513470E0,-6.215347767E0,5.973533154E0
1.811074205E0,-5.276820660E0,-6.212953568E0,5.987898350E0
1.813056890E0,-5.298368454E0,-6.222530365E0,5.978321552E0
1.815072266E0,-5.300762653E0,-6.229712963E0,5.983109951E0
1.817055103E0,-5.317522049E0,-6.222530365E0,5.992686749E0
1.819070095E0,-5.346252441E0,-6.229712963E0,5.985504150E0
1.821053857E0,-5.351040840E0,-6.222530365E0,5.978321552E0
1.823067695E0,-5.365406036E0,-6.220136166E0,5.978321552E0
1.825050763E0,-5.384559631E0,-6.210559368E0,5.966350555E0
1.827064832E0,-5.394136429E0,-6.212953568E0,5.973533154E0
1.829048593E0,-5.422866821E0,-6.229712963E0,5.973533154E0
1.831063046E0,-5.432443619E0,-6.244078159E0,5.949591160E0
1.833046422E0,-5.427655220E0,-6.248866558E0,5.930437565E0
1.835059952E0,-5.439626217E0,-6.253654957E0,5.896918774E0
1.837044868E0,-5.444414616E0,-6.270414352E0,5.889736176E0
1.839059860E0,-5.434837818E0,-6.279991150E0,5.918466568E0
1.841041158E0,-5.434837818E0,-6.279991150E0,5.923254967E0
1.843056535E0,-5.437232018E0,-6.282385349E0,5.906495571E0
1.845069758E0,-5.406107426E0,-6.279991150E0,5.861005783E0
1.847053980E0,-5.389348030E0,-6.275202751E0,5.829881191E0
1.849067894E0,-5.382165432E0,-6.284779549E0,5.834669590E0
1.851050348E0,-5.374982834E0,-6.284779549E0,5.810727596E0
1.853065417E0,-5.365406036E0,-6.296750546E0,5.798756599E0
1.855050640E0,-5.363011837E0,-6.303933144E0,5.791574001E0
1.857063554E0,-5.341464043E0,-6.311115742E0,5.779603004E0
1.859047777E0,-5.331887245E0,-6.318298340E0,5.777208805E0
1.861061615E0,-5.324704647E0,-6.318298340E0,5.789179802E0
1.863044761E0,-5.327098846E0,-6.313509941E0,5.765237808E0
1.865059136E0,-5.334281445E0,-6.299144745E0,5.736507416E0
1.867042205E0,-5.324704647E0,-6.301538944E0,5.729324818E0
1.869056659E0,-5.322310448E0,-6.308721542E0,5.719748020E0
1.871071420E0,-5.317522049E0,-6.308721542E0,5.683835030E0
1.873055411E0,-5.298368454E0,-6.308721542E0,5.674258232E0
1.875068403E0,-5.298368454E0,-6.294356346E0,5.647922039E0
1.877052703E0,-5.303156853E0,-6.287173748E0,5.635950565E0
1.879066464E0,-5.300762653E0,-6.263231754E0,5.621585369E0
1.881050455E0,-5.284003258E0,-6.263231754E0,5.616796970E0
1.883064601E0,-5.286397457E0,-6.272808552E0,5.626373768E0
1.885047670E0,-5.293580055E0,-6.275202751E0,5.650316238E0
1.887062508E0,-5.317522049E0,-6.287173748E0,5.645527840E0
1.889045806E0,-5.322310448E0,-6.294356346E0,5.638344765E0
1.891060260E0,-5.322310448E0,-6.308721542E0,5.626373768E0
1.893043944E0,-5.348646641E0,-6.327875137E0,5.631162167E0
1.895057859E0,-5.348646641E0,-6.337451935E0,5.633556366E0
1.897072004E0,-5.355829239E0,-6.347028732E0,5.643133640E0
1.899055996E0,-5.386953831E0,-6.358999729E0,5.638344765E0
1.901070065E0,-5.413290024E0,-6.370970726E0,5.652710438E0
1.903054134E0,-5.430049419E0,-6.414066315E0,5.681440830E0
1.905067587E0,-5.432443619E0,-6.433219910E0,5.693411827E0
1.907051040E0,-5.442020416E0,-6.442796707E0,5.712565422E0
1.909065109E0,-5.444414616E0,-6.438008308E0,5.710171223E0
1.911049178E0,-5.461174011E0,-6.438008308E0,5.707777023E0
1.913063323E0,-5.492298603E0,-6.449979305E0,5.698200226E0
1.915046392E0,-5.530605793E0,-6.466738701E0,5.688623428E0
1.917060768E0,-5.542576790E0,-6.464344501E0,5.686229229E0
1.919046068E0,-5.566518784E0,-6.488286495E0,5.691017628E0
1.921058290E0,-5.576095581E0,-6.500257492E0,5.688623428E0
1.923073436E0,-5.585672379E0,-6.512228489E0,5.693411827E0
1.925056197E0,-5.602431774E0,-6.521805286E0,5.693411827E0
1.927070342E0,-5.614402771E0,-6.521805286E0,5.707777023E0
1.929054642E0,-5.621585369E0,-6.526593685E0,5.712565422E0
1.931068172E0,-5.645527840E0,-6.548141479E0,5.729324818E0
1.933052087E0,-5.655104637E0,-6.555324078E0,5.760449409E0
1.935067463E0,-5.650316238E0,-6.557718277E0,5.753266811E0
1.937049993E0,-5.664681435E0,-6.555324078E0,5.722142220E0
1.939064985E0,-5.674258232E0,-6.550535679E0,5.722142220E0
1.941047516E0,-5.691017628E0,-6.557718277E0,5.729324818E0
1.943061661E0,-5.671864033E0,-6.572083473E0,5.726930618E0
1.945045883E0,-5.674258232E0,-6.572083473E0,5.717353821E0
1.947059183E0,-5.669469833E0,-6.567295074E0,5.679046631E0
1.949043175E0,-5.664681435E0,-6.576871872E0,5.652710438E0
1.951057628E0,-5.652710438E0,-6.572083473E0,5.640739441E0
1.953071773E0,-5.643133640E0,-6.579266071E0,5.652710438E0
1.955054535E0,-5.655104637E0,-6.560112476E0,5.650316238E0
1.957068988E0,-5.638344765E0,-6.543353081E0,5.676652431E0
1.959049595E0,-5.638344765E0,-6.543353081E0,5.676652431E0
1.961067740E0,-5.623979568E0,-6.528987885E0,5.671864033E0
1.963050809E0,-5.612008572E0,-6.526593685E0,5.671864033E0
1.965064648E0,-5.633556366E0,-6.519411087E0,5.700594425E0
1.967048331E0,-5.640739441E0,-6.519411087E0,5.691017628E0
1.969062707E0,-5.650316238E0,-6.509834290E0,5.683835030E0
1.971046161E0,-5.638344765E0,-6.509834290E0,5.643133640E0
1.973060615E0,-5.621585369E0,-6.509834290E0,5.626373768E0
1.975044606E0,-5.616796970E0,-6.502651691E0,5.602431774E0
1.977057828E0,-5.602431774E0,-6.497863293E0,5.612008572E0
1.979073128E0,-5.590460777E0,-6.481103897E0,5.619191170E0
1.981056582E0,-5.578489780E0,-6.461950302E0,5.640739441E0
1.983069803E0,-5.573701382E0,-6.461950302E0,5.655104637E0
1.985053718E0,-5.568912983E0,-6.452373505E0,5.647922039E0
1.987067633E0,-5.588066578E0,-6.447585106E0,5.628767967E0
1.989051933E0,-5.568912983E0,-6.423643112E0,5.590460777E0
1.991065155E0,-5.556941986E0,-6.423643112E0,5.590460777E0
1.993049147E0,-5.537788391E0,-6.402095318E0,5.549759388E0
1.995062985E0,-5.516240597E0,-6.394912720E0,5.537788391E0
1.997047593E0,-5.504269600E0,-6.380547523E0,5.532999992E0
1.999062891E0,-5.473145008E0,-6.366182327E0,5.528211594E0
2.001044422E0,-5.461174011E0,-6.347028732E0,5.523423195E0
2.003059183E0,-5.430049419E0,-6.330269337E0,5.511452198E0
2.005042329E0,-5.394136429E0,-6.299144745E0,5.504269600E0
2.007057012E0,-5.377377033E0,-6.282385349E0,5.501875401E0
2.009071466E0,-5.339069843E0,-6.253654957E0,5.506663799E0
2.011055150E0,-5.281609058E0,-6.222530365E0,5.497087002E0
2.013068756E0,-5.262455463E0,-6.191405773E0,5.492298603E0
2.015052979E0,-5.240907669E0,-6.153098583E0,5.480327606E0
2.017066586E0,-5.228936672E0,-6.093243122E0,5.453991413E0
2.019050578E0,-5.214571476E0,-6.081272125E0,5.446808815E0
2.021064646E0,-5.200206280E0,-6.052541733E0,5.410895824E0
2.023047715E0,-5.181052685E0,-6.014234543E0,5.370194435E0
2.025061630E0,-5.169081688E0,-5.997475147E0,5.353435040E0
2.027046469E0,-5.169081688E0,-5.949591160E0,5.324704647E0
2.029060075E0,-5.161899090E0,-5.911283970E0,5.305551052E0
2.031043144E0,-5.164293289E0,-5.901707172E0,5.300762653E0
2.033057597E0,-5.114014626E0,-5.884947777E0,5.267243862E0
2.035071743E0,-5.097255230E0,-5.861005783E0,5.248090267E0
2.037056042E0,-5.080495834E0,-5.858611584E0,5.207388878E0
2.039069572E0,-5.054159641E0,-5.827486992E0,5.197812080E0
2.041053872E0,-5.032611847E0,-5.813121796E0,5.202600479E0
2.043067326E0,-5.020640850E0,-5.791574001E0,5.190629482E0
2.045051086E0,-5.030217648E0,-5.777208805E0,5.190629482E0
2.047065463E0,-5.027823448E0,-5.779603004E0,5.188235283E0
2.049048916E0,-5.032611847E0,-5.798756599E0,5.190629482E0
2.051063677E0,-5.042188644E0,-5.810727596E0,5.193023682E0
2.053046745E0,-5.054159641E0,-5.796362400E0,5.197812080E0
2.055061814E0,-5.080495834E0,-5.813121796E0,5.204994678E0
2.057044191E0,-5.116408825E0,-5.801150799E0,5.214571476E0
2.059059337E0,-5.142745018E0,-5.810727596E0,5.221754074E0
2.061042943E0,-5.178658485E0,-5.827486992E0,5.202600479E0
2.063057166E0,-5.228936672E0,-5.832275391E0,5.200206280E0
2.065070619E0,-5.262455463E0,-5.844246387E0,5.209783077E0
2.067054073E0,-5.291185856E0,-5.870582581E0,5.212177277E0
2.069067602E0,-5.303156853E0,-5.872976780E0,5.219359875E0
2.071052133E0,-5.336675644E0,-5.908889771E0,5.255272865E0
2.073066356E0,-5.382165432E0,-5.920860767E0,5.276820660E0
2.075049732E0,-5.391742229E0,-5.925649166E0,5.284003258E0
2.077064800E0,-5.425261021E0,-5.932831764E0,5.319916248E0
2.079048792E0,-5.446808815E0,-5.956773758E0,5.334281445E0
2.081060784E0,-5.449203014E0,-5.961562157E0,5.343858242E0
2.083045315E0,-5.468356609E0,-5.954379559E0,5.341464043E0
2.085058844E0,-5.482721806E0,-5.944802761E0,5.334281445E0
2.087043221E0,-5.477933407E0,-5.944802761E0,5.329493046E0
2.089057059E0,-5.482721806E0,-5.908889771E0,5.348646641E0
2.091070896E0,-5.458779812E0,-5.918466568E0,5.365406036E0
2.093055119E0,-5.463568211E0,-5.908889771E0,5.372588634E0
2.095069957E0,-5.442020416E0,-5.901707172E0,5.384559631E0
2.097053564E0,-5.430049419E0,-5.877765179E0,5.374982834E0
2.099067786E0,-5.430049419E0,-5.892130375E0,5.367800236E0
2.101050547E0,-5.434837818E0,-5.863399982E0,5.341464043E0
2.103064616E0,-5.442020416E0,-5.856217384E0,5.324704647E0
2.105048993E0,-5.425261021E0,-5.829881191E0,5.291185856E0
2.107062445E0,-5.418078423E0,-5.805939198E0,5.233725071E0
2.109045899E0,-5.406107426E0,-5.786785603E0,5.202600479E0
2.111060353E0,-5.406107426E0,-5.765237808E0,5.169081688E0
2.113044037E0,-5.389348030E0,-5.753266811E0,5.130774021E0
2.115057489E0,-5.374982834E0,-5.726930618E0,5.099649429E0
2.117073174E0,-5.348646641E0,-5.686229229E0,5.070919037E0
2.119055089E0,-5.331887245E0,-5.664681435E0,5.020640850E0
2.121070388E0,-5.319916248E0,-5.643133640E0,5.003881454E0
2.123053841E0,-5.281609058E0,-5.585672379E0,4.960785866E0
2.125067295E0,-5.233725071E0,-5.523423195E0,4.908113480E0
2.127051594E0,-5.207388878E0,-5.477933407E0,4.881777287E0
2.129065202E0,-5.157110691E0,-5.422866821E0,4.819528103E0
2.131049116E0,-5.128379822E0,-5.367800236E0,4.790797710E0
2.133063646E0,-5.090072632E0,-5.341464043E0,4.735731125E0
2.135047869E0,-5.051765442E0,-5.298368454E0,4.718971729E0
2.137061399E0,-5.032611847E0,-5.272032261E0,4.711789131E0
2.139046083E0,-5.001487255E0,-5.233725071E0,4.683058739E0
2.141059921E0,-4.972756863E0,-5.185841084E0,4.654327869E0
2.143043221E0,-4.967968464E0,-5.171475887E0,4.630385876E0
2.145057136E0,-4.939238071E0,-5.135562420E0,4.596867085E0
2.147070973E0,-4.915296078E0,-5.118803024E0,4.548983097E0
2.149054657E0,-4.908113480E0,-5.099649429E0,4.534617901E0
2.151068495E0,-4.874594688E0,-5.082890034E0,4.484339714E0
2.153051487E0,-4.821922302E0,-5.042188644E0,4.455609322E0
2.155066017E0,-4.797980309E0,-5.042188644E0,4.453215122E0
2.157050932E0,-4.766855717E0,-5.037400246E0,4.477157116E0
2.159065924E0,-4.711789131E0,-5.025429249E0,4.563348293E0
2.161047454E0,-4.692635536E0,-5.023035049E0,4.620809078E0
2.163061984E0,-4.666299343E0,-5.015852451E0,4.692635536E0
2.165045591E0,-4.661510944E0,-5.011064053E0,4.711789131E0
2.167059814E0,-4.639962673E0,-5.013458252E0,4.747702122E0
2.169043191E0,-4.596867085E0,-4.989516258E0,4.721365929E0
2.171057643E0,-4.589684486E0,-4.987122059E0,4.711789131E0
2.173041558E0,-4.546588898E0,-4.958391666E0,4.707000732E0
2.175056089E0,-4.505887508E0,-4.912901878E0,4.697423935E0
2.177069926E0,-4.481945515E0,-4.893748283E0,4.692635536E0
2.179053918E0,-4.424484730E0,-4.853046894E0,4.690241337E0
2.181067756E0,-4.376600742E0,-4.814739704E0,4.718971729E0
2.183050748E0,-4.352658749E0,-4.790797710E0,4.750096321E0
2.185064970E0,-4.285621166E0,-4.745307922E0,4.814739704E0
2.187048885E0,-4.249708176E0,-4.716577530E0,4.800374508E0
2.189063031E0,-4.235342979E0,-4.704606533E0,4.752490520E0
2.191046715E0,-4.194641590E0,-4.639962673E0,4.637568474E0
2.193060629E0,-4.173093796E0,-4.613626480E0,4.534617901E0
2.195044006E0,-4.158728123E0,-4.596867085E0,4.496310711E0
2.197058075E0,-4.175487995E0,-4.570530891E0,4.386177540E0
2.199038682E0,-4.175487995E0,-4.560954094E0,4.386177540E0
2.201056827E0,-4.201824188E0,-4.551377296E0,4.299986362E0
2.203070973E0,-4.213795185E0,-4.546588898E0,4.211400986E0
2.205054426E0,-4.225766182E0,-4.544194698E0,4.173093796E0
2.207068264E0,-4.271255970E0,-4.553771496E0,4.132391930E0
2.209052179E0,-4.302380562E0,-4.570530891E0,4.113238335E0
2.211065786E0,-4.314351559E0,-4.589684486E0,4.084507942E0
2.213048855E0,-4.273650169E0,-4.596867085E0,3.246537447E0
2.215064462E0,-4.007893562E0,-4.405331135E0,8.810662031E-1
2.217047838E0,-3.794809580E0,-4.252102375E0,-4.309563041E-1
2.219062676E0,-3.289633036E0,-3.957615376E0,-2.226607561E0
2.221044822E0,-2.822763920E0,-3.876212597E0,-1.910573006E0
2.223059814E0,-2.640804529E0,-3.952826977E0,-8.092401624E-1
2.225043497E0,-2.377442360E0,-4.412513733E0,2.645592928E0
2.227057105E0,-2.305616140E0,-5.109226227E0,5.966350555E0
2.229070943E0,-2.331952572E0,-5.473145008E0,6.928819656E0
2.231054858E0,-2.619256735E0,-6.090848923E0,7.302315235E0
2.233068695E0,-2.858676910E0,-6.325480938E0,6.976703644E0
2.235051841E0,-3.462015629E0,-6.732495308E0,6.205770969E0
2.237068141E0,-4.153939724E0,-7.129932880E0,6.026205540E0
2.239051209E0,-4.513070107E0,-7.314286232E0,6.193799973E0
2.241064431E0,-5.276820660E0,-7.730877399E0,6.703764915E0
2.243049039E0,-6.110002518E0,-8.109161377E0,7.137115479E0
2.245061954E0,-6.519411087E0,-8.262390137E0,7.268796444E0
2.247046561E0,-7.287950039E0,-8.485051155E0,7.264008045E0
2.249059706E0,-7.900865555E0,-8.576030731E0,6.864176273E0
2.251044621E0,-8.113949776E0,-8.578424454E0,6.560112476E0
2.253058228E0,-8.377311707E0,-8.475474358E0,5.916072369E0
2.255042144E0,-8.394071579E0,-8.331821442E0,5.537788391E0
2.257055673E0,-8.331821442E0,-8.262390137E0,5.494692802E0
2.259071127E0,-8.010998726E0,-8.099584579E0,5.571307182E0
2.261054426E0,-7.759607792E0,-7.936778545E0,5.700594425E0
2.263067957E0,-7.211335659E0,-7.852981567E0,5.803544998E0
2.265051332E0,-6.684611320E0,-7.694964409E0,6.133944988E0
2.267065247E0,-6.449979305E0,-7.630321026E0,6.337451935E0
2.269049239E0,-6.004657745E0,-7.524975777E0,6.703764915E0
2.271062770E0,-5.643133640E0,-7.438784599E0,6.868964672E0
2.273047607E0,-5.504269600E0,-7.412448406E0,6.888118267E0
2.275060214E0,-5.331887245E0,-7.390900612E0,6.962338448E0
2.277045514E0,-5.317522049E0,-7.462726593E0,7.307103634E0
2.279058737E0,-5.360617638E0,-7.548917770E0,7.630321026E0
2.281043651E0,-5.623979568E0,-7.857769966E0,8.590395927E0
2.283056489E0,-6.153098583E0,-8.317456245E0,9.696516991E0
2.285071250E0,-6.473921299E0,-8.578424454E0,1.010592556E1
2.287055012E0,-7.165845871E0,-9.054870605E0,1.036449909E1
2.289068849E0,-7.793126583E0,-9.425971985E0,9.871294022E0
2.291052148E0,-8.042123795E0,-9.555258751E0,9.425971985E0
2.293066602E0,-8.367734909E0,-9.660603523E0,8.389283180E0
2.295050363E0,-8.456320763E0,-9.622296333E0,7.900865555E0
2.297064508E0,-8.504204750E0,-9.557653427E0,7.240066051E0
2.299048808E0,-8.413225174E0,-9.351752281E0,7.146692276E0
2.301062261E0,-8.305485725E0,-9.222464561E0,7.230489254E0
2.303045638E0,-7.975085735E0,-8.920795441E0,7.433996201E0
2.305059475E0,-7.558494568E0,-8.566453934E0,7.522581577E0
2.307043467E0,-7.338228226E0,-8.384494781E0,7.539340973E0
2.309057921E0,-6.821080685E0,-8.034940720E0,7.505822182E0
2.311041913E0,-6.246472359E0,-7.716512203E0,7.290344238E0
2.313055519E0,-5.940014362E0,-7.560888767E0,7.115567684E0
2.315068665E0,-5.343858242E0,-7.249642849E0,6.691793919E0
2.317053580E0,-4.795586109E0,-6.933608055E0,6.303933144E0
2.319068417E0,-4.551377296E0,-6.777985096E0,6.155492783E0
2.321051101E0,-4.120420933E0,-6.478709698E0,5.932831764E0
2.323065017E0,-3.754108191E0,-6.184223175E0,5.813121796E0
2.325049239E0,-3.598485231E0,-6.057330132E0,5.770026207E0
2.327062538E0,-3.344699860E0,-5.815515995E0,5.700594425E0
2.329046530E0,-3.251325846E0,-5.710171223E0,5.645527840E0
2.331060368E0,-3.131615877E0,-5.537788391E0,5.494692802E0
2.333043976E0,-3.031059265E0,-5.432443619E0,5.298368454E0
2.335058736E0,-3.009511471E0,-5.377377033E0,5.202600479E0
2.337042189E0,-2.980781078E0,-5.319916248E0,5.051765442E0
2.339057797E0,-2.940079689E0,-5.307945251E0,4.944026470E0
2.341040019E0,-2.925714493E0,-5.298368454E0,4.903325081E0
2.343054395E0,-2.904166698E0,-5.341464043E0,4.848258495E0
2.345068002E0,-2.885013103E0,-5.403713226E0,4.821922302E0
2.347051918E0,-2.889801502E0,-5.446808815E0,4.812345505E0
2.349066063E0,-2.918531895E0,-5.556941986E0,4.764461517E0
2.351049131E0,-2.978386879E0,-5.698200226E0,4.723760128E0
2.353063662E0,-3.040636063E0,-5.786785603E0,4.718971729E0
2.355046962E0,-3.153163671E0,-5.956773758E0,4.718971729E0
2.357061723E0,-3.311181068E0,-6.133944988E0,4.716577530E0
2.359047252E0,-3.402160645E0,-6.232107162E0,4.711789131E0
2.361058937E0,-3.600879431E0,-6.409277916E0,4.707000732E0
2.363042929E0,-3.711012602E0,-6.497863293E0,4.704606533E0
2.365056767E0,-3.943250179E0,-6.653486729E0,4.702212334E0
2.367071219E0,-4.170699596E0,-6.787561893E0,4.742913723E0
2.369054673E0,-4.264073372E0,-6.856993675E0,4.781220913E0
2.371069357E0,-4.455609322E0,-6.969521046E0,4.879383087E0
2.373052195E0,-4.639962673E0,-7.074865818E0,5.018246651E0
2.375067802E0,-4.738125324E0,-7.098807812E0,5.090072632E0
2.377050640E0,-4.905719280E0,-7.158663273E0,5.188235283E0
2.379065093E0,-5.051765442E0,-7.189787865E0,5.250484467E0
2.381048778E0,-5.109226227E0,-7.201758862E0,5.286397457E0
2.383062846E0,-5.233725071E0,-7.201758862E0,5.346252441E0
2.385046222E0,-5.343858242E0,-7.173028469E0,5.434837818E0
2.387060368E0,-5.386953831E0,-7.149086475E0,5.497087002E0
2.389043822E0,-5.461174011E0,-7.115567684E0,5.657498837E0
2.391057890E0,-5.494692802E0,-7.086836815E0,5.798756599E0
2.393042266E0,-5.578489780E0,-7.048529625E0,5.861005783E0
2.395055104E0,-5.645527840E0,-6.991068840E0,5.997475147E0
2.397070249E0,-5.674258232E0,-6.967126846E0,6.059724331E0
2.399054780E0,-5.781997204E0,-6.914454460E0,6.160281181E0
2.401067156E0,-5.863399982E0,-6.854599476E0,6.253654957E0
2.403051764E0,-5.896918774E0,-6.830657482E0,6.289567947E0
2.405065601E0,-5.983109951E0,-6.801927090E0,6.349422932E0
2.407049208E0,-6.083666325E0,-6.766014099E0,6.394912720E0
2.409063123E0,-6.114790916E0,-6.754043102E0,6.416460514E0
2.411046192E0,-6.160281181E0,-6.744466305E0,6.433219910E0
2.413061491E0,-6.217741966E0,-6.737283707E0,6.433219910E0
2.415045791E0,-6.232107162E0,-6.737283707E0,6.421248913E0
2.417058706E0,-6.251260757E0,-6.763619900E0,6.406883717E0
2.419043621E0,-6.256049156E0,-6.742072105E0,6.378153324E0
2.421057227E0,-6.263231754E0,-6.739677906E0,6.368576527E0
2.423039681E0,-6.256049156E0,-6.756437302E0,6.361393929E0
2.425054134E0,-6.241683960E0,-6.770802498E0,6.368576527E0
2.427068895E0,-6.208165169E0,-6.775590897E0,6.385335922E0
2.429051963E0,-6.179434776E0,-6.809109688E0,6.349422932E0
2.431066417E0,-6.167463779E0,-6.816292286E0,6.323086739E0
2.433050101E0,-6.169857979E0,-6.833051682E0,6.246472359E0
2.435064247E0,-6.160281181E0,-6.830657482E0,6.153098583E0
2.437047315E0,-6.177040577E0,-6.828263283E0,6.086060524E0
2.439061461E0,-6.193799973E0,-6.816292286E0,6.054935932E0
2.441045761E0,-6.220136166E0,-6.773196697E0,5.990292549E0
2.443060214E0,-6.239289761E0,-6.766014099E0,5.961562157E0
2.445043513E0,-6.258443356E0,-6.722918510E0,5.940014362E0
2.447057428E0,-6.277596951E0,-6.696582317E0,5.908889771E0
2.449041035E0,-6.279991150E0,-6.682217121E0,5.887341976E0
2.451055489E0,-6.294356346E0,-6.655880928E0,5.801150799E0
2.453069711E0,-6.306327343E0,-6.598419666E0,5.676652431E0
2.455054010E0,-6.296750546E0,-6.574477673E0,5.609614372E0
2.457067464E0,-6.313509941E0,-6.536170483E0,5.511452198E0
2.459051533E0,-6.318298340E0,-6.505045891E0,5.482721806E0
2.461065601E0,-6.289567947E0,-6.476315498E0,5.410895824E0
2.463048439E0,-6.270414352E0,-6.433219910E0,5.322310448E0
2.465062815E0,-6.258443356E0,-6.409277916E0,5.267243862E0
2.467045654E0,-6.244078159E0,-6.366182327E0,5.171475887E0
2.469060645E0,-6.203376770E0,-6.311115742E0,5.085284233E0
2.471044021E0,-6.203376770E0,-6.294356346E0,5.049371243E0
2.473057859E0,-6.160281181E0,-6.256049156E0,4.982333660E0
2.475041621E0,-6.131550789E0,-6.224924564E0,4.908113480E0
2.477056381E0,-6.114790916E0,-6.215347767E0,4.857835293E0
2.479071681E0,-6.078877926E0,-6.177040577E0,4.735731125E0
2.481053596E0,-6.014234543E0,-6.117185116E0,4.604049683E0
2.483068587E0,-5.973533154E0,-6.098031521E0,4.532223701E0
2.485051040E0,-5.872976780E0,-6.047753334E0,4.393360138E0
2.487066186E0,-5.755661011E0,-6.016628742E0,4.249708176E0
2.489049178E0,-5.688623428E0,-5.992686749E0,4.185064793E0
2.491063015E0,-5.521028996E0,-5.966350555E0,4.065354347E0
2.493047315E0,-5.425261021E0,-5.963956356E0,4.012681961E0
2.495062076E0,-5.255272865E0,-5.963956356E0,3.924096584E0
2.497045145E0,-5.102043629E0,-5.944802761E0,3.866635799E0
2.499059598E0,-5.013458252E0,-5.942408562E0,3.861847401E0
2.501042743E0,-4.876988888E0,-5.928043365E0,3.859453201E0
2.503056582E0,-4.781220913E0,-5.923254967E0,3.876212597E0
2.505040804E0,-4.730942726E0,-5.906495571E0,3.885789394E0
2.507055334E0,-4.654327869E0,-5.901707172E0,3.924096584E0
2.509068557E0,-4.625597477E0,-5.882553577E0,3.955221176E0
2.511052164E0,-4.618414879E0,-5.872976780E0,3.979163170E0
2.513066694E0,-4.630385876E0,-5.844246387E0,4.046200752E0
2.515049762E0,-4.651933670E0,-5.820304394E0,4.127603531E0
2.517065370E0,-4.654327869E0,-5.808333397E0,4.158728123E0
2.519048516E0,-4.709394932E0,-5.791574001E0,4.213795185E0
2.521062969E0,-4.752490520E0,-5.777208805E0,4.247313976E0
2.523046037E0,-4.781220913E0,-5.774814606E0,4.268861771E0
2.525059798E0,-4.817133904E0,-5.770026207E0,4.352658749E0
2.527043252E0,-4.845864296E0,-5.765237808E0,4.386177540E0
2.529057936E0,-4.888959885E0,-5.748478413E0,4.469974518E0
2.531041389E0,-4.920084476E0,-5.765237808E0,4.565742493E0
2.533055150E0,-4.936843872E0,-5.753266811E0,4.616020679E0
2.535069911E0,-4.951209068E0,-5.748478413E0,4.695029736E0
2.537053288E0,-4.958391666E0,-5.750872612E0,4.711789131E0
2.539068356E0,-4.967968464E0,-5.743690014E0,4.699818134E0
2.541051194E0,-4.975151062E0,-5.710171223E0,4.675876141E0
2.543065263E0,-4.975151062E0,-5.702988625E0,4.649539471E0
2.545049255E0,-4.987122059E0,-5.686229229E0,4.649539471E0
2.547063477E0,-5.013458252E0,-5.681440830E0,4.678270340E0
2.549047084E0,-5.013458252E0,-5.674258232E0,4.728548527E0
2.551061307E0,-5.018246651E0,-5.674258232E0,4.750096321E0
2.553044607E0,-5.030217648E0,-5.679046631E0,4.788403511E0
2.555058444E0,-5.032611847E0,-5.695806026E0,4.838681698E0
2.557043436E0,-5.035006046E0,-5.698200226E0,4.860229492E0
2.559058197E0,-5.039794445E0,-5.710171223E0,4.886565685E0
2.561039727E0,-5.030217648E0,-5.705382824E0,4.886565685E0
2.563053872E0,-4.999093056E0,-5.710171223E0,4.869806290E0
2.565069172E0,-4.944026470E0,-5.712565422E0,4.841075897E0
2.567052010E0,-4.912901878E0,-5.698200226E0,4.817133904E0
2.569066078E0,-4.869806290E0,-5.691017628E0,4.790797710E0
2.571049839E0,-4.824316502E0,-5.655104637E0,4.754884720E0
2.573063908E0,-4.807557106E0,-5.633556366E0,4.718971729E0
2.575048823E0,-4.786009312E0,-5.588066578E0,4.661510944E0
2.577062430E0,-4.788403511E0,-5.540182590E0,4.596867085E0
2.579046729E0,-4.788403511E0,-5.516240597E0,4.563348293E0
2.581059875E0,-4.807557106E0,-5.468356609E0,4.503493309E0
2.583042713E0,-4.821922302E0,-5.427655220E0,4.491522312E0
2.585057704E0,-4.826710701E0,-5.403713226E0,4.484339714E0
2.587041389E0,-4.831499100E0,-5.363011837E0,4.462791920E0
2.589054381E0,-4.841075897E0,-5.358223438E0,4.469974518E0
2.591069142E0,-4.850652695E0,-5.353435040E0,4.479551315E0
2.593053441E0,-4.860229492E0,-5.329493046E0,4.469974518E0
2.595067202E0,-4.862623692E0,-5.319916248E0,4.469974518E0
2.597051809E0,-4.869806290E0,-5.329493046E0,4.477157116E0
2.599067186E0,-4.867412090E0,-5.339069843E0,4.479551315E0
2.601048177E0,-4.874594688E0,-5.339069843E0,4.486733913E0
2.603063246E0,-4.903325081E0,-5.331887245E0,4.481945515E0
2.605046315E0,-4.905719280E0,-5.343858242E0,4.455609322E0
2.607060768E0,-4.920084476E0,-5.339069843E0,4.441244125E0
2.609044067E0,-4.934449673E0,-5.341464043E0,4.448426723E0
2.611058290E0,-4.934449673E0,-5.358223438E0,4.472368717E0
2.613041897E0,-4.936843872E0,-5.355829239E0,4.493916512E0
2.615056351E0,-4.934449673E0,-5.331887245E0,4.534617901E0
2.617039803E0,-4.903325081E0,-5.298368454E0,4.434061527E0
2.619055103E0,-4.872200489E0,-5.272032261E0,4.132391930E0
2.621068095E0,-4.656722069E0,-5.140350819E0,3.057395458E0
2.623052087E0,-4.472368717E0,-5.058948040E0,2.533065319E0
2.625065232E0,-4.017470360E0,-4.944026470E0,2.190694571E0
2.627049531E0,-3.620033026E0,-4.972756863E0,3.071760893E0
2.629063447E0,-3.488351822E0,-5.035006046E0,3.792415380E0
2.631047054E0,-3.363853455E0,-5.233725071E0,5.183446884E0
2.633061276E0,-3.476380825E0,-5.374982834E0,5.877765179E0
2.635044652E0,-3.641580820E0,-5.403713226E0,5.851428986E0
2.637060337E0,-4.060565948E0,-5.358223438E0,5.389348030E0
2.639042406E0,-4.522646904E0,-5.274426460E0,4.951209068E0
2.641058089E0,-4.766855717E0,-5.226542473E0,4.886565685E0
2.643041466E0,-5.212177277E0,-5.176264286E0,5.114014626E0
2.645054996E0,-5.619191170E0,-5.173870087E0,5.463568211E0
2.647068834E0,-5.805939198E0,-5.183446884E0,5.592854977E0
2.649051979E0,-6.117185116E0,-5.219359875E0,5.719748020E0
2.651067048E0,-6.330269337E0,-5.240907669E0,5.736507416E0
2.653050425E0,-6.411672115E0,-5.255272865E0,5.712565422E0
2.655064570E0,-6.500257492E0,-5.236119270E0,5.566518784E0
2.657048177E0,-6.490680695E0,-5.224148273E0,5.442020416E0
2.659063323E0,-6.385335922E0,-5.164293289E0,5.130774021E0
2.661045699E0,-6.131550789E0,-5.128379822E0,4.865017891E0
2.663059845E0,-5.983109951E0,-5.104437828E0,4.783615112E0
2.665044144E0,-5.657498837E0,-5.056553841E0,4.716577530E0
2.667057674E0,-5.317522049E0,-5.051765442E0,4.704606533E0
2.669041435E0,-5.166687489E0,-5.056553841E0,4.716577530E0
2.671055504E0,-4.908113480E0,-5.114014626E0,4.764461517E0
2.673069342E0,-4.742913723E0,-5.195417881E0,4.807557106E0
2.675052718E0,-4.678270340E0,-5.248090267E0,4.826710701E0
2.677066941E0,-4.647145271E0,-5.535394192E0,5.001487255E0
2.679049933E0,-4.647145271E0,-5.535394192E0,5.001487255E0
2.681064693E0,-4.647145271E0,-5.535394192E0,5.001487255E0
2.683048993E0,-4.714183331E0,-5.667075634E0,5.178658485E0
2.685063216E0,-4.762067318E0,-5.793968201E0,5.305551052E0
2.687046592E0,-4.867412090E0,-5.851428986E0,5.327098846E0
2.689060429E0,-4.979939461E0,-5.959167957E0,5.233725071E0
2.691044652E0,-5.037400246E0,-6.009446144E0,5.137956619E0
2.693058260E0,-5.135562420E0,-6.095637321E0,4.881777287E0
2.695043405E0,-5.190629482E0,-6.177040577E0,4.630385876E0
2.697057012E0,-5.200206280E0,-6.220136166E0,4.556165695E0
2.699041004E0,-5.181052685E0,-6.294356346E0,4.508281708E0
2.701055073E0,-5.094861031E0,-6.342240334E0,4.505887508E0
2.703068910E0,-5.042188644E0,-6.368576527E0,4.505887508E0
2.705052287E0,-4.910507679E0,-6.423643112E0,4.501099110E0
2.707065894E0,-4.781220913E0,-6.449979305E0,4.493916512E0
2.709049886E0,-4.707000732E0,-6.459556103E0,4.517858505E0
2.711063646E0,-4.599261284E0,-6.493074894E0,4.601655483E0
2.713046715E0,-4.515464306E0,-6.517016888E0,4.781220913E0
2.715061169E0,-4.491522312E0,-6.524199486E0,4.908113480E0
2.717046468E0,-4.458003521E0,-6.555324078E0,5.140350819E0
2.719058767E0,-4.469974518E0,-6.538564682E0,5.181052685E0
2.721043374E0,-4.489128113E0,-6.517016888E0,5.025429249E0
2.723058136E0,-4.589684486E0,-6.505045891E0,4.994304657E0
2.725040820E0,-4.697423935E0,-6.555324078E0,5.281609058E0
2.727054965E0,-5.094861031E0,-6.854599476E0,6.761225700E0
2.729069418E0,-5.753266811E0,-7.395689011E0,8.990227699E0
2.731052564E0,-6.143521786E0,-7.704541206E0,1.001733971E1
2.733067556E0,-6.945579052E0,-8.300697327E0,1.125993061E1
2.735051547E0,-7.685387611E0,-8.722076416E0,1.095826149E1
2.737064539E0,-8.001421928E0,-8.829815865E0,1.034534550E1
2.739048762E0,-8.508993149E0,-8.877699852E0,8.781931877E0
2.741062677E0,-8.877699852E0,-8.769960403E0,7.453149796E0
2.743046284E0,-8.999804497E0,-8.671798706E0,7.019799232E0
2.745060737E0,-9.095572472E0,-8.386888504E0,6.593631268E0
2.747043806E0,-8.985439301E0,-8.111555099E0,6.521805286E0
2.749058260E0,-8.865729332E0,-7.999027729E0,6.509834290E0
2.751041404E0,-8.511386871E0,-7.718906403E0,6.524199486E0
2.753055858E0,-8.291120529E0,-7.565677166E0,6.550535679E0
2.755038927E0,-7.802703381E0,-7.259219646E0,6.667851925E0
2.757054919E0,-7.292738438E0,-6.926425457E0,6.792350292E0
2.759069602E0,-7.062894821E0,-6.785167694E0,6.861782074E0
2.761050902E0,-6.624756336E0,-6.500257492E0,7.007828236E0
2.763065663E0,-6.263231754E0,-6.246472359E0,7.170634270E0
2.765049040E0,-6.117185116E0,-6.131550789E0,7.266402245E0
2.767063723E0,-5.870582581E0,-5.906495571E0,7.486668587E0
2.769047792E0,-5.736507416E0,-5.731719017E0,7.637503624E0
2.771060630E0,-5.679046631E0,-5.647922039E0,7.647080421E0
2.773045545E0,-5.597643375E0,-5.501875401E0,7.513004780E0
2.775059690E0,-5.561730385E0,-5.432443619E0,7.196970463E0
2.777043067E0,-5.566518784E0,-5.403713226E0,7.015010834E0
2.779057289E0,-5.600037575E0,-5.379771233E0,6.648698330E0
2.781040666E0,-5.619191170E0,-5.434837818E0,6.426037312E0
2.783054503E0,-5.645527840E0,-5.513846397E0,6.366182327E0
2.785069495E0,-5.667075634E0,-5.681440830E0,6.320692539E0
2.787052256E0,-5.667075634E0,-5.784391403E0,6.323086739E0
2.789065863E0,-5.616796970E0,-6.045359135E0,6.373364925E0
2.791049778E0,-5.521028996E0,-6.287173748E0,6.488286495E0
2.793064001E0,-5.475539207E0,-6.394912720E0,6.567295074E0
2.795047300E0,-5.394136429E0,-6.603208065E0,6.687005520E0
2.797062676E0,-5.312733650E0,-6.761225700E0,6.758831501E0
2.799045514E0,-5.281609058E0,-6.830657482E0,6.792350292E0
2.801060506E0,-5.240907669E0,-6.945579052E0,6.890512466E0
2.803043267E0,-5.233725071E0,-7.024587631E0,6.998251438E0
2.805058412E0,-5.255272865E0,-7.077260017E0,7.038952827E0
2.807041174E0,-5.310339451E0,-7.132327080E0,7.034164429E0
2.809055550E0,-5.386953831E0,-7.177816868E0,6.962338448E0
2.811039234E0,-5.418078423E0,-7.218518257E0,6.904877663E0
2.813053687E0,-5.482721806E0,-7.271190643E0,6.718130112E0
2.815068217E0,-5.530605793E0,-7.278373241E0,6.385335922E0
2.817051902E0,-5.540182590E0,-7.266402245E0,6.196194172E0
2.819065663E0,-5.504269600E0,-7.228095055E0,5.798756599E0
2.821048500E0,-5.451597214E0,-7.196970463E0,5.597643375E0
2.823063184E0,-5.291185856E0,-7.046135426E0,5.169081688E0
2.825046253E0,-5.090072632E0,-6.856993675E0,4.714183331E0
2.827060707E0,-4.984727859E0,-6.737283707E0,4.537012100E0
2.829045006E0,-4.764461517E0,-6.526593685E0,4.362235546E0
2.831058613E0,-4.513070107E0,-6.373364925E0,4.405331135E0
2.833042605E0,-4.371812344E0,-6.335057735E0,4.498704910E0
2.835055520E0,-4.077325344E0,-6.296750546E0,4.747702122E0
2.837040665E0,-3.811569214E0,-6.344634533E0,4.965574265E0
2.839055426E0,-3.675099611E0,-6.378153324E0,5.037400246E0
2.841036957E0,-3.457227230E0,-6.495469093E0,5.078101635E0
2.843051795E0,-3.318363667E0,-6.655880928E0,5.114014626E0
2.845066786E0,-3.280056238E0,-6.758831501E0,5.159504890E0
2.847049239E0,-3.270479441E0,-7.005434036E0,5.341464043E0
2.849064078E0,-3.313575268E0,-7.340622425E0,5.635950565E0
2.851047454E0,-3.466804028E0,-7.517793179E0,5.798756599E0
2.853060984E0,-3.706224203E0,-7.891288757E0,6.098031521E0
2.855045514E0,-3.871424198E0,-8.075642586E0,6.222530365E0
2.857060045E0,-4.228160381E0,-8.444349289E0,6.418854713E0
2.859044267E0,-4.647145271E0,-8.791508675E0,6.509834290E0
2.861057181E0,-4.855441093E0,-8.947132111E0,6.505045891E0
2.863041558E0,-5.284003258E0,-9.210494041E0,6.409277916E0
2.865055935E0,-5.691017628E0,-9.390059471E0,6.205770969E0
2.867039080E0,-5.872976780E0,-9.437943459E0,6.083666325E0
2.869052533E0,-6.179434776E0,-9.500192642E0,5.856217384E0
2.871067064E0,-6.416460514E0,-9.471462250E0,5.698200226E0
2.873050671E0,-6.495469093E0,-9.437943459E0,5.659893036E0
2.875064277E0,-6.579266071E0,-9.354146004E0,5.573701382E0
2.877049115E0,-6.593631268E0,-9.244012833E0,5.494692802E0
2.879062031E0,-6.560112476E0,-9.179368973E0,5.449203014E0
2.881047253E0,-6.438008308E0,-9.045293808E0,5.379771233E0
2.883060783E0,-6.370970726E0,-8.870517731E0,5.353435040E0
2.885044775E0,-6.241683960E0,-8.777143478E0,5.324704647E0
2.887058074E0,-6.098031521E0,-8.592789650E0,5.303156853E0
2.889041682E0,-6.023811340E0,-8.528146744E0,5.300762653E0
2.891055904E0,-5.887341976E0,-8.382100105E0,5.307945251E0
2.893038973E0,-5.801150799E0,-8.267178535E0,5.303156853E0
2.895054965E0,-5.762843609E0,-8.204929352E0,5.310339451E0
2.897037110E0,-5.712565422E0,-8.104372978E0,5.310339451E0
2.899052101E0,-5.683835030E0,-8.010998726E0,5.264849663E0
2.901066247E0,-5.688623428E0,-7.967903137E0,5.221754074E0
2.903049624E0,-5.717353821E0,-7.908048153E0,5.109226227E0
2.905063231E0,-5.746084213E0,-7.852981567E0,4.977545261E0
2.907046838E0,-5.772420406E0,-7.821856976E0,4.912901878E0
2.909061368E0,-5.808333397E0,-7.766790390E0,4.778826714E0
2.911044976E0,-5.832275391E0,-7.738059998E0,4.647145271E0
2.913059121E0,-5.827486992E0,-7.723694801E0,4.577713490E0
2.915041574E0,-5.815515995E0,-7.704541206E0,4.424484730E0
2.917056951E0,-5.753266811E0,-7.651868820E0,4.141968727E0
2.919039173E0,-5.753266811E0,-7.651868820E0,4.141968727E0
2.921054242E0,-5.707777023E0,-7.637503624E0,4.086902142E0
2.923069002E0,-5.643133640E0,-7.618350029E0,4.034229755E0
2.925052687E0,-5.518634796E0,-7.570465565E0,3.952826977E0
2.927066448E0,-5.406107426E0,-7.520187378E0,3.885789394E0
2.929050132E0,-5.358223438E0,-7.484274387E0,3.864241600E0
2.931063662E0,-5.245696068E0,-7.422025204E0,3.837905407E0
2.933047962E0,-5.137956619E0,-7.350199223E0,3.835511208E0
2.935062415E0,-5.085284233E0,-7.309497833E0,3.837905407E0
2.937046176E0,-5.023035049E0,-7.235277653E0,3.840299606E0
2.939060937E0,-4.984727859E0,-7.170634270E0,3.873818398E0
2.941044236E0,-4.972756863E0,-7.125144482E0,3.885789394E0
2.943058382E0,-4.984727859E0,-7.055712223E0,3.916913986E0
2.945041528E0,-4.991910458E0,-6.983886242E0,3.964797974E0
2.947055596E0,-5.027823448E0,-6.957550049E0,3.991134167E0
2.949039280E0,-5.061342239E0,-6.885724068E0,4.022258759E0
2.951053118E0,-5.090072632E0,-6.845022678E0,4.019864559E0
2.953067032E0,-5.133168221E0,-6.797138691E0,4.000710964E0
2.955050409E0,-5.159504890E0,-6.730101109E0,3.979163170E0
2.957065170E0,-5.164293289E0,-6.708553314E0,3.986345768E0
2.959048239E0,-5.145139217E0,-6.636727333E0,4.036623955E0
2.961062999E0,-5.125985622E0,-6.586448669E0,4.122815132E0
2.963046607E0,-5.109226227E0,-6.555324078E0,4.163516521E0
2.965060753E0,-5.037400246E0,-6.481103897E0,4.254496574E0
2.967044437E0,-4.977545261E0,-6.438008308E0,4.321534157E0
2.969058351E0,-4.934449673E0,-6.397306919E0,4.350264549E0
2.971042266E0,-4.855441093E0,-6.287173748E0,4.386177540E0
2.973056412E0,-4.778826714E0,-6.212953568E0,4.367023945E0
2.975041327E0,-4.752490520E0,-6.174646378E0,4.352658749E0
2.977054010E0,-4.718971729E0,-6.052541733E0,4.319139957E0
2.979068695E0,-4.709394932E0,-5.942408562E0,4.288015366E0
2.981052687E0,-4.702212334E0,-5.889736176E0,4.273650169E0
2.983066294E0,-4.728548527E0,-5.755661011E0,4.278438568E0
2.985050285E0,-4.730942726E0,-5.705382824E0,4.283226967E0
2.987063816E0,-4.728548527E0,-5.595249176E0,4.319139957E0
2.989047731E0,-4.754884720E0,-5.482721806E0,4.369418144E0
2.991061261E0,-4.781220913E0,-5.432443619E0,4.398148537E0
2.993045329E0,-4.836287498E0,-5.343858242E0,4.460397720E0
2.995059167E0,-4.860229492E0,-5.262455463E0,4.534617901E0
2.997043390E0,-4.876988888E0,-5.224148273E0,4.575319290E0
2.999059382E0,-4.917690277E0,-5.149928093E0,4.618414879E0
3.001040296E0,-4.939238071E0,-5.066130638E0,4.642356873E0
3.003055134E0,-4.963180065E0,-5.037400246E0,4.651933670E0
3.005038511E0,-4.987122059E0,-4.984727859E0,4.675876141E0
3.007052657E0,-5.027823448E0,-4.922478676E0,4.704606533E0
3.009067340E0,-5.044582844E0,-4.896142483E0,4.721365929E0
3.011050794E0,-5.054159641E0,-4.841075897E0,4.757278919E0
3.013065247E0,-5.056553841E0,-4.807557106E0,4.776432514E0
3.015048854E0,-5.099649429E0,-4.786009312E0,4.833893299E0
3.017062692E0,-5.137956619E0,-4.759673119E0,4.869806290E0
3.019046761E0,-5.161899090E0,-4.733336926E0,4.884171486E0
3.021060829E0,-5.193023682E0,-4.683058739E0,4.910507679E0
3.023044206E0,-5.236119270E0,-4.656722069E0,4.932055473E0
3.025058043E0,-5.252878666E0,-4.637568474E0,4.936843872E0
3.027042343E0,-5.291185856E0,-4.611232281E0,4.958391666E0
3.029055643E0,-5.293580055E0,-4.582501888E0,4.953603268E0
3.031038635E0,-5.303156853E0,-4.582501888E0,4.927267075E0
3.033053472E0,-5.329493046E0,-4.548983097E0,4.896142483E0
3.035067002E0,-5.351040840E0,-4.537012100E0,4.903325081E0
3.037051840E0,-5.360617638E0,-4.532223701E0,4.920084476E0
3.039065448E0,-5.363011837E0,-4.510675907E0,4.939238071E0
3.041049670E0,-5.386953831E0,-4.515464306E0,4.944026470E0
3.043062662E0,-5.374982834E0,-4.508281708E0,4.944026470E0
3.045046884E0,-5.351040840E0,-4.481945515E0,4.929661274E0
3.047061107E0,-5.346252441E0,-4.462791920E0,4.917690277E0
3.049044098E0,-5.315127850E0,-4.443638325E0,4.869806290E0
3.051058859E0,-5.264849663E0,-4.419696331E0,4.788403511E0
3.053042621E0,-5.236119270E0,-4.405331135E0,4.745307922E0
3.055057690E0,-5.181052685E0,-4.362235546E0,4.649539471E0
3.057040757E0,-5.109226227E0,-4.319139957E0,4.577713490E0
3.059055519E0,-5.068524837E0,-4.285621166E0,4.558559895E0
3.061038511E0,-4.996698856E0,-4.223371983E0,4.501099110E0
3.063052426E0,-4.900930882E0,-4.165910721E0,4.443638325E0
3.065066801E0,-4.853046894E0,-4.127603531E0,4.410119534E0
3.067050178E0,-4.762067318E0,-4.060565948E0,4.355052948E0
3.069064093E0,-4.656722069E0,-3.986345768E0,4.290409565E0
3.071047777E0,-4.601655483E0,-3.940855980E0,4.254496574E0
3.073062461E0,-4.479551315E0,-3.866635799E0,4.177882195E0
3.075045607E0,-4.422090530E0,-3.801992416E0,4.096478939E0
3.077060599E0,-4.323928356E0,-3.758896589E0,4.058171749E0
3.079045206E0,-4.225766182E0,-3.641580820E0,3.957615376E0
3.081056659E0,-4.189853191E0,-3.598485231E0,3.912125587E0
3.083041804E0,-4.120420933E0,-3.517082214E0,3.833117008E0
3.085055335E0,-4.050989151E0,-3.445256233E0,3.722983599E0
3.087039635E0,-4.010287762E0,-3.399766445E0,3.665522814E0
3.089053164E0,-3.948038578E0,-3.289633036E0,3.325546265E0
3.091067387E0,-3.830722809E0,-3.098097086E0,1.898601890E0
3.093050686E0,-3.694253206E0,-2.973598480E0,8.595184088E-1
3.095065524E0,-3.306392431E0,-2.703053713E0,-1.055842996E0
3.097049208E0,-2.829946518E0,-2.530671120E0,-1.635239720E0
3.099063662E0,-2.619256735E0,-2.521094322E0,-1.254561663E0
3.101046423E0,-2.255337954E0,-2.643198729E0,5.410895944E-1
3.103060260E0,-2.030282974E0,-2.913743496E0,2.765302896E0
3.105044252E0,-1.994369984E0,-3.052607059E0,3.651157618E0
3.107058398E0,-2.061407566E0,-3.284844637E0,4.675876141E0
3.109042697E0,-2.166752577E0,-3.385401249E0,4.867412090E0
3.111056458E0,-2.518700123E0,-3.406949043E0,4.951209068E0
3.113039911E0,-2.995146275E0,-3.418920040E0,5.044582844E0
3.115053442E0,-3.260902643E0,-3.411737442E0,5.161899090E0
3.117068511E0,-3.813963413E0,-3.409343243E0,5.473145008E0
3.119051271E0,-4.393360138E0,-3.433285236E0,5.702988625E0
3.121066571E0,-4.683058739E0,-3.447650433E0,5.786785603E0
3.123050255E0,-5.197812080E0,-3.476380825E0,5.884947777E0
3.125064478E0,-5.659893036E0,-3.507505417E0,5.746084213E0
3.127047161E0,-5.851428986E0,-3.509899616E0,5.559336185E0
3.129061384E0,-6.145915985E0,-3.531447411E0,5.018246651E0
3.131045299E0,-6.253654957E0,-3.517082214E0,4.434061527E0
3.133059445E0,-6.256049156E0,-3.500322819E0,4.199429989E0
3.135044051E0,-6.136339188E0,-3.478775024E0,3.888183594E0
3.137057966E0,-5.858611584E0,-3.483563423E0,3.739742994E0
3.139041881E0,-5.664681435E0,-3.507505417E0,3.711012602E0
3.141055181E0,-5.240907669E0,-3.557783842E0,3.720589399E0
3.143038172E0,-5.030217648E0,-3.632004023E0,3.770867586E0
3.145052395E0,-4.678270340E0,-3.670311213E0,3.983951569E0
3.147066848E0,-4.381389141E0,-3.787626982E0,4.283226967E0
3.149051071E0,-4.280832767E0,-3.866635799E0,4.448426723E0
3.151064370E0,-4.194641590E0,-4.053383350E0,4.819528103E0
3.153047746E0,-4.278438568E0,-4.273650169E0,5.252878666E0
3.155061584E0,-4.378994942E0,-4.400542736E0,5.477933407E0
3.157046192E0,-5.240907669E0,-5.058948040E0,6.241683960E0
3.159058798E0,-5.240907669E0,-5.058948040E0,6.241683960E0
3.161042713E0,-5.240907669E0,-5.058948040E0,6.241683960E0
3.163058167E0,-5.657498837E0,-5.298368454E0,6.181828976E0
3.165041544E0,-6.066906929E0,-5.521028996E0,5.956773758E0
3.167055919E0,-6.246472359E0,-5.633556366E0,5.849034786E0
3.169038757E0,-6.579266071E0,-5.832275391E0,5.679046631E0
3.171053826E0,-6.818686485E0,-6.035782337E0,5.573701382E0
3.173036818E0,-6.914454460E0,-6.148310184E0,5.521028996E0
3.175052194E0,-7.070077419E0,-6.363788128E0,5.446808815E0
3.177065186E0,-7.103596210E0,-6.586448669E0,5.434837818E0
3.179049716E0,-7.122750282E0,-6.687005520E0,5.509057999E0
3.181063938E0,-7.094019413E0,-6.907271862E0,5.741295815E0
3.183046622E0,-7.062894821E0,-7.022193432E0,5.913678169E0
3.185061076E0,-7.012616634E0,-7.240066051E0,6.287173748E0
3.187044145E0,-6.957550049E0,-7.433996201E0,6.615179062E0
3.189058597E0,-6.926425457E0,-7.520187378E0,6.751648903E0
3.191042666E0,-6.907271862E0,-7.666234016E0,6.952761650E0
3.193056428E0,-6.868964672E0,-7.747636795E0,7.050923824E0
3.195039573E0,-6.845022678E0,-7.778761387E0,7.019799232E0
3.197054641E0,-6.785167694E0,-7.785943985E0,6.658275127E0
3.199037941E0,-6.663063526E0,-7.788338184E0,6.246472359E0
3.201051856E0,-6.660669327E0,-7.864952564E0,6.385335922E0
3.203066925E0,-6.938396454E0,-8.219294548E0,8.145073891E0
3.205049301E0,-7.513004780E0,-8.863334656E0,1.139161205E1
3.207064677E0,-7.841010571E0,-9.234436035E0,1.296699619E1
3.209048439E0,-8.384494781E0,-9.897629738E0,1.459744740E1
3.211061584E0,-8.571242332E0,-1.011789608E1,1.431732655E1
3.213045345E0,-8.825027466E0,-1.029027843E1,1.207156467E1
3.215060337E0,-8.978256226E0,-1.010831928E1,9.241618156E0
3.217043790E0,-9.009381294E0,-9.938331604E0,8.116343498E0
3.219058244E0,-8.971074104E0,-9.560047150E0,6.909666061E0
3.221041542E0,-8.791508675E0,-9.200917244E0,6.842628479E0
3.223055381E0,-8.623914719E0,-9.040505409E0,7.079654217E0
3.225039680E0,-8.130708694E0,-8.741230011E0,7.659051418E0
3.227052595E0,-7.568071365E0,-8.458714485E0,8.046912193E0
3.229067433E0,-7.268796444E0,-8.315062523E0,8.133103371E0
3.231051040E0,-6.670246124E0,-8.006210327E0,8.125920296E0
3.233064263E0,-6.119579315E0,-7.709329605E0,7.994239330E0
3.235047947E0,-5.880159378E0,-7.553706169E0,7.920019150E0
3.237063630E0,-5.497087002E0,-7.287950039E0,7.848193169E0
3.239048007E0,-5.355829239E0,-7.053318024E0,7.879317760E0
3.241059614E0,-5.149928093E0,-6.947973251E0,7.931990147E0
3.243043991E0,-5.030217648E0,-6.777985096E0,8.058882713E0
3.245058367E0,-4.999093056E0,-6.691793919E0,8.094796181E0
3.247042128E0,-5.003881454E0,-6.528987885E0,8.010998726E0
3.249055966E0,-5.051765442E0,-6.363788128E0,7.771578789E0
3.251039573E0,-5.094861031E0,-6.296750546E0,7.623138428E0
3.253054026E0,-5.207388878E0,-6.200982571E0,7.369352818E0
3.255038710E0,-5.319916248E0,-6.150704384E0,7.170634270E0
3.257051548E0,-5.363011837E0,-6.157886982E0,7.058106422E0
3.259066616E0,-5.444414616E0,-6.224924564E0,6.813898087E0
3.261049762E0,-5.492298603E0,-6.344634533E0,6.564900875E0
3.263064139E0,-5.497087002E0,-6.421248913E0,6.464344501E0
3.265047285E0,-5.511452198E0,-6.610390663E0,6.375759125E0
3.267061660E0,-5.477933407E0,-6.813898087E0,6.418854713E0
3.269044729E0,-5.451597214E0,-6.914454460E0,6.478709698E0
3.271058875E0,-5.408501625E0,-7.101202011E0,6.596025467E0
3.273042636E0,-5.384559631E0,-7.273584843E0,6.634333134E0
3.275056781E0,-5.331887245E0,-7.352593422E0,6.696582317E0
3.277041619E0,-5.315127850E0,-7.472303391E0,6.751648903E0
3.279054842E0,-5.312733650E0,-7.510610580E0,6.777985096E0
3.281038834E0,-5.295974255E0,-7.570465565E0,6.756437302E0
3.283052979E0,-5.293580055E0,-7.620744228E0,6.627150536E0
3.285066817E0,-5.307945251E0,-7.637503624E0,6.531382084E0
3.287051117E0,-5.322310448E0,-7.654263020E0,6.354211330E0
3.289065032E0,-5.346252441E0,-7.673416615E0,6.205770969E0
3.291048407E0,-5.351040840E0,-7.663839817E0,6.145915985E0
3.293062553E0,-5.386953831E0,-7.661445618E0,6.098031521E0
3.295046238E0,-5.389348030E0,-7.644686222E0,6.131550789E0
3.297060614E0,-5.379771233E0,-7.639897823E0,6.181828976E0
3.299044682E0,-5.341464043E0,-7.666234016E0,6.282385349E0
3.301058213E0,-5.327098846E0,-7.678205013E0,6.323086739E0
3.303042128E0,-5.303156853E0,-7.663839817E0,6.277596951E0
3.305055427E0,-5.219359875E0,-7.630321026E0,5.999869347E0
3.307039111E0,-5.164293289E0,-7.606379032E0,5.762843609E0
3.309052949E0,-4.994304657E0,-7.510610580E0,5.197812080E0
3.311067325E0,-4.745307922E0,-7.352593422E0,4.735731125E0
3.313051087E0,-4.596867085E0,-7.283161640E0,4.577713490E0
3.315065232E0,-4.304774761E0,-7.158663273E0,4.412513733E0
3.317049762E0,-4.089296341E0,-7.070077419E0,4.410119534E0
3.319063677E0,-4.003105164E0,-7.046135426E0,4.467580318E0
3.321046746E0,-3.902548790E0,-7.043741226E0,4.625597477E0
3.323060814E0,-3.857059002E0,-7.117961884E0,4.821922302E0
3.325044883E0,-3.883395195E0,-7.182605267E0,4.955997467E0
3.327058721E0,-3.986345768E0,-7.352593422E0,5.298368454E0
3.329042636E0,-4.177882195E0,-7.546523571E0,5.691017628E0
3.331055935E0,-4.299986362E0,-7.647080421E0,5.849034786E0
3.333039927E0,-4.613626480E0,-7.841010571E0,6.030993938E0
3.335054919E0,-4.991910458E0,-7.972691536E0,6.105214119E0
3.337037757E0,-5.202600479E0,-8.022970200E0,6.119579315E0
3.339053133E0,-5.635950565E0,-8.106766701E0,6.138733387E0
3.341036817E0,-5.853823185E0,-8.140285492E0,6.148310184E0
3.343050270E0,-6.284779549E0,-8.204929352E0,6.157886982E0
3.345064415E0,-6.663063526E0,-8.250418663E0,6.047753334E0
3.347047561E0,-6.813898087E0,-8.238448143E0,5.959167957E0
3.349062245E0,-7.022193432E0,-8.190564156E0,5.702988625E0
3.351045314E0,-7.110779285E0,-8.125920296E0,5.430049419E0
3.353059767E0,-7.098807812E0,-8.085219383E0,5.300762653E0
3.355043144E0,-6.979097843E0,-8.001421928E0,5.066130638E0
3.357058520E0,-6.703764915E0,-7.920019150E0,4.876988888E0
3.359040358E0,-6.521805286E0,-7.884106159E0,4.797980309E0
3.361056042E0,-6.121973515E0,-7.817068577E0,4.678270340E0
3.363038495E0,-5.688623428E0,-7.728483200E0,4.604049683E0
3.365053564E0,-5.489904404E0,-7.694964409E0,4.568136692E0
3.367036941E0,-5.140350819E0,-7.623138428E0,4.501099110E0
3.369050547E0,-4.982333660E0,-7.524975777E0,4.434061527E0
3.371065539E0,-4.702212334E0,-7.477091789E0,4.407725334E0
3.373048300E0,-4.505887508E0,-7.400477409E0,4.378994942E0
3.375063369E0,-4.434061527E0,-7.369352818E0,4.374206543E0
3.377046822E0,-4.326322556E0,-7.314286232E0,4.378994942E0
3.379060968E0,-4.309563160E0,-7.264008045E0,4.405331135E0
3.381043729E0,-4.319139957E0,-7.252037048E0,4.419696331E0
3.383058106E0,-4.359841347E0,-7.237671852E0,4.481945515E0
3.385041866E0,-4.448426723E0,-7.228095055E0,4.577713490E0
3.387056012E0,-4.508281708E0,-7.223306656E0,4.618414879E0
3.389040234E0,-4.625597477E0,-7.225700855E0,4.666299343E0
3.391054150E0,-4.750096321E0,-7.232883453E0,4.687847137E0
3.393037141E0,-4.809951305E0,-7.240066051E0,4.692635536E0
3.395051363E0,-4.920084476E0,-7.242460251E0,4.711789131E0
3.397065432E0,-5.054159641E0,-7.275979042E0,4.740519524E0
3.399048193E0,-5.080495834E0,-7.283161640E0,4.738125324E0
3.401060492E0,-5.102043629E0,-7.278373241E0,4.742913723E0
3.403047946E0,-5.102043629E0,-7.280767441E0,4.747702122E0
3.405061168E0,-5.102043629E0,-7.285555840E0,4.757278919E0
3.407045084E0,-5.104437828E0,-7.273584843E0,4.807557106E0
3.409059613E0,-5.106832027E0,-7.254431248E0,4.850652695E0
3.411043297E0,-5.094861031E0,-7.216124058E0,4.924872875E0
3.413057135E0,-5.087678432E0,-7.168240070E0,4.967968464E0
3.415041435E0,-5.085284233E0,-7.139509678E0,4.982333660E0
3.417054349E0,-5.075707436E0,-7.101202011E0,4.994304657E0
3.419038957E0,-5.087678432E0,-7.067683220E0,4.996698856E0
3.421052179E0,-5.097255230E0,-7.041347027E0,5.011064053E0
3.423066633E0,-5.094861031E0,-6.969521046E0,5.044582844E0
3.425049932E0,-5.128379822E0,-6.900089264E0,5.039794445E0
3.427064462E0,-5.152322292E0,-6.859387875E0,5.030217648E0
3.429048377E0,-5.181052685E0,-6.775590897E0,5.013458252E0
3.431062600E0,-5.200206280E0,-6.667851925E0,4.975151062E0
3.433045360E0,-5.214571476E0,-6.612784863E0,4.960785866E0
3.435059429E0,-5.219359875E0,-6.536170483E0,4.936843872E0
3.437044652E0,-5.236119270E0,-6.461950302E0,4.951209068E0
3.439057029E0,-5.250484467E0,-6.421248913E0,4.977545261E0
3.441041943E0,-5.240907669E0,-6.347028732E0,4.996698856E0
3.443056396E0,-5.245696068E0,-6.315904140E0,4.994304657E0
3.445039465E0,-5.228936672E0,-6.256049156E0,4.967968464E0
3.447052996E0,-5.214571476E0,-6.155492783E0,4.934449673E0
3.449036987E0,-5.207388878E0,-6.110002518E0,4.912901878E0
3.451050748E0,-5.176264286E0,-6.050147533E0,4.833893299E0
3.453065509E0,-5.152322292E0,-5.928043365E0,4.769249916E0
3.455050424E0,-5.128379822E0,-5.875370979E0,4.745307922E0
3.457062800E0,-5.078101635E0,-5.793968201E0,4.683058739E0
3.459048330E0,-5.032611847E0,-5.691017628E0,4.596867085E0
3.461061168E0,-5.008669853E0,-5.640739441E0,4.560954094E0
3.463045160E0,-4.977545261E0,-5.561730385E0,4.486733913E0
3.465058998E0,-4.932055473E0,-5.470750809E0,4.383783340E0
3.467042143E0,-4.912901878E0,-5.415684223E0,4.326322556E0
3.469056289E0,-4.869806290E0,-5.300762653E0,4.216189384E0
3.471040204E0,-4.862623692E0,-5.250484467E0,4.168305397E0
3.473054041E0,-4.833893299E0,-5.169081688E0,4.101267338E0
3.475036880E0,-4.783615112E0,-5.099649429E0,4.055777550E0
3.477053410E0,-4.762067318E0,-5.063736439E0,4.046200752E0
3.479037787E0,-4.721365929E0,-5.011064053E0,4.034229755E0
3.481049085E0,-4.666299343E0,-4.944026470E0,3.995922565E0
3.483063847E0,-4.649539471E0,-4.920084476E0,3.971980572E0
3.485048223E0,-4.608838081E0,-4.869806290E0,3.931279182E0
3.487060830E0,-4.551377296E0,-4.829104900E0,3.924096584E0
3.489045437E0,-4.537012100E0,-4.800374508E0,3.914519787E0
3.491059198E0,-4.467580318E0,-4.774038315E0,3.892971992E0
3.493042960E0,-4.441244125E0,-4.723760128E0,3.847482204E0
3.495057951E0,-4.443638325E0,-4.711789131E0,3.818751812E0
3.497040712E0,-4.436455727E0,-4.671087742E0,3.787626982E0
3.499055473E0,-4.431667328E0,-4.620809078E0,3.768473387E0
3.501039157E0,-4.443638325E0,-4.606443882E0,3.768473387E0
3.503052764E0,-4.446032524E0,-4.582501888E0,3.754108191E0
3.505036756E0,-4.467580318E0,-4.582501888E0,3.758896589E0
3.507050286E0,-4.513070107E0,-4.558559895E0,3.751713991E0
3.509064740E0,-4.565742493E0,-4.551377296E0,3.739742994E0
3.511048423E0,-4.592078686E0,-4.537012100E0,3.730166197E0
3.513062877E0,-4.632780075E0,-4.539406300E0,3.732560396E0
3.515045561E0,-4.687847137E0,-4.534617901E0,3.758896589E0
3.517062168E0,-4.707000732E0,-4.525041103E0,3.778050184E0
3.519043467E0,-4.728548527E0,-4.517858505E0,3.825934410E0
3.521058459E0,-4.735731125E0,-4.541800499E0,3.885789394E0
3.523042528E0,-4.735731125E0,-4.546588898E0,3.924096584E0
3.525056674E0,-4.733336926E0,-4.527435303E0,4.022258759E0
3.527039742E0,-4.728548527E0,-4.529829502E0,4.122815132E0
3.529053811E0,-4.735731125E0,-4.537012100E0,4.153939724E0
3.531038110E0,-4.707000732E0,-4.529829502E0,4.240131378E0
3.533051641E0,-4.699818134E0,-4.505887508E0,4.335899353E0
3.535066401E0,-4.690241337E0,-4.496310711E0,4.369418144E0
3.537049239E0,-4.699818134E0,-4.467580318E0,4.417302132E0
3.539064000E0,-4.714183331E0,-4.434061527E0,4.417302132E0
3.541047069E0,-4.759673119E0,-4.376600742E0,4.424484730E0
3.543060599E0,-4.838681698E0,-4.316745758E0,4.402936935E0
3.545044206E0,-4.881777287E0,-4.290409565E0,4.398148537E0
3.547059583E0,-4.960785866E0,-4.216189384E0,4.410119534E0
3.549042729E0,-5.058948040E0,-4.187458992E0,4.438849926E0
3.551056489E0,-5.099649429E0,-4.161122322E0,4.465186119E0
3.553039866E0,-5.161899090E0,-4.115632534E0,4.515464306E0
3.555053781E0,-5.228936672E0,-4.082113743E0,4.539406300E0
3.557039234E0,-5.267243862E0,-4.070142746E0,4.548983097E0
3.559054071E0,-5.293580055E0,-4.067748547E0,4.560954094E0
3.561035833E0,-5.327098846E0,-4.084507942E0,4.556165695E0
3.563050286E0,-5.334281445E0,-4.082113743E0,4.563348293E0
3.565064508E0,-5.331887245E0,-4.050989151E0,4.551377296E0
3.567047577E0,-5.329493046E0,-4.053383350E0,4.532223701E0
3.569061953E0,-5.329493046E0,-4.041412354E0,4.503493309E0
3.571045407E0,-5.300762653E0,-4.058171749E0,4.460397720E0
3.573059783E0,-5.295974255E0,-4.058171749E0,4.446032524E0
3.575044467E0,-5.248090267E0,-4.065354347E0,4.429273129E0
3.577057997E0,-5.212177277E0,-4.070142746E0,4.419696331E0
3.579042297E0,-5.188235283E0,-4.084507942E0,4.417302132E0
3.581056442E0,-5.116408825E0,-4.113238335E0,4.414907932E0
3.583039203E0,-5.027823448E0,-4.113238335E0,4.359841347E0
3.585053272E0,-4.994304657E0,-4.125209332E0,4.290409565E0
3.587036956E0,-4.893748283E0,-4.118026733E0,3.591302633E0
3.589050794E0,-4.642356873E0,-3.974374771E0,1.867477298E0
3.591064939E0,-4.443638325E0,-3.864241600E0,9.241618514E-1
3.593048931E0,-3.998316765E0,-3.708618402E0,-1.388636976E-1
3.595062462E0,-3.596091032E0,-3.718195200E0,6.607996821E-1
3.597047761E0,-3.430891037E0,-3.799597979E0,1.671152830E0
3.599060291E0,-3.239354849E0,-4.146757126E0,4.055777550E0
3.601045514E0,-3.210624456E0,-4.347870350E0,5.030217648E0
3.603058429E0,-3.344699860E0,-4.663905144E0,5.863399982E0
3.605042189E0,-3.684676409E0,-4.833893299E0,5.406107426E0
3.607056643E0,-3.907337189E0,-4.862623692E0,5.056553841E0
3.609040250E0,-4.422090530E0,-4.917690277E0,4.778826714E0
3.611054165E0,-4.982333660E0,-4.999093056E0,5.193023682E0
3.613037541E0,-5.269638062E0,-5.063736439E0,5.494692802E0
3.615052533E0,-5.822698593E0,-5.193023682E0,5.923254967E0
3.617035371E0,-6.356605530E0,-5.291185856E0,6.019022942E0
3.619050132E0,-6.603208065E0,-5.322310448E0,6.021417141E0
3.621064277E0,-7.058106422E0,-5.389348030E0,5.999869347E0
3.623046961E0,-7.398083210E0,-5.446808815E0,5.829881191E0
3.625062107E0,-7.508216381E0,-5.453991413E0,5.664681435E0
3.627045176E0,-7.589619160E0,-5.432443619E0,5.336675644E0
3.629059321E0,-7.548917770E0,-5.396530628E0,5.128379822E0
3.631042621E0,-7.455543995E0,-5.384559631E0,5.073313236E0
3.633057690E0,-7.137115479E0,-5.360617638E0,4.922478676E0
3.635041066E0,-6.952761650E0,-5.353435040E0,4.797980309E0
3.637054673E0,-6.100425720E0,-5.360617638E0,4.429273129E0
3.639037126E0,-6.100425720E0,-5.413290024E0,4.498704910E0
3.641049118E0,-5.966350555E0,-5.413290024E0,4.498704910E0
3.643068186E0,-5.849034786E0,-5.473145008E0,4.601655483E0
3.645051178E0,-5.671864033E0,-5.614402771E0,4.836287498E0
3.647065401E0,-5.604825974E0,-5.691017628E0,4.960785866E0
3.649048470E0,-5.549759388E0,-5.865794182E0,5.250484467E0
3.651061999E0,-5.609614372E0,-6.071695328E0,5.607220173E0
3.653047145E0,-5.664681435E0,-6.172252178E0,5.784391403E0
3.655061060E0,-5.817910194E0,-6.354211330E0,6.071695328E0
3.657044360E0,-6.007051945E0,-6.531382084E0,6.112396717E0
3.659059505E0,-6.100425720E0,-6.607996464E0,6.026205540E0
3.661042266E0,-6.301538944E0,-6.739677906E0,5.796362400E0
3.663055796E0,-6.380547523E0,-6.845022678E0,5.612008572E0
3.665039711E0,-6.524199486E0,-6.902483463E0,5.559336185E0
3.667053856E0,-6.622362137E0,-7.048529625E0,5.535394192E0
3.669037541E0,-6.653486729E0,-7.120356083E0,5.556941986E0
3.671051994E0,-6.677428722E0,-7.235277653E0,5.638344765E0
3.673035371E0,-6.651092529E0,-7.328651428E0,5.683835030E0
3.675048977E0,-6.634333134E0,-7.362170219E0,5.702988625E0
3.677063969E0,-6.574477673E0,-7.402871609E0,5.580883980E0
3.679046500E0,-6.459556103E0,-7.460332394E0,5.521028996E0
3.681061492E0,-6.445190907E0,-7.553706169E0,5.786785603E0
3.683045252E0,-6.694188118E0,-7.920019150E0,7.474697590E0
3.685059398E0,-7.228095055E0,-8.499416351E0,1.017775154E1
3.687042390E0,-7.544129372E0,-8.829815865E0,1.135569859E1
3.689056843E0,-8.109161377E0,-9.397241592E0,1.220803452E1
3.691040296E0,-8.535328865E0,-9.670180321E0,1.089840603E1
3.693054365E0,-8.688557625E0,-9.660603523E0,9.825803757E0
3.695039049E0,-8.935160637E0,-9.440337181E0,7.869740963E0
3.697052887E0,-9.011775017E0,-9.119514465E0,6.921637058E0
3.699035955E0,-9.069235802E0,-8.968679428E0,6.900089264E0
3.701051255E0,-8.978256226E0,-8.724471092E0,7.438784599E0
3.703063939E0,-8.858546257E0,-8.628703117E0,7.778761387E0
3.705048162E0,-8.487444878E0,-8.449137688E0,8.195352554E0
3.707061768E0,-8.022970200E0,-8.248024940E0,8.068459511E0
3.709045453E0,-7.747636795E0,-8.133103371E0,7.867346764E0
3.711059522E0,-7.192182064E0,-7.841010571E0,7.407660007E0
3.713042975E0,-6.670246124E0,-7.479485989E0,7.017405033E0
3.715056812E0,-6.416460514E0,-7.302315235E0,6.878541470E0
3.717041958E0,-5.944802761E0,-6.950367451E0,6.720524311E0
3.719057027E0,-5.595249176E0,-6.629544735E0,6.785167694E0
3.721038250E0,-5.461174011E0,-6.481103897E0,6.885724068E0
3.723053010E0,-5.221754074E0,-6.251260757E0,7.127538681E0
3.725037002E0,-5.039794445E0,-6.045359135E0,7.228095055E0
3.727050840E0,-4.984727859E0,-5.956773758E0,7.187393665E0
3.729065908E0,-4.888959885E0,-5.796362400E0,6.914454460E0
3.731048977E0,-4.874594688E0,-5.664681435E0,6.689399719E0
3.733063200E0,-4.848258495E0,-5.583278179E0,6.107608318E0
3.735046576E0,-4.853046894E0,-5.439626217E0,5.458779812E0
3.737061337E0,-4.853046894E0,-5.379771233E0,5.181052685E0
3.739045329E0,-4.809951305E0,-5.307945251E0,4.774038315E0
3.741058552E0,-4.704606533E0,-5.267243862E0,4.599261284E0
3.743042467E0,-4.620809078E0,-5.262455463E0,4.563348293E0
3.745055765E0,-4.448426723E0,-5.272032261E0,4.539406300E0
3.747039450E0,-4.314351559E0,-5.300762653E0,4.527435303E0
3.749054442E0,-4.266467571E0,-5.327098846E0,4.546588898E0
3.751037895E0,-4.247313976E0,-5.396530628E0,4.637568474E0
3.753051655E0,-4.280832767E0,-5.494692802E0,4.781220913E0
3.755035032E0,-4.304774761E0,-5.568912983E0,4.826710701E0
3.757049486E0,-4.386177540E0,-5.734113216E0,4.845864296E0
3.759063093E0,-4.501099110E0,-5.901707172E0,4.750096321E0
3.761047930E0,-4.556165695E0,-5.987898350E0,4.663905144E0
3.763061461E0,-4.678270340E0,-6.148310184E0,4.496310711E0
3.765044837E0,-4.747702122E0,-6.232107162E0,4.434061527E0
3.767059906E0,-4.853046894E0,-6.390124321E0,4.367023945E0
3.769043589E0,-4.946420670E0,-6.557718277E0,4.412513733E0
3.771056889E0,-4.991910458E0,-6.646304131E0,4.501099110E0
3.773040189E0,-5.056553841E0,-6.833051682E0,4.673481941E0
3.775055642E0,-5.092466831E0,-7.015010834E0,4.762067318E0
3.777038633E0,-5.116408825E0,-7.101202011E0,4.786009312E0
3.779054010E0,-5.181052685E0,-7.275979042E0,4.788403511E0
3.781036540E0,-5.236119270E0,-7.441178799E0,4.845864296E0
3.783050917E0,-5.264849663E0,-7.510610580E0,4.910507679E0
3.785065062E0,-5.312733650E0,-7.671022415E0,5.133168221E0
3.787047900E0,-5.396530628E0,-7.824251175E0,5.370194435E0
3.789062892E0,-5.437232018E0,-7.891288757E0,5.456385612E0
3.791045730E0,-5.523423195E0,-7.991845131E0,5.521028996E0
3.793060183E0,-5.592854977E0,-8.070854187E0,5.468356609E0
3.795043482E0,-5.626373768E0,-8.099584579E0,5.418078423E0
3.797058628E0,-5.698200226E0,-8.157045364E0,5.317522049E0
3.799043851E0,-5.714959621E0,-8.178592682E0,5.276820660E0
3.801055227E0,-5.748478413E0,-8.183381081E0,5.231330872E0
3.803039142E0,-5.786785603E0,-8.200140953E0,5.202600479E0
3.805053980E0,-5.789179802E0,-8.224082947E0,5.209783077E0
3.807037587E0,-5.734113216E0,-8.248024940E0,5.288791656E0
3.809051501E0,-5.640739441E0,-8.269572258E0,5.389348030E0
3.811034263E0,-5.590460777E0,-8.269572258E0,5.449203014E0
3.813048332E0,-5.504269600E0,-8.276755333E0,5.513846397E0
3.815064324E0,-5.432443619E0,-8.271966934E0,5.489904404E0
3.817046468E0,-5.420472622E0,-8.259995461E0,5.456385612E0
3.819062153E0,-5.420472622E0,-8.228871346E0,5.389348030E0
3.821045606E0,-5.439626217E0,-8.233659744E0,5.398924828E0
3.823059444E0,-5.461174011E0,-8.243236542E0,5.430049419E0
3.825042743E0,-5.537788391E0,-8.250418663E0,5.485116005E0
3.827056966E0,-5.583278179E0,-8.305485725E0,5.501875401E0
3.829039419E0,-5.683835030E0,-8.329427719E0,5.475539207E0
3.831054488E0,-5.798756599E0,-8.350975990E0,5.425261021E0
3.833038402E0,-5.858611584E0,-8.334216118E0,5.396530628E0
3.835051625E0,-5.968744755E0,-8.334216118E0,5.307945251E0
3.837036233E0,-6.064512730E0,-8.339004517E0,5.204994678E0
3.839049225E0,-6.112396717E0,-8.331821442E0,5.159504890E0
3.841063985E0,-6.205770969E0,-8.315062523E0,5.109226227E0
3.843047977E0,-6.277596951E0,-8.298302650E0,5.133168221E0
3.845062046E0,-6.315904140E0,-8.276755333E0,5.154716492E0
3.847046038E0,-6.382941723E0,-8.212111473E0,5.200206280E0
3.849059952E0,-6.435614109E0,-8.176198959E0,5.216965675E0
3.851043636E0,-6.459556103E0,-8.147468567E0,5.190629482E0
3.853058013E0,-6.507440090E0,-8.090007782E0,5.080495834E0
3.855042082E0,-6.562506676E0,-7.996633530E0,4.944026470E0
3.857055534E0,-6.588842869E0,-7.943961143E0,4.888959885E0
3.859040142E0,-6.636727333E0,-7.843404770E0,4.860229492E0
3.861053364E0,-6.648698330E0,-7.735665798E0,4.860229492E0
3.863036818E0,-6.629544735E0,-7.680599213E0,4.881777287E0
3.865050271E0,-6.586448669E0,-7.594407558E0,4.884171486E0
3.867065032E0,-6.531382084E0,-7.565677166E0,4.888959885E0
3.869048793E0,-6.394912720E0,-7.515398979E0,4.927267075E0
3.871062323E0,-6.232107162E0,-7.472303391E0,5.027823448E0
3.873046238E0,-6.138733387E0,-7.472303391E0,5.082890034E0
3.875060153E0,-5.932831764E0,-7.448361397E0,5.173870087E0
3.877043222E0,-5.616796970E0,-7.407660007E0,5.185841084E0
3.879056443E0,-5.616796970E0,-7.407660007E0,5.185841084E0
3.881039205E0,-5.566518784E0,-7.400477409E0,5.178658485E0
3.883057043E0,-5.492298603E0,-7.374141216E0,5.183446884E0
3.885040419E0,-5.487510204E0,-7.354987621E0,5.197812080E0
3.887054257E0,-5.511452198E0,-7.350199223E0,5.276820660E0
3.889037633E0,-5.561730385E0,-7.350199223E0,5.365406036E0
3.891051394E0,-5.595249176E0,-7.345410824E0,5.406107426E0
3.893035386E0,-5.676652431E0,-7.335834026E0,5.506663799E0
3.895050454E0,-5.719748020E0,-7.328651428E0,5.540182590E0
3.897063754E0,-5.825092793E0,-7.328651428E0,5.604825974E0
3.899048361E0,-5.913678169E0,-7.338228226E0,5.671864033E0
3.901061584E0,-5.959167957E0,-7.340622425E0,5.707777023E0
3.903044960E0,-6.054935932E0,-7.323863029E0,5.760449409E0
3.905059106E0,-6.121973515E0,-7.323863029E0,5.774814606E0
3.907043021E0,-6.138733387E0,-7.307103634E0,5.758055210E0
3.909056936E0,-6.186617374E0,-7.275979042E0,5.707777023E0
3.911040542E0,-6.193799973E0,-7.218518257E0,5.628767967E0
3.913054996E0,-6.196194172E0,-7.184999466E0,5.585672379E0
3.915037834E0,-6.193799973E0,-7.103596210E0,5.489904404E0
3.917054057E0,-6.143521786E0,-7.015010834E0,5.379771233E0
3.919035663E0,-6.121973515E0,-6.952761650E0,5.310339451E0
3.921051578E0,-6.083666325E0,-6.821080685E0,5.121197224E0
3.923033801E0,-6.047753334E0,-6.682217121E0,4.888959885E0
3.925048485E0,-5.956773758E0,-6.581660271E0,4.797980309E0
3.927062630E0,-5.849034786E0,-6.375759125E0,4.675876141E0
3.929046084E0,-5.779603004E0,-6.279991150E0,4.637568474E0
3.931059306E0,-5.643133640E0,-6.114790916E0,4.577713490E0
3.933043837E0,-5.528211594E0,-5.937620163E0,4.520252705E0
3.935058059E0,-5.482721806E0,-5.853823185E0,4.477157116E0
3.937041051E0,-5.386953831E0,-5.710171223E0,4.333505154E0
3.939056812E0,-5.291185856E0,-5.573701382E0,4.187458992E0
3.941040112E0,-5.231330872E0,-5.511452198E0,4.120420933E0
3.943053410E0,-5.137956619E0,-5.408501625E0,4.003105164E0
3.945037941E0,-5.044582844E0,-5.334281445E0,3.931279182E0
3.947051548E0,-4.996698856E0,-5.298368454E0,3.916913986E0
3.949034617E0,-4.912901878E0,-5.214571476E0,3.897760391E0
3.951049608E0,-4.826710701E0,-5.125985622E0,3.907337189E0
3.953062831E0,-4.797980309E0,-5.094861031E0,3.919308186E0
3.955046515E0,-4.747702122E0,-5.056553841E0,3.981557369E0
3.957062275E0,-4.730942726E0,-5.039794445E0,4.043806553E0
3.959046190E0,-4.709394932E0,-5.035006046E0,4.067748547E0
3.961057952E0,-4.704606533E0,-4.999093056E0,4.106055737E0
3.963042559E0,-4.707000732E0,-4.982333660E0,4.098873138E0
3.965056396E0,-4.714183331E0,-4.953603268E0,4.089296341E0
3.967039158E0,-4.738125324E0,-4.917690277E0,4.082113743E0
3.969054534E0,-4.754884720E0,-4.891354084E0,4.074931145E0
3.971037834E0,-4.807557106E0,-4.860229492E0,4.079719543E0
3.973051748E0,-4.843470097E0,-4.833893299E0,4.089296341E0
3.975036355E0,-4.857835293E0,-4.817133904E0,4.094084740E0
3.977049501E0,-4.905719280E0,-4.805162907E0,4.110844135E0
3.979064570E0,-4.948814869E0,-4.793191910E0,4.122815132E0
3.981048253E0,-4.960785866E0,-4.783615112E0,4.139574528E0
3.983062168E0,-4.970362663E0,-4.793191910E0,4.177882195E0
3.985044622E0,-4.989516258E0,-4.783615112E0,4.213795185E0
3.987059306E0,-4.984727859E0,-4.778826714E0,4.218583584E0
3.989042682E0,-4.948814869E0,-4.757278919E0,4.027047157E0
3.991057751E0,-4.924872875E0,-4.738125324E0,3.703830004E0
3.993041435E0,-4.800374508E0,-4.726154327E0,3.615244627E0
3.995055043E0,-4.560954094E0,-4.740519524E0,3.706224203E0
3.997039341E0,-4.436455727E0,-4.764461517E0,3.857059002E0
3.999053410E0,-4.254496574E0,-4.824316502E0,4.089296341E0
4.001037787E0,-4.199429989E0,-4.788403511E0,4.000710964E0
4.003051010E0,-4.220977783E0,-4.762067318E0,3.804386616E0
4.005033770E0,-4.362235546E0,-4.642356873E0,3.289633036E0
4.007048531E0,-4.563348293E0,-4.474762917E0,2.923320293E0
4.009062677E0,-4.663905144E0,-4.400542736E0,2.868253708E0
4.011046592E0,-4.896142483E0,-4.261679173E0,3.023876667E0
4.013061045E0,-5.094861031E0,-4.182670593E0,3.421314240E0
4.015045037E0,-5.169081688E0,-4.158728123E0,3.643975019E0
4.017059182E0,-5.272032261E0,-4.141968727E0,3.998316765E0
4.019043482E0,-5.286397457E0,-4.161122322E0,4.180276394E0
4.021056704E0,-5.279214859E0,-4.175487995E0,4.187458992E0
4.023039773E0,-5.224148273E0,-4.185064793E0,4.043806553E0
4.025053611E0,-5.188235283E0,-4.173093796E0,3.940855980E0
4.027037064E0,-5.063736439E0,-4.158728123E0,3.742137194E0
4.029051517E0,-4.941632271E0,-4.122815132E0,3.620033026E0
4.031036048E0,-4.881777287E0,-4.110844135E0,3.600879431E0
4.033049578E0,-4.750096321E0,-4.082113743E0,3.569754839E0
4.035063492E0,-4.620809078E0,-4.074931145E0,3.505111217E0
4.037048638E0,-4.568136692E0,-4.055777550E0,3.462015629E0
4.039063707E0,-4.467580318E0,-4.024652958E0,3.390189648E0
4.041044314E0,-4.381389141E0,-3.993528366E0,3.323152065E0
4.043059459E0,-4.343081951E0,-3.993528366E0,3.292027235E0
4.045043066E0,-4.295197964E0,-3.993528366E0,3.246537447E0
4.047056982E0,-4.235342979E0,-4.007893562E0,3.222595453E0
4.049040589E0,-4.206612587E0,-4.003105164E0,3.217807055E0
4.051055118E0,-4.192247391E0,-4.022258759E0,3.234566450E0
4.053038187E0,-4.187458992E0,-4.012681961E0,3.299209833E0
4.055053795E0,-4.194641590E0,-4.022258759E0,3.327940464E0
4.057036325E0,-4.237737179E0,-4.022258759E0,3.371036053E0
4.059051008E0,-4.261679173E0,-4.022258759E0,3.380612850E0
4.061035077E0,-4.304774761E0,-4.043806553E0,3.390189648E0
4.063048300E0,-4.352658749E0,-4.062960148E0,3.359065056E0
4.065061754E0,-4.378994942E0,-4.065354347E0,3.323152065E0
4.067045206E0,-4.438849926E0,-4.074931145E0,3.217807055E0
4.069060198E0,-4.493916512E0,-4.086902142E0,3.136404276E0
4.071043267E0,-4.498704910E0,-4.094084740E0,3.100491285E0
4.073057721E0,-4.522646904E0,-4.146757126E0,3.066972494E0
4.075040866E0,-4.525041103E0,-4.213795185E0,3.095702887E0
4.077056165E0,-4.525041103E0,-4.252102375E0,3.131615877E0
4.079038696E0,-4.505887508E0,-4.323928356E0,3.222595453E0
4.081053765E0,-4.515464306E0,-4.429273129E0,3.292027235E0
4.083037448E0,-4.525041103E0,-4.477157116E0,3.337517262E0
4.085051209E0,-4.525041103E0,-4.584896088E0,3.423708439E0
4.087034970E0,-4.541800499E0,-4.690241337E0,3.481169224E0
4.089049424E0,-4.560954094E0,-4.752490520E0,3.497928619E0
4.091062953E0,-4.575319290E0,-4.886565685E0,3.550601006E0
4.093047253E0,-4.594472885E0,-4.946420670E0,3.572149038E0
4.095061014E0,-4.627991676E0,-5.099649429E0,3.612850428E0
4.097045083E0,-4.654327869E0,-5.216965675E0,3.655946016E0
4.099060074E0,-4.673481941E0,-5.284003258E0,3.672705412E0
4.101042528E0,-4.723760128E0,-5.398924828E0,3.720589399E0
4.103056443E0,-4.730942726E0,-5.547365189E0,3.825934410E0
4.105040358E0,-4.759673119E0,-5.619191170E0,3.888183594E0
4.107054580E0,-4.809951305E0,-5.765237808E0,4.039018154E0
4.109037880E0,-4.857835293E0,-5.923254967E0,4.228160381E0
4.111052102E0,-4.886565685E0,-6.004657745E0,4.323928356E0
4.113035787E0,-4.939238071E0,-6.162675381E0,4.489128113E0
4.115049239E0,-4.991910458E0,-6.327875137E0,4.568136692E0
4.117063385E0,-5.044582844E0,-6.634333134E0,4.584896088E0
4.119045915E0,-5.044582844E0,-6.634333134E0,4.584896088E0
