"Time (s)","Gyroscope x (rad/s)","Gyroscope y (rad/s)","Gyroscope z (rad/s)"
6.973956000E-3,3.298672289E-2,-7.819075137E-2,-4.703662544E-2
9.079485000E-3,3.298672289E-2,-7.819075137E-2,-4.703662544E-2
1.106255400E-2,3.298672289E-2,-7.819075137E-2,-4.703662544E-2
1.307700800E-2,3.298672289E-2,-7.819075137E-2,-4.703662544E-2
1.506099900E-2,3.298672289E-2,-7.819075137E-2,-4.703662544E-2
1.707483700E-2,3.298672289E-2,-7.819075137E-2,-4.703662544E-2
1.905936700E-2,3.298672289E-2,-7.819075137E-2,-4.703662544E-2
2.107351300E-2,3.298672289E-2,-7.819075137E-2,-4.703662544E-2
2.305635000E-2,3.298672289E-2,-7.819075137E-2,-4.703662544E-2
2.507041900E-2,3.298672289E-2,-7.819075137E-2,-4.703662544E-2
2.705379600E-2,3.298672289E-2,-7.819075137E-2,-4.703662544E-2
2.906824900E-2,3.298672289E-2,-7.819075137E-2,-4.703662544E-2
3.105170200E-2,3.298672289E-2,-7.819075137E-2,-4.703662544E-2
3.306607800E-2,3.298672289E-2,-7.819075137E-2,-4.703662544E-2
3.507968600E-2,3.298672289E-2,-7.819075137E-2,-4.703662544E-2
3.706390900E-2,3.298672289E-2,-7.819075137E-2,-4.703662544E-2
3.907713000E-2,3.298672289E-2,-7.819075137E-2,-4.703662544E-2
4.106181500E-2,3.298672289E-2,-7.819075137E-2,-4.703662544E-2
4.307596100E-2,3.298672289E-2,-7.819075137E-2,-4.703662544E-2
4.505987600E-2,3.298672289E-2,-7.819075137E-2,-4.703662544E-2
4.707379000E-2,3.298672289E-2,-7.819075137E-2,-4.703662544E-2
4.905739700E-2,3.298672289E-2,-7.819075137E-2,-4.703662544E-2
5.107069700E-2,3.298672289E-2,-7.819075137E-2,-4.703662544E-2
5.305553500E-2,3.298672289E-2,-7.819075137E-2,-4.703662544E-2
5.506968000E-2,3.298672289E-2,-7.819075137E-2,-4.703662544E-2
5.705313300E-2,3.298672289E-2,-7.819075137E-2,-4.703662544E-2
5.906781800E-2,3.298672289E-2,-7.819075137E-2,-4.703662544E-2
6.105065600E-2,3.298672289E-2,-7.819075137E-2,-4.703662544E-2
6.306449300E-2,3.298672289E-2,-7.819075137E-2,-4.703662544E-2
6.507863900E-2,3.298672289E-2,-7.819075137E-2,-4.703662544E-2
6.706263100E-2,3.298672289E-2,-7.819075137E-2,-4.703662544E-2
6.907608300E-2,3.298672289E-2,-7.819075137E-2,-4.703662544E-2
7.106069100E-2,4.337143153E-2,-1.221730490E-3,-2.871066704E-2
7.307452900E-2,4.398229718E-2,-8.552113548E-3,-2.993239649E-2
7.505790600E-2,4.153883830E-2,-8.552113548E-3,-3.054326214E-2
7.707297300E-2,4.214970022E-2,-1.466076635E-2,-3.359758854E-2
7.905788900E-2,4.398229718E-2,-1.771509275E-2,-3.848451003E-2
8.106903400E-2,4.031710699E-2,-1.893682219E-2,-3.909537569E-2
8.305394900E-2,4.153883830E-2,-2.138028294E-2,-3.970624134E-2
8.506801700E-2,4.153883830E-2,-2.199114859E-2,-4.092797264E-2
8.705139400E-2,4.031710699E-2,-2.382374369E-2,-4.153883830E-2
8.906469400E-2,3.848451003E-2,-2.443460934E-2,-4.337143153E-2
9.107976300E-2,3.848451003E-2,-2.321287990E-2,-4.214970022E-2
9.306306100E-2,3.787364438E-2,-2.260201424E-2,-4.459316283E-2
9.507851500E-2,3.787364438E-2,-2.076941915E-2,-4.276056588E-2
9.706181500E-2,3.848451003E-2,-2.015855350E-2,-3.970624134E-2
9.907626800E-2,3.604105115E-2,-1.527163107E-2,-3.970624134E-2
1.010600280E-1,3.787364438E-2,-7.330383174E-3,-3.787364438E-2
1.030723280E-1,3.909537569E-2,-6.719517522E-3,-3.604105115E-2
1.050565510E-1,3.543018550E-2,3.054326167E-3,-3.420845419E-2
1.070713120E-1,3.604105115E-2,1.282817032E-2,-3.359758854E-2
1.090541490E-1,3.909537569E-2,1.588249579E-2,-3.176499158E-2
1.110688340E-1,3.726277873E-2,2.687807009E-2,-3.176499158E-2
1.130522870E-1,3.665191308E-2,3.115412779E-2,-2.993239649E-2
1.150660480E-1,3.543018550E-2,4.337143153E-2,-2.809980139E-2
1.170805010E-1,3.420845419E-2,5.131268129E-2,-2.565634064E-2
1.190635700E-1,3.665191308E-2,5.497787148E-2,-2.687807009E-2
1.210783310E-1,3.543018550E-2,6.352998316E-2,-2.443460934E-2
1.230620920E-1,3.543018550E-2,6.902777404E-2,-2.260201424E-2
1.250770830E-1,3.481931984E-2,7.086037099E-2,-2.199114859E-2
1.270599210E-1,3.481931984E-2,7.574728876E-2,-2.076941915E-2
1.290739900E-1,3.054326214E-2,8.002334833E-2,-2.076941915E-2
1.310568290E-1,3.237585723E-2,8.429940045E-2,-2.015855350E-2
1.330715120E-1,3.176499158E-2,8.796459436E-2,-2.138028294E-2
1.350555040E-1,3.054326214E-2,8.796459436E-2,-2.015855350E-2
1.370699570E-1,2.871066704E-2,8.918632567E-2,-2.015855350E-2
1.390539490E-1,2.565634064E-2,8.857546002E-2,-2.260201424E-2
1.410675560E-1,2.626720630E-2,8.796459436E-2,-2.443460934E-2
1.430511630E-1,2.382374369E-2,8.674286306E-2,-2.504547499E-2
1.450650780E-1,2.076941915E-2,8.124507964E-2,-2.504547499E-2
1.470788380E-1,2.199114859E-2,8.124507964E-2,-2.993239649E-2
1.490629070E-1,2.138028294E-2,7.513642311E-2,-3.298672289E-2
1.510778990E-1,1.649336144E-2,6.902777404E-2,-3.604105115E-2
1.530600450E-1,1.649336144E-2,6.658431143E-2,-3.787364438E-2
1.550738820E-1,1.404990070E-2,6.108652428E-2,-3.909537569E-2
1.570588740E-1,1.282817032E-2,5.619960278E-2,-4.459316283E-2
1.590736360E-1,7.330383174E-3,5.619960278E-2,-4.459316283E-2
1.610554740E-1,5.497787148E-3,5.131268129E-2,-4.886921868E-2
1.630704650E-1,3.054326167E-3,4.581489414E-2,-4.825835302E-2
1.650535340E-1,0.000000000E0,4.398229718E-2,-5.192354694E-2
1.670676800E-1,6.108652451E-4,4.214970022E-2,-5.192354694E-2
1.690516720E-1,-1.221730490E-3,3.604105115E-2,-5.375614017E-2
1.710655860E-1,-1.832595794E-3,3.115412779E-2,-5.375614017E-2
1.730797320E-1,-4.276056774E-3,2.993239649E-2,-5.314527452E-2
1.750646470E-1,-3.665191587E-3,2.748893574E-2,-5.192354694E-2
1.770772540E-1,-4.886921961E-3,2.321287990E-2,-4.886921868E-2
1.790623990E-1,-6.719517522E-3,2.138028294E-2,-4.886921868E-2
1.810756990E-1,-7.330383174E-3,2.076941915E-2,-4.703662544E-2
1.830593060E-1,-7.941247895E-3,1.832595654E-2,-4.825835302E-2
1.850725290E-1,-7.941247895E-3,1.588249579E-2,-4.459316283E-2
1.870565200E-1,-8.552113548E-3,1.527163107E-2,-4.642575979E-2
1.890713580E-1,-9.773843922E-3,8.552113548E-3,-3.970624134E-2
1.910547350E-1,-9.162978269E-3,1.099557430E-2,-3.909537569E-2
1.930684960E-1,-9.162978269E-3,9.773843922E-3,-3.787364438E-2
1.950521790E-1,-9.162978269E-3,1.160643995E-2,-3.604105115E-2
1.970676330E-1,-1.160643995E-2,9.162978269E-3,-3.665191308E-2
1.990500090E-1,-7.941247895E-3,7.941247895E-3,-3.543018550E-2
2.010653860E-1,-1.038470957E-2,9.162978269E-3,-3.481931984E-2
2.030786850E-1,-1.343903504E-2,7.330383174E-3,-3.543018550E-2
2.050626770E-1,-1.527163107E-2,9.162978269E-3,-3.359758854E-2
2.070765150E-1,-1.710422710E-2,8.552113548E-3,-3.359758854E-2
2.090604300E-1,-1.588249579E-2,5.497787148E-3,-3.298672289E-2
2.110743440E-1,-1.710422710E-2,5.497787148E-3,-3.298672289E-2
2.130582590E-1,-1.832595654E-2,7.941247895E-3,-3.543018550E-2
2.150727120E-1,-1.832595654E-2,4.886921961E-3,-3.665191308E-2
2.170558580E-1,-2.015855350E-2,6.108652335E-3,-3.726277873E-2
2.190711570E-1,-2.260201424E-2,7.941247895E-3,-3.665191308E-2
2.210536870E-1,-2.199114859E-2,6.719517522E-3,-3.665191308E-2
2.230672180E-1,-2.076941915E-2,7.941247895E-3,-3.848451003E-2
2.250512100E-1,-2.260201424E-2,8.552113548E-3,-4.031710699E-2
2.270652780E-1,-2.443460934E-2,8.552113548E-3,-3.787364438E-2
2.290795010E-1,-2.382374369E-2,1.038470957E-2,-3.726277873E-2
2.310628000E-1,-2.382374369E-2,1.221730467E-2,-3.726277873E-2
2.330770220E-1,-2.260201424E-2,1.466076635E-2,-3.298672289E-2
2.350606300E-1,-2.443460934E-2,1.404990070E-2,-3.359758854E-2
2.370754680E-1,-2.626720630E-2,1.588249579E-2,-3.359758854E-2
2.390603060E-1,-2.687807009E-2,1.466076635E-2,-2.932153270E-2
2.410723740E-1,-2.504547499E-2,1.404990070E-2,-2.871066704E-2
2.430572890E-1,-2.382374369E-2,1.343903504E-2,-2.809980139E-2
2.450705120E-1,-2.748893574E-2,1.038470957E-2,-2.748893574E-2
2.470547340E-1,-2.871066704E-2,9.162978269E-3,-2.443460934E-2
2.490685720E-1,-2.809980139E-2,7.941247895E-3,-2.321287990E-2
2.510520250E-1,-2.932153270E-2,5.497787148E-3,-2.260201424E-2
2.530657860E-1,-2.871066704E-2,1.832595794E-3,-2.138028294E-2
2.550507010E-1,-3.298672289E-2,6.108652451E-4,-1.893682219E-2
2.570642310E-1,-3.176499158E-2,1.221730490E-3,-1.954768784E-2
2.590796080E-1,-3.359758854E-2,0.000000000E0,-2.015855350E-2
2.610621380E-1,-3.359758854E-2,-2.443460980E-3,-1.771509275E-2
2.630759760E-1,-3.543018550E-2,-1.832595794E-3,-1.893682219E-2
2.650595830E-1,-3.787364438E-2,-1.221730490E-3,-1.893682219E-2
2.670740360E-1,-3.909537569E-2,-6.108652451E-4,-2.015855350E-2
2.690577970E-1,-4.092797264E-2,-2.443460980E-3,-2.076941915E-2
2.710712510E-1,-4.398229718E-2,0.000000000E0,-2.443460934E-2
2.730552420E-1,-4.031710699E-2,-3.665191587E-3,-2.748893574E-2
2.750687720E-1,-3.604105115E-2,-5.497787148E-3,-2.993239649E-2
2.770528410E-1,-3.115412779E-2,-6.108652335E-3,-3.420845419E-2
2.790639100E-1,-2.809980139E-2,-5.497787148E-3,-3.298672289E-2
2.810817470E-1,-2.871066704E-2,-6.108652335E-3,-3.115412779E-2
2.830644320E-1,-2.993239649E-2,-6.108652335E-3,-2.993239649E-2
2.850791930E-1,-2.993239649E-2,-1.221730490E-3,-2.626720630E-2
2.870631850E-1,-3.420845419E-2,2.443460980E-3,-2.199114859E-2
2.890774070E-1,-3.604105115E-2,6.108652335E-3,-1.771509275E-2
2.910610910E-1,-3.054326214E-2,3.665191587E-3,-1.282817032E-2
2.930743140E-1,-2.993239649E-2,7.330383174E-3,-6.108652335E-3
2.950585370E-1,-2.932153270E-2,9.162978269E-3,-6.108652335E-3
2.970729890E-1,-2.932153270E-2,6.719517522E-3,0.000000000E0
2.990569810E-1,-2.504547499E-2,4.886921961E-3,4.886921961E-3
3.010702810E-1,-2.504547499E-2,4.886921961E-3,5.497787148E-3
3.030533500E-1,-2.321287990E-2,4.886921961E-3,6.108652335E-3
3.050678020E-1,-2.076941915E-2,4.886921961E-3,7.941247895E-3
3.070517170E-1,-1.893682219E-2,4.276056774E-3,8.552113548E-3
3.090662480E-1,-1.710422710E-2,6.108652335E-3,6.108652335E-3
3.110492400E-1,-1.832595654E-2,4.276056774E-3,5.497787148E-3
3.130633850E-1,-1.832595654E-2,7.330383174E-3,6.108652335E-3
3.150775300E-1,-1.771509275E-2,9.162978269E-3,2.443460980E-3
3.170615990E-1,-1.771509275E-2,1.221730467E-2,4.276056774E-3
3.190775910E-1,-1.771509275E-2,1.466076635E-2,3.665191587E-3
3.210587360E-1,-1.954768784E-2,1.954768784E-2,3.054326167E-3
3.230735740E-1,-1.771509275E-2,2.015855350E-2,4.886921961E-3
3.250569510E-1,-1.649336144E-2,2.382374369E-2,5.497787148E-3
3.270707890E-1,-1.649336144E-2,2.993239649E-2,6.719517522E-3
3.290544730E-1,-1.527163107E-2,3.054326214E-2,7.330383174E-3
3.310689260E-1,-1.527163107E-2,3.237585723E-2,9.162978269E-3
3.330523030E-1,-1.343903504E-2,3.543018550E-2,1.343903504E-2
3.350670640E-1,-1.282817032E-2,3.604105115E-2,1.282817032E-2
3.370509780E-1,-1.343903504E-2,3.543018550E-2,1.466076635E-2
3.390648930E-1,-1.588249579E-2,3.543018550E-2,1.649336144E-2
3.410795770E-1,-1.527163107E-2,3.665191308E-2,1.893682219E-2
3.430617230E-1,-1.466076635E-2,3.909537569E-2,1.954768784E-2
3.450756370E-1,-1.282817032E-2,4.214970022E-2,2.321287990E-2
3.470602450E-1,-1.282817032E-2,4.092797264E-2,2.138028294E-2
3.490737750E-1,-9.162978269E-3,4.337143153E-2,2.138028294E-2
3.510583060E-1,-7.330383174E-3,4.398229718E-2,2.382374369E-2
3.530722200E-1,-4.276056774E-3,4.764748737E-2,2.504547499E-2
3.550555190E-1,-3.054326167E-3,4.886921868E-2,2.260201424E-2
3.570708960E-1,-1.221730490E-3,5.009094998E-2,2.260201424E-2
3.590531190E-1,0.000000000E0,4.703662544E-2,2.138028294E-2
3.610681100E-1,3.054326167E-3,4.886921868E-2,1.954768784E-2
3.630511790E-1,3.665191587E-3,4.825835302E-2,2.015855350E-2
3.650656320E-1,2.443460980E-3,4.642575979E-2,1.893682219E-2
3.670484700E-1,5.497787148E-3,4.703662544E-2,1.893682219E-2
3.690635380E-1,6.108652335E-3,4.581489414E-2,1.832595654E-2
3.710773000E-1,6.719517522E-3,4.581489414E-2,1.710422710E-2
3.730610610E-1,5.497787148E-3,4.642575979E-2,1.588249579E-2
3.750763600E-1,8.552113548E-3,4.764748737E-2,1.893682219E-2
3.770588130E-1,1.221730467E-2,4.825835302E-2,1.893682219E-2
3.790736510E-1,1.160643995E-2,5.009094998E-2,1.832595654E-2
3.810570280E-1,1.710422710E-2,5.253441259E-2,2.015855350E-2
3.830702500E-1,1.710422710E-2,5.314527452E-2,1.893682219E-2
3.850544720E-1,1.466076635E-2,5.619960278E-2,1.710422710E-2
3.870683110E-1,2.015855350E-2,5.619960278E-2,1.954768784E-2
3.890516870E-1,1.771509275E-2,6.108652428E-2,2.076941915E-2
3.910670630E-1,1.649336144E-2,6.108652428E-2,2.138028294E-2
3.930495930E-1,1.527163107E-2,6.719517708E-2,1.710422710E-2
3.950637390E-1,1.649336144E-2,6.902777404E-2,2.382374369E-2
3.970794230E-1,1.343903504E-2,7.208210230E-2,1.954768784E-2
3.990631070E-1,1.466076635E-2,7.635815442E-2,2.199114859E-2
4.010753300E-1,1.282817032E-2,8.185594529E-2,2.015855350E-2
4.030600140E-1,1.160643995E-2,8.246681094E-2,2.199114859E-2
4.050735440E-1,9.162978269E-3,8.552113175E-2,2.138028294E-2
4.070577660E-1,1.099557430E-2,8.735372871E-2,2.076941915E-2
4.090716040E-1,9.773843922E-3,9.040805697E-2,2.382374369E-2
4.110555960E-1,7.941247895E-3,9.529497474E-2,2.321287990E-2
4.130692040E-1,6.108652335E-3,9.590584040E-2,2.260201424E-2
4.150535020E-1,6.719517522E-3,9.957103431E-2,2.504547499E-2
4.170673410E-1,4.276056774E-3,1.044579595E-1,2.382374369E-2
4.190516400E-1,4.886921961E-3,1.014036313E-1,2.443460934E-2
4.210651710E-1,1.221730490E-3,1.032362282E-1,2.748893574E-2
4.230488540E-1,1.221730490E-3,1.014036313E-1,2.993239649E-2
4.250629230E-1,2.443460980E-3,1.020144969E-1,3.054326214E-2
4.270767610E-1,-6.108652451E-4,9.834930301E-2,3.298672289E-2
4.290595990E-1,-1.832595794E-3,9.346238524E-2,3.543018550E-2
4.310752060E-1,-4.276056774E-3,9.224065393E-2,3.665191308E-2
4.330576590E-1,-8.552113548E-3,8.918632567E-2,3.665191308E-2
4.350714970E-1,-1.038470957E-2,8.002334833E-2,4.153883830E-2
4.370567200E-1,-1.282817032E-2,8.063421398E-2,4.337143153E-2
4.390693260E-1,-1.160643995E-2,7.513642311E-2,4.825835302E-2
4.410546260E-1,-1.404990070E-2,7.391469181E-2,4.703662544E-2
4.430677720E-1,-1.649336144E-2,6.841690838E-2,4.642575979E-2
4.450517640E-1,-2.015855350E-2,6.536258012E-2,5.070181563E-2
4.470659090E-1,-2.015855350E-2,6.291911751E-2,5.436700583E-2
4.490493620E-1,-2.199114859E-2,5.986479297E-2,5.558873713E-2
4.510644310E-1,-2.382374369E-2,5.681046844E-2,5.803219974E-2
4.530779610E-1,-2.382374369E-2,5.497787148E-2,5.925392732E-2
4.550615680E-1,-2.504547499E-2,5.436700583E-2,6.047565863E-2
4.570754830E-1,-2.748893574E-2,5.192354694E-2,6.108652428E-2
4.590597060E-1,-2.932153270E-2,5.192354694E-2,6.230825558E-2
4.610732360E-1,-3.359758854E-2,5.131268129E-2,6.475171447E-2
4.630576120E-1,-3.604105115E-2,5.192354694E-2,6.597344577E-2
4.650710660E-1,-3.543018550E-2,5.192354694E-2,6.475171447E-2
4.670541350E-1,-3.726277873E-2,4.948008433E-2,6.536258012E-2
4.690685870E-1,-3.909537569E-2,5.009094998E-2,6.475171447E-2
4.710520410E-1,-4.031710699E-2,5.314527452E-2,6.658431143E-2
4.730664170E-1,-4.031710699E-2,5.192354694E-2,6.536258012E-2
4.750501020E-1,-4.092797264E-2,5.314527452E-2,6.658431143E-2
4.770654770E-1,-4.276056588E-2,5.253441259E-2,6.414084882E-2
4.790494690E-1,-4.214970022E-2,5.314527452E-2,6.536258012E-2
4.810612310E-1,-4.153883830E-2,5.314527452E-2,6.352998316E-2
4.830762990E-1,-4.886921868E-2,5.558873713E-2,6.475171447E-2
4.850602140E-1,-4.703662544E-2,5.314527452E-2,6.414084882E-2
4.870744360E-1,-5.009094998E-2,5.253441259E-2,6.230825558E-2
4.890571980E-1,-5.070181563E-2,5.070181563E-2,6.169738993E-2
4.910718820E-1,-5.131268129E-2,5.131268129E-2,6.047565863E-2
4.930559500E-1,-5.131268129E-2,4.825835302E-2,5.925392732E-2
4.950704030E-1,-5.742133409E-2,4.886921868E-2,5.742133409E-2
4.970540110E-1,-5.864306539E-2,4.948008433E-2,5.497787148E-2
4.990681570E-1,-5.986479297E-2,4.764748737E-2,5.375614017E-2
5.010515320E-1,-6.230825558E-2,4.337143153E-2,5.253441259E-2
5.030654470E-1,-6.414084882E-2,4.520402849E-2,5.070181563E-2
5.050493620E-1,-6.352998316E-2,4.337143153E-2,4.948008433E-2
5.070632000E-1,-6.597344577E-2,4.398229718E-2,4.764748737E-2
5.090776530E-1,-6.719517708E-2,4.214970022E-2,4.825835302E-2
5.110611070E-1,-6.963863969E-2,4.276056588E-2,4.825835302E-2
5.130745600E-1,-7.147123665E-2,4.031710699E-2,4.703662544E-2
5.150586290E-1,-7.452555746E-2,4.153883830E-2,4.398229718E-2
5.170721590E-1,-8.185594529E-2,4.214970022E-2,4.276056588E-2
5.190558430E-1,-8.613199741E-2,3.909537569E-2,4.581489414E-2
5.210696810E-1,-8.979719132E-2,4.092797264E-2,4.703662544E-2
5.230545960E-1,-9.651670605E-2,3.787364438E-2,4.459316283E-2
5.250686640E-1,-9.712757170E-2,3.420845419E-2,4.398229718E-2
5.270526560E-1,-9.468411654E-2,3.176499158E-2,4.520402849E-2
5.290661860E-1,-8.796459436E-2,2.993239649E-2,4.581489414E-2
5.310496400E-1,-8.185594529E-2,2.443460934E-2,4.520402849E-2
5.330630930E-1,-8.185594529E-2,2.138028294E-2,4.642575979E-2
5.350793920E-1,-8.552113175E-2,2.199114859E-2,4.703662544E-2
5.370616150E-1,-8.918632567E-2,1.954768784E-2,4.764748737E-2
5.390766830E-1,-9.712757170E-2,1.771509275E-2,5.436700583E-2
5.410597520E-1,-1.050688252E-1,1.649336144E-2,5.375614017E-2
5.430732820E-1,-1.069014147E-1,1.343903504E-2,5.558873713E-2
5.450575820E-1,-1.105666086E-1,8.552113548E-3,5.925392732E-2
5.470714190E-1,-1.014036313E-1,2.443460980E-3,6.047565863E-2
5.490551040E-1,-9.896016866E-2,-1.221730490E-3,5.803219974E-2
5.510692490E-1,-9.162978828E-2,-9.162978269E-3,5.803219974E-2
5.530526260E-1,-9.224065393E-2,-1.527163107E-2,5.864306539E-2
5.550667710E-1,-9.224065393E-2,-1.527163107E-2,5.803219974E-2
5.570516090E-1,-9.712757170E-2,-1.954768784E-2,5.864306539E-2
5.590661390E-1,-9.590584040E-2,-2.260201424E-2,5.619960278E-2
5.610479010E-1,-9.773843735E-2,-2.565634064E-2,5.803219974E-2
5.630632760E-1,-9.834930301E-2,-3.115412779E-2,5.619960278E-2
5.650771140E-1,-9.651670605E-2,-3.298672289E-2,5.558873713E-2
5.670604910E-1,-9.651670605E-2,-3.481931984E-2,5.558873713E-2
5.690744060E-1,-9.651670605E-2,-3.604105115E-2,5.558873713E-2
5.710587050E-1,-9.529497474E-2,-3.726277873E-2,5.436700583E-2
5.730725430E-1,-9.407325089E-2,-3.726277873E-2,5.497787148E-2
5.750565350E-1,-9.407325089E-2,-3.604105115E-2,5.253441259E-2
5.770702960E-1,-9.529497474E-2,-3.543018550E-2,5.314527452E-2
5.790545950E-1,-9.773843735E-2,-3.298672289E-2,5.131268129E-2
5.810687410E-1,-1.001819000E-1,-3.359758854E-2,5.009094998E-2
5.830512710E-1,-1.032362282E-1,-3.298672289E-2,4.703662544E-2
5.850657250E-1,-1.014036313E-1,-3.237585723E-2,4.520402849E-2
5.870491000E-1,-9.651670605E-2,-3.115412779E-2,4.337143153E-2
5.890638620E-1,-9.468411654E-2,-2.993239649E-2,3.970624134E-2
5.910779310E-1,-8.857546002E-2,-2.871066704E-2,4.153883830E-2
5.930610760E-1,-8.735372871E-2,-2.443460934E-2,4.153883830E-2
5.950749140E-1,-8.735372871E-2,-1.954768784E-2,4.031710699E-2
5.970595210E-1,-9.346238524E-2,-1.343903504E-2,4.276056588E-2
5.990724360E-1,-1.007927656E-1,-5.497787148E-3,4.520402849E-2
6.010576590E-1,-1.026253626E-1,-1.221730490E-3,4.642575979E-2
6.030711110E-1,-1.056796908E-1,3.665191587E-3,4.825835302E-2
6.050544880E-1,-1.038470939E-1,9.773843922E-3,4.703662544E-2
6.070684030E-1,-9.957103431E-2,1.343903504E-2,5.009094998E-2
6.090529340E-1,-9.346238524E-2,1.588249579E-2,4.764748737E-2
6.110668480E-1,-9.162978828E-2,1.649336144E-2,4.581489414E-2
6.130501470E-1,-8.918632567E-2,2.076941915E-2,4.337143153E-2
6.150652930E-1,-9.101892263E-2,2.626720630E-2,4.153883830E-2
6.170482850E-1,-9.101892263E-2,2.809980139E-2,3.970624134E-2
6.190628150E-1,-9.162978828E-2,2.748893574E-2,3.726277873E-2
6.210772680E-1,-9.224065393E-2,2.809980139E-2,3.909537569E-2
6.230602600E-1,-8.918632567E-2,2.871066704E-2,3.665191308E-2
6.250735590E-1,-9.101892263E-2,2.871066704E-2,3.848451003E-2
6.270581660E-1,-8.857546002E-2,2.993239649E-2,3.787364438E-2
6.290719280E-1,-8.796459436E-2,2.932153270E-2,3.787364438E-2
6.310556120E-1,-8.491026610E-2,2.687807009E-2,3.726277873E-2
6.330694490E-1,-8.429940045E-2,2.871066704E-2,3.726277873E-2
6.350528260E-1,-8.063421398E-2,2.748893574E-2,3.543018550E-2
6.370685100E-1,-7.757988572E-2,2.871066704E-2,3.176499158E-2
6.390531940E-1,-7.635815442E-2,2.687807009E-2,3.420845419E-2
6.410642620E-1,-7.696902007E-2,2.565634064E-2,3.054326214E-2
6.430488700E-1,-7.452555746E-2,2.260201424E-2,2.932153270E-2
6.450626310E-1,-7.513642311E-2,2.138028294E-2,2.932153270E-2
6.470774690E-1,-7.513642311E-2,2.138028294E-2,2.871066704E-2
6.490607680E-1,-7.574728876E-2,1.771509275E-2,2.748893574E-2
6.510749900E-1,-7.452555746E-2,1.404990070E-2,2.504547499E-2
6.530583670E-1,-7.269296050E-2,1.160643995E-2,2.382374369E-2
6.550727440E-1,-7.391469181E-2,9.162978269E-3,2.199114859E-2
6.570558890E-1,-7.147123665E-2,6.108652335E-3,2.260201424E-2
6.590714960E-1,-7.086037099E-2,6.108652335E-3,2.382374369E-2
6.610545650E-1,-7.086037099E-2,3.054326167E-3,2.199114859E-2
6.630690950E-1,-7.208210230E-2,5.497787148E-3,2.138028294E-2
6.650517790E-1,-7.269296050E-2,5.497787148E-3,1.954768784E-2
6.670663090E-1,-7.024950534E-2,7.330383174E-3,1.771509275E-2
6.690496860E-1,-6.963863969E-2,7.330383174E-3,1.954768784E-2
6.710643700E-1,-6.658431143E-2,1.099557430E-2,1.832595654E-2
6.730477460E-1,-6.780604273E-2,1.221730467E-2,1.710422710E-2
6.750612760E-1,-6.291911751E-2,1.588249579E-2,1.832595654E-2
6.770761140E-1,-6.108652428E-2,1.893682219E-2,1.649336144E-2
6.790591060E-1,-5.864306539E-2,1.893682219E-2,1.771509275E-2
6.810736360E-1,-5.742133409E-2,2.382374369E-2,1.954768784E-2
6.830567050E-1,-5.619960278E-2,2.687807009E-2,1.954768784E-2
6.850710810E-1,-5.497787148E-2,2.565634064E-2,2.015855350E-2
6.870548430E-1,-5.131268129E-2,2.626720630E-2,2.260201424E-2
6.890689870E-1,-4.825835302E-2,3.115412779E-2,2.138028294E-2
6.910522870E-1,-4.520402849E-2,3.176499158E-2,2.321287990E-2
6.930670480E-1,-4.092797264E-2,3.115412779E-2,2.626720630E-2
6.950505020E-1,-3.909537569E-2,2.993239649E-2,2.932153270E-2
6.970649540E-1,-3.787364438E-2,3.176499158E-2,2.809980139E-2
6.990494850E-1,-3.237585723E-2,3.176499158E-2,3.054326214E-2
7.010627850E-1,-2.871066704E-2,2.932153270E-2,3.237585723E-2
7.030762380E-1,-2.809980139E-2,2.932153270E-2,3.359758854E-2
7.050599980E-1,-2.626720630E-2,2.748893574E-2,3.359758854E-2
7.070741440E-1,-2.626720630E-2,2.932153270E-2,3.298672289E-2
7.090586750E-1,-2.076941915E-2,2.443460934E-2,3.787364438E-2
7.110722050E-1,-1.710422710E-2,2.138028294E-2,3.726277873E-2
7.130561960E-1,-2.015855350E-2,2.260201424E-2,3.848451003E-2
7.150698040E-1,-1.710422710E-2,2.138028294E-2,3.909537569E-2
7.170544110E-1,-1.588249579E-2,1.832595654E-2,3.604105115E-2
7.190697880E-1,-1.710422710E-2,1.771509275E-2,3.543018550E-2
7.210510090E-1,-1.588249579E-2,1.588249579E-2,3.176499158E-2
7.230656940E-1,-1.771509275E-2,1.466076635E-2,2.871066704E-2
7.250493780E-1,-1.710422710E-2,1.404990070E-2,2.809980139E-2
7.270632930E-1,-1.832595654E-2,1.160643995E-2,2.565634064E-2
7.290771300E-1,-1.710422710E-2,1.343903504E-2,2.260201424E-2
7.310614300E-1,-1.771509275E-2,1.466076635E-2,2.076941915E-2
7.330754990E-1,-1.771509275E-2,1.466076635E-2,1.893682219E-2
7.350601060E-1,-1.588249579E-2,1.343903504E-2,1.649336144E-2
7.370730970E-1,-1.832595654E-2,1.527163107E-2,1.588249579E-2
7.390573200E-1,-1.588249579E-2,1.527163107E-2,1.588249579E-2
7.410708500E-1,-1.649336144E-2,1.527163107E-2,1.404990070E-2
7.430551500E-1,-1.649336144E-2,1.527163107E-2,1.343903504E-2
7.450687570E-1,-1.710422710E-2,1.588249579E-2,1.404990070E-2
7.470514410E-1,-1.649336144E-2,1.710422710E-2,1.527163107E-2
7.490665100E-1,-1.771509275E-2,1.527163107E-2,1.404990070E-2
7.510502710E-1,-1.649336144E-2,1.649336144E-2,1.466076635E-2
7.530647240E-1,-1.771509275E-2,1.649336144E-2,1.527163107E-2
7.550480230E-1,-1.832595654E-2,1.649336144E-2,1.404990070E-2
7.570619380E-1,-1.832595654E-2,1.710422710E-2,1.588249579E-2
7.590776220E-1,-1.771509275E-2,1.527163107E-2,1.466076635E-2
7.610603060E-1,-1.710422710E-2,1.527163107E-2,1.466076635E-2
7.630745290E-1,-1.649336144E-2,1.771509275E-2,1.404990070E-2
7.650572130E-1,-1.588249579E-2,1.527163107E-2,1.282817032E-2
7.670720500E-1,-1.466076635E-2,1.649336144E-2,1.588249579E-2
7.690553500E-1,-1.404990070E-2,1.649336144E-2,1.099557430E-2
7.710698030E-1,-1.404990070E-2,1.893682219E-2,1.099557430E-2
7.730528720E-1,-1.099557430E-2,1.893682219E-2,1.160643995E-2
7.750676330E-1,-1.221730467E-2,1.954768784E-2,1.038470957E-2
7.770507780E-1,-9.773843922E-3,2.076941915E-2,1.038470957E-2
7.790657700E-1,-1.099557430E-2,2.138028294E-2,8.552113548E-3
7.810501470E-1,-1.038470957E-2,2.199114859E-2,6.108652335E-3
7.830630610E-1,-9.162978269E-3,2.260201424E-2,7.941247895E-3
7.850774380E-1,-7.330383174E-3,1.771509275E-2,3.054326167E-3
7.870605070E-1,-7.941247895E-3,1.893682219E-2,1.832595794E-3
7.890752680E-1,-6.108652335E-3,1.832595654E-2,-6.108652451E-4
7.910589510E-1,-7.941247895E-3,1.343903504E-2,-1.832595794E-3
7.930721740E-1,-7.941247895E-3,1.221730467E-2,-2.443460980E-3
7.950555510E-1,-6.719517522E-3,1.099557430E-2,-6.108652335E-3
7.970716200E-1,-6.719517522E-3,9.162978269E-3,-7.941247895E-3
7.990568410E-1,-9.162978269E-3,7.941247895E-3,-8.552113548E-3
8.010678330E-1,-1.038470957E-2,7.941247895E-3,-1.282817032E-2
8.030525180E-1,-1.160643995E-2,5.497787148E-3,-9.773843922E-3
8.050665870E-1,-1.221730467E-2,3.665191587E-3,-1.343903504E-2
8.070496550E-1,-1.343903504E-2,4.276056774E-3,-1.160643995E-2
8.090638770E-1,-1.404990070E-2,3.665191587E-3,-1.282817032E-2
8.110474850E-1,-1.466076635E-2,4.886921961E-3,-1.221730467E-2
8.130614000E-1,-1.527163107E-2,3.054326167E-3,-1.404990070E-2
8.150761600E-1,-1.404990070E-2,1.221730490E-3,-1.282817032E-2
8.170597670E-1,-1.710422710E-2,4.276056774E-3,-1.343903504E-2
8.190745290E-1,-1.649336144E-2,0.000000000E0,-1.282817032E-2
8.210575980E-1,-1.404990070E-2,6.108652451E-4,-1.282817032E-2
8.230718190E-1,-1.771509275E-2,1.221730490E-3,-1.404990070E-2
8.250545040E-1,-1.771509275E-2,2.443460980E-3,-1.343903504E-2
8.270689570E-1,-1.893682219E-2,6.108652451E-4,-1.466076635E-2
8.290523340E-1,-1.893682219E-2,1.221730490E-3,-1.404990070E-2
8.310667860E-1,-2.076941915E-2,1.221730490E-3,-1.343903504E-2
8.330501630E-1,-2.260201424E-2,6.108652451E-4,-1.343903504E-2
8.350643860E-1,-2.443460934E-2,0.000000000E0,-1.221730467E-2
8.370486850E-1,-2.565634064E-2,1.221730490E-3,-1.160643995E-2
8.390624460E-1,-2.565634064E-2,6.108652451E-4,-1.099557430E-2
8.410781300E-1,-2.504547499E-2,-2.443460980E-3,-9.773843922E-3
8.430599680E-1,-2.443460934E-2,-3.054326167E-3,-1.099557430E-2
8.450741900E-1,-2.382374369E-2,-3.665191587E-3,-9.773843922E-3
8.470578740E-1,-2.443460934E-2,-6.108652335E-3,-1.221730467E-2
8.490716350E-1,-2.321287990E-2,-9.773843922E-3,-1.221730467E-2
8.510560120E-1,-2.504547499E-2,-6.719517522E-3,-1.343903504E-2
8.530700800E-1,-2.443460934E-2,-1.099557430E-2,-1.282817032E-2
8.550540720E-1,-2.504547499E-2,-1.038470957E-2,-1.710422710E-2
8.570679870E-1,-2.687807009E-2,-1.099557430E-2,-1.832595654E-2
8.590525180E-1,-2.504547499E-2,-1.038470957E-2,-1.588249579E-2
8.610655090E-1,-2.687807009E-2,-1.038470957E-2,-1.893682219E-2
8.630500390E-1,-2.443460934E-2,-1.404990070E-2,-1.710422710E-2
8.650629540E-1,-2.565634064E-2,-1.160643995E-2,-1.771509275E-2
8.670771770E-1,-2.321287990E-2,-1.160643995E-2,-2.015855350E-2
8.690608600E-1,-2.260201424E-2,-1.099557430E-2,-2.138028294E-2
8.710746210E-1,-2.199114859E-2,-1.221730467E-2,-2.260201424E-2
8.730586130E-1,-2.382374369E-2,-7.941247895E-3,-2.443460934E-2
8.750719130E-1,-2.321287990E-2,-7.330383174E-3,-2.565634064E-2
8.770574430E-1,-2.076941915E-2,-7.330383174E-3,-2.626720630E-2
8.790724350E-1,-2.138028294E-2,-4.886921961E-3,-2.932153270E-2
8.810534270E-1,-2.138028294E-2,-1.832595794E-3,-3.054326214E-2
8.830694190E-1,-2.076941915E-2,-1.221730490E-3,-2.993239649E-2
8.850521020E-1,-2.199114859E-2,3.054326167E-3,-3.054326214E-2
8.870663250E-1,-2.199114859E-2,6.108652335E-3,-3.176499158E-2
8.890496240E-1,-2.138028294E-2,6.719517522E-3,-2.993239649E-2
8.910637700E-1,-2.199114859E-2,9.162978269E-3,-3.115412779E-2
8.930477610E-1,-2.260201424E-2,1.160643995E-2,-3.054326214E-2
8.950625990E-1,-1.832595654E-2,1.221730467E-2,-3.115412779E-2
8.970760530E-1,-1.954768784E-2,1.466076635E-2,-2.809980139E-2
8.990600450E-1,-1.954768784E-2,1.404990070E-2,-2.993239649E-2
9.010738820E-1,-1.954768784E-2,1.404990070E-2,-2.626720630E-2
9.030579510E-1,-1.832595654E-2,1.282817032E-2,-2.748893574E-2
9.050723280E-1,-1.893682219E-2,1.343903504E-2,-2.504547499E-2
9.070547810E-1,-1.710422710E-2,1.221730467E-2,-2.504547499E-2
9.090692340E-1,-1.832595654E-2,1.099557430E-2,-2.321287990E-2
9.110533030E-1,-1.893682219E-2,6.719517522E-3,-2.015855350E-2
9.130670640E-1,-1.832595654E-2,6.719517522E-3,-2.015855350E-2
9.150505170E-1,-1.710422710E-2,4.276056774E-3,-1.771509275E-2
9.170655850E-1,-1.832595654E-2,4.886921961E-3,-1.404990070E-2
9.190482700E-1,-2.076941915E-2,4.276056774E-3,-1.343903504E-2
9.210621850E-1,-1.771509275E-2,3.054326167E-3,-1.466076635E-2
9.230769450E-1,-1.710422710E-2,1.832595794E-3,-1.343903504E-2
9.250606290E-1,-2.076941915E-2,3.054326167E-3,-9.162978269E-3
9.270741600E-1,-1.893682219E-2,3.054326167E-3,-1.038470957E-2
9.290584590E-1,-1.893682219E-2,2.443460980E-3,-8.552113548E-3
9.310726040E-1,-2.076941915E-2,1.832595794E-3,-1.038470957E-2
9.330562890E-1,-1.893682219E-2,0.000000000E0,-9.773843922E-3
9.350707420E-1,-1.893682219E-2,6.108652451E-4,-1.099557430E-2
9.370537340E-1,-1.832595654E-2,0.000000000E0,-1.099557430E-2
9.390682640E-1,-1.710422710E-2,-6.108652451E-4,-9.162978269E-3
9.410527940E-1,-1.588249579E-2,-6.108652451E-4,-1.221730467E-2
9.430660940E-1,-1.649336144E-2,-2.443460980E-3,-9.773843922E-3
9.450500090E-1,-1.771509275E-2,-3.665191587E-3,-1.160643995E-2
9.470630000E-1,-1.466076635E-2,-4.276056774E-3,-1.221730467E-2
9.490472230E-1,-1.588249579E-2,-4.886921961E-3,-1.343903504E-2
9.510613690E-1,-1.343903504E-2,-4.276056774E-3,-1.099557430E-2
9.530749760E-1,-1.588249579E-2,-6.108652335E-3,-1.404990070E-2
9.550588900E-1,-1.527163107E-2,-6.108652335E-3,-1.221730467E-2
9.570736510E-1,-1.588249579E-2,-6.719517522E-3,-8.552113548E-3
9.590591820E-1,-1.466076635E-2,-8.552113548E-3,-1.221730467E-2
9.610702510E-1,-1.710422710E-2,-7.330383174E-3,-1.282817032E-2
9.630554720E-1,-1.771509275E-2,-9.773843922E-3,-1.038470957E-2
9.650690800E-1,-1.588249579E-2,-1.282817032E-2,-1.099557430E-2
9.670521490E-1,-1.343903504E-2,-1.343903504E-2,-1.099557430E-2
9.690662180E-1,-1.832595654E-2,-1.404990070E-2,-1.099557430E-2
9.710502090E-1,-1.832595654E-2,-1.527163107E-2,-1.038470957E-2
9.730641240E-1,-1.771509275E-2,-1.588249579E-2,-1.099557430E-2
9.750481160E-1,-2.260201424E-2,-1.527163107E-2,-1.160643995E-2
9.770625690E-1,-2.199114859E-2,-1.649336144E-2,-1.466076635E-2
9.790772530E-1,-2.076941915E-2,-1.710422710E-2,-1.221730467E-2
9.810606290E-1,-2.504547499E-2,-1.282817032E-2,-1.404990070E-2
9.830739290E-1,-2.565634064E-2,-1.160643995E-2,-1.282817032E-2
9.850575360E-1,-2.565634064E-2,-1.160643995E-2,-1.221730467E-2
9.870717580E-1,-2.809980139E-2,-6.719517522E-3,-1.404990070E-2
9.890560580E-1,-2.626720630E-2,-7.941247895E-3,-1.221730467E-2
9.910701270E-1,-3.054326214E-2,-4.886921961E-3,-1.588249579E-2
9.930532730E-1,-3.237585723E-2,-4.276056774E-3,-1.404990070E-2
9.950676480E-1,-3.298672289E-2,-2.443460980E-3,-1.649336144E-2
9.970513330E-1,-3.420845419E-2,1.832595794E-3,-1.466076635E-2
9.990661710E-1,-3.481931984E-2,1.832595794E-3,-1.343903504E-2
1.001048547E0,-3.481931984E-2,3.665191587E-3,-1.343903504E-2
1.003063308E0,-3.420845419E-2,7.941247895E-3,-1.221730467E-2
1.005046992E0,-3.481931984E-2,1.099557430E-2,-1.343903504E-2
1.007060907E0,-3.481931984E-2,1.038470957E-2,-1.160643995E-2
1.009074975E0,-3.359758854E-2,1.282817032E-2,-8.552113548E-3
1.011059044E0,-3.359758854E-2,1.527163107E-2,-7.330383174E-3
1.013073190E0,-3.298672289E-2,1.893682219E-2,-7.330383174E-3
1.015057105E0,-3.298672289E-2,2.015855350E-2,-3.665191587E-3
1.017070403E0,-3.787364438E-2,2.382374369E-2,1.832595794E-3
1.019055011E0,-3.604105115E-2,2.748893574E-2,3.665191587E-3
1.021068464E0,-3.481931984E-2,2.809980139E-2,7.330383174E-3
1.023052533E0,-3.848451003E-2,3.115412779E-2,8.552113548E-3
1.025066063E0,-4.031710699E-2,3.298672289E-2,1.099557430E-2
1.027049132E0,-3.848451003E-2,3.665191308E-2,1.221730467E-2
1.029064201E0,-3.787364438E-2,3.604105115E-2,1.404990070E-2
1.031048116E0,-3.787364438E-2,3.848451003E-2,1.893682219E-2
1.033061645E0,-3.604105115E-2,3.909537569E-2,2.015855350E-2
1.035075560E0,-3.787364438E-2,4.153883830E-2,2.138028294E-2
1.037060475E0,-3.848451003E-2,4.398229718E-2,2.015855350E-2
1.039074621E0,-4.031710699E-2,4.581489414E-2,2.260201424E-2
1.041056766E0,-3.909537569E-2,4.581489414E-2,2.382374369E-2
1.043071758E0,-4.214970022E-2,4.825835302E-2,2.565634064E-2
1.045055442E0,-4.214970022E-2,5.070181563E-2,2.565634064E-2
1.047069896E0,-4.214970022E-2,5.131268129E-2,2.871066704E-2
1.049052656E0,-4.214970022E-2,5.314527452E-2,3.054326214E-2
1.051066879E0,-4.153883830E-2,5.131268129E-2,2.932153270E-2
1.053051179E0,-4.092797264E-2,5.192354694E-2,3.054326214E-2
1.055065863E0,-3.787364438E-2,5.253441259E-2,3.054326214E-2
1.057048931E0,-3.848451003E-2,5.314527452E-2,3.054326214E-2
1.059063461E0,-4.092797264E-2,4.948008433E-2,2.687807009E-2
1.061047146E0,-4.031710699E-2,4.886921868E-2,2.748893574E-2
1.063061291E0,-3.848451003E-2,4.581489414E-2,2.321287990E-2
1.065074821E0,-4.092797264E-2,4.520402849E-2,2.687807009E-2
1.067058505E0,-4.031710699E-2,4.337143153E-2,2.687807009E-2
1.069072574E0,-4.153883830E-2,4.642575979E-2,2.504547499E-2
1.071055951E0,-4.153883830E-2,4.581489414E-2,2.382374369E-2
1.073070096E0,-4.214970022E-2,5.070181563E-2,2.443460934E-2
1.075054088E0,-4.153883830E-2,4.825835302E-2,2.504547499E-2
1.077068926E0,-4.398229718E-2,5.192354694E-2,2.748893574E-2
1.079051072E0,-4.214970022E-2,5.558873713E-2,2.871066704E-2
1.081066370E0,-4.153883830E-2,5.864306539E-2,2.871066704E-2
1.083049208E0,-4.398229718E-2,5.986479297E-2,3.115412779E-2
1.085063354E0,-4.398229718E-2,6.291911751E-2,3.543018550E-2
1.087046962E0,-4.581489414E-2,6.352998316E-2,3.848451003E-2
1.089061491E0,-4.459316283E-2,6.536258012E-2,3.848451003E-2
1.091075945E0,-4.398229718E-2,6.780604273E-2,4.031710699E-2
1.093058398E0,-4.703662544E-2,6.902777404E-2,4.092797264E-2
1.095073775E0,-4.581489414E-2,6.902777404E-2,4.581489414E-2
1.097057074E0,-4.825835302E-2,6.902777404E-2,4.642575979E-2
1.099071835E0,-4.703662544E-2,6.841690838E-2,4.886921868E-2
1.101054981E0,-5.070181563E-2,6.841690838E-2,5.070181563E-2
1.103069434E0,-5.070181563E-2,6.719517708E-2,5.070181563E-2
1.105052733E0,-5.253441259E-2,6.352998316E-2,5.131268129E-2
1.107066956E0,-5.070181563E-2,5.925392732E-2,5.497787148E-2
1.109050255E0,-5.436700583E-2,5.864306539E-2,5.436700583E-2
1.111064478E0,-5.253441259E-2,5.497787148E-2,5.497787148E-2
1.113048085E0,-5.375614017E-2,4.948008433E-2,5.681046844E-2
1.115061384E0,-5.192354694E-2,4.764748737E-2,5.864306539E-2
1.117076684E0,-5.436700583E-2,4.459316283E-2,5.803219974E-2
1.119061907E0,-5.558873713E-2,3.970624134E-2,5.803219974E-2
1.121073667E0,-5.742133409E-2,3.909537569E-2,5.986479297E-2
1.123057044E0,-5.986479297E-2,3.604105115E-2,5.986479297E-2
1.125072112E0,-5.925392732E-2,3.420845419E-2,5.803219974E-2
1.127055797E0,-6.108652428E-2,3.298672289E-2,5.925392732E-2
1.129069865E0,-6.230825558E-2,2.993239649E-2,5.864306539E-2
1.131053241E0,-6.169738993E-2,2.871066704E-2,6.108652428E-2
1.133068003E0,-6.291911751E-2,2.565634064E-2,6.169738993E-2
1.135052610E0,-6.597344577E-2,2.504547499E-2,6.047565863E-2
1.137066139E0,-6.230825558E-2,2.626720630E-2,6.108652428E-2
1.139050131E0,-6.291911751E-2,2.687807009E-2,6.230825558E-2
1.141063431E0,-6.658431143E-2,2.809980139E-2,6.658431143E-2
1.143046115E0,-6.597344577E-2,2.626720630E-2,6.475171447E-2
1.145061183E0,-6.414084882E-2,2.809980139E-2,6.902777404E-2
1.147075022E0,-6.841690838E-2,3.176499158E-2,7.208210230E-2
1.149058475E0,-6.658431143E-2,3.176499158E-2,7.452555746E-2
1.151072312E0,-6.963863969E-2,3.543018550E-2,7.757988572E-2
1.153056843E0,-6.902777404E-2,3.848451003E-2,8.307767659E-2
1.155070450E0,-7.024950534E-2,4.092797264E-2,8.613199741E-2
1.157055288E0,-7.513642311E-2,4.581489414E-2,8.979719132E-2
1.159067972E0,-7.452555746E-2,4.520402849E-2,9.285151958E-2
1.161052502E0,-7.574728876E-2,5.009094998E-2,9.834930301E-2
1.163066725E0,-8.002334833E-2,5.436700583E-2,1.020144969E-1
1.165049794E0,-8.002334833E-2,5.253441259E-2,1.026253626E-1
1.167063862E0,-8.307767659E-2,6.169738993E-2,1.093448773E-1
1.169048161E0,-8.124507964E-2,6.230825558E-2,1.105666086E-1
1.171061692E0,-8.185594529E-2,6.230825558E-2,1.130100712E-1
1.173074992E0,-8.246681094E-2,6.414084882E-2,1.166752651E-1
1.175059829E0,-8.368854225E-2,6.414084882E-2,1.203404516E-1
1.177073975E0,-8.429940045E-2,6.230825558E-2,1.209513173E-1
1.179057659E0,-8.857546002E-2,6.169738993E-2,1.258382350E-1
1.181071805E0,-9.040805697E-2,5.864306539E-2,1.282816976E-1
1.183054873E0,-9.040805697E-2,5.497787148E-2,1.270599663E-1
1.185069095E0,-9.346238524E-2,5.192354694E-2,1.313360333E-1
1.187053087E0,-9.224065393E-2,4.764748737E-2,1.337794960E-1
1.189067156E0,-9.529497474E-2,4.031710699E-2,1.368338168E-1
1.191051147E0,-9.712757170E-2,3.298672289E-2,1.386664063E-1
1.193064447E0,-9.896016866E-2,2.932153270E-2,1.435533315E-1
1.195048439E0,-1.007927656E-1,1.649336144E-2,1.441642046E-1
1.197063200E0,-1.032362282E-1,7.941247895E-3,1.435533315E-1
1.199047422E0,-1.032362282E-1,4.276056774E-3,1.459967941E-1
1.201059491E0,-1.069014147E-1,-8.552113548E-3,1.441642046E-1
1.203075483E0,-1.087340117E-1,-1.771509275E-2,1.472185254E-1
1.205058167E0,-1.111774743E-1,-2.321287990E-2,1.484402567E-1
1.207072004E0,-1.154535338E-1,-3.237585723E-2,1.496619880E-1
1.209055766E0,-1.154535338E-1,-3.787364438E-2,1.508837193E-1
1.211069912E0,-1.178969890E-1,-4.398229718E-2,1.514945775E-1
1.213054211E0,-1.227839142E-1,-4.764748737E-2,1.496619880E-1
1.215067741E0,-1.233947799E-1,-5.253441259E-2,1.521054506E-1
1.217052040E0,-1.215621829E-1,-5.681046844E-2,1.496619880E-1
1.219066109E0,-1.252273768E-1,-5.925392732E-2,1.527163088E-1
1.221049255E0,-1.270599663E-1,-5.925392732E-2,1.502728462E-1
1.223063631E0,-1.282816976E-1,-6.169738993E-2,1.496619880E-1
1.225046161E0,-1.295034289E-1,-6.414084882E-2,1.514945775E-1
1.227060923E0,-1.288925707E-1,-6.291911751E-2,1.514945775E-1
1.229076221E0,-1.331686229E-1,-6.475171447E-2,1.502728462E-1
1.231058367E0,-1.343903542E-1,-6.230825558E-2,1.514945775E-1
1.233073513E0,-1.331686229E-1,-6.108652428E-2,1.533271819E-1
1.235056582E0,-1.343903542E-1,-5.803219974E-2,1.569923609E-1
1.237070111E0,-1.368338168E-1,-5.131268129E-2,1.594358236E-1
1.239054026E0,-1.368338168E-1,-5.131268129E-2,1.594358236E-1
1.241067941E0,-1.350012124E-1,-4.764748737E-2,1.612684280E-1
1.243052472E0,-1.368338168E-1,-4.092797264E-2,1.631010175E-1
1.245066617E0,-1.380555481E-1,-3.726277873E-2,1.655444801E-1
1.247050070E0,-1.356120855E-1,-3.115412779E-2,1.679879427E-1
1.249063601E0,-1.343903542E-1,-2.687807009E-2,1.704314053E-1
1.251048208E0,-1.343903542E-1,-2.443460934E-2,1.753183305E-1
1.253062661E0,-1.331686229E-1,-1.832595654E-2,1.747074574E-1
1.255046576E0,-1.343903542E-1,-1.588249579E-2,1.747074574E-1
1.257060183E0,-1.343903542E-1,-9.773843922E-3,1.765400618E-1
1.259074637E0,-1.319468915E-1,-7.941247895E-3,1.820378453E-1
1.261058012E0,-1.319468915E-1,-3.665191587E-3,1.832595766E-1
1.263071851E0,-1.288925707E-1,2.443460980E-3,1.826487035E-1
1.265055227E0,-1.264491081E-1,6.108652335E-3,1.826487035E-1
1.267068988E0,-1.264491081E-1,1.160643995E-2,1.850921661E-1
1.269053595E0,-1.246165112E-1,1.343903504E-2,1.844813079E-1
1.271067125E0,-1.246165112E-1,2.260201424E-2,1.844813079E-1
1.273051117E0,-1.227839142E-1,2.199114859E-2,1.844813079E-1
1.275065032E0,-1.209513173E-1,2.871066704E-2,1.832595766E-1
1.277049562E0,-1.215621829E-1,3.543018550E-2,1.844813079E-1
1.279065861E0,-1.209513173E-1,3.665191308E-2,1.844813079E-1
1.281046546E0,-1.203404516E-1,3.970624134E-2,1.863138974E-1
1.283060922E0,-1.185078546E-1,4.581489414E-2,1.844813079E-1
1.285074529E0,-1.172861308E-1,4.764748737E-2,1.832595766E-1
1.287058752E0,-1.160643995E-1,4.948008433E-2,1.808161139E-1
1.289072282E0,-1.172861308E-1,5.070181563E-2,1.808161139E-1
1.291056043E0,-1.172861308E-1,5.131268129E-2,1.808161139E-1
1.293070419E0,-1.191187203E-1,5.375614017E-2,1.777617931E-1
1.295055026E0,-1.209513173E-1,5.558873713E-2,1.777617931E-1
1.297068557E0,-1.227839142E-1,5.681046844E-2,1.777617931E-1
1.299052856E0,-1.246165112E-1,5.803219974E-2,1.753183305E-1
1.301066771E0,-1.252273768E-1,5.864306539E-2,1.765400618E-1
1.303050070E0,-1.295034289E-1,6.291911751E-2,1.716531366E-1
1.305063908E0,-1.301143020E-1,6.414084882E-2,1.728748679E-1
1.307047900E0,-1.325577646E-1,6.658431143E-2,1.698205322E-1
1.309061507E0,-1.350012124E-1,7.208210230E-2,1.710422635E-1
1.311045191E0,-1.380555481E-1,7.757988572E-2,1.692096740E-1
1.313059645E0,-1.398881376E-1,7.696902007E-2,1.698205322E-1
1.315072789E0,-1.423316002E-1,8.368854225E-2,1.685988009E-1
1.317058397E0,-1.441642046E-1,8.613199741E-2,1.679879427E-1
1.319070697E0,-1.453859210E-1,8.857546002E-2,1.685988009E-1
1.321056150E0,-1.496619880E-1,9.651670605E-2,1.685988009E-1
1.323069449E0,-1.502728462E-1,9.834930301E-2,1.704314053E-1
1.325053056E0,-1.545489132E-1,1.032362282E-1,1.704314053E-1
1.327067279E0,-1.563815027E-1,1.062905490E-1,1.704314053E-1
1.329050886E0,-1.569923609E-1,1.093448773E-1,1.747074574E-1
1.331064800E0,-1.606575549E-1,1.105666086E-1,1.740965992E-1
1.333048408E0,-1.624901593E-1,1.130100712E-1,1.795943826E-1
1.335063477E0,-1.612684280E-1,1.136209369E-1,1.808161139E-1
1.337046315E0,-1.655444801E-1,1.154535338E-1,1.832595766E-1
1.339060767E0,-1.655444801E-1,1.185078546E-1,1.899790913E-1
1.341073990E0,-1.667662114E-1,1.185078546E-1,1.912008226E-1
1.343057982E0,-1.673770845E-1,1.209513173E-1,1.960877478E-1
1.345072436E0,-1.692096740E-1,1.215621829E-1,1.997529417E-1
1.347056119E0,-1.667662114E-1,1.209513173E-1,2.003637999E-1
1.349070265E0,-1.685988009E-1,1.246165112E-1,2.034181207E-1
1.351054488E0,-1.722639948E-1,1.252273768E-1,2.034181207E-1
1.353067480E0,-1.704314053E-1,1.227839142E-1,2.083050460E-1
1.355051778E0,-1.734857261E-1,1.258382350E-1,2.101376504E-1
1.357066155E0,-1.722639948E-1,1.252273768E-1,2.101376504E-1
1.359050839E0,-1.747074574E-1,1.276708394E-1,2.113593817E-1
1.361062754E0,-1.759291887E-1,1.307251602E-1,2.144137025E-1
1.363047053E0,-1.777617931E-1,1.319468915E-1,2.138028294E-1
1.365060661E0,-1.795943826E-1,1.343903542E-1,2.162462920E-1
1.367075345E0,-1.832595766E-1,1.374446750E-1,2.174680233E-1
1.369059029E0,-1.850921661E-1,1.392772794E-1,2.174680233E-1
1.371073482E0,-1.881465018E-1,1.435533315E-1,2.174680233E-1
1.373056935E0,-1.918116808E-1,1.441642046E-1,2.180788964E-1
1.375071620E0,-1.948660165E-1,1.429424733E-1,2.174680233E-1
1.377054381E0,-1.960877478E-1,1.453859210E-1,2.174680233E-1
1.379069449E0,-2.015855312E-1,1.447750628E-1,2.168571651E-1
1.381052287E0,-2.034181207E-1,1.466076523E-1,2.138028294E-1
1.383067587E0,-2.076941878E-1,1.447750628E-1,2.162462920E-1
1.385050117E0,-2.119702399E-1,1.459967941E-1,2.174680233E-1
1.387065108E0,-2.156354338E-1,1.484402567E-1,2.168571651E-1
1.389047639E0,-2.211332172E-1,1.496619880E-1,2.150245607E-1
1.391062631E0,-2.235766798E-1,1.502728462E-1,2.156354338E-1
1.393045469E0,-2.315179259E-1,1.527163088E-1,2.162462920E-1
1.395059537E0,-2.394591719E-1,1.545489132E-1,2.186897546E-1
1.397075529E0,-2.412917763E-1,1.563815027E-1,2.193006277E-1
1.399057367E0,-2.467895597E-1,1.631010175E-1,2.186897546E-1
1.401071896E0,-2.559525371E-1,1.649336219E-1,2.211332172E-1
1.403055504E0,-2.565633953E-1,1.673770845E-1,2.193006277E-1
1.405069649E0,-2.614503205E-1,1.716531366E-1,2.235766798E-1
1.407053411E0,-2.645046413E-1,1.734857261E-1,2.241875380E-1
1.409066940E0,-2.675589919E-1,1.777617931E-1,2.235766798E-1
1.411050855E0,-2.724458873E-1,1.808161139E-1,2.260201424E-1
1.413065386E0,-2.767219543E-1,1.844813079E-1,2.278527319E-1
1.415049378E0,-2.773328125E-1,1.869247705E-1,2.272418737E-1
1.417063138E0,-2.816088796E-1,1.881465018E-1,2.302961946E-1
1.419047207E0,-2.840523422E-1,1.887573600E-1,2.315179259E-1
1.421061276E0,-2.864958048E-1,1.899790913E-1,2.302961946E-1
1.423044345E0,-2.895501256E-1,1.899790913E-1,2.327396572E-1
1.425059105E0,-2.901609838E-1,1.899790913E-1,2.321287990E-1
1.427073328E0,-2.944370508E-1,1.869247705E-1,2.309070677E-1
1.429056935E0,-2.950479090E-1,1.820378453E-1,2.272418737E-1
1.431070235E0,-2.974913716E-1,1.802052408E-1,2.266310006E-1
1.433054226E0,-2.962696552E-1,1.765400618E-1,2.235766798E-1
1.435067372E0,-3.017674387E-1,1.692096740E-1,2.205223590E-1
1.437052056E0,-3.023782969E-1,1.661553532E-1,2.211332172E-1
1.439067356E0,-3.054326177E-1,1.588249654E-1,2.174680233E-1
1.441048962E0,-3.072652221E-1,1.533271819E-1,2.138028294E-1
1.443064646E0,-3.078760803E-1,1.502728462E-1,2.131919712E-1
1.445048254E0,-3.103195429E-1,1.423316002E-1,2.058615834E-1
1.447061553E0,-3.097086847E-1,1.417207420E-1,2.064724565E-1
1.449045468E0,-3.139847219E-1,1.350012124E-1,1.991420686E-1
1.451060229E0,-3.139847219E-1,1.325577646E-1,1.948660165E-1
1.453073759E0,-3.164281845E-1,1.264491081E-1,1.918116808E-1
1.455057828E0,-3.158173263E-1,1.264491081E-1,1.844813079E-1
1.457071050E0,-3.152064681E-1,1.233947799E-1,1.759291887E-1
1.459055888E0,-3.176499307E-1,1.221730486E-1,1.753183305E-1
1.461069419E0,-3.213151097E-1,1.227839142E-1,1.692096740E-1
1.463053411E0,-3.200933933E-1,1.227839142E-1,1.624901593E-1
1.465066940E0,-3.200933933E-1,1.240056455E-1,1.600466967E-1
1.467050624E0,-3.194825351E-1,1.227839142E-1,1.551597714E-1
1.469064847E0,-3.188716471E-1,1.252273768E-1,1.490511149E-1
1.471047916E0,-3.207042515E-1,1.282816976E-1,1.490511149E-1
1.473063292E0,-3.188716471E-1,1.307251602E-1,1.447750628E-1
1.475045976E0,-3.164281845E-1,1.368338168E-1,1.447750628E-1
1.477060122E0,-3.152064681E-1,1.380555481E-1,1.417207420E-1
1.479074037E0,-3.158173263E-1,1.429424733E-1,1.429424733E-1
1.481057720E0,-3.133738637E-1,1.435533315E-1,1.417207420E-1
1.483072482E0,-3.121521473E-1,1.496619880E-1,1.435533315E-1
1.485056089E0,-3.121521473E-1,1.545489132E-1,1.453859210E-1
1.487069927E0,-3.127630055E-1,1.600466967E-1,1.423316002E-1
1.489053610E0,-3.103195429E-1,1.661553532E-1,1.459967941E-1
1.491067833E0,-3.090978265E-1,1.698205322E-1,1.441642046E-1
1.493051210E0,-3.066543639E-1,1.728748679E-1,1.466076523E-1
1.495066586E0,-3.054326177E-1,1.783726513E-1,1.472185254E-1
1.497048962E0,-3.036000133E-1,1.844813079E-1,1.490511149E-1
1.499064339E0,-3.023782969E-1,1.857030392E-1,1.478293836E-1
1.501047792E0,-3.029891551E-1,1.912008226E-1,1.472185254E-1
1.503061630E0,-3.011565804E-1,1.948660165E-1,1.496619880E-1
1.505045006E0,-3.005456924E-1,1.985312104E-1,1.502728462E-1
1.507058536E0,-2.999348342E-1,2.009746730E-1,1.478293836E-1
1.509072990E0,-2.999348342E-1,2.052507252E-1,1.508837193E-1
1.511056674E0,-2.999348342E-1,2.064724565E-1,1.478293836E-1
1.513070511E0,-2.974913716E-1,2.119702399E-1,1.472185254E-1
1.515054196E0,-2.993239760E-1,2.144137025E-1,1.466076523E-1
1.517069803E0,-2.999348342E-1,2.144137025E-1,1.459967941E-1
1.519053872E0,-2.981022298E-1,2.156354338E-1,1.423316002E-1
1.521065248E0,-2.962696552E-1,2.144137025E-1,1.411098689E-1
1.523050086E0,-2.956587672E-1,2.174680233E-1,1.386664063E-1
1.525063924E0,-2.962696552E-1,2.199114859E-1,1.350012124E-1
1.527047301E0,-2.962696552E-1,2.199114859E-1,1.319468915E-1
1.529061522E0,-2.932153046E-1,2.211332172E-1,1.295034289E-1
1.531045745E0,-2.883284092E-1,2.223549485E-1,1.258382350E-1
1.533059968E0,-2.889392674E-1,2.223549485E-1,1.252273768E-1
1.535074959E0,-2.846632004E-1,2.211332172E-1,1.233947799E-1
1.537057720E0,-2.822197378E-1,2.254092693E-1,1.221730486E-1
1.539071866E0,-2.834414840E-1,2.254092693E-1,1.233947799E-1
1.541055627E0,-2.816088796E-1,2.254092693E-1,1.258382350E-1
1.543069464E0,-2.779437006E-1,2.247984111E-1,1.288925707E-1
1.545052841E0,-2.748893499E-1,2.278527319E-1,1.301143020E-1
1.547066602E0,-2.742784917E-1,2.278527319E-1,1.343903542E-1
1.549050902E0,-2.712241709E-1,2.284636050E-1,1.368338168E-1
1.551065047E0,-2.693915665E-1,2.290744632E-1,1.398881376E-1
1.553048731E0,-2.693915665E-1,2.272418737E-1,1.453859210E-1
1.555062262E0,-2.675589919E-1,2.272418737E-1,1.478293836E-1
1.557047484E0,-2.651155293E-1,2.302961946E-1,1.533271819E-1
1.559060398E0,-2.620611787E-1,2.290744632E-1,1.576032341E-1
1.561075775E0,-2.602286041E-1,2.272418737E-1,1.612684280E-1
1.563057998E0,-2.577851415E-1,2.284636050E-1,1.655444801E-1
1.565072682E0,-2.528982162E-1,2.284636050E-1,1.673770845E-1
1.567056135E0,-2.516764700E-1,2.254092693E-1,1.710422635E-1
1.569069973E0,-2.480112910E-1,2.260201424E-1,1.710422635E-1
1.571053965E0,-2.461786866E-1,2.260201424E-1,1.734857261E-1
1.573068111E0,-2.467895597E-1,2.266310006E-1,1.728748679E-1
1.575052409E0,-2.400700450E-1,2.241875380E-1,1.753183305E-1
1.577065863E0,-2.376265824E-1,2.247984111E-1,1.759291887E-1
1.579049932E0,-2.364048511E-1,2.266310006E-1,1.759291887E-1
1.581064078E0,-2.339613885E-1,2.260201424E-1,1.753183305E-1
1.583047453E0,-2.315179259E-1,2.235766798E-1,1.753183305E-1
1.585061522E0,-2.278527319E-1,2.241875380E-1,1.740965992E-1
1.587044899E0,-2.247984111E-1,2.254092693E-1,1.734857261E-1
1.589059352E0,-2.217440903E-1,2.235766798E-1,1.710422635E-1
1.591072651E0,-2.205223590E-1,2.229658216E-1,1.710422635E-1
1.593056566E0,-2.150245607E-1,2.229658216E-1,1.704314053E-1
1.595070481E0,-2.144137025E-1,2.229658216E-1,1.692096740E-1
1.597055704E0,-2.125810981E-1,2.229658216E-1,1.667662114E-1
1.599070772E0,-2.107485086E-1,2.205223590E-1,1.649336219E-1
1.601051918E0,-2.095267773E-1,2.193006277E-1,1.637118906E-1
1.603066371E0,-2.076941878E-1,2.180788964E-1,1.594358236E-1
1.605051056E0,-2.052507252E-1,2.156354338E-1,1.563815027E-1
1.607064585E0,-2.028072625E-1,2.186897546E-1,1.551597714E-1
1.609047654E0,-2.034181207E-1,2.174680233E-1,1.539380401E-1
1.611062108E0,-2.021963894E-1,2.156354338E-1,1.539380401E-1
1.613045715E0,-1.997529417E-1,2.150245607E-1,1.496619880E-1
1.615060552E0,-1.997529417E-1,2.138028294E-1,1.453859210E-1
1.617044467E0,-1.973094791E-1,2.131919712E-1,1.441642046E-1
1.619059536E0,-1.960877478E-1,2.095267773E-1,1.392772794E-1
1.621072835E0,-1.954768747E-1,2.070833147E-1,1.374446750E-1
1.623055288E0,-1.960877478E-1,2.070833147E-1,1.350012124E-1
1.625069973E0,-1.954768747E-1,2.015855312E-1,1.331686229E-1
1.627053734E0,-1.942551434E-1,1.985312104E-1,1.288925707E-1
1.629067879E0,-1.936442852E-1,1.985312104E-1,1.282816976E-1
1.631051486E0,-1.924225539E-1,1.948660165E-1,1.282816976E-1
1.633065401E0,-1.924225539E-1,1.936442852E-1,1.276708394E-1
1.635048393E0,-1.948660165E-1,1.893682331E-1,1.246165112E-1
1.637064077E0,-1.930334121E-1,1.869247705E-1,1.233947799E-1
1.639046607E0,-1.948660165E-1,1.881465018E-1,1.240056455E-1
1.641061907E0,-1.960877478E-1,1.863138974E-1,1.227839142E-1
1.643044668E0,-1.960877478E-1,1.814269722E-1,1.203404516E-1
1.645058890E0,-1.948660165E-1,1.838704348E-1,1.227839142E-1
1.647072651E0,-1.930334121E-1,1.832595766E-1,1.203404516E-1
1.649057258E0,-1.918116808E-1,1.832595766E-1,1.185078546E-1
1.651070174E0,-1.942551434E-1,1.826487035E-1,1.185078546E-1
1.653054549E0,-1.912008226E-1,1.844813079E-1,1.166752651E-1
1.655069003E0,-1.887573600E-1,1.826487035E-1,1.148426682E-1
1.657052687E0,-1.887573600E-1,1.838704348E-1,1.136209369E-1
1.659066525E0,-1.863138974E-1,1.838704348E-1,1.130100712E-1
1.661051055E0,-1.814269722E-1,1.814269722E-1,1.111774743E-1
1.663064354E0,-1.802052408E-1,1.844813079E-1,1.117883399E-1
1.665047962E0,-1.771509200E-1,1.850921661E-1,1.117883399E-1
1.667062108E0,-1.753183305E-1,1.857030392E-1,1.136209369E-1
1.669045868E0,-1.728748679E-1,1.863138974E-1,1.130100712E-1
1.671059014E0,-1.722639948E-1,1.869247705E-1,1.105666086E-1
1.673074390E0,-1.649336219E-1,1.850921661E-1,1.123992056E-1
1.675057228E0,-1.643227488E-1,1.869247705E-1,1.136209369E-1
1.677072527E0,-1.588249654E-1,1.875356287E-1,1.148426682E-1
1.679056596E0,-1.569923609E-1,1.844813079E-1,1.172861308E-1
1.681069203E0,-1.521054506E-1,1.857030392E-1,1.166752651E-1
1.683053503E0,-1.478293836E-1,1.814269722E-1,1.166752651E-1
1.685067571E0,-1.429424733E-1,1.802052408E-1,1.166752651E-1
1.687051025E0,-1.392772794E-1,1.795943826E-1,1.172861308E-1
1.689064555E0,-1.337794960E-1,1.740965992E-1,1.185078546E-1
1.691049086E0,-1.319468915E-1,1.722639948E-1,1.185078546E-1
1.693063230E0,-1.288925707E-1,1.673770845E-1,1.136209369E-1
1.695046376E0,-1.246165112E-1,1.618792862E-1,1.172861308E-1
1.697060445E0,-1.246165112E-1,1.606575549E-1,1.142318025E-1
1.699045129E0,-1.215621829E-1,1.539380401E-1,1.105666086E-1
1.701058351E0,-1.172861308E-1,1.502728462E-1,1.087340117E-1
1.703073036E0,-1.142318025E-1,1.484402567E-1,1.075122803E-1
1.705055874E0,-1.093448773E-1,1.447750628E-1,1.038470939E-1
1.707070019E0,-1.087340117E-1,1.423316002E-1,1.001819000E-1
1.709053088E0,-1.075122803E-1,1.435533315E-1,9.834930301E-2
1.711068080E0,-1.038470939E-1,1.447750628E-1,9.529497474E-2
1.713051148E0,-1.038470939E-1,1.423316002E-1,9.285151958E-2
1.715065986E0,-1.032362282E-1,1.459967941E-1,8.979719132E-2
1.717049055E0,-9.651670605E-2,1.484402567E-1,8.613199741E-2
1.719060739E0,-9.346238524E-2,1.459967941E-1,8.735372871E-2
1.721047500E0,-9.101892263E-2,1.490511149E-1,8.796459436E-2
1.723061030E0,-9.285151958E-2,1.508837193E-1,8.918632567E-2
1.725045252E0,-8.918632567E-2,1.496619880E-1,8.613199741E-2
1.727059167E0,-8.918632567E-2,1.539380401E-1,8.552113175E-2
1.729073929E0,-8.918632567E-2,1.551597714E-1,8.368854225E-2
1.731057227E0,-8.979719132E-2,1.527163088E-1,8.735372871E-2
1.733071989E0,-8.613199741E-2,1.508837193E-1,8.796459436E-2
1.735055365E0,-8.491026610E-2,1.514945775E-1,8.796459436E-2
1.737069511E0,-8.552113175E-2,1.521054506E-1,9.040805697E-2
1.739052887E0,-8.368854225E-2,1.478293836E-1,8.857546002E-2
1.741067033E0,-8.368854225E-2,1.514945775E-1,8.857546002E-2
1.743050178E0,-8.368854225E-2,1.490511149E-1,8.918632567E-2
1.745064555E0,-8.246681094E-2,1.484402567E-1,9.101892263E-2
1.747048854E0,-8.307767659E-2,1.484402567E-1,9.162978828E-2
1.749061769E0,-8.002334833E-2,1.496619880E-1,9.285151958E-2
1.751045530E0,-8.307767659E-2,1.490511149E-1,8.918632567E-2
1.753060291E0,-8.307767659E-2,1.508837193E-1,9.040805697E-2
1.755043282E0,-8.368854225E-2,1.563815027E-1,9.285151958E-2
1.757058659E0,-8.613199741E-2,1.563815027E-1,9.224065393E-2
1.759073420E0,-8.429940045E-2,1.563815027E-1,9.162978828E-2
1.761055335E0,-8.552113175E-2,1.600466967E-1,9.651670605E-2
1.763070018E0,-8.491026610E-2,1.624901593E-1,9.346238524E-2
1.765054010E0,-8.429940045E-2,1.612684280E-1,9.346238524E-2
1.767067618E0,-8.246681094E-2,1.643227488E-1,9.407325089E-2
1.769051302E0,-8.307767659E-2,1.649336219E-1,9.285151958E-2
1.771065447E0,-7.941248268E-2,1.637118906E-1,9.285151958E-2
1.773048824E0,-7.880161703E-2,1.618792862E-1,9.285151958E-2
1.775063893E0,-7.941248268E-2,1.606575549E-1,9.285151958E-2
1.777047269E0,-7.819075137E-2,1.569923609E-1,8.979719132E-2
1.779062568E0,-8.002334833E-2,1.545489132E-1,8.735372871E-2
1.781045406E0,-7.941248268E-2,1.521054506E-1,8.613199741E-2
1.783059167E0,-7.819075137E-2,1.459967941E-1,8.185594529E-2
1.785072697E0,-7.880161703E-2,1.411098689E-1,8.002334833E-2
1.787056458E0,-7.757988572E-2,1.368338168E-1,7.696902007E-2
1.789070604E0,-7.757988572E-2,1.307251602E-1,6.963863969E-2
1.791053596E0,-7.757988572E-2,1.197295859E-1,6.658431143E-2
1.793068356E0,-7.880161703E-2,1.172861308E-1,6.291911751E-2
1.795051810E0,-7.880161703E-2,1.117883399E-1,5.864306539E-2
1.797066494E0,-7.941248268E-2,1.026253626E-1,5.070181563E-2
1.799049563E0,-7.880161703E-2,9.896016866E-2,4.886921868E-2
1.801065015E0,-7.819075137E-2,9.590584040E-2,4.520402849E-2
1.803047777E0,-7.941248268E-2,8.979719132E-2,3.909537569E-2
1.805061615E0,-7.880161703E-2,8.735372871E-2,3.604105115E-2
1.807046222E0,-7.757988572E-2,8.307767659E-2,3.298672289E-2
1.809059367E0,-7.941248268E-2,8.124507964E-2,2.993239649E-2
1.811074205E0,-7.941248268E-2,7.452555746E-2,2.626720630E-2
1.813056890E0,-7.452555746E-2,6.780604273E-2,2.321287990E-2
1.815072266E0,-7.696902007E-2,6.719517708E-2,2.260201424E-2
1.817055103E0,-7.696902007E-2,5.925392732E-2,2.382374369E-2
1.819070095E0,-7.880161703E-2,5.742133409E-2,1.954768784E-2
1.821053857E0,-7.757988572E-2,5.253441259E-2,2.138028294E-2
1.823067695E0,-7.452555746E-2,4.520402849E-2,1.954768784E-2
1.825050763E0,-7.757988572E-2,3.970624134E-2,2.138028294E-2
1.827064832E0,-7.635815442E-2,3.543018550E-2,2.015855350E-2
1.829048593E0,-7.513642311E-2,3.481931984E-2,2.382374369E-2
1.831063046E0,-7.574728876E-2,3.115412779E-2,2.565634064E-2
1.833046422E0,-7.330382615E-2,2.932153270E-2,2.687807009E-2
1.835059952E0,-7.269296050E-2,3.115412779E-2,3.054326214E-2
1.837044868E0,-6.841690838E-2,3.054326214E-2,3.726277873E-2
1.839059860E0,-6.841690838E-2,3.176499158E-2,3.665191308E-2
1.841041158E0,-6.414084882E-2,3.359758854E-2,4.092797264E-2
1.843056535E0,-6.291911751E-2,3.481931984E-2,3.909537569E-2
1.845069758E0,-6.108652428E-2,3.604105115E-2,4.398229718E-2
1.847053980E0,-5.986479297E-2,3.848451003E-2,4.764748737E-2
1.849067894E0,-5.925392732E-2,3.787364438E-2,5.009094998E-2
1.851050348E0,-5.619960278E-2,3.970624134E-2,5.253441259E-2
1.853065417E0,-5.497787148E-2,4.276056588E-2,5.619960278E-2
1.855050640E0,-5.314527452E-2,4.764748737E-2,5.619960278E-2
1.857063554E0,-4.948008433E-2,5.192354694E-2,5.864306539E-2
1.859047777E0,-4.703662544E-2,5.375614017E-2,6.475171447E-2
1.861061615E0,-4.092797264E-2,5.742133409E-2,6.597344577E-2
1.863044761E0,-3.726277873E-2,6.352998316E-2,6.658431143E-2
1.865059136E0,-3.176499158E-2,7.269296050E-2,6.963863969E-2
1.867042205E0,-2.993239649E-2,7.574728876E-2,7.208210230E-2
1.869056659E0,-2.626720630E-2,8.185594529E-2,7.574728876E-2
1.871071420E0,-2.565634064E-2,8.674286306E-2,7.880161703E-2
1.873055411E0,-2.321287990E-2,8.918632567E-2,8.002334833E-2
1.875068403E0,-2.321287990E-2,9.468411654E-2,8.307767659E-2
1.877052703E0,-2.076941915E-2,9.468411654E-2,8.368854225E-2
1.879066464E0,-2.076941915E-2,9.896016866E-2,8.368854225E-2
1.881050455E0,-1.710422710E-2,9.957103431E-2,8.796459436E-2
1.883064601E0,-1.588249579E-2,1.001819000E-1,8.552113175E-2
1.885047670E0,-9.162978269E-3,1.020144969E-1,8.674286306E-2
1.887062508E0,-3.054326167E-3,1.001819000E-1,8.857546002E-2
1.889045806E0,-6.108652451E-4,1.007927656E-1,8.918632567E-2
1.891060260E0,5.497787148E-3,1.007927656E-1,8.857546002E-2
1.893043944E0,9.162978269E-3,9.957103431E-2,8.857546002E-2
1.895057859E0,1.160643995E-2,9.590584040E-2,8.796459436E-2
1.897072004E0,1.649336144E-2,9.407325089E-2,8.735372871E-2
1.899055996E0,2.138028294E-2,8.857546002E-2,8.796459436E-2
1.901070065E0,2.138028294E-2,8.491026610E-2,8.552113175E-2
1.903054134E0,2.809980139E-2,8.063421398E-2,8.613199741E-2
1.905067587E0,2.871066704E-2,7.452555746E-2,8.552113175E-2
1.907051040E0,3.604105115E-2,6.780604273E-2,8.613199741E-2
1.909065109E0,3.909537569E-2,6.108652428E-2,8.429940045E-2
1.911049178E0,4.092797264E-2,5.497787148E-2,8.491026610E-2
1.913063323E0,4.337143153E-2,4.703662544E-2,8.552113175E-2
1.915046392E0,4.703662544E-2,3.970624134E-2,8.918632567E-2
1.917060768E0,4.948008433E-2,3.665191308E-2,8.552113175E-2
1.919046068E0,5.253441259E-2,3.054326214E-2,8.491026610E-2
1.921058290E0,5.681046844E-2,2.626720630E-2,8.307767659E-2
1.923073436E0,5.864306539E-2,2.321287990E-2,8.613199741E-2
1.925056197E0,6.108652428E-2,1.954768784E-2,8.246681094E-2
1.927070342E0,6.475171447E-2,1.466076635E-2,8.613199741E-2
1.929054642E0,6.902777404E-2,1.282817032E-2,8.552113175E-2
1.931068172E0,6.841690838E-2,1.221730467E-2,8.368854225E-2
1.933052087E0,7.147123665E-2,1.160643995E-2,8.429940045E-2
1.935067463E0,7.513642311E-2,1.160643995E-2,8.552113175E-2
1.937049993E0,7.574728876E-2,1.282817032E-2,8.429940045E-2
1.939064985E0,7.513642311E-2,1.588249579E-2,8.552113175E-2
1.941047516E0,7.635815442E-2,1.832595654E-2,8.674286306E-2
1.943061661E0,7.941248268E-2,1.771509275E-2,8.857546002E-2
1.945045883E0,7.880161703E-2,2.199114859E-2,8.857546002E-2
1.947059183E0,8.002334833E-2,2.626720630E-2,9.224065393E-2
1.949043175E0,8.185594529E-2,2.748893574E-2,9.224065393E-2
1.951057628E0,8.063421398E-2,2.871066704E-2,9.590584040E-2
1.953071773E0,7.757988572E-2,3.543018550E-2,9.896016866E-2
1.955054535E0,8.063421398E-2,4.031710699E-2,1.038470939E-1
1.957068988E0,8.674286306E-2,4.459316283E-2,1.111774743E-1
1.959049595E0,8.674286306E-2,4.459316283E-2,1.111774743E-1
1.961067740E0,8.979719132E-2,4.520402849E-2,1.178969890E-1
1.963050809E0,8.918632567E-2,5.070181563E-2,1.178969890E-1
1.965064648E0,9.101892263E-2,5.253441259E-2,1.240056455E-1
1.967048331E0,9.590584040E-2,5.619960278E-2,1.288925707E-1
1.969062707E0,9.468411654E-2,5.558873713E-2,1.325577646E-1
1.971046161E0,9.712757170E-2,5.864306539E-2,1.350012124E-1
1.973060615E0,9.651670605E-2,6.047565863E-2,1.386664063E-1
1.975044606E0,9.590584040E-2,6.108652428E-2,1.447750628E-1
1.977057828E0,9.834930301E-2,6.108652428E-2,1.490511149E-1
1.979073128E0,1.001819000E-1,6.291911751E-2,1.508837193E-1
1.981056582E0,1.032362282E-1,5.925392732E-2,1.533271819E-1
1.983069803E0,1.062905490E-1,5.803219974E-2,1.594358236E-1
1.985053718E0,1.099557430E-1,5.497787148E-2,1.606575549E-1
1.987067633E0,1.130100712E-1,5.253441259E-2,1.631010175E-1
1.989051933E0,1.172861308E-1,4.948008433E-2,1.667662114E-1
1.991065155E0,1.197295859E-1,4.825835302E-2,1.667662114E-1
1.993049147E0,1.203404516E-1,4.825835302E-2,1.710422635E-1
1.995062985E0,1.227839142E-1,4.337143153E-2,1.722639948E-1
1.997047593E0,1.246165112E-1,4.214970022E-2,1.728748679E-1
1.999062891E0,1.295034289E-1,3.481931984E-2,1.771509200E-1
2.001044422E0,1.282816976E-1,3.237585723E-2,1.783726513E-1
2.003059183E0,1.319468915E-1,2.443460934E-2,1.802052408E-1
2.005042329E0,1.362229437E-1,1.710422710E-2,1.789835095E-1
2.007057012E0,1.356120855E-1,1.282817032E-2,1.802052408E-1
2.009071466E0,1.392772794E-1,1.832595794E-3,1.789835095E-1
2.011055150E0,1.392772794E-1,-6.108652335E-3,1.777617931E-1
2.013068756E0,1.423316002E-1,-9.162978269E-3,1.802052408E-1
2.015052979E0,1.447750628E-1,-2.015855350E-2,1.753183305E-1
2.017066586E0,1.478293836E-1,-2.687807009E-2,1.740965992E-1
2.019050578E0,1.472185254E-1,-2.932153270E-2,1.710422635E-1
2.021064646E0,1.490511149E-1,-3.787364438E-2,1.704314053E-1
2.023047715E0,1.496619880E-1,-4.031710699E-2,1.679879427E-1
2.025061630E0,1.496619880E-1,-4.276056588E-2,1.655444801E-1
2.027046469E0,1.484402567E-1,-4.825835302E-2,1.637118906E-1
2.029060075E0,1.478293836E-1,-4.886921868E-2,1.588249654E-1
2.031043144E0,1.478293836E-1,-5.375614017E-2,1.569923609E-1
2.033057597E0,1.459967941E-1,-5.742133409E-2,1.514945775E-1
2.035071743E0,1.429424733E-1,-6.291911751E-2,1.502728462E-1
2.037056042E0,1.392772794E-1,-6.291911751E-2,1.435533315E-1
2.039069572E0,1.368338168E-1,-6.841690838E-2,1.380555481E-1
2.041053872E0,1.343903542E-1,-7.147123665E-2,1.374446750E-1
2.043067326E0,1.282816976E-1,-7.513642311E-2,1.319468915E-1
2.045051086E0,1.258382350E-1,-8.124507964E-2,1.246165112E-1
2.047065463E0,1.215621829E-1,-8.124507964E-2,1.203404516E-1
2.049048916E0,1.215621829E-1,-8.613199741E-2,1.136209369E-1
2.051063677E0,1.172861308E-1,-8.857546002E-2,1.099557430E-1
2.053046745E0,1.191187203E-1,-8.979719132E-2,1.062905490E-1
2.055061814E0,1.148426682E-1,-9.162978828E-2,1.014036313E-1
2.057044191E0,1.111774743E-1,-8.918632567E-2,9.773843735E-2
2.059059337E0,1.099557430E-1,-9.162978828E-2,9.529497474E-2
2.061042943E0,1.056796908E-1,-8.979719132E-2,9.101892263E-2
2.063057166E0,1.038470939E-1,-8.979719132E-2,9.407325089E-2
2.065070619E0,1.038470939E-1,-9.162978828E-2,9.040805697E-2
2.067054073E0,1.026253626E-1,-9.101892263E-2,8.796459436E-2
2.069067602E0,1.001819000E-1,-9.224065393E-2,9.040805697E-2
2.071052133E0,9.957103431E-2,-9.407325089E-2,8.613199741E-2
2.073066356E0,9.529497474E-2,-9.590584040E-2,8.857546002E-2
2.075049732E0,9.346238524E-2,-9.712757170E-2,8.613199741E-2
2.077064800E0,9.529497474E-2,-1.038470939E-1,9.040805697E-2
2.079048792E0,9.162978828E-2,-1.056796908E-1,8.979719132E-2
2.081060784E0,9.285151958E-2,-1.093448773E-1,9.040805697E-2
2.083045315E0,8.613199741E-2,-1.105666086E-1,8.979719132E-2
2.085058844E0,8.552113175E-2,-1.154535338E-1,9.162978828E-2
2.087043221E0,8.246681094E-2,-1.154535338E-1,9.346238524E-2
2.089057059E0,7.941248268E-2,-1.166752651E-1,9.162978828E-2
2.091070896E0,7.574728876E-2,-1.166752651E-1,9.162978828E-2
2.093055119E0,7.208210230E-2,-1.154535338E-1,8.918632567E-2
2.095069957E0,7.269296050E-2,-1.142318025E-1,8.918632567E-2
2.097053564E0,7.269296050E-2,-1.105666086E-1,8.796459436E-2
2.099067786E0,7.208210230E-2,-1.075122803E-1,8.857546002E-2
2.101050547E0,6.841690838E-2,-1.020144969E-1,8.429940045E-2
2.103064616E0,6.841690838E-2,-9.834930301E-2,8.368854225E-2
2.105048993E0,6.597344577E-2,-8.918632567E-2,8.246681094E-2
2.107062445E0,6.414084882E-2,-7.696902007E-2,8.063421398E-2
2.109045899E0,6.291911751E-2,-7.086037099E-2,8.002334833E-2
2.111060353E0,6.047565863E-2,-6.047565863E-2,7.757988572E-2
2.113044037E0,5.436700583E-2,-4.642575979E-2,7.941248268E-2
2.115057489E0,5.070181563E-2,-4.092797264E-2,8.002334833E-2
2.117073174E0,4.581489414E-2,-2.748893574E-2,7.635815442E-2
2.119055089E0,3.787364438E-2,-1.710422710E-2,7.696902007E-2
2.121070388E0,3.543018550E-2,-1.160643995E-2,7.819075137E-2
2.123053841E0,2.382374369E-2,-2.443460980E-3,7.574728876E-2
2.125067295E0,1.404990070E-2,0.000000000E0,7.147123665E-2
2.127051594E0,6.108652335E-3,4.886921961E-3,7.391469181E-2
2.129065202E0,-1.832595794E-3,9.162978269E-3,7.147123665E-2
2.131049116E0,-7.941247895E-3,9.773843922E-3,7.024950534E-2
2.133063646E0,-1.832595654E-2,1.282817032E-2,6.658431143E-2
2.135047869E0,-2.871066704E-2,1.282817032E-2,6.475171447E-2
2.137061399E0,-3.359758854E-2,1.343903504E-2,5.864306539E-2
2.139046083E0,-4.337143153E-2,1.466076635E-2,5.619960278E-2
2.141059921E0,-5.375614017E-2,1.343903504E-2,4.948008433E-2
2.143043221E0,-5.742133409E-2,1.099557430E-2,4.703662544E-2
2.145057136E0,-6.902777404E-2,6.108652335E-3,4.031710699E-2
2.147070973E0,-8.002334833E-2,6.108652451E-4,3.481931984E-2
2.149054657E0,-8.368854225E-2,-3.665191587E-3,3.176499158E-2
2.151068495E0,-9.712757170E-2,-1.588249579E-2,2.199114859E-2
2.153051487E0,-1.069014147E-1,-3.359758854E-2,1.404990070E-2
2.155066017E0,-1.160643995E-1,-4.092797264E-2,6.719517522E-3
2.157050932E0,-1.258382350E-1,-6.597344577E-2,-4.276056774E-3
2.159065924E0,-1.350012124E-1,-9.285151958E-2,-1.771509275E-2
2.161047454E0,-1.398881376E-1,-1.062905490E-1,-2.504547499E-2
2.163061984E0,-1.472185254E-1,-1.404990107E-1,-3.848451003E-2
2.165045591E0,-1.508837193E-1,-1.563815027E-1,-4.886921868E-2
2.167059814E0,-1.594358236E-1,-1.893682331E-1,-6.780604273E-2
2.169043191E0,-1.692096740E-1,-2.278527319E-1,-8.613199741E-2
2.171057643E0,-1.753183305E-1,-2.431243658E-1,-9.224065393E-2
2.173041558E0,-1.850921661E-1,-2.785545588E-1,-1.130100712E-1
2.175056089E0,-1.960877478E-1,-3.090978265E-1,-1.343903542E-1
2.177069926E0,-2.009746730E-1,-3.286454976E-1,-1.472185254E-1
2.179053918E0,-2.101376504E-1,-3.567453027E-1,-1.685988009E-1
2.181067756E0,-2.217440903E-1,-3.805690408E-1,-1.948660165E-1
2.183050748E0,-2.278527319E-1,-3.897320330E-1,-2.095267773E-1
2.185064970E0,-2.370157093E-1,-4.098905921E-1,-2.351831198E-1
2.187048885E0,-2.425135076E-1,-4.233296216E-1,-2.651155293E-1
2.189063031E0,-2.467895597E-1,-4.288274050E-1,-2.761110961E-1
2.191046715E0,-2.620611787E-1,-4.343251884E-1,-3.066543639E-1
2.193060629E0,-2.779437006E-1,-4.361577928E-1,-3.371976018E-1
2.195044006E0,-2.864958048E-1,-4.349360466E-1,-3.500257730E-1
2.197058075E0,-3.182607889E-1,-4.233296216E-1,-3.909537494E-1
2.199038682E0,-3.182607889E-1,-4.233296216E-1,-3.909537494E-1
2.201056827E0,-3.426954150E-1,-4.092797041E-1,-4.153883755E-1
2.203070973E0,-3.652974069E-1,-3.915646076E-1,-4.386012554E-1
2.205054426E0,-3.781255782E-1,-3.830125034E-1,-4.477642179E-1
2.207068264E0,-4.056145251E-1,-3.604104817E-1,-4.654793143E-1
2.209052179E0,-4.312708676E-1,-3.359758854E-1,-4.801400900E-1
2.211065786E0,-4.447098970E-1,-3.237585723E-1,-4.868595898E-1
2.213048855E0,-4.996877611E-1,-2.987131178E-1,-4.984660447E-1
2.215064462E0,-6.053674817E-1,-2.871066630E-1,-5.119050741E-1
2.217047838E0,-6.688974500E-1,-2.858849466E-1,-5.222898126E-1
2.219062676E0,-8.069530129E-1,-3.121521473E-1,-5.522221923E-1
2.221044822E0,-8.936958313E-1,-3.585779071E-1,-5.882632136E-1
2.223059814E0,-8.973610401E-1,-3.903428912E-1,-6.078109145E-1
2.225043497E0,-8.283332586E-1,-4.667010605E-1,-6.517932415E-1
2.227057105E0,-7.018841505E-1,-5.626068711E-1,-6.921103001E-1
2.229070943E0,-6.426302195E-1,-6.120869517E-1,-7.104362845E-1
2.231054858E0,-5.705481172E-1,-7.037167549E-1,-7.422012687E-1
2.233068695E0,-5.619960427E-1,-7.422012687E-1,-7.525860071E-1
2.235051841E0,-5.852088928E-1,-8.051204085E-1,-7.666358948E-1
2.237068141E0,-6.316346526E-1,-8.417723179E-1,-7.672467232E-1
2.239051209E0,-6.542366743E-1,-8.442157507E-1,-7.635815740E-1
2.241064431E0,-6.701191664E-1,-8.222246170E-1,-7.434229851E-1
2.243049039E0,-6.548475623E-1,-7.574729323E-1,-7.037167549E-1
2.245061954E0,-6.377432942E-1,-7.134906054E-1,-6.841690540E-1
2.247046561E0,-5.968153477E-1,-5.998696685E-1,-6.261368990E-1
2.249059706E0,-5.528330207E-1,-4.709770977E-1,-5.546656251E-1
2.251044621E0,-5.363397002E-1,-4.050036669E-1,-5.192354321E-1
2.253058228E0,-5.198463202E-1,-2.706133127E-1,-4.465425014E-1
2.255042144E0,-5.125159621E-1,-1.447750628E-1,-3.738495409E-1
2.257055673E0,-5.094616413E-1,-8.857546002E-2,-3.420845270E-1
2.259071127E0,-5.021312237E-1,6.719517522E-3,-2.797762752E-1
2.261054426E0,-4.929682612E-1,7.330382615E-2,-2.302961946E-1
2.263067957E0,-4.862487316E-1,9.834930301E-2,-2.113593817E-1
2.265051332E0,-4.667010605E-1,1.203404516E-1,-1.789835095E-1
2.267065247E0,-4.538728893E-1,1.178969890E-1,-1.673770845E-1
2.269049239E0,-4.227187634E-1,9.040805697E-2,-1.502728462E-1
2.271062770E0,-3.933972120E-1,3.543018550E-2,-1.398881376E-1
2.273047607E0,-3.781255782E-1,-1.221730490E-3,-1.392772794E-1
2.275060214E0,-3.506366611E-1,-7.696902007E-2,-1.374446750E-1
2.277045514E0,-3.115412891E-1,-1.557706445E-1,-1.386664063E-1
2.279058737E0,-2.840523422E-1,-1.918116808E-1,-1.423316002E-1
2.281043651E0,-2.113593817E-1,-2.443460971E-1,-1.417207420E-1
2.283056489E0,-1.178969890E-1,-2.700024247E-1,-1.350012124E-1
2.285071250E0,-7.086037099E-2,-2.706133127E-1,-1.252273768E-1
2.287055012E0,9.773843922E-3,-2.486221492E-1,-1.020144969E-1
2.289068849E0,5.070181563E-2,-2.058615834E-1,-6.902777404E-2
2.291052148E0,5.925392732E-2,-1.765400618E-1,-5.070181563E-2
2.293066602E0,4.398229718E-2,-1.069014147E-1,-9.773843922E-3
2.295050363E0,2.993239649E-2,-7.086037099E-2,9.773843922E-3
2.297064508E0,0.000000000E0,4.886921961E-3,4.764748737E-2
2.299048808E0,-5.497787148E-3,7.391469181E-2,8.185594529E-2
2.301062261E0,0.000000000E0,1.026253626E-1,1.001819000E-1
2.303045638E0,3.359758854E-2,1.417207420E-1,1.288925707E-1
2.305059475E0,7.941248268E-2,1.594358236E-1,1.551597714E-1
2.307043467E0,1.007927656E-1,1.588249654E-1,1.661553532E-1
2.309057921E0,1.423316002E-1,1.386664063E-1,1.814269722E-1
2.311041913E0,1.722639948E-1,1.020144969E-1,1.869247705E-1
2.313055519E0,1.777617931E-1,7.269296050E-2,1.869247705E-1
2.315068665E0,1.783726513E-1,1.832595794E-3,1.814269722E-1
2.317053580E0,1.679879427E-1,-8.185594529E-2,1.698205322E-1
2.319068417E0,1.631010175E-1,-1.276708394E-1,1.618792862E-1
2.321051101E0,1.484402567E-1,-2.223549485E-1,1.380555481E-1
2.323065017E0,1.350012124E-1,-3.182607889E-1,1.111774743E-1
2.325049239E0,1.313360333E-1,-3.689626157E-1,9.529497474E-2
2.327062538E0,1.258382350E-1,-4.532620013E-1,6.597344577E-2
2.329046530E0,1.221730486E-1,-4.917465150E-1,5.192354694E-2
2.331060368E0,1.166752651E-1,-5.491678715E-1,2.015855350E-2
2.333043976E0,1.038470939E-1,-5.833762884E-1,-1.282817032E-2
2.335058736E0,9.651670605E-2,-5.907067060E-1,-2.687807009E-2
2.337042189E0,8.368854225E-2,-5.870414972E-1,-5.681046844E-2
2.339057797E0,6.597344577E-2,-5.613851547E-1,-8.491026610E-2
2.341040019E0,5.864306539E-2,-5.442809463E-1,-9.896016866E-2
2.343054395E0,4.398229718E-2,-4.941899776E-1,-1.215621829E-1
2.345068002E0,3.359758854E-2,-4.404338300E-1,-1.447750628E-1
2.347051918E0,2.932153270E-2,-4.092797041E-1,-1.521054506E-1
2.349066063E0,2.199114859E-2,-3.475823104E-1,-1.673770845E-1
2.351049131E0,1.771509275E-2,-2.846632004E-1,-1.771509200E-1
2.353063662E0,1.771509275E-2,-2.516764700E-1,-1.765400618E-1
2.355046962E0,1.588249579E-2,-1.863138974E-1,-1.771509200E-1
2.357061723E0,1.160643995E-2,-1.178969890E-1,-1.716531366E-1
2.359047252E0,1.221730467E-2,-8.307767659E-2,-1.667662114E-1
2.361058937E0,1.282817032E-2,-1.466076635E-2,-1.502728462E-1
2.363042929E0,1.221730467E-2,2.199114859E-2,-1.398881376E-1
2.365056767E0,1.099557430E-2,9.407325089E-2,-1.191187203E-1
2.367071219E0,1.282817032E-2,1.643227488E-1,-8.857546002E-2
2.369054673E0,1.282817032E-2,2.021963894E-1,-7.391469181E-2
2.371069357E0,1.588249579E-2,2.730567753E-1,-4.031710699E-2
2.373052195E0,2.382374369E-2,3.433062732E-1,-7.330383174E-3
2.375067802E0,2.993239649E-2,3.769038618E-1,8.552113548E-3
2.377050640E0,3.604105115E-2,4.440990388E-1,4.092797264E-2
2.379065093E0,3.726277873E-2,5.076290369E-1,7.391469181E-2
2.381048778E0,4.092797264E-2,5.351179838E-1,9.101892263E-2
2.383062846E0,3.909537569E-2,5.949827433E-1,1.148426682E-1
2.385046222E0,3.726277873E-2,6.450737119E-1,1.417207420E-1
2.387060368E0,3.787364438E-2,6.676757336E-1,1.533271819E-1
2.389043822E0,3.787364438E-2,7.098253965E-1,1.734857261E-1
2.391057890E0,3.787364438E-2,7.434229851E-1,1.912008226E-1
2.393042266E0,3.970624134E-2,7.586946487E-1,1.985312104E-1
2.395055104E0,4.092797264E-2,7.867944241E-1,2.089159191E-1
2.397070249E0,4.520402849E-2,7.977899909E-1,2.144137025E-1
2.399054780E0,5.192354694E-2,8.142833710E-1,2.284636050E-1
2.401067156E0,5.986479297E-2,8.344419003E-1,2.339613885E-1
2.403051764E0,6.352998316E-2,8.411614299E-1,2.382374406E-1
2.405065601E0,7.330382615E-2,8.527678847E-1,2.455678284E-1
2.407049208E0,8.552113175E-2,8.625417352E-1,2.498438805E-1
2.409063123E0,9.101892263E-2,8.686503768E-1,2.522873580E-1
2.411046192E0,1.038470939E-1,8.778133392E-1,2.547308207E-1
2.413061491E0,1.185078546E-1,8.851437569E-1,2.620611787E-1
2.415045791E0,1.197295859E-1,8.894197941E-1,2.620611787E-1
2.417058706E0,1.343903542E-1,8.943067193E-1,2.681698501E-1
2.419043621E0,1.459967941E-1,8.949176073E-1,2.736676335E-1
2.421057227E0,1.551597714E-1,8.936958313E-1,2.785545588E-1
2.423039681E0,1.722639948E-1,8.900306821E-1,2.816088796E-1
2.425054134E0,1.838704348E-1,8.845328689E-1,2.858849466E-1
2.427068895E0,2.046398520E-1,8.741481900E-1,2.901609838E-1
2.429051963E0,2.272418737E-1,8.594874144E-1,2.974913716E-1
2.431066417E0,2.394591719E-1,8.533787727E-1,2.993239760E-1
2.433050101E0,2.608394623E-1,8.374962807E-1,3.054326177E-1
2.435064247E0,2.803871334E-1,8.136724830E-1,3.145956099E-1
2.437047315E0,2.968805134E-1,7.965682745E-1,3.219259977E-1
2.439061461E0,3.066543639E-1,7.849618196E-1,3.225368559E-1
2.441045761E0,3.225368559E-1,7.648032904E-1,3.292563558E-1
2.443060214E0,3.316998184E-1,7.544185519E-1,3.323107064E-1
2.445043513E0,3.488040566E-1,7.324274182E-1,3.439171314E-1
2.447057428E0,3.683517575E-1,7.098253965E-1,3.506366611E-1
2.449041035E0,3.756821156E-1,6.969972253E-1,3.530801237E-1
2.451055489E0,3.933972120E-1,6.737843752E-1,3.610213697E-1
2.453069711E0,4.092797041E-1,6.475171447E-1,3.665191531E-1
2.455054010E0,4.184426963E-1,6.322455406E-1,3.726277947E-1
2.457067464E0,4.294382632E-1,6.078109145E-1,3.787364662E-1
2.459051533E0,4.373795092E-1,5.919284225E-1,3.824016452E-1
2.461065601E0,4.489859641E-1,5.650503635E-1,3.860668242E-1
2.463048439E0,4.618141353E-1,5.363397002E-1,3.927863538E-1
2.465062815E0,4.654793143E-1,5.222898126E-1,3.970624208E-1
2.467045654E0,4.746423066E-1,4.929682612E-1,3.976732790E-1
2.469060645E0,4.825835526E-1,4.667010605E-1,3.988949955E-1
2.471044021E0,4.862487316E-1,4.514294267E-1,4.001167417E-1
2.473057859E0,4.868595898E-1,4.239404798E-1,3.958406746E-1
2.475041621E0,4.886921942E-1,3.958406746E-1,3.964515328E-1
2.477056381E0,4.868595898E-1,3.830125034E-1,3.946189582E-1
2.479071681E0,4.819726646E-1,3.561344445E-1,3.915646076E-1
2.481053596E0,4.740314186E-1,3.274237812E-1,3.878994286E-1
2.483068587E0,4.697553813E-1,3.139847219E-1,3.824016452E-1
2.485051040E0,4.526511431E-1,2.871066630E-1,3.762930036E-1
2.487066186E0,4.379903674E-1,2.596177161E-1,3.640756905E-1
2.489049178E0,4.282165468E-1,2.467895597E-1,3.573561609E-1
2.491063015E0,4.123340547E-1,2.162462920E-1,3.457497358E-1
2.493047315E0,4.043927789E-1,2.028072625E-1,3.347541690E-1
2.495062076E0,3.872885704E-1,1.716531366E-1,3.158173263E-1
2.497045145E0,3.707951903E-1,1.423316002E-1,2.956587672E-1
2.499059598E0,3.616322279E-1,1.270599663E-1,2.846632004E-1
2.501042743E0,3.451388776E-1,9.651670605E-2,2.626720667E-1
2.503056582E0,3.274237812E-1,6.352998316E-2,2.394591719E-1
2.505040804E0,3.200933933E-1,4.825835302E-2,2.296853364E-1
2.507055334E0,3.011565804E-1,1.832595654E-2,2.076941878E-1
2.509068557E0,2.852740586E-1,-7.330383174E-3,1.875356287E-1
2.511052164E0,2.748893499E-1,-1.893682219E-2,1.759291887E-1
2.513066694E0,2.583959997E-1,-3.970624134E-2,1.594358236E-1
2.515049762E0,2.437352389E-1,-5.681046844E-2,1.459967941E-1
2.517065370E0,2.357939780E-1,-6.291911751E-2,1.392772794E-1
2.519048516E0,2.217440903E-1,-7.024950534E-2,1.276708394E-1
2.521062969E0,2.113593817E-1,-7.024950534E-2,1.172861308E-1
2.523046037E0,2.009746730E-1,-6.597344577E-2,1.130100712E-1
2.525059798E0,1.905899495E-1,-5.619960278E-2,1.081231460E-1
2.527043252E0,1.875356287E-1,-5.009094998E-2,1.050688252E-1
2.529057936E0,1.753183305E-1,-3.481931984E-2,9.957103431E-2
2.531041389E0,1.673770845E-1,-1.771509275E-2,9.834930301E-2
2.533055150E0,1.618792862E-1,-8.552113548E-3,9.529497474E-2
2.535069911E0,1.557706445E-1,1.160643995E-2,9.834930301E-2
2.537053288E0,1.484402567E-1,2.565634064E-2,9.896016866E-2
2.539068356E0,1.447750628E-1,3.237585723E-2,9.834930301E-2
2.541051194E0,1.350012124E-1,4.520402849E-2,1.007927656E-1
2.543065263E0,1.246165112E-1,5.192354694E-2,1.044579595E-1
2.545049255E0,1.203404516E-1,5.253441259E-2,1.050688252E-1
2.547063477E0,1.111774743E-1,5.864306539E-2,1.099557430E-1
2.549047084E0,1.044579595E-1,5.742133409E-2,1.099557430E-1
2.551061307E0,1.020144969E-1,5.619960278E-2,1.117883399E-1
2.553044607E0,9.712757170E-2,5.314527452E-2,1.130100712E-1
2.555058444E0,9.285151958E-2,4.642575979E-2,1.136209369E-1
2.557043436E0,9.101892263E-2,4.520402849E-2,1.136209369E-1
2.559058197E0,8.491026610E-2,3.909537569E-2,1.099557430E-1
2.561039727E0,8.124507964E-2,3.481931984E-2,1.081231460E-1
2.563053872E0,6.963863969E-2,2.871066704E-2,1.014036313E-1
2.565069172E0,6.291911751E-2,2.015855350E-2,9.101892263E-2
2.567052010E0,5.558873713E-2,2.015855350E-2,8.857546002E-2
2.569066078E0,4.337143153E-2,1.282817032E-2,7.696902007E-2
2.571049839E0,2.993239649E-2,1.221730467E-2,5.986479297E-2
2.573063908E0,2.687807009E-2,1.282817032E-2,5.253441259E-2
2.575048823E0,1.221730467E-2,1.343903504E-2,3.970624134E-2
2.577062430E0,2.443460980E-3,1.466076635E-2,2.260201424E-2
2.579046729E0,-4.886921961E-3,1.771509275E-2,1.466076635E-2
2.581059875E0,-1.649336144E-2,2.809980139E-2,-1.221730490E-3
2.583042713E0,-2.565634064E-2,3.787364438E-2,-1.466076635E-2
2.585057704E0,-3.054326214E-2,4.581489414E-2,-2.015855350E-2
2.587041389E0,-4.459316283E-2,5.681046844E-2,-3.298672289E-2
2.589054381E0,-5.009094998E-2,6.352998316E-2,-3.909537569E-2
2.591069142E0,-5.925392732E-2,7.635815442E-2,-5.192354694E-2
2.593053441E0,-7.208210230E-2,8.429940045E-2,-6.047565863E-2
2.595067202E0,-7.635815442E-2,8.857546002E-2,-6.719517708E-2
2.597051809E0,-8.979719132E-2,9.651670605E-2,-7.513642311E-2
2.599067186E0,-1.050688252E-1,1.014036313E-1,-8.613199741E-2
2.601048177E0,-1.123992056E-1,1.038470939E-1,-8.979719132E-2
2.603063246E0,-1.240056455E-1,1.032362282E-1,-9.712757170E-2
2.605046315E0,-1.374446750E-1,1.056796908E-1,-1.044579595E-1
2.607060768E0,-1.429424733E-1,1.075122803E-1,-1.081231460E-1
2.609044067E0,-1.545489132E-1,1.093448773E-1,-1.123992056E-1
2.611058290E0,-1.655444801E-1,1.154535338E-1,-1.209513173E-1
2.613041897E0,-1.716531366E-1,1.178969890E-1,-1.233947799E-1
2.615056351E0,-1.771509200E-1,1.221730486E-1,-1.319468915E-1
2.617039803E0,-1.869247705E-1,1.264491081E-1,-1.392772794E-1
2.619055103E0,-1.991420686E-1,1.270599663E-1,-1.453859210E-1
2.621068095E0,-2.388483137E-1,1.252273768E-1,-1.600466967E-1
2.623052087E0,-2.638937831E-1,1.197295859E-1,-1.722639948E-1
2.625065232E0,-3.072652221E-1,9.651670605E-2,-2.034181207E-1
2.627049531E0,-3.103195429E-1,5.803219974E-2,-2.431243658E-1
2.629063447E0,-2.889392674E-1,3.054326214E-2,-2.632829249E-1
2.631047054E0,-2.315179259E-1,-2.504547499E-2,-3.097086847E-1
2.633061276E0,-1.643227488E-1,-8.552113175E-2,-3.518583775E-1
2.635044652E0,-1.441642046E-1,-1.148426682E-1,-3.683517575E-1
2.637060337E0,-1.295034289E-1,-1.722639948E-1,-3.940080702E-1
2.639042406E0,-1.466076523E-1,-2.223549485E-1,-4.129449129E-1
2.641058089E0,-1.600466967E-1,-2.443460971E-1,-4.184426963E-1
2.643041466E0,-1.814269722E-1,-2.767219543E-1,-4.233296216E-1
2.645054996E0,-1.966986060E-1,-2.938261926E-1,-4.269948006E-1
2.647068834E0,-1.985312104E-1,-2.968805134E-1,-4.282165468E-1
2.649051979E0,-2.003637999E-1,-2.938261926E-1,-4.233296216E-1
2.651067048E0,-1.979203373E-1,-2.797762752E-1,-4.214970171E-1
2.653050425E0,-1.954768747E-1,-2.712241709E-1,-4.190535545E-1
2.655064570E0,-1.966986060E-1,-2.516764700E-1,-4.117231667E-1
2.657048177E0,-2.015855312E-1,-2.455678284E-1,-4.129449129E-1
2.659063323E0,-2.144137025E-1,-2.376265824E-1,-4.098905921E-1
2.661045699E0,-2.388483137E-1,-2.425135076E-1,-4.117231667E-1
2.663059845E0,-2.510656118E-1,-2.522873580E-1,-4.159992337E-1
2.665044144E0,-2.767219543E-1,-2.742784917E-1,-4.306600094E-1
2.667057674E0,-2.962696552E-1,-3.103195429E-1,-4.471533597E-1
2.669041435E0,-3.048217595E-1,-3.298672438E-1,-4.569272101E-1
2.671055504E0,-3.188716471E-1,-3.750712574E-1,-4.734205604E-1
2.673069342E0,-3.262020350E-1,-4.214970171E-1,-4.954117239E-1
2.675052718E0,-3.310889602E-1,-4.434881806E-1,-5.002986193E-1
2.677066941E0,-3.457497358E-1,-5.393940210E-1,-5.345070958E-1
2.679049933E0,-3.457497358E-1,-5.393940210E-1,-5.345070958E-1
2.681064693E0,-3.457497358E-1,-5.393940210E-1,-5.345070958E-1
2.683048993E0,-3.530801237E-1,-5.668829679E-1,-5.400048494E-1
2.685063216E0,-3.567453027E-1,-5.809328556E-1,-5.387831330E-1
2.687046592E0,-3.579670191E-1,-5.839871764E-1,-5.418374538E-1
2.689060429E0,-3.707951903E-1,-5.772676468E-1,-5.375614166E-1
2.691044652E0,-3.756821156E-1,-5.699372888E-1,-5.351179838E-1
2.693058260E0,-3.952298164E-1,-5.406157374E-1,-5.271766782E-1
2.695043405E0,-4.147774875E-1,-5.027421117E-1,-5.210680366E-1
2.697057012E0,-4.257730842E-1,-4.783074856E-1,-5.167919993E-1
2.699041004E0,-4.440990388E-1,-4.233296216E-1,-5.106833577E-1
2.701055073E0,-4.477642179E-1,-3.695734739E-1,-5.064072609E-1
2.703068910E0,-4.508185387E-1,-3.426954150E-1,-5.045747161E-1
2.705052287E0,-4.544837475E-1,-2.907718420E-1,-5.057964325E-1
2.707065894E0,-4.526511431E-1,-2.455678284E-1,-5.057964325E-1
2.709049886E0,-4.502076805E-1,-2.247984111E-1,-5.100724697E-1
2.711063646E0,-4.459316432E-1,-1.918116808E-1,-5.137376785E-1
2.713046715E0,-4.404338300E-1,-1.716531366E-1,-5.167919993E-1
2.715061169E0,-4.367686510E-1,-1.624901593E-1,-5.204572082E-1
2.717046468E0,-4.221078753E-1,-1.527163088E-1,-5.229006410E-1
2.719058767E0,-4.172209501E-1,-1.521054506E-1,-5.271766782E-1
2.721043374E0,-4.159992337E-1,-1.557706445E-1,-5.283984542E-1
2.723058136E0,-4.068362415E-1,-1.679879427E-1,-5.259549618E-1
2.725040820E0,-3.946189582E-1,-1.722639948E-1,-5.253441334E-1
2.727054965E0,-3.310889602E-1,-1.783726513E-1,-5.167919993E-1
2.729069418E0,-2.125810981E-1,-1.655444801E-1,-4.905247986E-1
2.731052564E0,-1.441642046E-1,-1.521054506E-1,-4.740314186E-1
2.733067556E0,-1.160643995E-2,-1.117883399E-1,-4.257730842E-1
2.735051547E0,6.963863969E-2,-5.864306539E-2,-3.720169365E-1
2.737064539E0,8.429940045E-2,-2.565634064E-2,-3.414736688E-1
2.739048762E0,6.780604273E-2,5.131268129E-2,-2.785545588E-1
2.741062677E0,1.466076635E-2,1.386664063E-1,-2.150245607E-1
2.743046284E0,-1.343903504E-2,1.844813079E-1,-1.881465018E-1
2.745060737E0,-5.192354694E-2,2.761110961E-1,-1.258382350E-1
2.747043806E0,-6.475171447E-2,3.573561609E-1,-7.330382615E-2
2.749058260E0,-5.681046844E-2,3.946189582E-1,-5.192354694E-2
2.751041404E0,-3.420845419E-2,4.495968223E-1,-1.221730467E-2
2.753055858E0,-1.710422710E-2,4.673119187E-1,1.832595794E-3
2.755038927E0,2.443460934E-2,4.813618064E-1,2.504547499E-2
2.757054919E0,6.352998316E-2,4.624249935E-1,4.092797264E-2
2.759069602E0,8.246681094E-2,4.386012554E-1,4.642575979E-2
2.761050902E0,1.136209369E-1,3.744603992E-1,5.253441259E-2
2.763065663E0,1.331686229E-1,2.846632004E-1,5.375614017E-2
2.765049040E0,1.386664063E-1,2.339613885E-1,5.436700583E-2
2.767063723E0,1.490511149E-1,1.221730486E-1,5.192354694E-2
2.769047792E0,1.533271819E-1,5.497787148E-3,4.642575979E-2
2.771060630E0,1.514945775E-1,-4.642575979E-2,4.214970022E-2
2.773045545E0,1.496619880E-1,-1.411098689E-1,3.298672289E-2
2.775059690E0,1.411098689E-1,-2.125810981E-1,2.076941915E-2
2.777043067E0,1.398881376E-1,-2.394591719E-1,1.282817032E-2
2.779057289E0,1.325577646E-1,-2.700024247E-1,0.000000000E0
2.781040666E0,1.282816976E-1,-2.724458873E-1,-1.343903504E-2
2.783054503E0,1.288925707E-1,-2.651155293E-1,-2.015855350E-2
2.785069495E0,1.301143020E-1,-2.345722616E-1,-2.932153270E-2
2.787052256E0,1.343903542E-1,-2.162462920E-1,-3.176499158E-2
2.789065863E0,1.350012124E-1,-1.722639948E-1,-3.787364438E-2
2.791049778E0,1.368338168E-1,-1.258382350E-1,-4.092797264E-2
2.793064001E0,1.386664063E-1,-1.081231460E-1,-3.726277873E-2
2.795047300E0,1.398881376E-1,-7.574728876E-2,-3.237585723E-2
2.797062676E0,1.404990107E-1,-5.253441259E-2,-1.954768784E-2
2.799045514E0,1.417207420E-1,-4.703662544E-2,-1.221730467E-2
2.801060506E0,1.472185254E-1,-4.031710699E-2,8.552113548E-3
2.803043267E0,1.557706445E-1,-3.970624134E-2,3.237585723E-2
2.805058412E0,1.600466967E-1,-4.092797264E-2,4.886921868E-2
2.807041174E0,1.734857261E-1,-4.214970022E-2,8.368854225E-2
2.809055550E0,1.887573600E-1,-3.909537569E-2,1.215621829E-1
2.811039234E0,1.918116808E-1,-3.604105115E-2,1.386664063E-1
2.813053687E0,2.003637999E-1,-2.199114859E-2,1.832595766E-1
2.815068217E0,1.954768747E-1,3.054326167E-3,2.247984111E-1
2.817051902E0,1.905899495E-1,1.649336144E-2,2.449569702E-1
2.819065663E0,1.655444801E-1,5.375614017E-2,2.785545588E-1
2.821048500E0,1.508837193E-1,7.269296050E-2,2.968805134E-1
2.823063184E0,1.136209369E-1,1.178969890E-1,3.255911767E-1
2.825046253E0,7.024950534E-2,1.588249654E-1,3.475823104E-1
2.827060707E0,4.825835302E-2,1.863138974E-1,3.561344445E-1
2.829045006E0,1.527163107E-2,2.272418737E-1,3.720169365E-1
2.831058613E0,-6.719517522E-3,2.693915665E-1,3.811798990E-1
2.833042605E0,-1.282817032E-2,2.895501256E-1,3.836233616E-1
2.835055520E0,-7.941247895E-3,3.182607889E-1,3.866777122E-1
2.837040665E0,1.099557430E-2,3.457497358E-1,3.824016452E-1
2.839055426E0,2.076941915E-2,3.567453027E-1,3.793473244E-1
2.841036957E0,4.092797264E-2,3.744603992E-1,3.683517575E-1
2.843051795E0,5.864306539E-2,3.897320330E-1,3.597996235E-1
2.845066786E0,7.024950534E-2,3.933972120E-1,3.524692357E-1
2.847049239E0,9.407325089E-2,4.031710625E-1,3.402519524E-1
2.849064078E0,1.270599663E-1,4.080579877E-1,3.298672438E-1
2.851047454E0,1.459967941E-1,4.098905921E-1,3.231477141E-1
2.853060984E0,1.857030392E-1,4.135557711E-1,3.152064681E-1
2.855045514E0,2.070833147E-1,4.172209501E-1,3.158173263E-1
2.857060045E0,2.480112910E-1,4.300491214E-1,3.133738637E-1
2.859044267E0,2.877175212E-1,4.538728893E-1,3.182607889E-1
2.861057181E0,3.054326177E-1,4.691445231E-1,3.219259977E-1
2.863041558E0,3.347541690E-1,5.057964325E-1,3.298672438E-1
2.865055935E0,3.543018401E-1,5.503895879E-1,3.488040566E-1
2.867039080E0,3.616322279E-1,5.736024380E-1,3.555235863E-1
2.869052533E0,3.726277947E-1,6.206390858E-1,3.775147200E-1
2.871067064E0,3.836233616E-1,6.627888083E-1,4.013384581E-1
2.873050671E0,3.860668242E-1,6.798930168E-1,4.129449129E-1
2.875064277E0,4.013384581E-1,7.049384713E-1,4.337143302E-1
2.877049115E0,4.153883755E-1,7.189884186E-1,4.575380683E-1
2.879062031E0,4.227187634E-1,7.183775306E-1,4.685336351E-1
2.881047253E0,4.343251884E-1,7.098253965E-1,4.886921942E-1
2.883060783E0,4.434881806E-1,6.982190013E-1,4.954117239E-1
2.885044775E0,4.532620013E-1,6.670648456E-1,5.057964325E-1
2.887058074E0,4.660901725E-1,6.249151230E-1,5.167919993E-1
2.889041682E0,4.703662395E-1,6.017022729E-1,5.210680366E-1
2.891055904E0,4.776966274E-1,5.503895879E-1,5.271766782E-1
2.893038973E0,4.838052690E-1,4.972442985E-1,5.265658498E-1
2.895054965E0,4.923573732E-1,4.697553813E-1,5.308418870E-1
2.897037110E0,4.984660447E-1,4.208861589E-1,5.308418870E-1
2.899052101E0,5.051855445E-1,3.750712574E-1,5.283984542E-1
2.901066247E0,5.064072609E-1,3.561344445E-1,5.265658498E-1
2.903049624E0,5.100724697E-1,3.213151097E-1,5.247332454E-1
2.905063231E0,5.106833577E-1,2.944370508E-1,5.222898126E-1
2.907046838E0,5.094616413E-1,2.846632004E-1,5.204572082E-1
2.909061368E0,5.076290369E-1,2.663372457E-1,5.149593949E-1
2.911044976E0,4.996877611E-1,2.504547536E-1,5.125159621E-1
2.913059121E0,4.978551865E-1,2.406809032E-1,5.082398653E-1
2.915041574E0,4.893030524E-1,2.254092693E-1,5.021312237E-1
2.917056951E0,4.715879560E-1,1.875356287E-1,4.899139404E-1
2.919039173E0,4.715879560E-1,1.875356287E-1,4.899139404E-1
2.921054242E0,4.673119187E-1,1.783726513E-1,4.838052690E-1
2.923069002E0,4.624249935E-1,1.661553532E-1,4.807509482E-1
2.925052687E0,4.520402849E-1,1.380555481E-1,4.715879560E-1
2.927066448E0,4.416555762E-1,1.093448773E-1,4.581489265E-1
2.929050132E0,4.355469346E-1,9.529497474E-2,4.538728893E-1
2.931063662E0,4.263839424E-1,6.230825558E-2,4.416555762E-1
2.933047962E0,4.159992337E-1,2.687807009E-2,4.318817258E-1
2.935062415E0,4.129449129E-1,8.552113548E-3,4.214970171E-1
2.937046176E0,4.037819207E-1,-2.382374369E-2,4.111123085E-1
2.939060937E0,3.976732790E-1,-5.742133409E-2,4.001167417E-1
2.941044236E0,3.940080702E-1,-7.269296050E-2,3.964515328E-1
2.943058382E0,3.848451078E-1,-1.026253626E-1,3.866777122E-1
2.945041528E0,3.799581826E-1,-1.295034289E-1,3.811798990E-1
2.947055596E0,3.805690408E-1,-1.398881376E-1,3.805690408E-1
2.949039280E0,3.726277947E-1,-1.563815027E-1,3.769038618E-1
2.951053118E0,3.683517575E-1,-1.637118906E-1,3.750712574E-1
2.953067032E0,3.579670191E-1,-1.740965992E-1,3.738495409E-1
2.955050409E0,3.488040566E-1,-1.820378453E-1,3.744603992E-1
2.957065170E0,3.433062732E-1,-1.838704348E-1,3.744603992E-1
2.959048239E0,3.341432810E-1,-1.869247705E-1,3.707951903E-1
2.961062999E0,3.213151097E-1,-1.850921661E-1,3.726277947E-1
2.963046607E0,3.182607889E-1,-1.857030392E-1,3.695734739E-1
2.965060753E0,3.139847219E-1,-1.863138974E-1,3.701843321E-1
2.967044437E0,3.060434759E-1,-1.814269722E-1,3.616322279E-1
2.969058351E0,3.017674387E-1,-1.820378453E-1,3.604104817E-1
2.971042266E0,2.974913716E-1,-1.759291887E-1,3.549126983E-1
2.973056412E0,2.883284092E-1,-1.716531366E-1,3.469714522E-1
2.975041327E0,2.828305960E-1,-1.692096740E-1,3.426954150E-1
2.977054010E0,2.700024247E-1,-1.618792862E-1,3.347541690E-1
2.979068695E0,2.590068579E-1,-1.527163088E-1,3.255911767E-1
2.981052687E0,2.528982162E-1,-1.496619880E-1,3.207042515E-1
2.983066294E0,2.425135076E-1,-1.374446750E-1,3.109304011E-1
2.985050285E0,2.394591719E-1,-1.313360333E-1,3.090978265E-1
2.987063816E0,2.296853364E-1,-1.154535338E-1,2.999348342E-1
2.989047731E0,2.235766798E-1,-1.020144969E-1,2.913827300E-1
2.991061261E0,2.180788964E-1,-9.346238524E-2,2.852740586E-1
2.993045329E0,2.119702399E-1,-7.635815442E-2,2.779437006E-1
2.995059167E0,2.058615834E-1,-6.108652428E-2,2.748893499E-1
2.997043390E0,2.028072625E-1,-5.375614017E-2,2.700024247E-1
2.999059382E0,1.930334121E-1,-3.970624134E-2,2.645046413E-1
3.001040296E0,1.850921661E-1,-2.748893574E-2,2.565633953E-1
3.003055134E0,1.771509200E-1,-1.771509275E-2,2.535090744E-1
3.005038511E0,1.655444801E-1,-7.941247895E-3,2.431243658E-1
3.007052657E0,1.557706445E-1,3.054326167E-3,2.357939780E-1
3.009067340E0,1.496619880E-1,6.719517522E-3,2.309070677E-1
3.011050794E0,1.447750628E-1,1.649336144E-2,2.235766798E-1
3.013065247E0,1.380555481E-1,2.748893574E-2,2.125810981E-1
3.015048854E0,1.331686229E-1,3.237585723E-2,2.058615834E-1
3.017062692E0,1.270599663E-1,4.092797264E-2,1.948660165E-1
3.019046761E0,1.240056455E-1,4.520402849E-2,1.912008226E-1
3.021060829E0,1.185078546E-1,5.742133409E-2,1.777617931E-1
3.023044206E0,1.142318025E-1,6.475171447E-2,1.698205322E-1
3.025058043E0,1.093448773E-1,6.902777404E-2,1.631010175E-1
3.027042343E0,1.044579595E-1,7.635815442E-2,1.539380401E-1
3.029055643E0,9.651670605E-2,8.185594529E-2,1.435533315E-1
3.031038635E0,9.468411654E-2,8.124507964E-2,1.362229437E-1
3.033053472E0,8.796459436E-2,8.796459436E-2,1.270599663E-1
3.035067002E0,8.002334833E-2,9.040805697E-2,1.197295859E-1
3.037051840E0,7.941248268E-2,8.918632567E-2,1.130100712E-1
3.039065448E0,7.391469181E-2,8.918632567E-2,1.032362282E-1
3.041049670E0,7.086037099E-2,8.735372871E-2,9.346238524E-2
3.043062662E0,6.963863969E-2,8.674286306E-2,8.796459436E-2
3.045046884E0,6.780604273E-2,8.124507964E-2,7.819075137E-2
3.047061107E0,6.536258012E-2,8.002334833E-2,7.086037099E-2
3.049044098E0,6.108652428E-2,7.024950534E-2,6.047565863E-2
3.051058859E0,5.497787148E-2,6.169738993E-2,4.459316283E-2
3.053042621E0,5.192354694E-2,5.558873713E-2,3.909537569E-2
3.055057690E0,3.787364438E-2,4.459316283E-2,1.954768784E-2
3.057040757E0,2.748893574E-2,3.115412779E-2,6.108652451E-4
3.059055519E0,2.199114859E-2,2.199114859E-2,-1.038470957E-2
3.061038511E0,7.941247895E-3,8.552113548E-3,-3.237585723E-2
3.063052426E0,-5.497787148E-3,-9.162978269E-3,-5.619960278E-2
3.065066801E0,-1.221730467E-2,-1.649336144E-2,-6.719517708E-2
3.067050178E0,-2.687807009E-2,-3.420845419E-2,-9.590584040E-2
3.069064093E0,-4.581489414E-2,-5.192354694E-2,-1.246165112E-1
3.071047777E0,-5.375614017E-2,-5.986479297E-2,-1.404990107E-1
3.073062461E0,-7.574728876E-2,-7.757988572E-2,-1.728748679E-1
3.075045607E0,-9.896016866E-2,-9.346238524E-2,-2.076941878E-1
3.077060599E0,-1.087340117E-1,-1.050688252E-1,-2.235766798E-1
3.079045206E0,-1.343903542E-1,-1.227839142E-1,-2.547308207E-1
3.081056659E0,-1.466076523E-1,-1.307251602E-1,-2.730567753E-1
3.083041804E0,-1.740965992E-1,-1.472185254E-1,-3.048217595E-1
3.085055335E0,-2.021963894E-1,-1.631010175E-1,-3.378084898E-1
3.087039635E0,-2.162462920E-1,-1.692096740E-1,-3.512475193E-1
3.089053164E0,-2.541199327E-1,-1.795943826E-1,-3.824016452E-1
3.091067387E0,-3.237585723E-1,-1.979203373E-1,-4.129449129E-1
3.093050686E0,-3.762930036E-1,-2.089159191E-1,-4.282165468E-1
3.095065524E0,-4.948008358E-1,-2.370157093E-1,-4.660901725E-1
3.097049208E0,-6.017022729E-1,-2.797762752E-1,-5.125159621E-1
3.099063662E0,-6.352998614E-1,-3.054326177E-1,-5.393940210E-1
3.101046423E0,-6.450737119E-1,-3.659082949E-1,-5.937610269E-1
3.103060260E0,-5.919284225E-1,-4.398229718E-1,-6.493497491E-1
3.105044252E0,-5.516113043E-1,-4.831944108E-1,-6.737843752E-1
3.107058398E0,-4.917465150E-1,-5.742133260E-1,-7.232644558E-1
3.109042697E0,-4.703662395E-1,-6.664539576E-1,-7.446447611E-1
3.111056458E0,-4.581489265E-1,-7.110471725E-1,-7.794640660E-1
3.113039911E0,-4.746423066E-1,-7.971791625E-1,-8.020660877E-1
3.115053442E0,-4.886921942E-1,-8.319984674E-1,-8.142833710E-1
3.117068511E0,-5.198463202E-1,-8.833111525E-1,-8.265006542E-1
3.119051271E0,-5.522221923E-1,-9.040805697E-1,-8.313875794E-1
3.121066571E0,-5.650503635E-1,-9.010262489E-1,-8.319984674E-1
3.123050255E0,-5.864306092E-1,-8.680394888E-1,-8.295549750E-1
3.125064478E0,-6.029239893E-1,-7.984008789E-1,-8.216137290E-1
3.127047161E0,-6.102544069E-1,-7.556403279E-1,-8.191702962E-1
3.129061384E0,-6.304129362E-1,-6.554583907E-1,-8.124507666E-1
3.131045299E0,-6.579018831E-1,-5.424483418E-1,-8.087855577E-1
3.133059445E0,-6.707300544E-1,-4.886921942E-1,-8.081747293E-1
3.135044051E0,-7.012733221E-1,-3.903428912E-1,-8.118399382E-1
3.137057966E0,-7.305948138E-1,-3.054326177E-1,-8.197811842E-1
3.139041881E0,-7.446447611E-1,-2.748893499E-1,-8.240572214E-1
3.141055181E0,-7.678576112E-1,-2.345722616E-1,-8.423831463E-1
3.143038172E0,-7.825183868E-1,-2.229658216E-1,-8.521569967E-1
3.145052395E0,-8.051204085E-1,-2.229658216E-1,-8.772025108E-1
3.147066848E0,-8.185594082E-1,-2.425135076E-1,-9.034696817E-1
3.149051071E0,-8.210029006E-1,-2.626720667E-1,-9.150761366E-1
3.151064370E0,-8.265006542E-1,-3.109304011E-1,-9.370672703E-1
3.153047746E0,-8.265006542E-1,-3.646865487E-1,-9.529497623E-1
3.155061584E0,-8.228355050E-1,-3.927863538E-1,-9.590584636E-1
3.157046192E0,-7.910705209E-1,-5.186246037E-1,-9.529497623E-1
3.159058798E0,-7.910705209E-1,-5.186246037E-1,-9.529497623E-1
3.161042713E0,-7.910705209E-1,-5.186246037E-1,-9.529497623E-1
3.163058167E0,-7.874053121E-1,-5.503895879E-1,-9.364564419E-1
3.165041544E0,-7.953465581E-1,-5.723807216E-1,-9.132435322E-1
3.167055919E0,-7.971791625E-1,-5.778785348E-1,-9.004153609E-1
3.169038757E0,-8.136724830E-1,-5.791002512E-1,-8.698720932E-1
3.171053826E0,-8.246681094E-1,-5.772676468E-1,-8.381071091E-1
3.173036818E0,-8.307767510E-1,-5.711590052E-1,-8.228355050E-1
3.175052194E0,-8.423831463E-1,-5.564982295E-1,-7.904596329E-1
3.177065186E0,-8.448266387E-1,-5.479460955E-1,-7.745771408E-1
3.179049716E0,-8.448266387E-1,-5.283984542E-1,-7.470881939E-1
3.181063938E0,-8.368853927E-1,-5.155702829E-1,-7.226535678E-1
3.183046622E0,-8.271115422E-1,-5.070181489E-1,-7.086036801E-1
3.185061076E0,-8.032878041E-1,-4.917465150E-1,-6.914994717E-1
3.187044145E0,-7.782423496E-1,-4.807509482E-1,-6.701191664E-1
3.189058597E0,-7.641924024E-1,-4.789183438E-1,-6.615670323E-1
3.191042666E0,-7.360926270E-1,-4.746423066E-1,-6.444628239E-1
3.193056428E0,-7.141014934E-1,-4.734205604E-1,-6.255260110E-1
3.195039573E0,-7.061602473E-1,-4.728097022E-1,-6.151412725E-1
3.197054641E0,-6.982190013E-1,-4.807509482E-1,-5.986479521E-1
3.199037941E0,-6.884451509E-1,-4.960225821E-1,-5.858197808E-1
3.201051856E0,-6.725626588E-1,-5.039638281E-1,-5.766568184E-1
3.203066925E0,-5.913175344E-1,-5.088507533E-1,-5.522221923E-1
3.205049301E0,-4.269948006E-1,-4.941899776E-1,-5.143485069E-1
3.207064677E0,-3.182607889E-1,-4.838052690E-1,-4.838052690E-1
3.209048439E0,-1.233947799E-1,-4.459316432E-1,-4.208861589E-1
3.211061584E0,-5.131268129E-2,-4.239404798E-1,-3.866777122E-1
3.213045345E0,-6.108652451E-4,-3.714060783E-1,-3.237585723E-1
3.215060337E0,-4.520402849E-2,-3.066543639E-1,-2.596177161E-1
3.217043790E0,-8.735372871E-2,-2.724458873E-1,-2.266310006E-1
3.219058244E0,-1.643227488E-1,-1.918116808E-1,-1.716531366E-1
3.221041542E0,-2.058615834E-1,-1.056796908E-1,-1.197295859E-1
3.223055381E0,-2.046398520E-1,-6.841690838E-2,-9.468411654E-2
3.225039680E0,-1.716531366E-1,9.773843922E-3,-5.803219974E-2
3.227052595E0,-1.111774743E-1,6.780604273E-2,-3.298672289E-2
3.229067433E0,-7.574728876E-2,9.101892263E-2,-2.443460934E-2
3.231051040E0,-1.038470957E-2,1.178969890E-1,-1.099557430E-2
3.233064263E0,4.459316283E-2,1.209513173E-1,-5.497787148E-3
3.235047947E0,6.719517708E-2,1.154535338E-1,-5.497787148E-3
3.237063630E0,1.032362282E-1,8.613199741E-2,-6.719517522E-3
3.239048007E0,1.270599663E-1,4.337143153E-2,-6.719517522E-3
3.241059614E0,1.374446750E-1,2.076941915E-2,-6.719517522E-3
3.243043991E0,1.545489132E-1,-2.687807009E-2,-7.941247895E-3
3.245058367E0,1.600466967E-1,-4.703662544E-2,-6.719517522E-3
3.247042128E0,1.655444801E-1,-8.063421398E-2,-4.886921961E-3
3.249055966E0,1.655444801E-1,-9.712757170E-2,-1.832595794E-3
3.251039573E0,1.673770845E-1,-9.834930301E-2,-6.108652451E-4
3.253054026E0,1.692096740E-1,-8.246681094E-2,6.108652335E-3
3.255038710E0,1.771509200E-1,-4.825835302E-2,1.343903504E-2
3.257051548E0,1.820378453E-1,-2.138028294E-2,2.138028294E-2
3.259066616E0,1.924225539E-1,3.543018550E-2,3.115412779E-2
3.261049762E0,2.028072625E-1,1.038470939E-1,4.703662544E-2
3.263064139E0,2.021963894E-1,1.453859210E-1,5.558873713E-2
3.265047285E0,2.009746730E-1,2.205223590E-1,7.330382615E-2
3.267061660E0,2.034181207E-1,2.999348342E-1,9.285151958E-2
3.269044729E0,2.034181207E-1,3.378084898E-1,1.032362282E-1
3.271058875E0,2.034181207E-1,4.092797041E-1,1.233947799E-1
3.273042636E0,2.052507252E-1,4.746423066E-1,1.362229437E-1
3.275056781E0,2.058615834E-1,5.039638281E-1,1.594358236E-1
3.277041619E0,2.095267773E-1,5.564982295E-1,1.869247705E-1
3.279054842E0,2.113593817E-1,5.821545720E-1,1.991420686E-1
3.281038834E0,2.180788964E-1,6.273586154E-1,2.290744632E-1
3.283052979E0,2.205223590E-1,6.640105247E-1,2.577851415E-1
3.285066817E0,2.229658216E-1,6.780604124E-1,2.736676335E-1
3.287051117E0,2.254092693E-1,7.098253965E-1,3.054326177E-1
3.289065032E0,2.266310006E-1,7.397578359E-1,3.359758854E-1
3.291048407E0,2.290744632E-1,7.507534027E-1,3.524692357E-1
3.293062553E0,2.266310006E-1,7.739662528E-1,3.860668242E-1
3.295046238E0,2.327396572E-1,7.971791625E-1,4.159992337E-1
3.297060614E0,2.382374406E-1,8.057312369E-1,4.300491214E-1
3.299044682E0,2.522873580E-1,8.234463334E-1,4.605923891E-1
3.301058213E0,2.669481039E-1,8.454375267E-1,4.880813360E-1
3.303042128E0,2.773328125E-1,8.533787727E-1,4.996877611E-1
3.305055427E0,2.852740586E-1,8.729264140E-1,5.222898126E-1
3.307039111E0,2.877175212E-1,8.833111525E-1,5.314527750E-1
3.309052949E0,2.816088796E-1,9.022479653E-1,5.461135507E-1
3.311067325E0,2.681698501E-1,9.126327038E-1,5.473352671E-1
3.313051087E0,2.608394623E-1,9.205739498E-1,5.442809463E-1
3.315065232E0,2.559525371E-1,9.272934198E-1,5.320636034E-1
3.317049762E0,2.657263875E-1,9.291260242E-1,5.100724697E-1
3.319063677E0,2.742784917E-1,9.285151958E-1,4.966334403E-1
3.321046746E0,2.944370508E-1,9.230173826E-1,4.654793143E-1
3.323060814E0,3.243694305E-1,9.016370773E-1,4.318817258E-1
3.325044883E0,3.402519524E-1,8.912523985E-1,4.172209501E-1
3.327058721E0,3.701843321E-1,8.600982428E-1,3.866777122E-1
3.329042636E0,4.007275999E-1,8.185594082E-1,3.585779071E-1
3.331055935E0,4.153883755E-1,7.953465581E-1,3.475823104E-1
3.333039927E0,4.404338300E-1,7.470881939E-1,3.286454976E-1
3.335054919E0,4.587597847E-1,7.037167549E-1,3.207042515E-1
3.337037757E0,4.618141353E-1,6.841690540E-1,3.219259977E-1
3.339053133E0,4.721988440E-1,6.456845403E-1,3.243694305E-1
3.341036817E0,4.770857692E-1,6.279694438E-1,3.304781020E-1
3.343050270E0,4.880813360E-1,5.980370641E-1,3.457497358E-1
3.345064415E0,4.941899776E-1,5.711590052E-1,3.701843321E-1
3.347047561E0,4.954117239E-1,5.632177591E-1,3.848451078E-1
3.349062245E0,4.972442985E-1,5.424483418E-1,4.086688459E-1
3.351045314E0,4.935791194E-1,5.247332454E-1,4.367686510E-1
3.353059767E0,4.911356568E-1,5.186246037E-1,4.526511431E-1
3.355043144E0,4.868595898E-1,5.002986193E-1,4.715879560E-1
3.357058520E0,4.807509482E-1,4.764748812E-1,4.838052690E-1
3.359040358E0,4.770857692E-1,4.630358517E-1,4.886921942E-1
3.361056042E0,4.691445231E-1,4.306600094E-1,4.868595898E-1
3.363038495E0,4.636467099E-1,3.952298164E-1,4.783074856E-1
3.365053564E0,4.593706727E-1,3.756821156E-1,4.679227769E-1
3.367036941E0,4.569272101E-1,3.316998184E-1,4.508185387E-1
3.369050547E0,4.489859641E-1,2.840523422E-1,4.239404798E-1
3.371065539E0,4.440990388E-1,2.590068579E-1,4.111123085E-1
3.373048300E0,4.398229718E-1,2.095267773E-1,3.799581826E-1
3.375063369E0,4.343251884E-1,1.844813079E-1,3.646865487E-1
3.377046822E0,4.312708676E-1,1.331686229E-1,3.390302062E-1
3.379060968E0,4.294382632E-1,8.674286306E-2,3.133738637E-1
3.381043729E0,4.306600094E-1,6.414084882E-2,3.029891551E-1
3.383058106E0,4.288274050E-1,2.076941915E-2,2.840523422E-1
3.385041866E0,4.288274050E-1,-1.527163107E-2,2.700024247E-1
3.387056012E0,4.288274050E-1,-3.420845419E-2,2.663372457E-1
3.389040234E0,4.282165468E-1,-6.108652428E-2,2.620611787E-1
3.391054150E0,4.257730842E-1,-8.613199741E-2,2.590068579E-1
3.393037141E0,4.269948006E-1,-9.101892263E-2,2.608394623E-1
3.395051363E0,4.282165468E-1,-1.050688252E-1,2.626720667E-1
3.397065432E0,4.282165468E-1,-1.026253626E-1,2.730567753E-1
3.399048193E0,4.269948006E-1,-9.896016866E-2,2.755002379E-1
3.401060492E0,4.269948006E-1,-9.285151958E-2,2.803871334E-1
3.403047946E0,4.269948006E-1,-8.491026610E-2,2.803871334E-1
3.405061168E0,4.276056588E-1,-7.574728876E-2,2.871066630E-1
3.407045084E0,4.288274050E-1,-5.436700583E-2,2.938261926E-1
3.409059613E0,4.306600094E-1,-4.153883830E-2,2.962696552E-1
3.411043297E0,4.337143302E-1,-1.343903504E-2,2.956587672E-1
3.413057135E0,4.398229718E-1,1.832595654E-2,3.011565804E-1
3.415041435E0,4.428772926E-1,3.481931984E-2,3.017674387E-1
3.417054349E0,4.422664344E-1,6.597344577E-2,3.054326177E-1
3.419038957E0,4.422664344E-1,9.896016866E-2,3.084869385E-1
3.421052179E0,4.428772926E-1,1.160643995E-1,3.078760803E-1
3.423066633E0,4.416555762E-1,1.508837193E-1,3.127630055E-1
3.425049932E0,4.398229718E-1,1.832595766E-1,3.170390725E-1
3.427064462E0,4.386012554E-1,2.015855312E-1,3.152064681E-1
3.429048377E0,4.349360466E-1,2.315179259E-1,3.194825351E-1
3.431062600E0,4.306600094E-1,2.608394623E-1,3.207042515E-1
3.433045360E0,4.276056588E-1,2.718350291E-1,3.243694305E-1
3.435059429E0,4.233296216E-1,2.981022298E-1,3.274237812E-1
3.437044652E0,4.202753007E-1,3.078760803E-1,3.286454976E-1
3.439057029E0,4.153883755E-1,3.286454976E-1,3.298672438E-1
3.441041943E0,4.117231667E-1,3.414736688E-1,3.329215646E-1
3.443056396E0,4.105014503E-1,3.475823104E-1,3.347541690E-1
3.445039465E0,4.056145251E-1,3.567453027E-1,3.335324228E-1
3.447052996E0,3.988949955E-1,3.591887653E-1,3.341432810E-1
3.449036987E0,3.933972120E-1,3.610213697E-1,3.329215646E-1
3.451050748E0,3.830125034E-1,3.579670191E-1,3.316998184E-1
3.453065509E0,3.726277947E-1,3.506366611E-1,3.274237812E-1
3.455050424E0,3.671300113E-1,3.481931984E-1,3.225368559E-1
3.457062800E0,3.530801237E-1,3.371976018E-1,3.176499307E-1
3.459048330E0,3.408628106E-1,3.231477141E-1,3.072652221E-1
3.461061168E0,3.329215646E-1,3.139847219E-1,3.048217595E-1
3.463045160E0,3.139847219E-1,3.017674387E-1,2.932153046E-1
3.465058998E0,2.950479090E-1,2.858849466E-1,2.846632004E-1
3.467042143E0,2.864958048E-1,2.761110961E-1,2.779437006E-1
3.469056289E0,2.693915665E-1,2.608394623E-1,2.669481039E-1
3.471040204E0,2.559525371E-1,2.528982162E-1,2.596177161E-1
3.473054041E0,2.339613885E-1,2.382374406E-1,2.467895597E-1
3.475036880E0,2.174680233E-1,2.205223590E-1,2.309070677E-1
3.477053410E0,2.052507252E-1,2.095267773E-1,2.247984111E-1
3.479037787E0,1.875356287E-1,1.887573600E-1,2.095267773E-1
3.481049085E0,1.685988009E-1,1.692096740E-1,1.924225539E-1
3.483063847E0,1.588249654E-1,1.569923609E-1,1.844813079E-1
3.485048223E0,1.380555481E-1,1.368338168E-1,1.692096740E-1
3.487060830E0,1.221730486E-1,1.142318025E-1,1.502728462E-1
3.489045437E0,1.081231460E-1,1.001819000E-1,1.429424733E-1
3.491059198E0,8.796459436E-2,7.819075137E-2,1.258382350E-1
3.493042960E0,6.597344577E-2,5.436700583E-2,1.056796908E-1
3.495057951E0,5.558873713E-2,4.276056588E-2,9.712757170E-2
3.497040712E0,3.054326214E-2,2.015855350E-2,8.002334833E-2
3.499055473E0,1.099557430E-2,-1.832595794E-3,6.047565863E-2
3.501039157E0,1.221730490E-3,-1.160643995E-2,5.131268129E-2
3.503052764E0,-1.832595654E-2,-3.054326214E-2,3.787364438E-2
3.505036756E0,-2.565634064E-2,-3.848451003E-2,2.993239649E-2
3.507050286E0,-4.337143153E-2,-5.070181563E-2,1.221730467E-2
3.509064740E0,-5.986479297E-2,-6.475171447E-2,0.000000000E0
3.511048423E0,-6.780604273E-2,-6.841690838E-2,-6.719517522E-3
3.513062877E0,-8.307767659E-2,-7.330382615E-2,-1.832595654E-2
3.515045561E0,-1.001819000E-1,-7.941248268E-2,-3.237585723E-2
3.517062168E0,-1.062905490E-1,-8.246681094E-2,-4.031710699E-2
3.519043467E0,-1.191187203E-1,-8.735372871E-2,-5.314527452E-2
3.521058459E0,-1.331686229E-1,-9.407325089E-2,-6.719517708E-2
3.523042528E0,-1.398881376E-1,-9.896016866E-2,-7.330382615E-2
3.525056674E0,-1.539380401E-1,-1.050688252E-1,-8.796459436E-2
3.527039742E0,-1.643227488E-1,-1.160643995E-1,-1.056796908E-1
3.529053811E0,-1.704314053E-1,-1.203404516E-1,-1.148426682E-1
3.531038110E0,-1.808161139E-1,-1.350012124E-1,-1.331686229E-1
3.533051641E0,-1.936442852E-1,-1.453859210E-1,-1.521054506E-1
3.535066401E0,-2.009746730E-1,-1.496619880E-1,-1.624901593E-1
3.537049239E0,-2.089159191E-1,-1.637118906E-1,-1.857030392E-1
3.539064000E0,-2.144137025E-1,-1.661553532E-1,-1.954768747E-1
3.541047069E0,-2.272418737E-1,-1.704314053E-1,-2.125810981E-1
3.543060599E0,-2.412917763E-1,-1.765400618E-1,-2.290744632E-1
3.545044206E0,-2.449569702E-1,-1.777617931E-1,-2.382374406E-1
3.547059583E0,-2.559525371E-1,-1.710422635E-1,-2.522873580E-1
3.549042729E0,-2.675589919E-1,-1.612684280E-1,-2.638937831E-1
3.551056489E0,-2.736676335E-1,-1.539380401E-1,-2.663372457E-1
3.553039866E0,-2.846632004E-1,-1.368338168E-1,-2.736676335E-1
3.555053781E0,-2.932153046E-1,-1.154535338E-1,-2.785545588E-1
3.557039234E0,-2.981022298E-1,-1.038470939E-1,-2.797762752E-1
3.559054071E0,-3.090978265E-1,-7.819075137E-2,-2.834414840E-1
3.561035833E0,-3.170390725E-1,-5.253441259E-2,-2.846632004E-1
3.563050286E0,-3.200933933E-1,-3.909537569E-2,-2.852740586E-1
3.565064508E0,-3.298672438E-1,-1.343903504E-2,-2.858849466E-1
3.567047577E0,-3.390302062E-1,1.832595794E-3,-2.871066630E-1
3.569061953E0,-3.481931984E-1,2.626720630E-2,-2.852740586E-1
3.571045407E0,-3.591887653E-1,4.825835302E-2,-2.852740586E-1
3.573059783E0,-3.659082949E-1,6.169738993E-2,-2.846632004E-1
3.575044467E0,-3.775147200E-1,8.491026610E-2,-2.816088796E-1
3.577057997E0,-3.854559660E-1,1.038470939E-1,-2.864958048E-1
3.579042297E0,-3.897320330E-1,1.117883399E-1,-2.871066630E-1
3.581056442E0,-3.952298164E-1,1.288925707E-1,-2.926044464E-1
3.583039203E0,-4.025602043E-1,1.429424733E-1,-3.011565804E-1
3.585053272E0,-4.074471295E-1,1.472185254E-1,-3.060434759E-1
3.587036956E0,-4.349360466E-1,1.557706445E-1,-3.176499307E-1
3.589050794E0,-4.984660447E-1,1.521054506E-1,-3.365867436E-1
3.591064939E0,-5.424483418E-1,1.441642046E-1,-3.518583775E-1
3.593048931E0,-6.236934066E-1,1.154535338E-1,-3.897320330E-1
3.595062462E0,-6.560692787E-1,6.902777404E-2,-4.386012554E-1
3.597047761E0,-6.420193911E-1,4.153883830E-2,-4.630358517E-1
3.599060291E0,-5.668829679E-1,-2.443460934E-2,-5.167919993E-1
3.601045514E0,-5.155702829E-1,-5.986479297E-2,-5.473352671E-1
3.603058429E0,-4.300491214E-1,-1.325577646E-1,-5.992587805E-1
3.605042189E0,-3.964515328E-1,-2.028072625E-1,-6.475171447E-1
3.607056643E0,-4.013384581E-1,-2.376265824E-1,-6.695083380E-1
3.609040250E0,-4.276056588E-1,-3.029891551E-1,-7.043276429E-1
3.611054165E0,-4.557054639E-1,-3.585779071E-1,-7.330383062E-1
3.613037541E0,-4.697553813E-1,-3.769038618E-1,-7.409795523E-1
3.615052533E0,-4.862487316E-1,-4.050036669E-1,-7.562511563E-1
3.617035371E0,-4.978551865E-1,-4.092797041E-1,-7.617489696E-1
3.619050132E0,-5.039638281E-1,-4.037819207E-1,-7.635815740E-1
3.621064277E0,-5.082398653E-1,-3.824016452E-1,-7.568620443E-1
3.623046961E0,-5.143485069E-1,-3.518583775E-1,-7.476990819E-1
3.625062107E0,-5.192354321E-1,-3.341432810E-1,-7.434229851E-1
3.627045176E0,-5.338962078E-1,-2.987131178E-1,-7.324274182E-1
3.629059321E0,-5.571091175E-1,-2.742784917E-1,-7.189884186E-1
3.631042621E0,-5.681046844E-1,-2.687807083E-1,-7.128797174E-1
3.633057690E0,-5.907067060E-1,-2.614503205E-1,-7.073819637E-1
3.635041066E0,-6.053674817E-1,-2.657263875E-1,-7.067710757E-1
3.637054673E0,-6.658431292E-1,-3.213151097E-1,-7.116580009E-1
3.639037126E0,-6.676757336E-1,-3.384193480E-1,-7.110471725E-1
3.641049118E0,-6.676757336E-1,-3.384193480E-1,-7.110471725E-1
3.643068186E0,-6.707300544E-1,-3.549126983E-1,-7.116580009E-1
3.645051178E0,-6.707300544E-1,-3.878994286E-1,-7.147123218E-1
3.647065401E0,-6.652322412E-1,-4.056145251E-1,-7.177666426E-1
3.649048470E0,-6.560692787E-1,-4.355469346E-1,-7.165449262E-1
3.651061999E0,-6.371324658E-1,-4.569272101E-1,-7.141014934E-1
3.653047145E0,-6.243042946E-1,-4.673119187E-1,-7.110471725E-1
3.655061060E0,-6.084218025E-1,-4.746423066E-1,-6.988298297E-1
3.657044360E0,-5.931501389E-1,-4.715879560E-1,-6.823364496E-1
3.659059505E0,-5.919284225E-1,-4.667010605E-1,-6.731734872E-1
3.661042266E0,-5.955936313E-1,-4.477642179E-1,-6.511823535E-1
3.663055796E0,-6.041457057E-1,-4.129449129E-1,-6.304129362E-1
3.665039711E0,-6.053674817E-1,-3.921754956E-1,-6.188064814E-1
3.667053856E0,-6.102544069E-1,-3.457497358E-1,-5.949827433E-1
3.669037541E0,-6.078109145E-1,-3.194825351E-1,-5.858197808E-1
3.671051994E0,-5.974262357E-1,-2.632829249E-1,-5.595525503E-1
3.673035371E0,-5.827654600E-1,-2.052507252E-1,-5.406157374E-1
3.675048977E0,-5.766568184E-1,-1.802052408E-1,-5.296201706E-1
3.677063969E0,-5.650503635E-1,-1.319468915E-1,-5.076290369E-1
3.679046500E0,-5.473352671E-1,-1.020144969E-1,-4.862487316E-1
3.681061492E0,-5.308418870E-1,-9.101892263E-2,-4.752531648E-1
3.683045252E0,-4.465425014E-1,-6.536258012E-2,-4.434881806E-1
3.685059398E0,-3.017674387E-1,-2.932153270E-2,-4.001167417E-1
3.687042390E0,-2.217440903E-1,-9.773843922E-3,-3.677408695E-1
3.689056843E0,-8.246681094E-2,4.092797264E-2,-2.987131178E-1
3.691040296E0,-2.871066704E-2,9.407325089E-2,-2.260201424E-1
3.693054365E0,-4.031710699E-2,1.233947799E-1,-1.893682331E-1
3.695039049E0,-9.834930301E-2,1.838704348E-1,-1.148426682E-1
3.697052887E0,-1.356120855E-1,2.547308207E-1,-7.757988572E-2
3.699035955E0,-1.777617931E-1,2.944370508E-1,-6.719517522E-3
3.701051255E0,-1.661553532E-1,3.720169365E-1,6.047565863E-2
3.703063939E0,-1.404990107E-1,4.105014503E-1,9.040805697E-2
3.705048162E0,-7.024950534E-2,4.825835526E-1,1.447750628E-1
3.707061768E0,8.552113548E-3,5.369505286E-1,1.881465018E-1
3.709045453E0,3.848451003E-2,5.626068711E-1,2.034181207E-1
3.711059522E0,7.941248268E-2,5.986479521E-1,2.247984111E-1
3.713042975E0,9.834930301E-2,6.096435189E-1,2.351831198E-1
3.715056812E0,1.032362282E-1,6.114761233E-1,2.376265824E-1
3.717041958E0,1.081231460E-1,5.998696685E-1,2.309070677E-1
3.719057027E0,1.117883399E-1,5.717698932E-1,2.229658216E-1
3.721038250E0,1.203404516E-1,5.534439087E-1,2.193006277E-1
3.723053010E0,1.417207420E-1,5.076290369E-1,2.021963894E-1
3.725037002E0,1.643227488E-1,4.569272101E-1,1.844813079E-1
3.727050840E0,1.740965992E-1,4.343251884E-1,1.753183305E-1
3.729065908E0,1.899790913E-1,3.903428912E-1,1.551597714E-1
3.731048977E0,1.905899495E-1,3.714060783E-1,1.453859210E-1
3.733063200E0,1.857030392E-1,3.439171314E-1,1.221730486E-1
3.735046576E0,1.649336219E-1,3.286454976E-1,1.026253626E-1
3.737061337E0,1.496619880E-1,3.249803185E-1,9.224065393E-2
3.739045329E0,1.191187203E-1,3.249803185E-1,6.841690838E-2
3.741058552E0,8.979719132E-2,3.280346394E-1,4.764748737E-2
3.743042467E0,7.635815442E-2,3.298672438E-1,3.481931984E-2
3.745055765E0,5.742133409E-2,3.280346394E-1,1.221730467E-2
3.747039450E0,4.337143153E-2,3.255911767E-1,-9.162978269E-3
3.749054442E0,3.787364438E-2,3.207042515E-1,-2.076941915E-2
3.751037895E0,3.604105115E-2,3.023782969E-1,-3.359758854E-2
3.753051655E0,3.970624134E-2,2.755002379E-1,-4.276056588E-2
3.755035032E0,4.153883830E-2,2.602286041E-1,-4.459316283E-2
3.757049486E0,3.909537569E-2,2.205223590E-1,-4.214970022E-2
3.759063093E0,3.543018550E-2,1.802052408E-1,-3.481931984E-2
3.761047930E0,2.748893574E-2,1.612684280E-1,-3.054326214E-2
3.763061461E0,1.282817032E-2,1.258382350E-1,-1.282817032E-2
3.765044837E0,7.941247895E-3,1.081231460E-1,-3.665191587E-3
3.767059906E0,-5.497787148E-3,8.613199741E-2,1.282817032E-2
3.769043589E0,-9.162978269E-3,7.391469181E-2,2.871066704E-2
3.771056889E0,-4.886921961E-3,7.147123665E-2,3.726277873E-2
3.773040189E0,6.719517522E-3,7.574728876E-2,5.253441259E-2
3.775055642E0,2.443460934E-2,9.162978828E-2,6.597344577E-2
3.777038633E0,3.237585723E-2,1.007927656E-1,7.147123665E-2
3.779054010E0,5.009094998E-2,1.221730486E-1,8.185594529E-2
3.781036540E0,5.925392732E-2,1.459967941E-1,9.101892263E-2
3.783050917E0,6.352998316E-2,1.545489132E-1,9.407325089E-2
3.785065062E0,7.086037099E-2,1.759291887E-1,1.032362282E-1
3.787047900E0,8.613199741E-2,1.973094791E-1,1.154535338E-1
3.789062892E0,9.285151958E-2,2.058615834E-1,1.185078546E-1
3.791045730E0,1.069014147E-1,2.217440903E-1,1.295034289E-1
3.793060183E0,1.160643995E-1,2.357939780E-1,1.404990107E-1
3.795043482E0,1.215621829E-1,2.400700450E-1,1.472185254E-1
3.797058628E0,1.307251602E-1,2.498438805E-1,1.643227488E-1
3.799043851E0,1.337794960E-1,2.528982162E-1,1.716531366E-1
3.801055227E0,1.417207420E-1,2.614503205E-1,1.875356287E-1
3.803039142E0,1.508837193E-1,2.706133127E-1,2.046398520E-1
3.805053980E0,1.588249654E-1,2.712241709E-1,2.131919712E-1
3.807037587E0,1.747074574E-1,2.816088796E-1,2.272418737E-1
3.809051501E0,1.948660165E-1,2.913827300E-1,2.400700450E-1
3.811034263E0,2.070833147E-1,2.926044464E-1,2.486221492E-1
3.813048332E0,2.302961946E-1,3.060434759E-1,2.614503205E-1
3.815064324E0,2.455678284E-1,3.182607889E-1,2.712241709E-1
3.817046468E0,2.535090744E-1,3.268128932E-1,2.767219543E-1
3.819062153E0,2.663372457E-1,3.445279896E-1,2.828305960E-1
3.821045606E0,2.809980214E-1,3.695734739E-1,2.907718420E-1
3.823059444E0,2.883284092E-1,3.805690408E-1,2.962696552E-1
3.825042743E0,3.072652221E-1,4.092797041E-1,3.023782969E-1
3.827056966E0,3.182607889E-1,4.447098970E-1,3.115412891E-1
3.829039419E0,3.268128932E-1,4.636467099E-1,3.158173263E-1
3.831054488E0,3.433062732E-1,5.009095073E-1,3.274237812E-1
3.833038402E0,3.463605940E-1,5.192354321E-1,3.316998184E-1
3.835051625E0,3.555235863E-1,5.583308339E-1,3.445279896E-1
3.837036233E0,3.604104817E-1,5.925393105E-1,3.579670191E-1
3.839049225E0,3.622430861E-1,6.059783101E-1,3.659082949E-1
3.841063985E0,3.640756905E-1,6.304129362E-1,3.805690408E-1
3.843047977E0,3.665191531E-1,6.481280327E-1,3.970624208E-1
3.845062046E0,3.677408695E-1,6.542366743E-1,4.025602043E-1
3.847046038E0,3.738495409E-1,6.609562039E-1,4.190535545E-1
3.849059952E0,3.769038618E-1,6.603453159E-1,4.331034720E-1
3.851043636E0,3.762930036E-1,6.572909951E-1,4.410447180E-1
3.853058013E0,3.787364662E-1,6.456845403E-1,4.569272101E-1
3.855042082E0,3.744603992E-1,6.371324658E-1,4.667010605E-1
3.857055534E0,3.732386529E-1,6.279694438E-1,4.746423066E-1
3.859040142E0,3.714060783E-1,6.065891981E-1,4.838052690E-1
3.861053364E0,3.738495409E-1,5.943718553E-1,4.886921942E-1
3.863036818E0,3.762930036E-1,5.644394755E-1,4.984660447E-1
3.865050271E0,3.781255782E-1,5.259549618E-1,5.027421117E-1
3.867065032E0,3.805690408E-1,5.009095073E-1,5.051855445E-1
3.869048793E0,3.805690408E-1,4.569272101E-1,5.015203953E-1
3.871062323E0,3.824016452E-1,4.037819207E-1,4.917465150E-1
3.873046238E0,3.830125034E-1,3.756821156E-1,4.856378734E-1
3.875060153E0,3.885102868E-1,3.170390725E-1,4.691445231E-1
3.877043222E0,3.970624208E-1,2.070833147E-1,4.202753007E-1
3.879056443E0,3.970624208E-1,2.070833147E-1,4.202753007E-1
3.881039205E0,3.982841372E-1,1.838704348E-1,4.092797041E-1
3.883057043E0,4.019493461E-1,1.404990107E-1,3.848451078E-1
3.885040419E0,4.074471295E-1,1.178969890E-1,3.720169365E-1
3.887054257E0,4.172209501E-1,8.063421398E-2,3.524692357E-1
3.889037633E0,4.306600094E-1,5.253441259E-2,3.329215646E-1
3.891051394E0,4.386012554E-1,4.092797264E-2,3.274237812E-1
3.893035386E0,4.575380683E-1,2.260201424E-2,3.158173263E-1
3.895050454E0,4.618141353E-1,1.649336144E-2,3.127630055E-1
3.897063754E0,4.801400900E-1,9.773843922E-3,3.109304011E-1
3.899048361E0,4.960225821E-1,6.108652335E-3,3.133738637E-1
3.901061584E0,5.057964325E-1,6.108652335E-3,3.158173263E-1
3.903044960E0,5.222898126E-1,1.038470957E-2,3.255911767E-1
3.905059106E0,5.351179838E-1,2.015855350E-2,3.390302062E-1
3.907043021E0,5.418374538E-1,2.382374369E-2,3.463605940E-1
3.909056936E0,5.546656251E-1,3.848451003E-2,3.610213697E-1
3.911040542E0,5.644394755E-1,5.314527452E-2,3.793473244E-1
3.913054996E0,5.681046844E-1,6.230825558E-2,3.872885704E-1
3.915037834E0,5.723807216E-1,8.002334833E-2,4.037819207E-1
3.917054057E0,5.754350424E-1,9.957103431E-2,4.221078753E-1
3.919035663E0,5.717698932E-1,1.105666086E-1,4.312708676E-1
3.921051578E0,5.638286471E-1,1.282816976E-1,4.459316432E-1
3.923033801E0,5.497786999E-1,1.459967941E-1,4.612032473E-1
3.925048485E0,5.406157374E-1,1.557706445E-1,4.673119187E-1
3.927062630E0,5.241223574E-1,1.685988009E-1,4.770857692E-1
3.929046084E0,5.125159621E-1,1.747074574E-1,4.825835526E-1
3.931059306E0,4.972442985E-1,1.869247705E-1,4.893030524E-1
3.933043837E0,4.874704778E-1,1.918116808E-1,4.941899776E-1
3.935058059E0,4.813618064E-1,1.960877478E-1,4.929682612E-1
3.937041051E0,4.679227769E-1,2.003637999E-1,4.984660447E-1
3.939056812E0,4.575380683E-1,2.015855312E-1,4.966334403E-1
3.941040112E0,4.520402849E-1,2.003637999E-1,4.954117239E-1
3.943053410E0,4.392121136E-1,1.973094791E-1,4.880813360E-1
3.945037941E0,4.239404798E-1,1.887573600E-1,4.807509482E-1
3.947051548E0,4.147774875E-1,1.814269722E-1,4.715879560E-1
3.949034617E0,3.964515328E-1,1.661553532E-1,4.575380683E-1
3.951049608E0,3.799581826E-1,1.441642046E-1,4.404338300E-1
3.953062831E0,3.732386529E-1,1.301143020E-1,4.306600094E-1
3.955046515E0,3.561344445E-1,1.032362282E-1,4.111123085E-1
3.957062275E0,3.433062732E-1,7.269296050E-2,3.854559660E-1
3.959046190E0,3.371976018E-1,5.558873713E-2,3.762930036E-1
3.961057952E0,3.213151097E-1,2.321287990E-2,3.524692357E-1
3.963042559E0,3.127630055E-1,7.330383174E-3,3.378084898E-1
3.965056396E0,2.950479090E-1,-2.443460934E-2,3.145956099E-1
3.967039158E0,2.779437006E-1,-5.497787148E-2,2.907718420E-1
3.969054534E0,2.706133127E-1,-6.719517708E-2,2.755002379E-1
