"Time (s)","Acceleration x (m/s^2)","Acceleration y (m/s^2)","Acceleration z (m/s^2)"
6.261037000E-3,3.914519787E0,-6.828263283E0,5.319916248E0
8.305890000E-3,3.883395195E0,-6.823474884E0,5.358223438E0
1.041120200E-2,3.861847401E0,-6.813898087E0,5.401319027E0
1.239490100E-2,3.852270603E0,-6.801927090E0,5.420472622E0
1.440990600E-2,3.828328609E0,-6.797138691E0,5.458779812E0
1.639306500E-2,3.828328609E0,-6.794744492E0,5.482721806E0
1.840745500E-2,3.809175014E0,-6.789956093E0,5.506663799E0
2.039207600E-2,3.756502390E0,-6.799532890E0,5.528211594E0
2.240508100E-2,3.751713991E0,-6.813898087E0,5.547365189E0
2.438908700E-2,3.732560396E0,-6.847416878E0,5.547365189E0
2.640293900E-2,3.715801001E0,-6.895300865E0,5.547365189E0
2.838686800E-2,3.715801001E0,-6.916848660E0,5.554547787E0
3.040102700E-2,3.706224203E0,-6.959944248E0,5.554547787E0
3.238387900E-2,3.727771997E0,-6.981492043E0,5.564124584E0
3.439865300E-2,3.725377798E0,-6.998251438E0,5.576095581E0
3.641242800E-2,3.727771997E0,-7.003039837E0,5.592854977E0
3.839643300E-2,3.689464808E0,-7.003039837E0,5.592854977E0
4.041090100E-2,3.684676409E0,-7.000645638E0,5.600037575E0
4.239436700E-2,3.675099611E0,-6.995857239E0,5.609614372E0
4.440852700E-2,3.672705412E0,-7.007828236E0,5.626373768E0
4.639153200E-2,3.677493811E0,-7.007828236E0,5.628767967E0
4.840600000E-2,3.687070608E0,-7.015010834E0,5.609614372E0
5.039008200E-2,3.684676409E0,-7.007828236E0,5.612008572E0
5.240508800E-2,3.687070608E0,-7.005434036E0,5.628767967E0
5.438878500E-2,3.670311213E0,-7.019799232E0,5.623979568E0
5.640240600E-2,3.670311213E0,-7.034164429E0,5.619191170E0
5.838518100E-2,3.660734415E0,-7.067683220E0,5.616796970E0
6.039995600E-2,3.660734415E0,-7.065289021E0,5.616796970E0
6.238334500E-2,3.665522814E0,-7.079654217E0,5.623979568E0
6.439712100E-2,3.675099611E0,-7.110779285E0,5.628767967E0
6.641166400E-2,3.670311213E0,-7.132327080E0,5.633556366E0
6.839528500E-2,3.667917013E0,-7.139509678E0,5.643133640E0
7.040982900E-2,3.653551817E0,-7.139509678E0,5.647922039E0
7.239322000E-2,3.636792421E0,-7.129932880E0,5.650316238E0
7.440791700E-2,3.624821424E0,-7.120356083E0,5.652710438E0
7.639100000E-2,3.591302633E0,-7.127538681E0,5.667075634E0
7.840515900E-2,3.569754839E0,-7.127538681E0,5.671864033E0
8.038862600E-2,3.576937437E0,-7.105990410E0,5.671864033E0
8.240178500E-2,3.591302633E0,-7.089231014E0,5.669469833E0
8.438609900E-2,3.593696833E0,-7.096413612E0,5.664681435E0
8.640087300E-2,3.591302633E0,-7.082048416E0,5.650316238E0
8.838434100E-2,3.586514235E0,-7.070077419E0,5.638344765E0
9.039819200E-2,3.586514235E0,-7.070077419E0,5.623979568E0
9.241319800E-2,3.567360640E0,-7.050923824E0,5.590460777E0
9.439843300E-2,3.550601006E0,-7.053318024E0,5.583278179E0
9.641105500E-2,3.548206806E0,-7.043741226E0,5.580883980E0
9.839382900E-2,3.548206806E0,-7.067683220E0,5.547365189E0
1.004086040E-1,3.564966440E0,-7.055712223E0,5.540182590E0
1.023923020E-1,3.557783842E0,-7.055712223E0,5.532999992E0
1.044061540E-1,3.521870613E0,-7.048529625E0,5.516240597E0
1.063902360E-1,3.514688015E0,-7.046135426E0,5.480327606E0
1.084046260E-1,3.505111217E0,-7.041347027E0,5.458779812E0
1.103870930E-1,3.471592426E0,-7.055712223E0,5.422866821E0
1.124019450E-1,3.447650433E0,-7.043741226E0,5.403713226E0
1.143868730E-1,3.392583847E0,-7.036558628E0,5.398924828E0
1.163998010E-1,3.303998232E0,-7.038952827E0,5.386953831E0
1.183834230E-1,3.251325846E0,-7.048529625E0,5.355829239E0
1.203969660E-1,3.078943491E0,-7.084442616E0,5.298368454E0
1.224130490E-1,2.822763920E0,-7.113173485E0,5.274426460E0
1.243963620E-1,2.700659513E0,-7.129932880E0,5.276820660E0
1.264087520E-1,2.664746523E0,-7.132327080E0,5.353435040E0
1.283936800E-1,2.901772499E0,-7.086836815E0,5.473145008E0
1.304072250E-1,3.076549292E0,-7.062894821E0,5.506663799E0
1.323909220E-1,3.457227230E0,-7.015010834E0,5.521028996E0
1.344059280E-1,3.785232782E0,-6.991068840E0,5.485116005E0
1.363887020E-1,3.890577793E0,-6.979097843E0,5.458779812E0
1.384029390E-1,3.964797974E0,-6.995857239E0,5.422866821E0
1.403875600E-1,3.866635799E0,-7.005434036E0,5.382165432E0
1.424007960E-1,3.811569214E0,-7.015010834E0,5.384559631E0
1.443841860E-1,3.761290789E0,-6.993463039E0,5.403713226E0
1.463985770E-1,3.763684988E0,-7.005434036E0,5.403713226E0
1.484121970E-1,3.766079187E0,-7.005434036E0,5.363011837E0
1.503962030E-1,3.655946016E0,-7.036558628E0,5.300762653E0
1.524103620E-1,3.545812607E0,-7.050923824E0,5.255272865E0
1.543945990E-1,3.313575268E0,-7.077260017E0,5.240907669E0
1.564084500E-1,3.179499865E0,-7.094019413E0,5.274426460E0
1.583913020E-1,3.157952070E0,-7.096413612E0,5.284003258E0
1.604054610E-1,3.172317266E0,-7.096413612E0,5.310339451E0
1.623894670E-1,3.241749048E0,-7.082048416E0,5.281609058E0
1.644042410E-1,3.251325846E0,-7.077260017E0,5.267243862E0
1.663872470E-1,3.277662039E0,-7.086836815E0,5.264849663E0
1.684017140E-1,3.375824451E0,-7.084442616E0,5.228936672E0
1.703851810E-1,3.383007050E0,-7.091625214E0,5.183446884E0
1.723993400E-1,3.320757866E0,-7.113173485E0,5.157110691E0
1.744134230E-1,3.311181068E0,-7.094019413E0,5.114014626E0
1.763975050E-1,3.294421434E0,-7.094019413E0,5.097255230E0
1.784107420E-1,3.320757866E0,-7.094019413E0,5.106832027E0
1.803952850E-1,3.308786631E0,-7.103596210E0,5.070919037E0
1.824095220E-1,3.313575268E0,-7.094019413E0,5.046977043E0
1.843934500E-1,3.318363667E0,-7.105990410E0,5.073313236E0
1.864073020E-1,3.339911461E0,-7.110779285E0,5.082890034E0
1.883903840E-1,3.327940464E0,-7.098807812E0,5.032611847E0
1.904046210E-1,3.306392431E0,-7.108384609E0,4.972756863E0
1.923891640E-1,3.299209833E0,-7.108384609E0,4.958391666E0
1.944030930E-1,3.308786631E0,-7.094019413E0,4.960785866E0
1.963858680E-1,3.354276657E0,-7.089231014E0,4.881777287E0
1.984008740E-1,3.354276657E0,-7.096413612E0,4.867412090E0
2.003833400E-1,3.361459255E0,-7.117961884E0,4.824316502E0
2.023990380E-1,3.378218651E0,-7.098807812E0,4.845864296E0
2.044126590E-1,3.402160645E0,-7.101202011E0,4.841075897E0
2.063950490E-1,3.423708439E0,-7.103596210E0,4.836287498E0
2.084101310E-1,3.493140221E0,-7.074865818E0,4.831499100E0
2.103939070E-1,3.509899616E0,-7.072471619E0,4.838681698E0
2.124082960E-1,3.507505417E0,-7.098807812E0,4.793191910E0
2.143926100E-1,3.505111217E0,-7.103596210E0,4.809951305E0
2.164058460E-1,3.526659012E0,-7.103596210E0,4.786009312E0
2.183899290E-1,3.541024208E0,-7.115567684E0,4.771644115E0
2.204049340E-1,3.524264812E0,-7.115567684E0,4.750096321E0
2.223874780E-1,3.452438831E0,-7.113173485E0,4.711789131E0
2.244010220E-1,3.387795448E0,-7.115567684E0,4.697423935E0
2.263856420E-1,3.347094059E0,-7.110779285E0,4.659116745E0
2.283991090E-1,3.282450438E0,-7.096413612E0,4.630385876E0
2.304126540E-1,3.244143248E0,-7.101202011E0,4.647145271E0
2.323975820E-1,3.246537447E0,-7.101202011E0,4.675876141E0
2.344123570E-1,3.265691042E0,-7.122750282E0,4.723760128E0
2.363958240E-1,3.342305660E0,-7.122750282E0,4.764461517E0
2.384093680E-1,3.371036053E0,-7.122750282E0,4.764461517E0
2.403920660E-1,3.488351822E0,-7.134721279E0,4.769249916E0
2.424065320E-1,3.548206806E0,-7.163451672E0,4.766855717E0
2.443906150E-1,3.679888010E0,-7.180211067E0,4.783615112E0
2.464050050E-1,3.785232782E0,-7.240066051E0,4.826710701E0
2.483884720E-1,3.833117008E0,-7.271190643E0,4.860229492E0
2.504020160E-1,3.900154591E0,-7.350199223E0,4.891354084E0
2.523857140E-1,3.921702385E0,-7.402871609E0,4.886565685E0
2.544004110E-1,3.921702385E0,-7.422025204E0,4.874594688E0
2.563838020E-1,3.869029999E0,-7.457938194E0,4.862623692E0
2.583985760E-1,3.799597979E0,-7.486668587E0,4.853046894E0
2.604130440E-1,3.785232782E0,-7.505822182E0,4.855441093E0
2.623962030E-1,3.785232782E0,-7.558494568E0,4.872200489E0
2.644100550E-1,3.809175014E0,-7.596801758E0,4.872200489E0
2.663937520E-1,3.823540211E0,-7.603984833E0,4.867412090E0
2.684079120E-1,3.835511208E0,-7.656657219E0,4.862623692E0
2.703915320E-1,3.864241600E0,-7.726089001E0,4.872200489E0
2.724066150E-1,3.866635799E0,-7.740454197E0,4.879383087E0
2.743903890E-1,3.871424198E0,-7.809885979E0,4.898536682E0
2.764036260E-1,3.869029999E0,-7.893682957E0,4.929661274E0
2.783867080E-1,3.883395195E0,-7.948749542E0,4.999093056E0
2.804011760E-1,3.933673382E0,-8.063671112E0,5.061342239E0
2.823851810E-1,3.950432777E0,-8.123526573E0,5.080495834E0
2.843995710E-1,3.964797974E0,-8.224082947E0,5.118803024E0
2.864125760E-1,3.995922565E0,-8.319850922E0,5.173870087E0
2.883968900E-1,4.015076160E0,-8.353369713E0,5.195417881E0
2.904106640E-1,4.031835556E0,-8.427590370E0,5.257667065E0
2.923949780E-1,4.043806553E0,-8.458714485E0,5.305551052E0
2.944103680E-1,4.048594952E0,-8.468291283E0,5.319916248E0
2.963938350E-1,4.012681961E0,-8.453926086E0,5.355829239E0
2.984064560E-1,3.948038578E0,-8.415618896E0,5.384559631E0
3.003901540E-1,3.912125587E0,-8.386888504E0,5.408501625E0
3.024048510E-1,3.847482204E0,-8.336610794E0,5.461174011E0
3.043883190E-1,3.773261786E0,-8.267178535E0,5.501875401E0
3.064027850E-1,3.725377798E0,-8.233659744E0,5.518634796E0
3.083860990E-1,3.646369219E0,-8.161833763E0,5.537788391E0
3.104002580E-1,3.596091032E0,-8.104372978E0,5.544970989E0
3.123837250E-1,3.485957623E0,-8.087613106E0,5.571307182E0
3.143981920E-1,3.361459255E0,-8.063671112E0,5.604825974E0
3.164123520E-1,3.308786631E0,-8.068459511E0,5.607220173E0
3.183960490E-1,3.191470861E0,-8.063671112E0,5.592854977E0
3.204073630E-1,3.071760893E0,-8.075642586E0,5.549759388E0
3.223932910E-1,3.016694069E0,-8.078036308E0,5.530605793E0
3.244083740E-1,2.901772499E0,-8.070854187E0,5.470750809E0
3.263913790E-1,2.791639090E0,-8.034940720E0,5.403713226E0
3.284056150E-1,2.743755102E0,-8.032546997E0,5.391742229E0
3.303892360E-1,2.674323320E0,-8.025363922E0,5.396530628E0
3.324037030E-1,2.621650934E0,-8.020575523E0,5.360617638E0
3.343880930E-1,2.619256735E0,-8.003816605E0,5.341464043E0
3.364010220E-1,2.657563925E0,-7.967903137E0,5.274426460E0
3.383849500E-1,2.671929121E0,-7.910442352E0,5.121197224E0
3.403998020E-1,2.741360903E0,-7.869740963E0,5.023035049E0
3.424138840E-1,2.822763920E0,-7.812280178E0,4.809951305E0
3.443970440E-1,2.877830505E0,-7.783549786E0,4.702212334E0
3.464112030E-1,2.995146275E0,-7.706935406E0,4.515464306E0
3.483948240E-1,3.134010077E0,-7.690176010E0,4.376600742E0
3.504096760E-1,3.193865061E0,-7.694964409E0,4.311957359E0
3.523927580E-1,3.311181068E0,-7.702147007E0,4.175487995E0
3.544081480E-1,3.416525841E0,-7.747636795E0,4.036623955E0
3.563906150E-1,3.457227230E0,-7.785943985E0,3.974374771E0
3.584050050E-1,3.524264812E0,-7.869740963E0,3.876212597E0
3.603875490E-1,3.574543238E0,-7.975085735E0,3.811569214E0
3.624028620E-1,3.591302633E0,-8.025363922E0,3.794809580E0
3.643862520E-1,3.615244627E0,-8.113949776E0,3.763684988E0
3.663995660E-1,3.603273630E0,-8.195352554E0,3.737348795E0
3.684146490E-1,3.620033026E0,-8.240841866E0,3.725377798E0
3.703979610E-1,3.610456228E0,-8.324639320E0,3.727771997E0
3.724125050E-1,3.591302633E0,-8.396465302E0,3.744531393E0
3.743977420E-1,3.581725836E0,-8.413225174E0,3.768473387E0
3.764094390E-1,3.538630009E0,-8.456320763E0,3.811569214E0
3.783936760E-1,3.512293816E0,-8.470685959E0,3.825934410E0
3.804091420E-1,3.473986626E0,-8.487444878E0,3.830722809E0
3.823916100E-1,3.409343243E0,-8.508993149E0,3.828328609E0
3.844057690E-1,3.375824451E0,-8.528146744E0,3.842693806E0
3.863903900E-1,3.308786631E0,-8.542511940E0,3.869029999E0
3.884033180E-1,3.248931646E0,-8.547300339E0,3.852270603E0
3.903872470E-1,3.222595453E0,-8.556877136E0,3.861847401E0
3.924014060E-1,3.172317266E0,-8.599972725E0,3.866635799E0
3.943860270E-1,3.148375273E0,-8.604761124E0,3.849876404E0
3.963993400E-1,3.131615877E0,-8.602366447E0,3.842693806E0
3.984128080E-1,3.090914488E0,-8.628703117E0,3.852270603E0
4.003959670E-1,3.076549292E0,-8.659827232E0,3.881000996E0
4.024101260E-1,3.076549292E0,-8.659827232E0,3.897760391E0
4.043950540E-1,3.088520288E0,-8.690952301E0,3.907337189E0
4.064082910E-1,3.088520288E0,-8.717288017E0,3.890577793E0
4.083925270E-1,3.062183857E0,-8.719682693E0,3.869029999E0
4.104064560E-1,3.002328873E0,-8.705317497E0,3.835511208E0
4.123901530E-1,2.968810081E0,-8.693346024E0,3.818751812E0
4.144057750E-1,2.877830505E0,-8.698134422E0,3.801992416E0
4.163880110E-1,2.767697096E0,-8.690952301E0,3.780444384E0
4.184020930E-1,2.703053713E0,-8.686163902E0,3.778050184E0
4.203861750E-1,2.571372509E0,-8.671798706E0,3.787626982E0
4.223996430E-1,2.454056740E0,-8.652645111E0,3.816357613E0
4.244144940E-1,2.403778553E0,-8.645462036E0,3.835511208E0
4.263978080E-1,2.296039343E0,-8.621520042E0,3.866635799E0
4.284119670E-1,2.217030764E0,-8.590395927E0,3.909731388E0
4.303962800E-1,2.176329374E0,-8.583212852E0,3.931279182E0
4.324099010E-1,2.116474390E0,-8.547300339E0,3.974374771E0
4.343947530E-1,2.070984364E0,-8.508993149E0,4.050989151E0
4.364083730E-1,2.044648170E0,-8.516175270E0,4.113238335E0
4.383914560E-1,2.003946781E0,-8.518569946E0,4.249708176E0
4.404046920E-1,2.001552582E0,-8.511386871E0,4.311957359E0
4.423901600E-1,2.001552582E0,-8.520963669E0,4.448426723E0
4.444037030E-1,2.003946781E0,-8.540117264E0,4.608838081E0
4.463867860E-1,2.013523579E0,-8.556877136E0,4.692635536E0
4.484012520E-1,2.037465572E0,-8.602366447E0,4.783615112E0
4.503843350E-1,2.082955360E0,-8.616731644E0,4.675876141E0
4.523991100E-1,2.102109194E0,-8.619126320E0,4.572925091E0
4.544145000E-1,2.130839586E0,-8.635885239E0,4.350264549E0
4.563970440E-1,2.152387381E0,-8.619126320E0,4.173093796E0
4.584108190E-1,2.157175779E0,-8.614337921E0,4.118026733E0
4.603952090E-1,2.154781580E0,-8.623914719E0,4.041412354E0
4.624090610E-1,2.149993181E0,-8.628703117E0,3.955221176E0
4.643924500E-1,2.142810583E0,-8.623914719E0,3.909731388E0
4.664065330E-1,2.152387381E0,-8.621520042E0,3.833117008E0
4.683900000E-1,2.173935175E0,-8.580819130E0,3.773261786E0
4.704044670E-1,2.190694571E0,-8.561665535E0,3.751713991E0
4.723875490E-1,2.248155355E0,-8.535328865E0,3.687070608E0
4.744023250E-1,2.262520552E0,-8.513781548E0,3.651157618E0
4.763866370E-1,2.329558372E0,-8.475474358E0,3.560178041E0
4.784001820E-1,2.389413357E0,-8.432378769E0,3.459621429E0
4.804103410E-1,2.425326347E0,-8.401253700E0,3.406949043E0
4.823967300E-1,2.497152328E0,-8.348581314E0,3.330334663E0
4.844124280E-1,2.578555346E0,-8.317456245E0,3.251325846E0
4.863955100E-1,2.628833532E0,-8.300697327E0,3.213018656E0
4.884097470E-1,2.686294317E0,-8.248024940E0,3.136404276E0
4.903933680E-1,2.748543501E0,-8.207323074E0,3.021482468E0
4.924082200E-1,2.774879694E0,-8.190564156E0,2.975992680E0
4.943916090E-1,2.806004286E0,-8.145073891E0,2.875436306E0
4.964054620E-1,2.858676910E0,-8.109161377E0,2.798821688E0
4.983882360E-1,2.868253708E0,-8.109161377E0,2.760514498E0
5.004035490E-1,2.889801502E0,-8.070854187E0,2.683900118E0
5.023870160E-1,2.887407303E0,-8.051700592E0,2.616862535E0
5.044005600E-1,2.873042107E0,-8.032546997E0,2.585737944E0
5.063848730E-1,2.863465309E0,-7.979874134E0,2.549824715E0
5.083996480E-1,2.849100113E0,-7.970297337E0,2.528276920E0
5.104125760E-1,2.822763920E0,-7.955932140E0,2.487575531E0
5.123965060E-1,2.762908697E0,-7.929595947E0,2.461239338E0
5.144113570E-1,2.741360903E0,-7.915230751E0,2.449268341E0
5.163947470E-1,2.712630510E0,-7.884106159E0,2.418143749E0
5.184088290E-1,2.664746523E0,-7.833827972E0,2.415749550E0
5.203919890E-1,2.652775526E0,-7.824251175E0,2.422932148E0
5.224066860E-1,2.633621931E0,-7.841010571E0,2.427720547E0
5.243904620E-1,2.621650934E0,-7.802703381E0,2.480392933E0
5.264040050E-1,2.626439333E0,-7.807491779E0,2.545036316E0
5.283883190E-1,2.650381327E0,-7.829039574E0,2.703053713E0
5.304024010E-1,2.715024710E0,-7.855375767E0,2.810792685E0
5.323864070E-1,2.748543501E0,-7.867346764E0,2.851494312E0
5.344017960E-1,2.841917515E0,-7.891288757E0,2.920926094E0
5.363839560E-1,2.880224705E0,-7.931990147E0,2.952050686E0
5.383975000E-1,2.961627483E0,-7.939172745E0,2.968810081E0
5.404123520E-1,3.095702887E0,-8.015787125E0,2.947262287E0
5.423957410E-1,3.138798475E0,-8.046912193E0,2.918531895E0
5.444095170E-1,3.213018656E0,-8.085219383E0,2.829946518E0
5.463932140E-1,3.251325846E0,-8.157045364E0,2.688688517E0
5.484071430E-1,3.268085241E0,-8.185775757E0,2.619256735E0
5.503916870E-1,3.339911461E0,-8.264783859E0,2.489969730E0
5.524056160E-1,3.387795448E0,-8.322244644E0,2.379836559E0
5.543901590E-1,3.411737442E0,-8.341399193E0,2.339135170E0
5.564033960E-1,3.459621429E0,-8.367734909E0,2.284068346E0
5.583868620E-1,3.543418407E0,-8.382100105E0,2.262520552E0
5.603969450E-1,3.581725836E0,-8.401253700E0,2.248155355E0
5.624145660E-1,3.651157618E0,-8.422801971E0,2.217030764E0
5.643988030E-1,3.734954596E0,-8.480262756E0,2.207453966E0
5.664132690E-1,3.775655985E0,-8.477868080E0,2.202665567E0
5.683967370E-1,3.869029999E0,-8.480262756E0,2.202665567E0
5.704108190E-1,3.902548790E0,-8.492233276E0,2.219424963E0
5.723942860E-1,3.986345768E0,-8.501810074E0,2.226607561E0
5.744096760E-1,4.053383350E0,-8.518569946E0,2.221819162E0
5.763927590E-1,4.089296341E0,-8.508993149E0,2.221819162E0
5.784063020E-1,4.141968727E0,-8.530540466E0,2.219424963E0
5.803909230E-1,4.187458992E0,-8.537723541E0,2.233790159E0
5.824047750E-1,4.201824188E0,-8.559270859E0,2.238578558E0
5.843881650E-1,4.220977783E0,-8.588001251E0,2.262520552E0
5.864025550E-1,4.228160381E0,-8.595184326E0,2.245761156E0
5.883860220E-1,4.213795185E0,-8.619126320E0,2.240972757E0
5.903998740E-1,4.192247391E0,-8.667010307E0,2.250549555E0
5.924142640E-1,4.158728123E0,-8.683769226E0,2.243366957E0
5.943985770E-1,4.144362926E0,-8.690952301E0,2.250549555E0
5.964125060E-1,4.103661537E0,-8.719682693E0,2.291250944E0
5.983952030E-1,4.062960148E0,-8.753201485E0,2.317587137E0
6.004091320E-1,4.041412354E0,-8.772355080E0,2.341529369E0
6.023936760E-1,3.998316765E0,-8.793902397E0,2.410961151E0
6.044075280E-1,3.971980572E0,-8.820239067E0,2.449268341E0
6.063903790E-1,3.931279182E0,-8.841787338E0,2.525882721E0
6.084056930E-1,3.888183594E0,-8.896853447E0,2.595314741E0
6.103887750E-1,3.881000996E0,-8.906430244E0,2.616862535E0
6.124029340E-1,3.864241600E0,-8.935160637E0,2.652775526E0
6.143873240E-1,3.823540211E0,-8.956708908E0,2.681505919E0
6.164005600E-1,3.780444384E0,-8.968679428E0,2.695871115E0
6.184153350E-1,3.703830004E0,-8.992621422E0,2.722207308E0
6.203998790E-1,3.622427225E0,-9.021351814E0,2.794033289E0
6.224131160E-1,3.576937437E0,-9.016563416E0,2.832340717E0
6.243961970E-1,3.485957623E0,-9.033323288E0,2.882618904E0
6.264103570E-1,3.383007050E0,-9.045293808E0,2.935291290E0
6.283940550E-1,3.327940464E0,-9.059659004E0,2.968810081E0
6.304082910E-1,3.232172251E0,-9.083600998E0,3.040636063E0
6.323919120E-1,3.179499865E0,-9.105149269E0,3.062183857E0
6.344076100E-1,3.095702887E0,-9.121908188E0,3.071760893E0
6.363898460E-1,3.028665066E0,-9.150638580E0,3.110068083E0
6.384043130E-1,3.009511471E0,-9.160215378E0,3.131615877E0
6.403870110E-1,2.954444885E0,-9.176975250E0,3.136404276E0
6.424011710E-1,2.935291290E0,-9.217676163E0,3.119644880E0
6.444165600E-1,2.930502892E0,-9.232041359E0,3.112462282E0
6.463996430E-1,2.916137695E0,-9.236829758E0,3.064578056E0
6.484138020E-1,2.889801502E0,-9.244012833E0,2.971204281E0
6.503975770E-1,2.906560898E0,-9.246406555E0,2.928108692E0
6.524116590E-1,2.923320293E0,-9.241618156E0,2.849100113E0
6.543957420E-1,2.968810081E0,-9.239224434E0,2.774879694E0
6.564107470E-1,2.992752075E0,-9.232041359E0,2.738966703E0
6.583929840E-1,3.038241863E0,-9.236829758E0,2.664746523E0
6.604080660E-1,3.098097086E0,-9.227252960E0,2.604891539E0
6.623914560E-1,3.134010077E0,-9.215282440E0,2.566584110E0
6.644055380E-1,3.217807055E0,-9.167398453E0,2.494758129E0
6.663886980E-1,3.263296843E0,-9.141061783E0,2.427720547E0
6.684033950E-1,3.356670856E0,-9.124302864E0,2.401384354E0
6.703862480E-1,3.454833031E0,-9.109937668E0,2.336740971E0
6.724013300E-1,3.500322819E0,-9.100360870E0,2.310404539E0
6.743855660E-1,3.588908434E0,-9.064447403E0,2.276885748E0
6.763988790E-1,3.677493811E0,-9.045293808E0,2.233790159E0
6.784127310E-1,3.718195200E0,-9.028534889E0,2.214636564E0
6.803960440E-1,3.792415380E0,-8.997409821E0,2.176329374E0
6.824111270E-1,3.864241600E0,-9.006986618E0,2.130839586E0
6.843945930E-1,3.895366192E0,-8.999804497E0,2.106897593E0
6.864077530E-1,3.945644379E0,-9.006986618E0,2.085349798E0
6.883915270E-1,3.981557369E0,-9.014169693E0,2.066195965E0
6.904059180E-1,3.983951569E0,-9.021351814E0,2.049436569E0
6.923903080E-1,3.998316765E0,-9.028534889E0,2.023100376E0
6.944053140E-1,3.983951569E0,-9.066842079E0,1.991975784E0
6.963887030E-1,3.969586372E0,-9.078812599E0,1.984793186E0
6.984023250E-1,3.955221176E0,-9.097966194E0,1.980004787E0
7.003857140E-1,3.931279182E0,-9.131484985E0,1.975216389E0
7.024001050E-1,3.871424198E0,-9.153033257E0,1.960851192E0
7.044139560E-1,3.818751812E0,-9.212887764E0,1.958456993E0
7.063968080E-1,3.787626982E0,-9.248801231E0,1.963245392E0
7.084115820E-1,3.720589399E0,-9.299078941E0,1.970427990E0
7.103952810E-1,3.679888010E0,-9.361329079E0,1.975216389E0
7.124088240E-1,3.665522814E0,-9.399636269E0,1.987187386E0
7.143934460E-1,3.608062029E0,-9.461885452E0,2.008735180E0
7.164082200E-1,3.552995205E0,-9.516951561E0,2.049436569E0
7.183909180E-1,3.526659012E0,-9.540893555E0,2.063801765E0
7.204044620E-1,3.471592426E0,-9.605537415E0,2.082955360E0
7.223887740E-1,3.426102638E0,-9.660603523E0,2.133233786E0
7.244029340E-1,3.392583847E0,-9.691728592E0,2.166752577E0
7.263866320E-1,3.351882458E0,-9.761159897E0,2.281674147E0
7.284007910E-1,3.306392431E0,-9.818621635E0,2.418143749E0
7.304149510E-1,3.284844637E0,-9.847352028E0,2.480392933E0
7.323981100E-1,3.258508444E0,-9.890447617E0,2.568978310E0
7.344140390E-1,3.239354849E0,-9.911994934E0,2.612074137E0
7.363968900E-1,3.201047659E0,-9.923966408E0,2.619256735E0
7.384104340E-1,3.157952070E0,-9.955090523E0,2.638410330E0
7.403944400E-1,3.141192675E0,-9.964667320E0,2.652775526E0
7.424082910E-1,3.098097086E0,-9.967061996E0,2.657563925E0
7.443916050E-1,3.074155092E0,-9.971850395E0,2.650381327E0
7.464055330E-1,3.062183857E0,-9.962273598E0,2.657563925E0
7.483894620E-1,3.031059265E0,-9.950302124E0,2.667140722E0
7.504036980E-1,2.997540474E0,-9.947908401E0,2.686294317E0
7.523876270E-1,2.983175278E0,-9.947908401E0,2.683900118E0
7.544030160E-1,2.971204281E0,-9.916783333E0,2.664746523E0
7.563848680E-1,2.961627483E0,-9.890447617E0,2.633621931E0
7.583994120E-1,2.966415882E0,-9.878476143E0,2.628833532E0
7.604129560E-1,2.964021683E0,-9.852140427E0,2.612074137E0
7.623981150E-1,2.971204281E0,-9.806650162E0,2.597708941E0
7.644123520E-1,2.975992680E0,-9.789890289E0,2.590526342E0
7.663945110E-1,2.980781078E0,-9.756371498E0,2.590526342E0
7.684095170E-1,2.980781078E0,-9.737217903E0,2.576161146E0
7.703932910E-1,3.004723072E0,-9.703699112E0,2.540247917E0
7.724076820E-1,3.011905670E0,-9.634267807E0,2.516305923E0
7.743919940E-1,3.007117271E0,-9.612719536E0,2.504334927E0
7.764062310E-1,2.999934673E0,-9.583989143E0,2.444479942E0
7.783883900E-1,2.995146275E0,-9.526528358E0,2.389413357E0
7.804040880E-1,2.985569477E0,-9.507374763E0,2.363077164E0
7.823861700E-1,2.978386879E0,-9.476250648E0,2.324769735E0
7.844009460E-1,2.954444885E0,-9.442731857E0,2.255337954E0
7.864142580E-1,2.932897091E0,-9.421183586E0,2.229001760E0
7.883991100E-1,2.930502892E0,-9.361329079E0,2.195482969E0
7.904123460E-1,2.901772499E0,-9.318233490E0,2.142810583E0
7.923963520E-1,2.889801502E0,-9.303867340E0,2.118868589E0
7.944115110E-1,2.858676910E0,-9.265560150E0,2.080561161E0
7.963942860E-1,2.846705914E0,-9.229647636E0,2.037465572E0
7.984077530E-1,2.834734917E0,-9.210494041E0,2.011129379E0
8.003909130E-1,2.810792685E0,-9.167398453E0,1.977610588E0
8.024059950E-1,2.803610086E0,-9.153033257E0,1.972822189E0
8.043902310E-1,2.767697096E0,-9.126696587E0,1.941697598E0
8.064034670E-1,2.738966703E0,-9.100360870E0,1.915361404E0
8.083871650E-1,2.729389906E0,-9.093177795E0,1.908178806E0
8.104014010E-1,2.691082716E0,-9.047688484E0,1.908178806E0
8.124158690E-1,2.669534922E0,-9.040505409E0,1.929726601E0
8.144007200E-1,2.664746523E0,-9.042900085E0,1.932120800E0
8.164137260E-1,2.628833532E0,-9.021351814E0,1.944091797E0
8.183970390E-1,2.595314741E0,-9.004592896E0,1.948880196E0
8.204121220E-1,2.573766708E0,-9.002198219E0,1.948880196E0
8.223952800E-1,2.547430515E0,-8.987833023E0,1.958456993E0
8.244090560E-1,2.482787132E0,-8.992621422E0,1.989581585E0
8.263930610E-1,2.461239338E0,-8.992621422E0,2.003946781E0
8.284072970E-1,2.427720547E0,-8.978256226E0,2.030282974E0
8.303909180E-1,2.408566952E0,-9.004592896E0,2.051830769E0
8.324047700E-1,2.396595955E0,-9.011775017E0,2.070984364E0
8.343887750E-1,2.387019157E0,-9.028534889E0,2.090138197E0
8.364029350E-1,2.377442360E0,-9.035717010E0,2.116474390E0
8.383867090E-1,2.396595955E0,-9.059659004E0,2.219424963E0
8.404001770E-1,2.434903145E0,-9.088389397E0,2.315192938E0
8.424156430E-1,2.456450939E0,-9.119514465E0,2.339135170E0
8.443981110E-1,2.494758129E0,-9.165003777E0,2.315192938E0
8.464118850E-1,2.568978310E0,-9.193734169E0,2.255337954E0
8.483965060E-1,2.583343744E0,-9.205705643E0,2.231395960E0
8.504104340E-1,2.626439333E0,-9.227252960E0,2.195482969E0
8.523941320E-1,2.679111719E0,-9.260771751E0,2.130839586E0
8.544082920E-1,2.688688517E0,-9.272743225E0,2.102109194E0
8.563925270E-1,2.710236311E0,-9.291896820E0,2.051830769E0
8.584055330E-1,2.738966703E0,-9.308655739E0,2.020706177E0
8.603904610E-1,2.753331900E0,-9.315838814E0,2.013523579E0
8.624045440E-1,2.782062292E0,-9.330204010E0,1.996764183E0
8.643867030E-1,2.798821688E0,-9.339780807E0,1.982398987E0
8.664020940E-1,2.806004286E0,-9.344569206E0,1.941697598E0
8.683849450E-1,2.822763920E0,-9.349357605E0,1.877054095E0
8.703994120E-1,2.834734917E0,-9.361329079E0,1.841141105E0
8.724134940E-1,2.870647907E0,-9.342175484E0,1.805228114E0
8.743978850E-1,2.892195702E0,-9.337387085E0,1.759738207E0
8.764113520E-1,2.899378300E0,-9.332598686E0,1.735796213E0
8.783947420E-1,2.918531895E0,-9.318233490E0,1.685518026E0
8.804082860E-1,2.947262287E0,-9.301473618E0,1.647210717E0
8.823920610E-1,2.961627483E0,-9.289502144E0,1.632845521E0
8.844070660E-1,2.973598480E0,-9.270348549E0,1.594538331E0
8.863905330E-1,2.997540474E0,-9.258378029E0,1.549048543E0
8.884050000E-1,3.009511471E0,-9.253589630E0,1.520318031E0
8.903880830E-1,3.021482468E0,-9.239224434E0,1.484405041E0
8.924022420E-1,3.014299870E0,-9.203310966E0,1.431732655E0
8.943883250E-1,3.026270866E0,-9.193734169E0,1.419761658E0
8.964010220E-1,3.035847664E0,-9.176975250E0,1.391031146E0
8.984151050E-1,3.023876667E0,-9.155426979E0,1.381454349E0
9.003988020E-1,3.004723072E0,-9.129091263E0,1.359906554E0
9.024126540E-1,2.973598480E0,-9.066842079E0,1.345541358E0
9.043963520E-1,2.973598480E0,-9.054870605E0,1.340752959E0
9.064108190E-1,2.966415882E0,-9.021351814E0,1.321599364E0
9.083933630E-1,2.942473888E0,-8.992621422E0,1.321599364E0
9.104072150E-1,2.930502892E0,-8.978256226E0,1.323993564E0
9.123920660E-1,2.885013103E0,-8.947132111E0,1.340752959E0
9.144066110E-1,2.858676910E0,-8.932766914E0,1.345541358E0
9.163890770E-1,2.841917515E0,-8.927978516E0,1.364694953E0
9.184037750E-1,2.803610086E0,-8.906430244E0,1.374271750E0
9.203868570E-1,2.770091295E0,-8.906430244E0,1.381454349E0
9.224028630E-1,2.753331900E0,-8.911218643E0,1.379060149E0
9.243853300E-1,2.693476915E0,-8.913613319E0,1.393425345E0
9.263991820E-1,2.640804529E0,-8.916007042E0,1.395819545E0
9.284134180E-1,2.609679937E0,-8.918401718E0,1.400607944E0
9.303970390E-1,2.549824715E0,-8.916007042E0,1.410184860E0
9.324111980E-1,2.523488522E0,-8.904036522E0,1.417367458E0
9.343955120E-1,2.461239338E0,-8.899248123E0,1.438915253E0
9.364091320E-1,2.396595955E0,-8.872911453E0,1.465251446E0
9.383924460E-1,2.375048161E0,-8.865729332E0,1.474828243E0
9.404076050E-1,2.334346771E0,-8.848969460E0,1.496376038E0
9.423909950E-1,2.300827742E0,-8.827422142E0,1.527500629E0
9.444047700E-1,2.286462545E0,-8.817844391E0,1.539471745E0
9.463879290E-1,2.240972757E0,-8.801085472E0,1.580173135E0
9.484023960E-1,2.207453966E0,-8.789113998E0,1.625662923E0
9.503860940E-1,2.209848166E0,-8.777143478E0,1.644816518E0
9.524002530E-1,2.205059767E0,-8.784325600E0,1.707065821E0
9.544149510E-1,2.207453966E0,-8.774748802E0,1.757344007E0
9.563986490E-1,2.205059767E0,-8.779537201E0,1.776497602E0
9.584121930E-1,2.219424963E0,-8.789113998E0,1.774103403E0
9.603955830E-1,2.233790159E0,-8.762778282E0,1.742978811E0
9.624101270E-1,2.243366957E0,-8.755595207E0,1.714248419E0
9.643941320E-1,2.260126352E0,-8.743624687E0,1.678335428E0
9.664082150E-1,2.274491549E0,-8.750806808E0,1.659181833E0
9.683916820E-1,2.293645144E0,-8.757989883E0,1.637633920E0
9.704060720E-1,2.312798738E0,-8.765172005E0,1.649604917E0
9.723888470E-1,2.317587137E0,-8.762778282E0,1.644816518E0
9.744045450E-1,2.327163935E0,-8.762778282E0,1.654393315E0
9.763867810E-1,2.367865562E0,-8.781931877E0,1.680729628E0
9.784015550E-1,2.375048161E0,-8.786720276E0,1.711854219E0
9.804159460E-1,2.387019157E0,-8.805873871E0,1.750161409E0
9.823993350E-1,2.422932148E0,-8.810662270E0,1.790862918E0
9.844138800E-1,2.439691544E0,-8.827422142E0,1.795651317E0
9.863965770E-1,2.446874142E0,-8.844181061E0,1.812410712E0
9.884105060E-1,2.473210335E0,-8.839392662E0,1.826775908E0
9.903944340E-1,2.494758129E0,-8.844181061E0,1.831564307E0
9.924086710E-1,2.487575531E0,-8.894459724E0,1.798045516E0
9.943939070E-1,2.504334927E0,-8.887276649E0,1.790862918E0
9.964080660E-1,2.583343744E0,-8.887276649E0,1.867477298E0
9.983905330E-1,2.628833532E0,-8.911218643E0,1.845929503E0
1.000404001E0,2.657563925E0,-8.911218643E0,1.829170108E0
1.002388929E0,2.686294317E0,-8.906430244E0,1.771709204E0
1.004403165E0,2.738966703E0,-8.904036522E0,1.697489023E0
1.006385324E0,2.750937700E0,-8.906430244E0,1.661576033E0
1.008400407E0,2.774879694E0,-8.913613319E0,1.577778935E0
1.010414181E0,2.798821688E0,-8.889671326E0,1.539471745E0
1.012398803E0,2.815581083E0,-8.882488251E0,1.525106430E0
1.014412654E0,2.846705914E0,-8.889671326E0,1.491587639E0
1.016395737E0,2.887407303E0,-8.887276649E0,1.489193439E0
1.018409973E0,2.899378300E0,-8.882488251E0,1.493981838E0
1.020394825E0,2.920926094E0,-8.892065048E0,1.474828243E0
1.022408445E0,2.928108692E0,-8.908824921E0,1.441309452E0
1.024391451E0,2.937685490E0,-8.908824921E0,1.426944256E0
1.026405379E0,2.937685490E0,-8.920795441E0,1.400607944E0
1.028389001E0,2.940079689E0,-8.923190117E0,1.391031146E0
1.030403852E0,2.935291290E0,-8.925583839E0,1.383848548E0
1.032387242E0,2.925714493E0,-8.937555313E0,1.391031146E0
1.034401940E0,2.913743496E0,-8.947132111E0,1.388636947E0
1.036415561E0,2.885013103E0,-8.978256226E0,1.359906554E0
1.038399566E0,2.834734917E0,-8.987833023E0,1.355118155E0
1.040413341E0,2.808398485E0,-8.992621422E0,1.357512355E0
1.042395885E0,2.741360903E0,-9.030928612E0,1.367089152E0
1.044411814E0,2.657563925E0,-9.059659004E0,1.364694953E0
1.046394588E0,2.624045134E0,-9.081207275E0,1.362300754E0
1.048408825E0,2.557007313E0,-9.124302864E0,1.374271750E0
1.050392753E0,2.487575531E0,-9.184157372E0,1.376665950E0
1.052407221E0,2.458845139E0,-9.220070839E0,1.369483352E0
1.054391226E0,2.391807556E0,-9.287108421E0,1.379060149E0
1.056404539E0,2.346317768E0,-9.363722801E0,1.381454349E0
1.058388467E0,2.322375536E0,-9.411606789E0,1.386242747E0
1.060402396E0,2.269703150E0,-9.500192642E0,1.391031146E0
1.062416478E0,2.250549555E0,-9.569623947E0,1.388636947E0
1.064399946E0,2.205059767E0,-9.622296333E0,1.386242747E0
1.066414105E0,2.164358377E0,-9.715670586E0,1.391031146E0
1.068398034E0,2.152387381E0,-9.749189377E0,1.393425345E0
1.070412577E0,2.133233786E0,-9.849745750E0,1.398213744E0
1.072395891E0,2.126051188E0,-9.935936928E0,1.398213744E0
1.074410665E0,2.118868589E0,-9.979032516E0,1.403002143E0
1.076393748E0,2.106897593E0,-1.009156036E1,1.436521053E0
1.078407599E0,2.097320795E0,-1.017296314E1,1.465251446E0
1.080390990E0,2.102109194E0,-1.021845245E1,1.496376038E0
1.082406149E0,2.121262789E0,-1.031182671E1,1.589749932E0
1.084389232E0,2.133233786E0,-1.040280628E1,1.707065821E0
1.086402391E0,2.149993181E0,-1.045547867E1,1.769315004E0
1.088386781E0,2.183511972E0,-1.054406452E1,1.802833915E0
1.090400863E0,2.193088770E0,-1.060870743E1,1.750161409E0
1.092415331E0,2.214636564E0,-1.064701462E1,1.711854219E0
1.094400028E0,2.245761156E0,-1.071884060E1,1.632845521E0
1.096413496E0,2.264914751E0,-1.073081207E1,1.596932530E0
1.098396347E0,2.317587137E0,-1.075954247E1,1.563413739E0
1.100412045E0,2.367865562E0,-1.077869606E1,1.575384736E0
1.102395050E0,2.377442360E0,-1.077869606E1,1.592144132E0
1.104408902E0,2.427720547E0,-1.077869606E1,1.620874524E0
1.106392292E0,2.468421936E0,-1.079545593E1,1.656787634E0
1.108406220E0,2.487575531E0,-1.077390766E1,1.656787634E0
1.110390457E0,2.518700123E0,-1.074757099E1,1.651999116E0
1.112404308E0,2.568978310E0,-1.068532181E1,1.635239720E0
1.114388622E0,2.592920542E0,-1.064940929E1,1.628057122E0
1.116401934E0,2.619256735E0,-1.059673691E1,1.620874524E0
1.118416094E0,2.647987127E0,-1.052491093E1,1.596932530E0
1.120399407E0,2.652775526E0,-1.048181534E1,1.584961534E0
1.122413644E0,2.705447912E0,-1.039083576E1,1.575384736E0
1.124398264E0,2.731784105E0,-1.031422138E1,1.549048543E0
1.126412424E0,2.770091295E0,-1.027591324E1,1.539471745E0
1.128395813E0,2.829946518E0,-1.017775154E1,1.520318031E0
1.130409358E0,2.851494312E0,-1.012029076E1,1.503558636E0
1.132393594E0,2.875436306E0,-1.002212811E1,1.470039845E0
1.134409061E0,2.904166698E0,-9.931148529E0,1.448492050E0
1.136391528E0,2.923320293E0,-9.883264542E0,1.438915253E0
1.138405380E0,2.947262287E0,-9.787496567E0,1.403002143E0
1.140389923E0,2.975992680E0,-9.684545517E0,1.364694953E0
1.142403776E0,2.990357876E0,-9.631873131E0,1.343147159E0
1.144387242E0,2.995146275E0,-9.543288231E0,1.326387763E0
1.146400787E0,2.997540474E0,-9.418789864E0,1.323993564E0
1.148415484E0,2.997540474E0,-9.366117477E0,1.312022567E0
1.150398336E0,2.990357876E0,-9.265560150E0,1.283292055E0
1.152412803E0,2.971204281E0,-9.179368973E0,1.244984865E0
1.154397962E0,2.961627483E0,-9.136273384E0,1.237802267E0
1.156410967E0,2.942473888E0,-9.059659004E0,1.223437071E0
1.158394666E0,2.935291290E0,-8.961497307E0,1.221042871E0
1.160407901E0,2.923320293E0,-8.925583839E0,1.223437071E0
1.162392831E0,2.899378300E0,-8.846575737E0,1.235408068E0
1.164406682E0,2.889801502E0,-8.805873871E0,1.244984865E0
1.166389380E0,2.858676910E0,-8.757989883E0,1.244984865E0
1.168404539E0,2.808398485E0,-8.705317497E0,1.261744261E0
1.170388237E0,2.789244890E0,-8.671798706E0,1.266532660E0
1.172402396E0,2.758120298E0,-8.611943245E0,1.276109457E0
1.174417710E0,2.700659513E0,-8.568847656E0,1.288080573E0
1.176400176E0,2.671929121E0,-8.556877136E0,1.288080573E0
1.178413721E0,2.616862535E0,-8.556877136E0,1.304839969E0
1.180398726E0,2.573766708E0,-8.542511940E0,1.302445769E0
1.182411963E0,2.557007313E0,-8.530540466E0,1.321599364E0
1.184395583E0,2.504334927E0,-8.518569946E0,1.355118155E0
1.186409204E0,2.468421936E0,-8.499416351E0,1.376665950E0
1.188392517E0,2.444479942E0,-8.499416351E0,1.381454349E0
1.190407600E0,2.394201756E0,-8.520963669E0,1.410184860E0
1.192390759E0,2.375048161E0,-8.525752068E0,1.431732655E0
1.194405842E0,2.351106167E0,-8.540117264E0,1.474828243E0
1.196389539E0,2.312798738E0,-8.568847656E0,1.534683347E0
1.198403083E0,2.305616140E0,-8.571242332E0,1.565807939E0
1.200386396E0,2.296039343E0,-8.590395927E0,1.623268723E0
1.202400325E0,2.281674147E0,-8.635885239E0,1.699883223E0
1.204415715E0,2.279279947E0,-8.657433510E0,1.738190413E0
1.206398721E0,2.288856745E0,-8.693346024E0,1.776497602E0
1.208412880E0,2.310404539E0,-8.734047890E0,1.771709204E0
1.210396655E0,2.303221941E0,-8.757989883E0,1.771709204E0
1.212411352E0,2.324769735E0,-8.803479195E0,1.752555609E0
1.214395743E0,2.355894566E0,-8.846575737E0,1.714248419E0
1.216408594E0,2.372653961E0,-8.870517731E0,1.680729628E0
1.218392600E0,2.415749550E0,-8.923190117E0,1.635239720E0
1.220407067E0,2.466027737E0,-8.968679428E0,1.613691926E0
1.222390225E0,2.485181332E0,-8.990227699E0,1.599326730E0
1.224404924E0,2.523488522E0,-9.033323288E0,1.582567334E0
1.226387160E0,2.545036316E0,-9.059659004E0,1.565807939E0
1.228401550E0,2.588132143E0,-9.090784073E0,1.549048543E0
1.230416710E0,2.640804529E0,-9.124302864E0,1.544260144E0
1.232399407E0,2.676717520E0,-9.153033257E0,1.532289028E0
1.234414797E0,2.698265314E0,-9.162610054E0,1.525106430E0
1.236397957E0,2.700659513E0,-9.198522568E0,1.503558636E0
1.238412962E0,2.703053713E0,-9.215282440E0,1.486799240E0
1.240395122E0,2.712630510E0,-9.239224434E0,1.460463047E0
1.242409896E0,2.750937700E0,-9.232041359E0,1.448492050E0
1.244393594E0,2.755726099E0,-9.236829758E0,1.443703651E0
1.246407445E0,2.755726099E0,-9.244012833E0,1.436521053E0
1.248391144E0,2.782062292E0,-9.284713745E0,1.410184860E0
1.250404687E0,2.791639090E0,-9.289502144E0,1.410184860E0
1.252389693E0,2.829946518E0,-9.294290543E0,1.391031146E0
1.254403852E0,2.844311714E0,-9.284713745E0,1.383848548E0
1.256387550E0,2.841917515E0,-9.294290543E0,1.374271750E0
1.258401017E0,2.863465309E0,-9.323021889E0,1.343147159E0
1.260415484E0,2.865859509E0,-9.337387085E0,1.338358760E0
1.262399259E0,2.877830505E0,-9.373299599E0,1.343147159E0
1.264412726E0,2.906560898E0,-9.373299599E0,1.333570361E0
1.266397116E0,2.908955097E0,-9.378087997E0,1.331176162E0
1.268410660E0,2.901772499E0,-9.390059471E0,1.309628367E0
1.270394358E0,2.885013103E0,-9.402029991E0,1.302445769E0
1.272408517E0,2.875436306E0,-9.411606789E0,1.300051570E0
1.274392522E0,2.856282711E0,-9.454702377E0,1.292868972E0
1.276406605E0,2.827552319E0,-9.476250648E0,1.280897856E0
1.278389995E0,2.817975283E0,-9.478644371E0,1.271321058E0
1.280402693E0,2.786850691E0,-9.500192642E0,1.271321058E0
1.282418083E0,2.762908697E0,-9.493009567E0,1.268926859E0
1.284402089E0,2.748543501E0,-9.483432770E0,1.259350061E0
1.286415940E0,2.712630510E0,-9.473855972E0,1.254561663E0
1.288399638E0,2.698265314E0,-9.471462250E0,1.249773264E0
1.290413490E0,2.676717520E0,-9.476250648E0,1.252167463E0
1.292397803E0,2.645592928E0,-9.459490776E0,1.244984865E0
1.294412885E0,2.638410330E0,-9.452308655E0,1.240196466E0
1.296395353E0,2.626439333E0,-9.437943459E0,1.252167463E0
1.298409512E0,2.614468336E0,-9.411606789E0,1.244984865E0
1.300393748E0,2.616862535E0,-9.409213066E0,1.240196466E0
1.302407984E0,2.604891539E0,-9.397241592E0,1.237802267E0
1.304390682E0,2.595314741E0,-9.394847870E0,1.247379065E0
1.306405457E0,2.604891539E0,-9.380482674E0,1.242590666E0
1.308388540E0,2.621650934E0,-9.358934402E0,1.240196466E0
1.310402775E0,2.626439333E0,-9.346963882E0,1.247379065E0
1.312417166E0,2.631227732E0,-9.342175484E0,1.256955862E0
1.314402402E0,2.638410330E0,-9.342175484E0,1.285686255E0
1.316415408E0,2.657563925E0,-9.330204010E0,1.309628367E0
1.318398182E0,2.674323320E0,-9.325415611E0,1.319205165E0
1.320413188E0,2.683900118E0,-9.311050415E0,1.359906554E0
1.322397193E0,2.698265314E0,-9.313444138E0,1.364694953E0
1.324410814E0,2.731784105E0,-9.318233490E0,1.319205165E0
1.326393819E0,2.760514498E0,-9.323021889E0,1.288080573E0
1.328408595E0,2.779668093E0,-9.330204010E0,1.259350061E0
1.330392369E0,2.798821688E0,-9.320627213E0,1.204283476E0
1.332406221E0,2.846705914E0,-9.320627213E0,1.185129881E0
1.334390149E0,2.875436306E0,-9.313444138E0,1.173158884E0
1.336404386E0,2.918531895E0,-9.320627213E0,1.173158884E0
1.338387699E0,2.947262287E0,-9.318233490E0,1.182735682E0
1.340402551E0,2.966415882E0,-9.306262016E0,1.173158884E0
1.342415402E0,2.990357876E0,-9.284713745E0,1.146822572E0
1.344400408E0,3.023876667E0,-9.267954826E0,1.115697980E0
1.346413951E0,3.023876667E0,-9.258378029E0,1.113303781E0
1.348397264E0,3.016694069E0,-9.263166428E0,1.091755986E0
1.350411809E0,3.038241863E0,-9.255983353E0,1.096544385E0
1.352394583E0,3.045424461E0,-9.253589630E0,1.091755986E0
1.354410896E0,3.057395458E0,-9.258378029E0,1.060631394E0
1.356393671E0,3.069366693E0,-9.251194954E0,1.053448796E0
1.358407523E0,3.066972494E0,-9.248801231E0,1.048660398E0
1.360390220E0,3.076549292E0,-9.236829758E0,1.029506683E0
1.362404688E0,3.081337690E0,-9.224859238E0,1.024718285E0
1.364388462E0,3.066972494E0,-9.215282440E0,1.024718285E0
1.366403468E0,3.055001259E0,-9.217676163E0,9.888052940E-1
1.368386319E0,3.050212860E0,-9.208099365E0,9.768342972E-1
1.370399864E0,3.059789658E0,-9.217676163E0,9.840168953E-1
1.372414946E0,3.047818661E0,-9.229647636E0,9.672574997E-1
1.374399259E0,3.038241863E0,-9.239224434E0,9.624691010E-1
1.376413726E0,3.016694069E0,-9.239224434E0,9.672574997E-1
1.378396424E0,3.021482468E0,-9.236829758E0,9.552865028E-1
1.380411583E0,3.007117271E0,-9.236829758E0,9.528923035E-1
1.382394589E0,2.949656487E0,-9.255983353E0,9.409212470E-1
1.384408748E0,2.937685490E0,-9.255983353E0,9.265560508E-1
1.386392215E0,2.925714493E0,-9.263166428E0,9.217676520E-1
1.388405759E0,2.906560898E0,-9.260771751E0,9.050082564E-1
1.390390303E0,2.904166698E0,-9.255983353E0,9.026140571E-1
1.392403231E0,2.875436306E0,-9.275136948E0,9.097966552E-1
1.394388545E0,2.846705914E0,-9.287108421E0,8.978256583E-1
1.396402089E0,2.844311714E0,-9.287108421E0,8.954314590E-1
1.398415941E0,2.810792685E0,-9.275136948E0,8.930372596E-1
1.400399330E0,2.782062292E0,-9.296685219E0,9.050082564E-1
1.402414952E0,2.774879694E0,-9.296685219E0,9.026140571E-1
1.404397803E0,2.750937700E0,-9.277531624E0,9.002198577E-1
1.406411040E0,2.755726099E0,-9.289502144E0,9.145850539E-1
1.408395275E0,2.748543501E0,-9.299078941E0,9.193734527E-1
1.410409204E0,2.738966703E0,-9.306262016E0,9.026140571E-1
1.412393209E0,2.736572504E0,-9.303867340E0,8.858546019E-1
1.414408215E0,2.731784105E0,-9.299078941E0,8.786720037E-1
1.416391067E0,2.724601507E0,-9.311050415E0,8.714894056E-1
1.418404919E0,2.717418909E0,-9.311050415E0,8.882488012E-1
1.420388847E0,2.717418909E0,-9.306262016E0,8.954314590E-1
1.422402776E0,2.741360903E0,-9.311050415E0,9.241618514E-1
1.424416242E0,2.750937700E0,-9.311050415E0,9.433154464E-1
1.426400556E0,2.767697096E0,-9.318233490E0,9.672574997E-1
1.428414407E0,2.784456491E0,-9.337387085E0,9.576807022E-1
1.430398413E0,2.794033289E0,-9.339780807E0,9.409212470E-1
1.432412572E0,2.813186884E0,-9.346963882E0,8.906430602E-1
1.434397194E0,2.815581083E0,-9.361329079E0,8.427590132E-1
1.436411352E0,2.820369720E0,-9.351752281E0,8.283938169E-1
1.438394128E0,2.820369720E0,-9.334992409E0,8.020575643E-1
1.440404979E0,2.834734917E0,-9.332598686E0,7.972691655E-1
1.442391139E0,2.841917515E0,-9.339780807E0,7.900865674E-1
1.444405836E0,2.834734917E0,-9.363722801E0,7.924807668E-1
1.446389611E0,2.863465309E0,-9.349357605E0,7.757213712E-1
1.448404001E0,2.868253708E0,-9.346963882E0,7.637503147E-1
1.450387468E0,2.885013103E0,-9.370905876E0,7.493851185E-1
1.452401320E0,2.885013103E0,-9.394847870E0,7.445967197E-1
1.454417941E0,2.870647907E0,-9.414001465E0,7.302315235E-1
1.456399407E0,2.861071110E0,-9.433155060E0,7.254431248E-1
1.458414260E0,2.861071110E0,-9.433155060E0,7.230489254E-1
1.460398265E0,2.880224705E0,-9.449913979E0,7.110779285E-1
1.462412425E0,2.889801502E0,-9.464279175E0,7.038952708E-1
1.464395430E0,2.896984100E0,-9.478644371E0,6.991068721E-1
1.466409282E0,2.901772499E0,-9.481039047E0,6.991068721E-1
1.468392364E0,2.896984100E0,-9.495404243E0,7.062895298E-1
1.470407216E0,2.899378300E0,-9.502586365E0,7.062895298E-1
1.472390605E0,2.882618904E0,-9.497797966E0,6.919242740E-1
1.474406611E0,2.875436306E0,-9.497797966E0,6.895300746E-1
1.476388693E0,2.885013103E0,-9.507374763E0,6.967126727E-1
1.478402852E0,2.875436306E0,-9.516951561E0,7.206547260E-1
1.480417012E0,2.863465309E0,-9.543288231E0,7.134721279E-1
1.482401325E0,2.863465309E0,-9.536105156E0,7.230489254E-1
1.484415177E0,2.853888512E0,-9.548076630E0,7.374141216E-1
1.486397951E0,2.844311714E0,-9.560047150E0,7.422025204E-1
1.488412803E0,2.825158119E0,-9.567230225E0,7.613561153E-1
1.490396501E0,2.837129116E0,-9.605537415E0,7.733271718E-1
1.492410968E0,2.846705914E0,-9.612719536E0,7.709329724E-1
1.494394896E0,2.853888512E0,-9.605537415E0,7.733271718E-1
1.496409056E0,2.851494312E0,-9.600749016E0,7.900865674E-1
1.498391600E0,2.851494312E0,-9.610325813E0,7.876923680E-1
1.500406682E0,2.858676910E0,-9.641449928E0,7.996633649E-1
1.502389457E0,2.851494312E0,-9.648633003E0,8.116343617E-1
1.504403617E0,2.832340717E0,-9.653421402E0,8.164227605E-1
1.506387314E0,2.822763920E0,-9.660603523E0,8.283938169E-1
1.508401781E0,2.813186884E0,-9.660603523E0,8.331822157E-1
1.510415248E0,2.808398485E0,-9.660603523E0,8.499416113E-1
1.512399331E0,2.806004286E0,-9.660603523E0,8.882488012E-1
1.514414336E0,2.808398485E0,-9.660603523E0,9.002198577E-1
1.516397188E0,2.803610086E0,-9.670180321E0,9.002198577E-1
1.518411578E0,2.789244890E0,-9.679757118E0,8.786720037E-1
1.520394122E0,2.791639090E0,-9.665391922E0,8.714894056E-1
1.522408589E0,2.784456491E0,-9.653421402E0,8.595184088E-1
1.524393518E0,2.779668093E0,-9.651026726E0,8.738836050E-1
1.526407061E0,2.772485495E0,-9.648633003E0,8.858546019E-1
1.528390452E0,2.794033289E0,-9.639056206E0,9.289502501E-1
1.530404841E0,2.779668093E0,-9.643844604E0,9.361328483E-1
1.532388617E0,2.779668093E0,-9.641449928E0,9.361328483E-1
1.534403391E0,2.794033289E0,-9.622296333E0,9.241618514E-1
1.536417243E0,2.796427488E0,-9.624691010E0,8.882488012E-1
1.538400556E0,2.801215887E0,-9.619902611E0,8.738836050E-1
1.540414793E0,2.782062292E0,-9.629479408E0,8.690952063E-1
1.542398490E0,2.789244890E0,-9.615114212E0,9.002198577E-1
1.544412342E0,2.786850691E0,-9.612719536E0,9.097966552E-1
1.546396270E0,2.806004286E0,-9.610325813E0,9.289502501E-1
1.548409815E0,2.810792685E0,-9.600749016E0,9.074024558E-1
1.550393896E0,2.789244890E0,-9.595960617E0,9.097966552E-1
1.552407979E0,2.806004286E0,-9.576807022E0,8.978256583E-1
1.554392677E0,2.825158119E0,-9.562441826E0,8.978256583E-1
1.556406452E0,2.806004286E0,-9.543288231E0,8.954314590E-1
1.558389303E0,2.820369720E0,-9.550470352E0,8.858546019E-1
1.560402848E0,2.813186884E0,-9.557653427E0,8.786720037E-1
1.562418776E0,2.789244890E0,-9.552865028E0,8.762778044E-1
1.564401859E0,2.782062292E0,-9.545681953E0,8.810662031E-1
1.566415171E0,2.791639090E0,-9.548076630E0,8.882488012E-1
1.568399793E0,2.808398485E0,-9.550470352E0,9.002198577E-1
1.570413875E0,2.822763920E0,-9.560047150E0,9.026140571E-1
1.572396958E0,2.829946518E0,-9.550470352E0,9.097966552E-1
1.574412116E0,2.829946518E0,-9.528923035E0,9.121908545E-1
1.576395199E0,2.827552319E0,-9.521739960E0,9.265560508E-1
1.578409589E0,2.844311714E0,-9.524134636E0,9.337386489E-1
1.580393287E0,2.868253708E0,-9.533711433E0,9.337386489E-1
1.582406600E0,2.863465309E0,-9.524134636E0,9.361328483E-1
1.584389914E0,2.861071110E0,-9.521739960E0,9.504981041E-1
1.586405072E0,2.851494312E0,-9.519346237E0,9.744400978E-1
1.588388462E0,2.849100113E0,-9.524134636E0,9.720458984E-1
1.590402237E0,2.858676910E0,-9.514557838E0,9.576807022E-1
1.592417320E0,2.841917515E0,-9.509769440E0,9.600749016E-1
1.594401325E0,2.808398485E0,-9.488221169E0,9.672574997E-1
1.596414254E0,2.784456491E0,-9.476250648E0,9.672574997E-1
1.598398259E0,2.777273893E0,-9.454702377E0,9.648633003E-1
1.600411881E0,2.777273893E0,-9.442731857E0,9.648633003E-1
1.602396193E0,2.762908697E0,-9.440337181E0,9.720458984E-1
1.604410045E0,2.710236311E0,-9.430760384E0,9.744400978E-1
1.606393743E0,2.688688517E0,-9.425971985E0,9.720458984E-1
1.608407286E0,2.659958124E0,-9.404424667E0,9.672574997E-1
1.610391523E0,2.647987127E0,-9.390059471E0,9.744400978E-1
1.612406297E0,2.638410330E0,-9.382876396E0,9.744400978E-1
1.614389996E0,2.616862535E0,-9.380482674E0,9.768342972E-1
1.616404155E0,2.602497339E0,-9.375694275E0,9.768342972E-1
1.618387314E0,2.588132143E0,-9.368511200E0,9.576807022E-1
1.620401473E0,2.583343744E0,-9.339780807E0,9.648633003E-1
1.622415325E0,2.576161146E0,-9.332598686E0,9.696516991E-1
1.624399023E0,2.578555346E0,-9.354146004E0,9.792284966E-1
1.626413413E0,2.576161146E0,-9.342175484E0,9.864110947E-1
1.628396880E0,2.576161146E0,-9.339780807E0,9.792284966E-1
1.630411271E0,2.580949545E0,-9.349357605E0,9.768342972E-1
1.632394968E0,2.588132143E0,-9.356540680E0,9.864110947E-1
1.634409743E0,2.585737944E0,-9.356540680E0,9.888052940E-1
1.636392825E0,2.595314741E0,-9.375694275E0,1.000776291E0
1.638406754E0,2.604891539E0,-9.385271072E0,1.010353088E0
1.640389759E0,2.614468336E0,-9.385271072E0,1.010353088E0
1.642405457E0,2.638410330E0,-9.380482674E0,1.048660398E0
1.644388847E0,2.640804529E0,-9.385271072E0,1.060631394E0
1.646401853E0,2.647987127E0,-9.385271072E0,1.072602391E0
1.648417166E0,2.671929121E0,-9.409213066E0,1.077390790E0
1.650400556E0,2.683900118E0,-9.418789864E0,1.096544385E0
1.652414100E0,2.691082716E0,-9.404424667E0,1.103726983E0
1.654399029E0,2.700659513E0,-9.416395187E0,1.094150186E0
1.656411957E0,2.715024710E0,-9.416395187E0,1.074996591E0
1.658396348E0,2.755726099E0,-9.402029991E0,1.058237195E0
1.660410814E0,2.758120298E0,-9.409213066E0,1.029506683E0
1.662393897E0,2.770091295E0,-9.425971985E0,1.012747288E0
1.664407441E0,2.786850691E0,-9.411606789E0,1.000776291E0
1.666391985E0,2.801215887E0,-9.397241592E0,9.720458984E-1
1.668405913E0,2.808398485E0,-9.402029991E0,9.744400978E-1
1.670389304E0,2.813186884E0,-9.399636269E0,9.911994934E-1
1.672403386E0,2.837129116E0,-9.402029991E0,9.840168953E-1
1.674419161E0,2.846705914E0,-9.399636269E0,9.888052940E-1
1.676401935E0,2.863465309E0,-9.399636269E0,9.911994934E-1
1.678415787E0,2.873042107E0,-9.399636269E0,9.768342972E-1
1.680398792E0,2.880224705E0,-9.392453194E0,9.792284966E-1
1.682412414E0,2.870647907E0,-9.375694275E0,9.792284966E-1
1.684396957E0,2.868253708E0,-9.366117477E0,9.744400978E-1
1.686411425E0,2.863465309E0,-9.344569206E0,9.768342972E-1
1.688394199E0,2.858676910E0,-9.330204010E0,9.744400978E-1
1.690409359E0,2.849100113E0,-9.320627213E0,9.840168953E-1
1.692392133E0,2.837129116E0,-9.315838814E0,9.888052940E-1
1.694407754E0,2.827552319E0,-9.299078941E0,9.840168953E-1
1.696390298E0,2.822763920E0,-9.289502144E0,9.744400978E-1
1.698404150E0,2.813186884E0,-9.291896820E0,9.457096457E-1
1.700388770E0,2.782062292E0,-9.299078941E0,9.265560508E-1
1.702402007E0,2.772485495E0,-9.287108421E0,9.313444495E-1
1.704416397E0,2.770091295E0,-9.270348549E0,9.361328483E-1
1.706400095E0,2.736572504E0,-9.265560150E0,9.409212470E-1
1.708414331E0,2.726995707E0,-9.263166428E0,9.528923035E-1
1.710397414E0,2.698265314E0,-9.270348549E0,9.576807022E-1
1.712411880E0,2.683900118E0,-9.260771751E0,9.600749016E-1
1.714396117E0,2.650381327E0,-9.263166428E0,9.672574997E-1
1.716410276E0,2.640804529E0,-9.263166428E0,9.672574997E-1
1.718393666E0,2.624045134E0,-9.263166428E0,9.720458984E-1
1.720406902E0,2.590526342E0,-9.270348549E0,9.816226959E-1
1.722391600E0,2.580949545E0,-9.270348549E0,9.983820915E-1
1.724405683E0,2.583343744E0,-9.263166428E0,1.000776291E0
1.726389149E0,2.588132143E0,-9.263166428E0,1.015141487E0
1.728403232E0,2.573766708E0,-9.258378029E0,1.019929886E0
1.730417084E0,2.571372509E0,-9.265560150E0,1.029506683E0
1.732402628E0,2.568978310E0,-9.275136948E0,1.027112484E0
1.734416787E0,2.585737944E0,-9.284713745E0,1.034295082E0
1.736399254E0,2.590526342E0,-9.291896820E0,1.034295082E0
1.738412798E0,2.592920542E0,-9.284713745E0,1.053448796E0
1.740398034E0,2.624045134E0,-9.299078941E0,1.055842996E0
1.742410655E0,2.640804529E0,-9.294290543E0,1.065419793E0
1.744394968E0,2.657563925E0,-9.313444138E0,1.074996591E0
1.746408820E0,2.659958124E0,-9.339780807E0,1.070208192E0
1.748392826E0,2.683900118E0,-9.344569206E0,1.055842996E0
1.750406446E0,2.698265314E0,-9.344569206E0,1.034295082E0
1.752390760E0,2.707842112E0,-9.349357605E0,1.031900883E0
1.754405457E0,2.719813108E0,-9.349357605E0,1.031900883E0
1.756388617E0,2.722207308E0,-9.363722801E0,1.027112484E0
1.758402391E0,2.731784105E0,-9.349357605E0,1.031900883E0
1.760412628E0,2.741360903E0,-9.349357605E0,1.027112484E0
1.762399402E0,2.755726099E0,-9.370905876E0,1.000776291E0
1.764414408E0,2.762908697E0,-9.368511200E0,1.007958889E0
1.766398182E0,2.774879694E0,-9.382876396E0,1.010353088E0
1.768412034E0,2.779668093E0,-9.378087997E0,1.005564690E0
1.770396270E0,2.784456491E0,-9.382876396E0,1.005564690E0
1.772409584E0,2.796427488E0,-9.361329079E0,1.010353088E0
1.774394127E0,2.791639090E0,-9.378087997E0,1.017535686E0
1.776408364E0,2.791639090E0,-9.390059471E0,1.017535686E0
1.778391677E0,2.803610086E0,-9.397241592E0,1.027112484E0
1.780405529E0,2.801215887E0,-9.390059471E0,1.031900883E0
1.782389611E0,2.803610086E0,-9.382876396E0,1.024718285E0
1.784403694E0,2.817975283E0,-9.368511200E0,1.012747288E0
1.786417622E0,2.808398485E0,-9.370905876E0,1.007958889E0
1.788401013E0,2.806004286E0,-9.378087997E0,9.983820915E-1
1.790416018E0,2.808398485E0,-9.370905876E0,9.911994934E-1
1.792398870E0,2.815581083E0,-9.366117477E0,9.935936928E-1
1.794413644E0,2.801215887E0,-9.349357605E0,9.983820915E-1
1.796396958E0,2.808398485E0,-9.354146004E0,1.010353088E0
1.798411732E0,2.813186884E0,-9.351752281E0,1.017535686E0
1.800393969E0,2.829946518E0,-9.334992409E0,1.017535686E0
1.802408743E0,2.844311714E0,-9.351752281E0,1.041477680E0
1.804392672E0,2.846705914E0,-9.358934402E0,1.060631394E0
1.806406292E0,2.849100113E0,-9.373299599E0,1.108515382E0
1.808389991E0,2.863465309E0,-9.375694275E0,1.161187768E0
1.810404457E0,2.877830505E0,-9.380482674E0,1.185129881E0
1.812388386E0,2.896984100E0,-9.394847870E0,1.223437071E0
1.814403238E0,2.908955097E0,-9.392453194E0,1.235408068E0
1.816416705E0,2.906560898E0,-9.387664795E0,1.254561663E0
1.818399556E0,2.913743496E0,-9.404424667E0,1.271321058E0
1.820414870E0,2.913743496E0,-9.418789864E0,1.292868972E0
1.822397413E0,2.913743496E0,-9.445125580E0,1.369483352E0
1.824411881E0,2.916137695E0,-9.490615845E0,1.472434044E0
1.826396117E0,2.918531895E0,-9.507374763E0,1.522712231E0
1.828409738E0,2.911349297E0,-9.545681953E0,1.594538331E0
1.830393666E0,2.908955097E0,-9.576807022E0,1.692700624E0
1.832407595E0,2.908955097E0,-9.588777542E0,1.740584612E0
1.834391831E0,2.889801502E0,-9.607931137E0,1.829170108E0
1.836405145E0,2.894589901E0,-9.646238327E0,1.900996208E0
1.838389073E0,2.885013103E0,-9.665391922E0,1.948880196E0
1.840400156E0,2.841917515E0,-9.696516991E0,2.008735180E0
1.842417468E0,2.827552319E0,-9.696516991E0,2.073378563E0
1.844400858E0,2.806004286E0,-9.706093788E0,2.106897593E0
1.846415556E0,2.779668093E0,-9.727641106E0,2.188300371E0
1.848398715E0,2.777273893E0,-9.734824181E0,2.231395960E0
1.850413414E0,2.765302896E0,-9.732429504E0,2.312798738E0
1.852397495E0,2.753331900E0,-9.744400978E0,2.401384354E0
1.854411886E0,2.741360903E0,-9.739612579E0,2.456450939E0
1.856394122E0,2.724601507E0,-9.725247383E0,2.535459518E0
1.858409205E0,2.700659513E0,-9.746794701E0,2.621650934E0
1.860393133E0,2.695871115E0,-9.749189377E0,2.679111719E0
1.862406139E0,2.679111719E0,-9.749189377E0,2.815581083E0
1.864390067E0,2.667140722E0,-9.749189377E0,2.971204281E0
1.866404227E0,2.657563925E0,-9.756371498E0,3.062183857E0
1.868417847E0,2.624045134E0,-9.768342972E0,3.248931646E0
1.870401853E0,2.619256735E0,-9.794678688E0,3.454833031E0
1.872416550E0,2.616862535E0,-9.809044838E0,3.550601006E0
1.874401172E0,2.609679937E0,-9.811438560E0,3.737348795E0
1.876414485E0,2.600103140E0,-9.842563629E0,3.912125587E0
1.878398106E0,2.588132143E0,-9.871294022E0,3.993528366E0
1.880411957E0,2.595314741E0,-9.919178009E0,4.170699596E0
1.882396271E0,2.612074137E0,-9.945513725E0,4.256890774E0
1.884409584E0,2.633621931E0,-9.983820915E0,4.438849926E0
1.886392974E0,2.643198729E0,-1.004846478E1,4.587290287E0
1.888407441E0,2.636016130E0,-1.008437729E1,4.668693542E0
1.890391447E0,2.650381327E0,-1.017056847E1,4.812345505E0
1.892404682E0,2.657563925E0,-1.022802925E1,4.955997467E0
1.894390150E0,2.664746523E0,-1.026633644E1,5.037400246E0
1.896403078E0,2.664746523E0,-1.035492229E1,5.197812080E0
1.898417546E0,2.688688517E0,-1.045308495E1,5.384559631E0
1.900401012E0,2.700659513E0,-1.050815105E1,5.482721806E0
1.902415480E0,2.705447912E0,-1.059434223E1,5.676652431E0
1.904398177E0,2.710236311E0,-1.068292809E1,5.868188381E0
1.906412721E0,2.719813108E0,-1.071644688E1,5.954379559E0
1.908396342E0,2.712630510E0,-1.079306126E1,6.105214119E0
1.910410809E0,2.703053713E0,-1.086728191E1,6.184223175E0
1.912394276E0,2.683900118E0,-1.090080070E1,6.363788128E0
1.914408744E0,2.652775526E0,-1.096544361E1,6.543353081E0
1.916393287E0,2.628833532E0,-1.100135708E1,6.629544735E0
1.918406601E0,2.607285738E0,-1.105402946E1,6.785167694E0
1.920389606E0,2.561795712E0,-1.110909557E1,6.936002254E0
1.922403535E0,2.547430515E0,-1.114261436E1,7.019799232E0
1.924418617E0,2.511517525E0,-1.120725822E1,7.129932880E0
1.926401623E0,2.463633537E0,-1.126950741E1,7.252037048E0
1.928416705E0,2.434903145E0,-1.130063248E1,7.302315235E0
1.930399788E0,2.406172752E0,-1.137006378E1,7.390900612E0
1.932413639E0,2.363077164E0,-1.143231297E1,7.479485989E0
1.934398875E0,2.351106167E0,-1.146343803E1,7.527369976E0
1.936411573E0,2.334346771E0,-1.152568722E1,7.618350029E0
1.938395271E0,2.317587137E0,-1.158314800E1,7.697358608E0
1.940409968E0,2.272097349E0,-1.161187840E1,7.728483200E0
1.942393359E0,2.214636564E0,-1.166215611E1,7.757213593E0
1.944407210E0,2.200271368E0,-1.167891598E1,7.766790390E0
1.946391832E0,2.181117773E0,-1.172679996E1,7.764396191E0
1.948405683E0,2.118868589E0,-1.176750088E1,7.773972988E0
1.950388766E0,2.106897593E0,-1.178426075E1,7.785943985E0
1.952403001E0,2.070984364E0,-1.181538582E1,7.805097580E0
1.954417469E0,2.020706177E0,-1.182975101E1,7.824251175E0
1.956400551E0,2.006340981E0,-1.183453941E1,7.841010571E0
1.958415249E0,1.975216389E0,-1.183214474E1,7.860164165E0
1.960398716E0,1.944091797E0,-1.182256794E1,7.881711960E0
1.962413183E0,1.939303398E0,-1.181538582E1,7.881711960E0
1.964396804E0,1.908178806E0,-1.178426075E1,7.915230751E0
1.966409810E0,1.869871497E0,-1.175553036E1,7.927201748E0
1.968394969E0,1.867477298E0,-1.172919369E1,7.936778545E0
1.970409436E0,1.857900500E0,-1.169088650E1,7.955932140E0
1.972392210E0,1.862688899E0,-1.166455078E1,7.984662533E0
1.974407369E0,1.857900500E0,-1.162863731E1,7.999027729E0
1.976389837E0,1.865083098E0,-1.158314800E1,8.022970200E0
1.978404611E0,1.855506301E0,-1.156399441E1,8.042123795E0
1.980418771E0,1.872265697E0,-1.156159973E1,8.075642586E0
1.982402391E0,1.900996208E0,-1.154723454E1,8.099584579E0
1.984416013E0,1.922544003E0,-1.154244614E1,8.116343498E0
1.986400556E0,1.975216389E0,-1.153765774E1,8.118738174E0
1.988413870E0,2.001552582E0,-1.153526402E1,8.137891769E0
1.990397798E0,2.015917778E0,-1.152568722E1,8.145073891E0
1.992411419E0,2.068590164E0,-1.154962921E1,8.171410561E0
1.994396270E0,2.109291792E0,-1.159511852E1,8.192957878E0
1.996409815E0,2.128445387E0,-1.160709000E1,8.190564156E0
1.998392974E0,2.197877169E0,-1.161906052E1,8.176198959E0
2.000404057E0,2.262520552E0,-1.163821411E1,8.159439087E0
2.002420985E0,2.308010340E0,-1.166694450E1,8.149862289E0
2.004405606E0,2.398990154E0,-1.170525169E1,8.164227486E0
2.006388996E0,2.434903145E0,-1.172919369E1,8.171410561E0
2.008403156E0,2.516305923E0,-1.174595356E1,8.161833763E0
2.010416622E0,2.585737944E0,-1.178186703E1,8.152256966E0
2.012400705E0,2.624045134E0,-1.179144382E1,8.140285492E0
2.014415710E0,2.743755102E0,-1.181059742E1,8.094796181E0
2.016398255E0,2.861071110E0,-1.183453941E1,8.027758598E0
2.018413029E0,2.899378300E0,-1.184411621E1,7.984662533E0
2.020396650E0,2.997540474E0,-1.184650993E1,7.884106159E0
2.022410501E0,3.107673883E0,-1.186087513E1,7.802703381E0
2.024393969E0,3.160346270E0,-1.184890461E1,7.762001991E0
2.026408128E0,3.244143248E0,-1.183453941E1,7.668628216E0
2.028391826E0,3.335123062E0,-1.188242340E1,7.589619160E0
2.030405985E0,3.385401249E0,-1.187524033E1,7.541735172E0
2.032389683E0,3.495534420E0,-1.187045193E1,7.457938194E0
2.034405073E0,3.605667830E0,-1.186566353E1,7.381323814E0
2.036388079E0,3.667917013E0,-1.186566353E1,7.321468830E0
2.038401391E0,3.763684988E0,-1.185608673E1,7.201758862E0
2.040414859E0,3.816357613E0,-1.182735634E1,7.151480675E0
2.042399787E0,3.936067581E0,-1.180820274E1,7.038952827E0
2.044414870E0,4.050989151E0,-1.178186703E1,6.931213856E0
2.046396414E0,4.110844135E0,-1.177229023E1,6.895300865E0
2.048411573E0,4.220977783E0,-1.174595356E1,6.837840080E0
2.050394886E0,4.331110954E0,-1.169567490E1,6.792350292E0
2.052409123E0,4.386177540E0,-1.167652130E1,6.775590897E0
2.054393666E0,4.496310711E0,-1.164060879E1,6.730101109E0
2.056407518E0,4.589684486E0,-1.160709000E1,6.679822922E0
2.058390985E0,4.639962673E0,-1.159272480E1,6.660669327E0
2.060405683E0,4.711789131E0,-1.155681133E1,6.624756336E0
2.062389073E0,4.805162907E0,-1.154484081E1,6.586448669E0
2.064402925E0,4.855441093E0,-1.153765774E1,6.567295074E0
2.066417161E0,4.922478676E0,-1.152329254E1,6.526593685E0
2.068400859E0,4.972756863E0,-1.151132202E1,6.478709698E0
2.070414941E0,4.991910458E0,-1.151371574E1,6.459556103E0
2.072398101E0,5.039794445E0,-1.149935055E1,6.416460514E0
2.074414337E0,5.058948040E0,-1.149695683E1,6.397306919E0
2.076396189E0,5.085284233E0,-1.147062016E1,6.358999729E0
2.078410425E0,5.090072632E0,-1.148019695E1,6.330269337E0
2.080393738E0,5.085284233E0,-1.146822643E1,6.320692539E0
2.082408282E0,5.073313236E0,-1.142513084E1,6.296750546E0
2.084391980E0,5.063736439E0,-1.140118885E1,6.239289761E0
2.086406370E0,5.051765442E0,-1.137006378E1,6.212953568E0
2.088390067E0,5.023035049E0,-1.133415127E1,6.189011574E0
2.090403996E0,4.994304657E0,-1.127668953E1,6.172252178E0
2.092417464E0,4.972756863E0,-1.124556541E1,6.167463779E0
2.094403084E0,4.910507679E0,-1.115937424E1,6.145915985E0
2.096416321E0,4.886565685E0,-1.108994198E1,6.119579315E0
2.098399095E0,4.869806290E0,-1.105642319E1,6.110002518E0
2.100414177E0,4.841075897E0,-1.096304989E1,6.088454723E0
2.102397568E0,4.833893299E0,-1.087925243E1,6.054935932E0
2.104411650E0,4.821922302E0,-1.084812832E1,6.040570736E0
2.106395425E0,4.807557106E0,-1.076193619E1,6.030993938E0
2.108408968E0,4.802768707E0,-1.073081207E1,6.030993938E0
2.110392974E0,4.793191910E0,-1.068532181E1,6.047753334E0
2.112407441E0,4.805162907E0,-1.063504410E1,6.074089527E0
2.114391678E0,4.824316502E0,-1.062786102E1,6.093243122E0
2.116404683E0,4.860229492E0,-1.059194851E1,6.100425720E0
2.118418535E0,4.891354084E0,-1.055603504E1,6.102819920E0
2.120402771E0,4.903325081E0,-1.054406452E1,6.112396717E0
2.122417546E0,4.939238071E0,-1.050096893E1,6.148310184E0
2.124401012E0,5.003881454E0,-1.048899746E1,6.174646378E0
2.126413941E0,5.027823448E0,-1.049139214E1,6.189011574E0
2.128398254E0,5.061342239E0,-1.047463226E1,6.174646378E0
2.130412645E0,5.121197224E0,-1.045787334E1,6.208165169E0
2.132396342E0,5.142745018E0,-1.046026707E1,6.222530365E0
2.134411810E0,5.202600479E0,-1.045069027E1,6.236895561E0
2.136393968E0,5.224148273E0,-1.043632507E1,6.241683960E0
2.138408051E0,5.257667065E0,-1.042914295E1,6.253654957E0
2.140392364E0,5.286397457E0,-1.041477776E1,6.241683960E0
2.142407216E0,5.300762653E0,-1.040759468E1,6.241683960E0
2.144389683E0,5.343858242E0,-1.040520096E1,6.217741966E0
2.146404381E0,5.370194435E0,-1.037407589E1,6.191405773E0
2.148418001E0,5.379771233E0,-1.035492229E1,6.177040577E0
2.150401084E0,5.386953831E0,-1.033098030E1,6.136339188E0
2.152415551E0,5.391742229E0,-1.030943298E1,6.086060524E0
2.154401018E0,5.401319027E0,-1.027351952E1,6.062118530E0
2.156413639E0,5.389348030E0,-1.022084713E1,6.011840343E0
2.158397645E0,5.374982834E0,-1.014662647E1,5.959167957E0
2.160410573E0,5.374982834E0,-1.011550236E1,5.932831764E0
2.162394887E0,5.358223438E0,-1.002212811E1,5.887341976E0
2.164409430E0,5.329493046E0,-9.935936928E0,5.870582581E0
2.166392128E0,5.327098846E0,-9.892841339E0,5.849034786E0
2.168407210E0,5.312733650E0,-9.799467087E0,5.803544998E0
2.170390678E0,5.307945251E0,-9.744400978E0,5.786785603E0
2.172404529E0,5.305551052E0,-9.662998199E0,5.753266811E0
2.174419843E0,5.319916248E0,-9.574412346E0,5.750872612E0
2.176402925E0,5.315127850E0,-9.543288231E0,5.748478413E0
2.178417085E0,5.324704647E0,-9.466673851E0,5.750872612E0
2.180401090E0,5.331887245E0,-9.392453194E0,5.777208805E0
2.182415019E0,5.343858242E0,-9.356540680E0,5.777208805E0
2.184397793E0,5.348646641E0,-9.299078941E0,5.793968201E0
2.186412491E0,5.348646641E0,-9.251194954E0,5.791574001E0
2.188396496E0,5.363011837E0,-9.224859238E0,5.791574001E0
2.190410656E0,5.384559631E0,-9.181763649E0,5.791574001E0
2.192393199E0,5.374982834E0,-9.145850182E0,5.791574001E0
2.194409821E0,5.355829239E0,-9.126696587E0,5.789179802E0
2.196391595E0,5.343858242E0,-9.088389397E0,5.762843609E0
2.198405755E0,5.360617638E0,-9.078812599E0,5.746084213E0
2.200388837E0,5.358223438E0,-9.057265282E0,5.753266811E0
2.202404843E0,5.334281445E0,-9.026140213E0,5.774814606E0
2.204418771E0,5.315127850E0,-8.995016098E0,5.808333397E0
2.206400315E0,5.298368454E0,-8.990227699E0,5.825092793E0
2.208415628E0,5.279214859E0,-8.975862503E0,5.851428986E0
2.210399096E0,5.269638062E0,-8.973467827E0,5.861005783E0
2.212414408E0,5.231330872E0,-8.942343712E0,5.887341976E0
2.214398106E0,5.195417881E0,-8.911218643E0,5.889736176E0
2.216412035E0,5.200206280E0,-8.882488251E0,5.894524574E0
2.218395040E0,5.159504890E0,-8.815450668E0,5.925649166E0
2.220409815E0,5.133168221E0,-8.765172005E0,5.973533154E0
2.222393589E0,5.111620426E0,-8.734047890E0,5.999869347E0
2.224407364E0,5.092466831E0,-8.655038834E0,6.066906929E0
2.226390754E0,5.099649429E0,-8.580819130E0,6.129156113E0
2.228405299E0,5.078101635E0,-8.530540466E0,6.153098583E0
2.230419073E0,5.078101635E0,-8.432378769E0,6.179434776E0
2.232402156E0,5.085284233E0,-8.382100105E0,6.181828976E0
2.234418161E0,5.085284233E0,-8.336610794E0,6.198588371E0
2.236401013E0,5.090072632E0,-8.245630264E0,6.224924564E0
2.238415172E0,5.090072632E0,-8.202534676E0,6.232107162E0
2.240397639E0,5.090072632E0,-8.130708694E0,6.239289761E0
2.242411721E0,5.087678432E0,-8.056488991E0,6.246472359E0
2.244395804E0,5.082890034E0,-8.010998726E0,6.251260757E0
2.246410271E0,5.068524837E0,-7.960720539E0,6.260837555E0
2.248393354E0,5.054159641E0,-7.900865555E0,6.236895561E0
2.250408128E0,5.046977043E0,-7.872135162E0,6.224924564E0
2.252391826E0,5.018246651E0,-7.819462776E0,6.205770969E0
2.254406908E0,4.989516258E0,-7.762001991E0,6.191405773E0
2.256389606E0,4.979939461E0,-7.728483200E0,6.189011574E0
2.258404150E0,4.953603268E0,-7.678205013E0,6.157886982E0
2.260418540E0,4.927267075E0,-7.637503624E0,6.150704384E0
2.262401622E0,4.903325081E0,-7.618350029E0,6.157886982E0
2.264415475E0,4.881777287E0,-7.594407558E0,6.153098583E0
2.266399249E0,4.879383087E0,-7.546523571E0,6.167463779E0
2.268414024E0,4.855441093E0,-7.529764175E0,6.184223175E0
2.270397106E0,4.817133904E0,-7.469909191E0,6.212953568E0
2.272411497E0,4.790797710E0,-7.455543995E0,6.222530365E0
2.274394886E0,4.759673119E0,-7.378929615E0,6.244078159E0
2.276409661E0,4.723760128E0,-7.333439827E0,6.282385349E0
2.278393359E0,4.707000732E0,-7.311892033E0,6.296750546E0
2.280406288E0,4.678270340E0,-7.259219646E0,6.335057735E0
2.282390985E0,4.627991676E0,-7.208941460E0,6.392518520E0
2.284405376E0,4.599261284E0,-7.187393665E0,6.423643112E0
2.286418304E0,4.548983097E0,-7.132327080E0,6.478709698E0
2.288403002E0,4.522646904E0,-7.072471619E0,6.533776283E0
2.290416853E0,4.498704910E0,-7.034164429E0,6.557718277E0
2.292399936E0,4.458003521E0,-6.959944248E0,6.610390663E0
2.294415557E0,4.412513733E0,-6.916848660E0,6.675034523E0
2.296398332E0,4.381389141E0,-6.890512466E0,6.703764915E0
2.298412875E0,4.350264549E0,-6.825869083E0,6.763619900E0
2.300396189E0,4.333505154E0,-6.766014099E0,6.799532890E0
2.302410040E0,4.278438568E0,-6.732495308E0,6.864176273E0
2.304393431E0,4.235342979E0,-6.682217121E0,6.928819656E0
2.306408820E0,4.216189384E0,-6.660669327E0,6.971915245E0
2.308391288E0,4.182670593E0,-6.603208065E0,7.043741226E0
2.310405524E0,4.144362926E0,-6.514622688E0,7.105990410E0
2.312389453E0,4.120420933E0,-6.490680695E0,7.134721279E0
2.314404919E0,4.070142746E0,-6.454767704E0,7.170634270E0
2.316417848E0,4.017470360E0,-6.397306919E0,7.228095055E0
2.318401777E0,3.976768970E0,-6.361393929E0,7.254431248E0
2.320412321E0,3.904942989E0,-6.311115742E0,7.299921036E0
2.322398788E0,3.854664803E0,-6.251260757E0,7.352593422E0
2.324413255E0,3.823540211E0,-6.205770969E0,7.364564419E0
2.326396875E0,3.785232782E0,-6.131550789E0,7.371747017E0
2.328410805E0,3.725377798E0,-6.064512730E0,7.381323814E0
2.330395040E0,3.689464808E0,-6.038176537E0,7.386112213E0
2.332408585E0,3.627215624E0,-5.954379559E0,7.386112213E0
2.334393898E0,3.593696833E0,-5.908889771E0,7.371747017E0
2.336407750E0,3.519476414E0,-5.837063789E0,7.362170219E0
2.338390755E0,3.485957623E0,-5.777208805E0,7.347805023E0
2.340404915E0,3.466804028E0,-5.741295815E0,7.352593422E0
2.342418766E0,3.430891037E0,-5.657498837E0,7.357381821E0
2.344402771E0,3.366247654E0,-5.561730385E0,7.388506413E0
2.346416392E0,3.347094059E0,-5.523423195E0,7.412448406E0
2.348400089E0,3.320757866E0,-5.468356609E0,7.467514992E0
2.350415403E0,3.277662039E0,-5.389348030E0,7.510610580E0
2.352398485E0,3.265691042E0,-5.355829239E0,7.515398979E0
2.354412414E0,3.253720045E0,-5.291185856E0,7.505822182E0
2.356396034E0,3.213018656E0,-5.224148273E0,7.496245384E0
2.358409656E0,3.201047659E0,-5.193023682E0,7.496245384E0
2.360392661E0,3.181894064E0,-5.114014626E0,7.510610580E0
2.362407513E0,3.177105665E0,-5.056553841E0,7.515398979E0
2.364392133E0,3.157952070E0,-5.023035049E0,7.515398979E0
2.366405293E0,3.148375273E0,-4.955997467E0,7.513004780E0
2.368419837E0,3.141192675E0,-4.924872875E0,7.491456985E0
2.370403766E0,3.129221678E0,-4.853046894E0,7.472303391E0
2.372417694E0,3.129221678E0,-4.788403511E0,7.453149796E0
2.374402238E0,3.122039080E0,-4.754884720E0,7.436390400E0
2.376415243E0,3.114856482E0,-4.685452938E0,7.407660007E0
2.378398942E0,3.090914488E0,-4.630385876E0,7.388506413E0
2.380413639E0,3.078943491E0,-4.584896088E0,7.376535416E0
2.382397107E0,3.057395458E0,-4.527435303E0,7.366958618E0
2.384410881E0,3.033453465E0,-4.460397720E0,7.326257229E0
2.386394964E0,3.019088268E0,-4.422090530E0,7.290344238E0
2.388408507E0,2.973598480E0,-4.364629745E0,7.189787865E0
2.390392129E0,2.952050686E0,-4.288015366E0,7.094019413E0
2.392406057E0,2.923320293E0,-4.256890774E0,7.043741226E0
2.394390370E0,2.868253708E0,-4.199429989E0,6.945579052E0
2.396404760E0,2.837129116E0,-4.127603531E0,6.895300865E0
2.398418381E0,2.777273893E0,-4.077325344E0,6.868964672E0
2.400401694E0,2.719813108E0,-4.019864559E0,6.833051682E0
2.402415623E0,2.686294317E0,-3.979163170E0,6.809109688E0
2.404400474E0,2.631227732E0,-3.895366192E0,6.758831501E0
2.406414326E0,2.573766708E0,-3.816357613E0,6.725312710E0
2.408397793E0,2.535459518E0,-3.763684988E0,6.703764915E0
2.410412568E0,2.473210335E0,-3.677493811E0,6.665457726E0
2.412395342E0,2.406172752E0,-3.596091032E0,6.639121532E0
2.414410733E0,2.370259762E0,-3.548206806E0,6.622362137E0
2.416393200E0,2.308010340E0,-3.454833031E0,6.574477673E0
2.418407667E0,2.245761156E0,-3.363853455E0,6.533776283E0
2.420391672E0,2.224213362E0,-3.323152065E0,6.507440090E0
2.422406063E0,2.169146776E0,-3.229778051E0,6.473921299E0
2.424389760E0,2.135627985E0,-3.150769472E0,6.442796707E0
2.426403612E0,2.104503393E0,-3.112462282E0,6.438008308E0
2.428417540E0,2.068590164E0,-3.038241863E0,6.414066315E0
2.430400854E0,2.044648170E0,-2.968810081E0,6.394912720E0
2.432415936E0,1.999158382E0,-2.928108692E0,6.349422932E0
2.434399096E0,1.980004787E0,-2.863465309E0,6.291962147E0
2.436413562E0,1.970427990E0,-2.817975283E0,6.263231754E0
2.438396338E0,1.953668594E0,-2.738966703E0,6.234501362E0
2.440410112E0,1.934514999E0,-2.669534922E0,6.179434776E0
2.442395733E0,1.917755604E0,-2.633621931E0,6.160281181E0
2.444409277E0,1.900996208E0,-2.547430515E0,6.121973515E0
2.446392052E0,1.865083098E0,-2.470816135E0,6.062118530E0
2.448407365E0,1.857900500E0,-2.444479942E0,6.040570736E0
2.450390448E0,1.843535304E0,-2.387019157E0,5.995080948E0
2.452405222E0,1.831564307E0,-2.319981337E0,5.949591160E0
2.454419151E0,1.821987510E0,-2.286462545E0,5.932831764E0
2.456403464E0,1.812410712E0,-2.214636564E0,5.889736176E0
2.458416316E0,1.807622313E0,-2.149993181E0,5.832275391E0
2.460401321E0,1.798045516E0,-2.109291792E0,5.789179802E0
2.462414173E0,1.793257117E0,-2.056619167E0,5.710171223E0
2.464397255E0,1.790862918E0,-2.025494576E0,5.674258232E0
2.466412107E0,1.786074519E0,-1.941697598E0,5.588066578E0
2.468396035E0,1.798045516E0,-1.860294700E0,5.516240597E0
2.470409579E0,1.788468719E0,-1.810016513E0,5.485116005E0
2.472393277E0,1.790862918E0,-1.738190413E0,5.437232018E0
2.474408743E0,1.814804912E0,-1.649604917E0,5.394136429E0
2.476391442E0,1.819593310E0,-1.613691926E0,5.358223438E0
2.478405908E0,1.814804912E0,-1.553836942E0,5.264849663E0
2.480417991E0,1.798045516E0,-1.458068848E0,5.169081688E0
2.482404073E0,1.788468719E0,-1.407790542E0,5.121197224E0
2.484417925E0,1.793257117E0,-1.316810966E0,5.025429249E0
2.486401007E0,1.786074519E0,-1.230619669E0,4.946420670E0
2.488414936E0,1.769315004E0,-1.182735682E0,4.903325081E0
2.490399557E0,1.764526606E0,-1.091755986E0,4.857835293E0
2.492412793E0,1.766920805E0,-1.012747288E0,4.824316502E0
2.494397645E0,1.774103403E0,-9.768342972E-1,4.809951305E0
2.496410574E0,1.788468719E0,-9.002198577E-1,4.783615112E0
2.498394886E0,1.795651317E0,-8.762778044E-1,4.766855717E0
2.500408815E0,1.812410712E0,-8.020575643E-1,4.735731125E0
2.502392205E0,1.802833915E0,-7.278373241E-1,4.709394932E0
2.504406288E0,1.793257117E0,-6.919242740E-1,4.695029736E0
2.506420524E0,1.798045516E0,-6.368576288E-1,4.673481941E0
2.508403914E0,1.800439715E0,-5.961562395E-1,4.644751072E0
2.510418689E0,1.807622313E0,-5.626373887E-1,4.623203278E0
2.512401772E0,1.812410712E0,-5.123591423E-1,4.582501888E0
2.514417392E0,1.800439715E0,-4.429273009E-1,4.537012100E0
2.516400552E0,1.807622313E0,-3.998316824E-1,4.515464306E0
2.518414326E0,1.812410712E0,-3.280056417E-1,4.484339714E0
2.520396870E0,1.850717902E0,-2.537853718E-1,4.455609322E0
2.522412875E0,1.862688899E0,-2.202665508E-1,4.446032524E0
2.524395882E0,1.845929503E0,-1.628057212E-1,4.402936935E0
2.526409117E0,1.826775908E0,-8.140286058E-2,4.369418144E0
2.528393816E0,1.821987510E0,-4.548983276E-2,4.362235546E0
2.530407359E0,1.814804912E0,7.182605099E-3,4.340687752E0
2.532391673E0,1.807622313E0,4.309562966E-2,4.321534157E0
2.534405524E0,1.776497602E0,1.244984865E-1,4.292803764E0
2.536419607E0,1.764526606E0,1.939303428E-1,4.276044369E0
2.538403073E0,1.757344007E0,2.154781520E-1,4.259284973E0
2.540418387E0,1.735796213E0,2.418143749E-1,4.235342979E0
2.542401469E0,1.716642618E0,2.705447972E-1,4.204218388E0
2.544415013E0,1.721431017E0,2.920926213E-1,4.187458992E0
2.546398788E0,1.728613615E0,3.495534360E-1,4.161122322E0
2.548412871E0,1.714248419E0,3.854664862E-1,4.125209332E0
2.550397260E0,1.704671621E0,3.902548850E-1,4.101267338E0
2.552410728E0,1.683123827E0,4.213795066E-1,4.077325344E0
2.554395964E0,1.668758631E0,4.357447028E-1,4.055777550E0
2.556408970E0,1.649604917E0,4.477157295E-1,4.060565948E0
2.558391667E0,1.620874524E0,4.764461517E-1,4.060565948E0
2.560404365E0,1.604115129E0,4.932055473E-1,4.070142746E0
2.562421524E0,1.584961534E0,5.243301988E-1,4.074931145E0
2.564403761E0,1.570596337E0,5.746083856E-1,4.098873138E0
2.566419074E0,1.556231141E0,5.722141862E-1,4.106055737E0
2.568402849E0,1.544260144E0,5.937620401E-1,4.086902142E0
2.570415777E0,1.520318031E0,6.320692301E-1,4.074931145E0
2.572400014E0,1.513135433E0,6.464344859E-1,4.074931145E0
2.574414480E0,1.510741234E0,6.703764796E-1,4.062960148E0
2.576398486E0,1.505952835E0,7.206547260E-1,4.077325344E0
2.578412030E0,1.510741234E0,7.278373241E-1,4.089296341E0
2.580396113E0,1.489193439E0,7.493851185E-1,4.103661537E0
2.582409656E0,1.472434044E0,8.020575643E-1,4.089296341E0
2.584393046E0,1.472434044E0,8.116343617E-1,4.074931145E0
2.586406898E0,1.453280449E0,8.427590132E-1,4.062960148E0
2.588391134E0,1.443703651E0,8.738836050E-1,4.053383350E0
2.590405370E0,1.429338455E0,8.786720037E-1,4.053383350E0
2.592419838E0,1.424550056E0,8.882488012E-1,4.082113743E0
2.594403843E0,1.419761658E0,9.074024558E-1,4.096478939E0
2.596417387E0,1.429338455E0,9.217676520E-1,4.127603531E0
2.598401392E0,1.446097851E0,9.313444495E-1,4.149151325E0
2.600414859E0,1.446097851E0,9.409212470E-1,4.144362926E0
2.602399480E0,1.429338455E0,9.528923035E-1,4.094084740E0
2.604413101E0,1.458068848E0,9.457096457E-1,4.007893562E0
2.606395876E0,1.465251446E0,9.504981041E-1,3.967192173E0
2.608410035E0,1.462857246E0,9.600749016E-1,3.897760391E0
2.610394656E0,1.458068848E0,9.552865028E-1,3.837905407E0
2.612408738E0,1.450886250E0,9.457096457E-1,3.816357613E0
2.614392206E0,1.462857246E0,9.217676520E-1,3.775655985E0
2.616406057E0,1.467645645E0,9.241618514E-1,3.701435804E0
2.618420832E0,1.470039845E0,9.193734527E-1,3.663128614E0
2.620405760E0,1.446097851E0,9.026140571E-1,3.596091032E0
2.622418612E0,1.462857246E0,9.074024558E-1,3.533841610E0
2.624401771E0,1.460463047E0,9.026140571E-1,3.507505417E0
2.626416239E0,1.436521053E0,8.882488012E-1,3.457227230E0
2.628399551E0,1.431732655E0,8.810662031E-1,3.445256233E0
2.630414096E0,1.417367458E0,8.619126081E-1,3.426102638E0
2.632397716E0,1.403002143E0,8.667010069E-1,3.418920040E0
2.634413107E0,1.405396342E0,8.667010069E-1,3.404554844E0
2.636395343E0,1.362300754E0,8.738836050E-1,3.378218651E0
2.638410041E0,1.355118155E0,8.882488012E-1,3.356670856E0
2.640392277E0,1.347935557E0,8.954314590E-1,3.363853455E0
2.642406744E0,1.338358760E0,9.193734527E-1,3.361459255E0
2.644391057E0,1.343147159E0,9.504981041E-1,3.361459255E0
2.646404601E0,1.340752959E0,9.576807022E-1,3.366247654E0
2.648419299E0,1.343147159E0,9.864110947E-1,3.363853455E0
2.650403612E0,1.362300754E0,1.027112484E0,3.361459255E0
2.652416540E0,1.364694953E0,1.041477680E0,3.368641853E0
2.654401547E0,1.386242747E0,1.072602391E0,3.390189648E0
2.656415936E0,1.403002143E0,1.113303781E0,3.428496838E0
2.658399019E0,1.410184860E0,1.134851575E0,3.447650433E0
2.660413486E0,1.431732655E0,1.158793569E0,3.517082214E0
2.662396876E0,1.441309452E0,1.168370485E0,3.552995205E0
2.664411343E0,1.467645645E0,1.182735682E0,3.627215624E0
2.666394426E0,1.498770237E0,1.201889277E0,3.703830004E0
2.668408585E0,1.508347034E0,1.199495077E0,3.754108191E0
2.670392667E0,1.527500629E0,1.194706678E0,3.857059002E0
2.672405903E0,1.549048543E0,1.189918280E0,3.921702385E0
2.674420678E0,1.568202138E0,1.182735682E0,3.955221176E0
2.676404299E0,1.606509328E0,1.149216771E0,4.024652958E0
2.678418459E0,1.644816518E0,1.137245774E0,4.096478939E0
2.680401002E0,1.654393315E0,1.118092179E0,4.129997730E0
2.682416931E0,1.661576033E0,1.070208192E0,4.211400986E0
2.684399475E0,1.702277422E0,1.051054597E0,4.268861771E0
2.686413250E0,1.711854219E0,1.022324085E0,4.304774761E0
2.688397332E0,1.726219416E0,9.600749016E-1,4.340687752E0
2.690412415E0,1.726219416E0,8.930372596E-1,4.359841347E0
2.692395804E0,1.745373011E0,8.499416113E-1,4.381389141E0
2.694411118E0,1.750161409E0,7.876923680E-1,4.453215122E0
2.696393662E0,1.752555609E0,7.493851185E-1,4.472368717E0
2.698407437E0,1.750161409E0,6.488286853E-1,4.534617901E0
2.700390596E0,1.752555609E0,5.650315881E-1,4.587290287E0
2.702405063E0,1.750161409E0,5.267243981E-1,4.596867085E0
2.704418837E0,1.754949808E0,4.429273009E-1,4.611232281E0
2.706402305E0,1.742978811E0,3.639186621E-1,4.625597477E0
2.708417002E0,1.740584612E0,3.327940404E-1,4.627991676E0
2.710400469E0,1.738190413E0,2.753331959E-1,4.642356873E0
2.712415244E0,1.728613615E0,2.322375625E-1,4.651933670E0
2.714398941E0,1.716642618E0,2.226607651E-1,4.661510944E0
2.716413640E0,1.685518026E0,2.106897533E-1,4.680664539E0
2.718396722E0,1.635239720E0,2.011129409E-1,4.699818134E0
2.720406882E0,1.618480325E0,2.059013397E-1,4.709394932E0
2.722424503E0,1.582567334E0,2.442085743E-1,4.704606533E0
2.724408508E0,1.575384736E0,2.705447972E-1,4.726154327E0
2.726392436E0,1.549048543E0,2.920926213E-1,4.730942726E0
2.728405980E0,1.546654344E0,3.567360640E-1,4.762067318E0
2.730420755E0,1.532289028E0,3.902548850E-1,4.778826714E0
2.732403838E0,1.496376038E0,4.644751251E-1,4.786009312E0
2.734419920E0,1.472434044E0,5.530605912E-1,4.800374508E0
2.736402002E0,1.465251446E0,5.961562395E-1,4.814739704E0
2.738415931E0,1.458068848E0,6.464344859E-1,4.872200489E0
2.740400244E0,1.465251446E0,7.182605267E-1,4.953603268E0
2.742414018E0,1.455674648E0,7.541735172E-1,4.989516258E0
2.744397409E0,1.467645645E0,7.972691655E-1,5.075707436E0
2.746411568E0,1.474828243E0,8.523358107E-1,5.128379822E0
2.748395035E0,1.489193439E0,8.667010069E-1,5.157110691E0
2.750410041E0,1.529894829E0,8.690952063E-1,5.190629482E0
2.752392585E0,1.575384736E0,8.786720037E-1,5.204994678E0
2.754407667E0,1.601720929E0,8.690952063E-1,5.221754074E0
2.756391981E0,1.661576033E0,8.475474119E-1,5.272032261E0
2.758405139E0,1.692700624E0,7.852981687E-1,5.300762653E0
2.760418145E0,1.747767210E0,7.517793179E-1,5.351040840E0
2.762403612E0,1.814804912E0,6.584054828E-1,5.413290024E0
2.764417156E0,1.843535304E0,5.722141862E-1,5.446808815E0
2.766399931E0,1.881842494E0,5.075707436E-1,5.501875401E0
2.768414398E0,1.934514999E0,3.950432837E-1,5.564124584E0
2.770398788E0,1.972822189E0,3.303998411E-1,5.597643375E0
2.772412255E0,2.042253971E0,1.867477298E-1,5.621585369E0
2.774397183E0,2.080561161E0,5.746084079E-2,5.652710438E0
2.776410420E0,2.082955360E0,-7.182605099E-3,5.662287235E0
2.778393887E0,2.114080191E0,-1.532289088E-1,5.679046631E0
2.780408970E0,2.135627985E0,-2.920926213E-1,5.657498837E0
2.782392052E0,2.147598982E0,-3.519476354E-1,5.647922039E0
2.784406135E0,2.164358377E0,-4.812345505E-1,5.650316238E0
2.786420370E0,2.181117773E0,-5.961562395E-1,5.667075634E0
2.788403761E0,2.183511972E0,-6.584054828E-1,5.693411827E0
2.790418151E0,2.193088770E0,-7.876923680E-1,5.734113216E0
2.792402157E0,2.188300371E0,-8.379706144E-1,5.760449409E0
2.794417239E0,2.169146776E0,-9.361328483E-1,5.849034786E0
2.796399475E0,2.169146776E0,-1.039083481E0,5.956773758E0
2.798413865E0,2.164358377E0,-1.082179189E0,6.016628742E0
2.800396332E0,2.138022184E0,-1.161187768E0,6.121973515E0
2.802411107E0,2.121262789E0,-1.235408068E0,6.217741966E0
2.804395113E0,2.123656988E0,-1.261744261E0,6.253654957E0
2.806409348E0,2.140416384E0,-1.312022567E0,6.325480938E0
2.808393278E0,2.154781580E0,-1.364694953E0,6.406883717E0
2.810406590E0,2.166752577E0,-1.395819545E0,6.440402508E0
2.812421365E0,2.188300371E0,-1.426944256E0,6.493074894E0
2.814405601E0,2.219424963E0,-1.426944256E0,6.507440090E0
2.816419838E0,2.236184359E0,-1.424550056E0,6.497863293E0
2.818403228E0,2.260126352E0,-1.395819545E0,6.488286495E0
2.820417618E0,2.286462545E0,-1.347935557E0,6.478709698E0
2.822400469E0,2.293645144E0,-1.321599364E0,6.495469093E0
2.824415168E0,2.303221941E0,-1.244984865E0,6.564900875E0
2.826398019E0,2.305616140E0,-1.209071875E0,6.588842869E0
2.828412717E0,2.324769735E0,-1.132457376E0,6.641515732E0
2.830396184E0,2.331952572E0,-1.079784989E0,6.694188118E0
2.832410267E0,2.334346771E0,-1.046266198E0,6.720524311E0
2.834394964E0,2.343923569E0,-9.648633003E-1,6.775590897E0
2.836408201E0,2.377442360E0,-9.050082564E-1,6.830657482E0
2.838392206E0,2.396595955E0,-8.786720037E-1,6.852205276E0
2.840405442E0,2.444479942E0,-8.331822157E-1,6.854599476E0
2.842420448E0,2.475604534E0,-8.259995580E-1,6.837840080E0
2.844405068E0,2.504334927E0,-8.283938169E-1,6.818686485E0
2.846417074E0,2.576161146E0,-8.427590132E-1,6.770802498E0
2.848401156E0,2.621650934E0,-8.571242094E-1,6.732495308E0
2.850415854E0,2.652775526E0,-8.906430602E-1,6.718130112E0
2.852399628E0,2.710236311E0,-9.768342972E-1,6.708553314E0
2.854414711E0,2.746149302E0,-1.074996591E0,6.720524311E0
2.856397486E0,2.808398485E0,-1.127668977E0,6.732495308E0
2.858411338E0,2.880224705E0,-1.235408068E0,6.777985096E0
2.860394958E0,2.906560898E0,-1.304839969E0,6.809109688E0
2.862409195E0,2.968810081E0,-1.436521053E0,6.890512466E0
2.864393123E0,3.033453465E0,-1.592144132E0,6.936002254E0
2.866406437E0,3.064578056E0,-1.675941229E0,6.964732647E0
2.868421442E0,3.126827478E0,-1.836352706E0,7.007828236E0
2.870405448E0,3.165134668E0,-1.996764183E0,7.022193432E0
2.872418760E0,3.177105665E0,-2.078166962E0,7.048529625E0
2.874403920E0,3.191470861E0,-2.231395960E0,7.110779285E0
2.876417156E0,3.198653460E0,-2.355894566E0,7.170634270E0
2.878400931E0,3.196259260E0,-2.413355350E0,7.201758862E0
2.880412321E0,3.217807055E0,-2.552218914E0,7.299921036E0
2.882397481E0,3.210624456E0,-2.667140722E0,7.383718014E0
2.884412640E0,3.215412855E0,-2.726995707E0,7.419631004E0
2.886395723E0,3.239354849E0,-2.822763920E0,7.481880188E0
2.888410420E0,3.241749048E0,-2.882618904E0,7.501033783E0
2.890393503E0,3.234566450E0,-2.899378300E0,7.529764175E0
2.892408969E0,3.241749048E0,-2.923320293E0,7.553706169E0
2.894393514E0,3.241749048E0,-2.930502892E0,7.563282967E0
2.896406750E0,3.260902643E0,-2.942473888E0,7.596801758E0
2.898419986E0,3.284844637E0,-2.935291290E0,7.644686222E0
2.900404068E0,3.296815634E0,-2.923320293E0,7.666234016E0
2.902418151E0,3.318363667E0,-2.906560898E0,7.714118004E0
2.904401541E0,3.327940464E0,-2.882618904E0,7.771578789E0
2.906416624E0,3.339911461E0,-2.865859509E0,7.793126583E0
2.908398783E0,3.368641853E0,-2.827552319E0,7.850587368E0
2.910413327E0,3.406949043E0,-2.796427488E0,7.869740963E0
2.912396640E0,3.423708439E0,-2.777273893E0,7.874529362E0
2.914412338E0,3.445256233E0,-2.734178305E0,7.862558365E0
2.916395497E0,3.473986626E0,-2.705447912E0,7.841010571E0
2.918409272E0,3.497928619E0,-2.698265314E0,7.814674377E0
2.920392046E0,3.541024208E0,-2.683900118E0,7.762001991E0
2.922407514E0,3.562572241E0,-2.676717520E0,7.730877399E0
2.924390904E0,3.591302633E0,-2.686294317E0,7.680599213E0
2.926403833E0,3.639186621E0,-2.705447912E0,7.627926826E0
2.928418915E0,3.653551817E0,-2.746149302E0,7.608773232E0
2.930403228E0,3.665522814E0,-2.808398485E0,7.582436562E0
2.932417079E0,3.684676409E0,-2.877830505E0,7.584830761E0
2.934402008E0,3.699041605E0,-2.918531895E0,7.592013359E0
2.936415552E0,3.696647406E0,-3.045424461E0,7.601590633E0
2.938398327E0,3.701435804E0,-3.169923067E0,7.606379032E0
2.940412717E0,3.701435804E0,-3.232172251E0,7.623138428E0
2.942395569E0,3.672705412E0,-3.385401249E0,7.651868820E0
2.944410343E0,3.670311213E0,-3.536235809E0,7.678205013E0
2.946393734E0,3.672705412E0,-3.629609823E0,7.678205013E0
2.948407816E0,3.653551817E0,-3.790021181E0,7.709329605E0
2.950391898E0,3.639186621E0,-3.928884983E0,7.735665798E0
2.952406365E0,3.610456228E0,-4.007893562E0,7.757213593E0
2.954420833E0,3.620033026E0,-4.141968727E0,7.809885979E0
2.956403530E0,3.615244627E0,-4.216189384E0,7.848193169E0
2.958417998E0,3.610456228E0,-4.378994942E0,7.908048153E0
2.960400772E0,3.598485231E0,-4.517858505E0,7.989450932E0
2.962415239E0,3.591302633E0,-4.587290287E0,8.027758598E0
2.964399321E0,3.600879431E0,-4.738125324E0,8.106766701E0
2.966413172E0,3.598485231E0,-4.848258495E0,8.169015884E0
2.968397409E0,3.588908434E0,-4.898536682E0,8.197746277E0
2.970411030E0,3.612850428E0,-5.011064053E0,8.269572258E0
2.972395266E0,3.643975019E0,-5.109226227E0,8.334216118E0
2.974410041E0,3.660734415E0,-5.154716492E0,8.350975990E0
2.976392585E0,3.708618402E0,-5.219359875E0,8.362946510E0
2.978406975E0,3.766079187E0,-5.284003258E0,8.331821442E0
2.980421442E0,3.813963413E0,-5.312733650E0,8.319850922E0
2.982405217E0,3.864241600E0,-5.336675644E0,8.288725853E0
2.984418761E0,3.897760391E0,-5.346252441E0,8.245630264E0
2.986403304E0,3.948038578E0,-5.346252441E0,8.219294548E0
2.988416926E0,4.034229755E0,-5.343858242E0,8.154650688E0
2.990400239E0,4.070142746E0,-5.341464043E0,8.125920296E0
2.992415398E0,4.139574528E0,-5.319916248E0,8.049305916E0
2.994399096E0,4.211400986E0,-5.295974255E0,7.953537941E0
2.996412640E0,4.240131378E0,-5.276820660E0,7.917624950E0
2.998395645E0,4.268861771E0,-5.238513470E0,7.829039574E0
3.000409497E0,4.319139957E0,-5.219359875E0,7.716512203E0
3.002394733E0,4.333505154E0,-5.207388878E0,7.656657219E0
3.004407662E0,4.369418144E0,-5.164293289E0,7.534552574E0
3.006421590E0,4.400542736E0,-5.154716492E0,7.424419403E0
3.008406135E0,4.400542736E0,-5.149928093E0,7.369352818E0
3.010420601E0,4.405331135E0,-5.130774021E0,7.232883453E0
3.012403684E0,4.410119534E0,-5.135562420E0,7.115567684E0
3.014418766E0,4.395754337E0,-5.125985622E0,7.058106422E0
3.016401311E0,4.374206543E0,-5.137956619E0,6.974309444E0
3.018415085E0,4.371812344E0,-5.157110691E0,6.952761650E0
3.020400322E0,4.359841347E0,-5.185841084E0,6.986280441E0
3.022414173E0,4.340687752E0,-5.279214859E0,7.089231014E0
3.024396717E0,4.321534157E0,-5.336675644E0,7.151480675E0
3.026411491E0,4.316745758E0,-5.446808815E0,7.295132637E0
3.028395113E0,4.309563160E0,-5.592854977E0,7.455543995E0
3.030409041E0,4.311957359E0,-5.676652431E0,7.532158375E0
3.032392124E0,4.321534157E0,-5.853823185E0,7.687781811E0
3.034407206E0,4.328716755E0,-6.014234543E0,7.814674377E0
3.036421058E0,4.340687752E0,-6.083666325E0,7.860164165E0
3.038404755E0,4.381389141E0,-6.217741966E0,7.951143742E0
3.040416761E0,4.434061527E0,-6.351817131E0,8.022970200E0
3.042401689E0,4.460397720E0,-6.402095318E0,8.042123795E0
3.044416772E0,4.520252705E0,-6.497863293E0,8.090007782E0
3.046399547E0,4.587290287E0,-6.579266071E0,8.147468567E0
3.048414553E0,4.608838081E0,-6.615179062E0,8.169015884E0
3.050397711E0,4.668693542E0,-6.648698330E0,8.216899872E0
3.052412410E0,4.709394932E0,-6.682217121E0,8.226476669E0
3.054396722E0,4.769249916E0,-6.694188118E0,8.204929352E0
3.056410036E0,4.817133904E0,-6.746860504E0,8.173804283E0
3.058393349E0,4.833893299E0,-6.775590897E0,8.157045364E0
3.060408739E0,4.862623692E0,-6.792350292E0,8.118738174E0
3.062392129E0,4.896142483E0,-6.840234280E0,8.080430984E0
3.064405981E0,4.903325081E0,-6.859387875E0,8.049305916E0
3.066419909E0,4.908113480E0,-6.892906666E0,7.991845131E0
3.068413992E0,4.898536682E0,-6.947973251E0,7.903259754E0
3.070387305E0,4.898536682E0,-6.967126846E0,7.831433773E0
3.072401388E0,4.888959885E0,-7.012616634E0,7.663839817E0
3.074416470E0,4.848258495E0,-7.034164429E0,7.486668587E0
3.076399322E0,4.824316502E0,-7.053318024E0,7.402871609E0
3.078413173E0,4.778826714E0,-7.077260017E0,7.249642849E0
3.080396563E0,4.723760128E0,-7.072471619E0,7.098807812E0
3.082410953E0,4.704606533E0,-7.070077419E0,7.041347027E0
3.084394728E0,4.654327869E0,-7.048529625E0,6.943184853E0
3.086407964E0,4.620809078E0,-7.043741226E0,6.912060261E0
3.088392508E0,4.568136692E0,-7.017405033E0,6.856993675E0
3.090406360E0,4.522646904E0,-6.971915245E0,6.828263283E0
3.092420520E0,4.498704910E0,-6.955155849E0,6.821080685E0
3.094405217E0,4.465186119E0,-6.907271862E0,6.811503887E0
3.096419299E0,4.450820923E0,-6.902483463E0,6.837840080E0
3.098402690E0,4.467580318E0,-6.888118267E0,6.845022678E0
3.100416925E0,4.484339714E0,-6.861782074E0,6.830657482E0
3.102400316E0,4.529829502E0,-6.849811077E0,6.806715488E0
3.104413783E0,4.556165695E0,-6.842628479E0,6.799532890E0
3.106397250E0,4.623203278E0,-6.864176273E0,6.775590897E0
3.108412024E0,4.730942726E0,-6.878541470E0,6.789956093E0
3.110395646E0,4.783615112E0,-6.888118267E0,6.806715488E0
3.112409574E0,4.886565685E0,-6.933608055E0,6.849811077E0
3.114395118E0,4.941632271E0,-6.991068840E0,6.936002254E0
3.116407969E0,5.070919037E0,-7.026981831E0,6.974309444E0
3.118391129E0,5.216965675E0,-7.120356083E0,7.041347027E0
3.120401519E0,5.295974255E0,-7.165845871E0,7.082048416E0
3.122419063E0,5.453991413E0,-7.266402245E0,7.139509678E0
3.124403376E0,5.609614372E0,-7.381323814E0,7.240066051E0
3.126418228E0,5.695806026E0,-7.448361397E0,7.292738438E0
3.128400618E0,5.853823185E0,-7.568071365E0,7.414842606E0
3.130415085E0,5.975927353E0,-7.694964409E0,7.524975777E0
3.132399783E0,6.026205540E0,-7.773972988E0,7.582436562E0
3.134414789E0,6.143521786E0,-7.891288757E0,7.671022415E0
3.136396717E0,6.251260757E0,-8.006210327E0,7.735665798E0
3.138410569E0,6.291962147E0,-8.066065788E0,7.754819393E0
3.140395497E0,6.335057735E0,-8.173804283E0,7.785943985E0
3.142408118E0,6.325480938E0,-8.298302650E0,7.793126583E0
3.144392047E0,6.327875137E0,-8.341399193E0,7.783549786E0
3.146405899E0,6.323086739E0,-8.439560890E0,7.757213593E0
3.148420442E0,6.315904140E0,-8.501810074E0,7.716512203E0
3.150404064E0,6.244078159E0,-8.525752068E0,7.704541206E0
3.152418915E0,6.177040577E0,-8.554482460E0,7.663839817E0
3.154403151E0,6.136339188E0,-8.573636055E0,7.656657219E0
3.156416464E0,6.030993938E0,-8.599972725E0,7.630321026E0
3.158399778E0,5.916072369E0,-8.571242332E0,7.603984833E0
3.160413937E0,5.856217384E0,-8.554482460E0,7.594407558E0
3.162398327E0,5.726930618E0,-8.506598473E0,7.580042362E0
3.164412178E0,5.585672379E0,-8.444349289E0,7.563282967E0
3.166394877E0,5.516240597E0,-8.420407295E0,7.560888767E0
3.168410266E0,5.365406036E0,-8.334216118E0,7.548917770E0
3.170393426E0,5.226542473E0,-8.262390137E0,7.505822182E0
3.172408124E0,5.157110691E0,-8.231265068E0,7.477091789E0
3.174391591E0,5.023035049E0,-8.209717751E0,7.426813602E0
3.176406288E0,4.920084476E0,-8.212111473E0,7.400477409E0
3.178419218E0,4.865017891E0,-8.238448143E0,7.390900612E0
3.180403607E0,4.754884720E0,-8.283937454E0,7.343016624E0
3.182417767E0,4.699818134E0,-8.374917984E0,7.304709435E0
3.184401387E0,4.608838081E0,-8.434772491E0,7.244854450E0
3.186415009E0,4.539406300E0,-8.583212852E0,7.206547260E0
3.188398398E0,4.498704910E0,-8.655038834E0,7.170634270E0
3.190412866E0,4.424484730E0,-8.827422142E0,7.115567684E0
3.192396563E0,4.350264549E0,-8.992621422E0,7.041347027E0
3.194411954E0,4.331110954E0,-9.066842079E0,7.012616634E0
3.196394651E0,4.276044369E0,-9.205705643E0,6.964732647E0
3.198407965E0,4.264073372E0,-9.330204010E0,6.924031258E0
3.200422124E0,4.264073372E0,-9.375694275E0,6.904877663E0
3.202405822E0,4.247313976E0,-9.447520256E0,6.890512466E0
3.204420519E0,4.283226967E0,-9.478644371E0,6.866570473E0
3.206404294E0,4.309563160E0,-9.490615845E0,6.854599476E0
3.208418684E0,4.376600742E0,-9.507374763E0,6.866570473E0
3.210402074E0,4.467580318E0,-9.488221169E0,6.864176273E0
3.212415926E0,4.534617901E0,-9.473855972E0,6.866570473E0
3.214401239E0,4.659116745E0,-9.442731857E0,6.859387875E0
3.216414475E0,4.723760128E0,-9.423578262E0,6.849811077E0
3.218397557E0,4.843470097E0,-9.406818390E0,6.809109688E0
3.220412563E0,4.965574265E0,-9.361329079E0,6.754043102E0
3.222395722E0,5.025429249E0,-9.361329079E0,6.727706909E0
3.224409574E0,5.128379822E0,-9.354146004E0,6.684611320E0
3.226392656E0,5.214571476E0,-9.325415611E0,6.634333134E0
3.228407739E0,5.236119270E0,-9.330204010E0,6.588842869E0
3.230421283E0,5.288791656E0,-9.354146004E0,6.485892296E0
3.232404981E0,5.315127850E0,-9.363722801E0,6.378153324E0
3.234420601E0,5.315127850E0,-9.370905876E0,6.337451935E0
3.236402838E0,5.305551052E0,-9.387664795E0,6.244078159E0
3.238417305E0,5.305551052E0,-9.421183586E0,6.153098583E0
3.240400618E0,5.286397457E0,-9.425971985E0,6.093243122E0
3.242416008E0,5.262455463E0,-9.425971985E0,5.978321552E0
3.244399091E0,5.245696068E0,-9.414001465E0,5.875370979E0
3.246412019E0,5.228936672E0,-9.404424667E0,5.815515995E0
3.248396410E0,5.178658485E0,-9.366117477E0,5.707777023E0
3.250410569E0,5.164293289E0,-9.334992409E0,5.674258232E0
3.252394882E0,5.121197224E0,-9.263166428E0,5.614402771E0
3.254409041E0,5.092466831E0,-9.174580574E0,5.600037575E0
3.256392739E0,5.085284233E0,-9.114726067E0,5.607220173E0
3.258405360E0,5.070919037E0,-9.033323288E0,5.643133640E0
3.260421366E0,5.068524837E0,-8.942343712E0,5.657498837E0
3.262403217E0,5.066130638E0,-8.904036522E0,5.645527840E0
3.264418300E0,5.054159641E0,-8.827422142E0,5.604825974E0
3.266402228E0,5.058948040E0,-8.774748802E0,5.580883980E0
3.268416080E0,5.066130638E0,-8.746018410E0,5.588066578E0
3.270400162E0,5.078101635E0,-8.731653214E0,5.590460777E0
3.272414014E0,5.099649429E0,-8.769960403E0,5.571307182E0
3.274398327E0,5.099649429E0,-8.791508675E0,5.576095581E0
3.276411871E0,5.102043629E0,-8.853757858E0,5.549759388E0
3.278394876E0,5.104437828E0,-8.935160637E0,5.530605793E0
3.280407267E0,5.085284233E0,-8.973467827E0,5.509057999E0
3.282423272E0,5.058948040E0,-9.066842079E0,5.523423195E0
3.284406893E0,5.042188644E0,-9.119514465E0,5.535394192E0
3.286421745E0,5.006275654E0,-9.229647636E0,5.571307182E0
3.288405366E0,4.984727859E0,-9.334992409E0,5.588066578E0
3.290419217E0,4.970362663E0,-9.380482674E0,5.592854977E0
3.292403531E0,4.936843872E0,-9.449913979E0,5.621585369E0
3.294417997E0,4.903325081E0,-9.514557838E0,5.643133640E0
3.296401465E0,4.886565685E0,-9.540893555E0,5.647922039E0
3.298415008E0,4.867412090E0,-9.586383820E0,5.657498837E0
3.300399014E0,4.848258495E0,-9.619902611E0,5.669469833E0
3.302412481E0,4.821922302E0,-9.622296333E0,5.671864033E0
3.304396256E0,4.802768707E0,-9.591172218E0,5.664681435E0
3.306410723E0,4.781220913E0,-9.581595421E0,5.657498837E0
3.308394113E0,4.781220913E0,-9.569623947E0,5.650316238E0
3.310407964E0,4.781220913E0,-9.533711433E0,5.623979568E0
3.312423047E0,4.793191910E0,-9.493009567E0,5.578489780E0
3.314407283E0,4.786009312E0,-9.478644371E0,5.552153587E0
3.316421212E0,4.790797710E0,-9.461885452E0,5.497087002E0
3.318403986E0,4.795586109E0,-9.447520256E0,5.470750809E0
3.320418146E0,4.793191910E0,-9.414001465E0,5.370194435E0
3.322402151E0,4.788403511E0,-9.380482674E0,5.284003258E0
3.324416927E0,4.800374508E0,-9.380482674E0,5.240907669E0
3.326398470E0,4.797980309E0,-9.361329079E0,5.154716492E0
3.328414091E0,4.766855717E0,-9.323021889E0,5.066130638E0
3.330397250E0,4.752490520E0,-9.318233490E0,5.015852451E0
3.332412026E0,4.745307922E0,-9.284713745E0,4.910507679E0
3.334396646E0,4.697423935E0,-9.263166428E0,4.824316502E0
3.336409574E0,4.687847137E0,-9.258378029E0,4.771644115E0
3.338392965E0,4.661510944E0,-9.244012833E0,4.659116745E0
3.340408277E0,4.625597477E0,-9.222464561E0,4.551377296E0
3.342421283E0,4.608838081E0,-9.212887764E0,4.503493309E0
3.344404904E0,4.553771496E0,-9.198522568E0,4.412513733E0
3.346419064E0,4.532223701E0,-9.176975250E0,4.374206543E0
3.348402761E0,4.489128113E0,-9.174580574E0,4.295197964E0
3.350416998E0,4.450820923E0,-9.141061783E0,4.225766182E0
3.352400618E0,4.434061527E0,-9.124302864E0,4.194641590E0
3.354416009E0,4.414907932E0,-9.124302864E0,4.158728123E0
3.356399091E0,4.390965939E0,-9.143456459E0,4.161122322E0
3.358413250E0,4.402936935E0,-9.145850182E0,4.163516521E0
3.360395486E0,4.426878929E0,-9.169792175E0,4.168305397E0
3.362410261E0,4.467580318E0,-9.196128845E0,4.168305397E0
3.364393959E0,4.489128113E0,-9.215282440E0,4.168305397E0
3.366408657E0,4.525041103E0,-9.260771751E0,4.165910721E0
3.368422816E0,4.572925091E0,-9.306262016E0,4.163516521E0
3.370406207E0,4.606443882E0,-9.351752281E0,4.156333923E0
3.372420673E0,4.678270340E0,-9.440337181E0,4.137180328E0
3.374404679E0,4.747702122E0,-9.514557838E0,4.118026733E0
3.376417915E0,4.783615112E0,-9.557653427E0,4.101267338E0
3.378401690E0,4.845864296E0,-9.631873131E0,4.079719543E0
3.380416157E0,4.881777287E0,-9.665391922E0,4.074931145E0
3.382399855E0,4.936843872E0,-9.713275909E0,4.079719543E0
3.384414014E0,4.967968464E0,-9.809044838E0,4.108449936E0
3.386397635E0,4.975151062E0,-9.844957352E0,4.120420933E0
3.388411871E0,5.001487255E0,-9.911994934E0,4.151545525E0
3.390395262E0,5.035006046E0,-9.976638794E0,4.185064793E0
3.392409113E0,5.039794445E0,-9.995792389E0,4.209006786E0
3.394394042E0,5.051765442E0,-1.007240677E1,4.242525578E0
3.396406970E0,5.075707436E0,-1.012268448E1,4.285621166E0
3.398421361E0,5.080495834E0,-1.014423275E1,4.304774761E0
3.400404827E0,5.080495834E0,-1.019690514E1,4.328716755E0
3.402420218E0,5.085284233E0,-1.022802925E1,4.352658749E0
3.404403838E0,5.078101635E0,-1.023760605E1,4.357447147E0
3.406416767E0,5.073313236E0,-1.025675964E1,4.357447147E0
3.408400541E0,5.061342239E0,-1.025915432E1,4.352658749E0
3.410413778E0,5.044582844E0,-1.026154804E1,4.355052948E0
3.412399322E0,5.037400246E0,-1.026873112E1,4.369418144E0
3.414414097E0,5.025429249E0,-1.026633644E1,4.369418144E0
3.416396794E0,5.001487255E0,-1.026394272E1,4.381389141E0
3.418410646E0,4.970362663E0,-1.024478912E1,4.386177540E0
3.420395344E0,4.965574265E0,-1.023760605E1,4.381389141E0
3.422408273E0,4.927267075E0,-1.020887566E1,4.376600742E0
3.424422355E0,4.886565685E0,-1.018732834E1,4.369418144E0
3.426406361E0,4.855441093E0,-1.017056847E1,4.364629745E0
3.428420212E0,4.802768707E0,-1.013944435E1,4.352658749E0
3.430404218E0,4.750096321E0,-1.011310768E1,4.319139957E0
3.432418069E0,4.716577530E0,-1.008677197E1,4.297592163E0
3.434403075E0,4.647145271E0,-1.004367638E1,4.244919777E0
3.436416003E0,4.582501888E0,-1.002212811E1,4.206612587E0
3.438399624E0,4.551377296E0,-1.000776291E1,4.192247391E0
3.440410399E0,4.479551315E0,-9.979032516E0,4.168305397E0
3.442397559E0,4.448426723E0,-9.964667320E0,4.146757126E0
3.444412640E0,4.393360138E0,-9.952696800E0,4.108449936E0
3.446395646E0,4.331110954E0,-9.943120003E0,4.058171749E0
3.448408575E0,4.297592163E0,-9.947908401E0,4.036623955E0
3.450423350E0,4.220977783E0,-9.943120003E0,3.998316765E0
3.452407739E0,4.146757126E0,-9.931148529E0,3.960009575E0
3.454422130E0,4.118026733E0,-9.928754807E0,3.943250179E0
3.456404597E0,4.058171749E0,-9.928754807E0,3.921702385E0
3.458419449E0,3.983951569E0,-9.919178009E0,3.919308186E0
3.460403685E0,3.938461781E0,-9.928754807E0,3.931279182E0
3.462416690E0,3.873818398E0,-9.938331604E0,3.948038578E0
3.464400696E0,3.823540211E0,-9.943120003E0,3.926490784E0
3.466416316E0,3.787626982E0,-9.933543205E0,3.914519787E0
3.468398783E0,3.739742994E0,-9.945513725E0,3.890577793E0
3.470413019E0,3.677493811E0,-9.952696800E0,3.854664803E0
3.472396410E0,3.655946016E0,-9.962273598E0,3.818751812E0
3.474410799E0,3.596091032E0,-9.947908401E0,3.782838583E0
3.476393959E0,3.567360640E0,-9.940725327E0,3.763684988E0
3.478408349E0,3.526659012E0,-9.952696800E0,3.722983599E0
3.480421663E0,3.469198227E0,-9.926360130E0,3.689464808E0
3.482406591E0,3.457227230E0,-9.931148529E0,3.684676409E0
3.484420981E0,3.433285236E0,-9.964667320E0,3.648763418E0
3.486404063E0,3.387795448E0,-9.962273598E0,3.605667830E0
3.488418223E0,3.371036053E0,-9.955090523E0,3.591302633E0
3.490401690E0,3.327940464E0,-9.959878922E0,3.567360640E0
3.492416080E0,3.313575268E0,-9.964667320E0,3.529053211E0
3.494400162E0,3.303998232E0,-9.976638794E0,3.514688015E0
3.496413399E0,3.289633036E0,-9.976638794E0,3.495534420E0
3.498397635E0,3.272873640E0,-9.991003990E0,3.478775024E0
3.500411795E0,3.258508444E0,-1.000058079E1,3.466804028E0
3.502395800E0,3.232172251E0,-1.000297451E1,3.447650433E0
3.504409652E0,3.210624456E0,-1.001973438E1,3.426102638E0
3.506393118E0,3.205836058E0,-1.002452278E1,3.426102638E0
3.508406894E0,3.205836058E0,-1.003649330E1,3.423708439E0
3.510421745E0,3.198653460E0,-1.004128170E1,3.421314240E0
3.512405443E0,3.177105665E0,-1.003649330E1,3.423708439E0
3.514419602E0,3.162740469E0,-1.004128170E1,3.411737442E0
3.516402608E0,3.160346270E0,-1.004846478E1,3.416525841E0
3.518417074E0,3.169923067E0,-1.005085850E1,3.531447411E0
3.520400234E0,3.160346270E0,-1.008916569E1,3.787626982E0
3.522413778E0,3.157952070E0,-1.010831928E1,3.945644379E0
3.524398938E0,3.150769472E0,-1.018493366E1,4.204218388E0
3.526412481E0,3.134010077E0,-1.024478912E1,4.374206543E0
3.528396256E0,3.126827478E0,-1.027830791E1,4.448426723E0
3.530409723E0,3.095702887E0,-1.030703831E1,4.587290287E0
3.532394113E0,3.033453465E0,-1.032140350E1,4.781220913E0
3.534408580E0,2.999934673E0,-1.032619190E1,4.888959885E0
3.536422740E0,2.920926094E0,-1.032619190E1,5.082890034E0
3.538406053E0,2.875436306E0,-1.028070164E1,5.317522049E0
3.540419982E0,2.789244890E0,-1.025436592E1,5.418078423E0
3.542404217E0,2.703053713E0,-1.022324085E1,5.600037575E0
3.544418146E0,2.662352324E0,-1.020648193E1,5.679046631E0
3.546401767E0,2.592920542E0,-1.018493366E1,5.870582581E0
3.548415619E0,2.535459518E0,-1.018253994E1,6.035782337E0
3.550399624E0,2.516305923E0,-1.018972206E1,6.098031521E0
3.552413861E0,2.463633537E0,-1.018014526E1,6.179434776E0
3.554398404E0,2.382230759E0,-1.015859795E1,6.200982571E0
3.556411103E0,2.343923569E0,-1.016099167E1,6.198588371E0
3.558394800E0,2.288856745E0,-1.018014526E1,6.179434776E0
3.560408344E0,2.240972757E0,-1.016817474E1,6.169857979E0
3.562423734E0,2.236184359E0,-1.016338634E1,6.148310184E0
3.564407432E0,2.240972757E0,-1.016099167E1,6.100425720E0
3.566420899E0,2.274491549E0,-1.015380955E1,6.016628742E0
3.568405597E0,2.300827742E0,-1.014662647E1,5.954379559E0
3.570418756E0,2.370259762E0,-1.012986755E1,5.798756599E0
3.572402224E0,2.418143749E0,-1.008198357E1,5.614402771E0
3.574416921E0,2.542642117E0,-1.006282997E1,5.528211594E0
3.576400618E0,2.691082716E0,-1.000058079E1,5.329493046E0
3.578414240E0,2.762908697E0,-9.969455719E0,5.233725071E0
3.580398860E0,2.923320293E0,-9.909601212E0,5.023035049E0
3.582412404E0,3.098097086E0,-9.813833237E0,4.805162907E0
3.584396409E0,3.169923067E0,-9.777919769E0,4.711789131E0
3.586409646E0,3.327940464E0,-9.713275909E0,4.522646904E0
3.588393882E0,3.488351822E0,-9.631873131E0,4.311957359E0
3.590408350E0,3.584120035E0,-9.595960617E0,4.204218388E0
3.592422816E0,3.737348795E0,-9.543288231E0,3.960009575E0
3.594406514E0,3.885789394E0,-9.469067574E0,3.742137194E0
3.596419519E0,3.957615376E0,-9.437943459E0,3.632004023E0
3.598404141E0,4.082113743E0,-9.385271072E0,3.435679436E0
3.600414915E0,4.197035789E0,-9.332598686E0,3.260902643E0
3.602400459E0,4.252102375E0,-9.308655739E0,3.179499865E0
3.604416695E0,4.352658749E0,-9.260771751E0,3.016694069E0
3.606399470E0,4.412513733E0,-9.234436035E0,2.932897091E0
3.608413706E0,4.493916512E0,-9.227252960E0,2.750937700E0
3.610396712E0,4.546588898E0,-9.203310966E0,2.568978310E0
3.612410871E0,4.582501888E0,-9.205705643E0,2.482787132E0
3.614395877E0,4.639962673E0,-9.181763649E0,2.319981337E0
3.616409344E0,4.683058739E0,-9.174580574E0,2.183511972E0
3.618392734E0,4.716577530E0,-9.160215378E0,2.135627985E0
3.620408432E0,4.740519524E0,-9.155426979E0,2.056619167E0
3.622421438E0,4.735731125E0,-9.138668060E0,1.975216389E0
3.624405135E0,4.735731125E0,-9.131484985E0,1.946485996E0
3.626419218E0,4.721365929E0,-9.119514465E0,1.886630893E0
3.628402992E0,4.695029736E0,-9.102754593E0,1.805228114E0
3.630416460E0,4.661510944E0,-9.109937668E0,1.778891921E0
3.632400542E0,4.599261284E0,-9.117119789E0,1.754949808E0
3.634415240E0,4.544194698E0,-9.119514465E0,1.735796213E0
3.636397783E0,4.501099110E0,-9.124302864E0,1.721431017E0
3.638412559E0,4.378994942E0,-9.133879662E0,1.716642618E0
3.640394948E0,4.319139957E0,-9.133879662E0,1.721431017E0
3.642410723E0,4.213795185E0,-9.136273384E0,1.747767210E0
3.644394113E0,4.120420933E0,-9.174580574E0,1.774103403E0
3.646407042E0,4.055777550E0,-9.172186852E0,1.778891921E0
3.648422124E0,3.948038578E0,-9.196128845E0,1.788468719E0
3.650405745E0,3.847482204E0,-9.205705643E0,1.800439715E0
3.652420520E0,3.782838583E0,-9.210494041E0,1.798045516E0
3.654404603E0,3.672705412E0,-9.224859238E0,1.788468719E0
3.656417454E0,3.572149038E0,-9.239224434E0,1.798045516E0
3.658400921E0,3.524264812E0,-9.244012833E0,1.793257117E0
3.660416234E0,3.447650433E0,-9.258378029E0,1.812410712E0
3.662399394E0,3.378218651E0,-9.265560150E0,1.853112102E0
3.664413553E0,3.354276657E0,-9.277531624E0,1.884236693E0
3.666397559E0,3.308786631E0,-9.301473618E0,1.896207690E0
3.668411718E0,3.260902643E0,-9.311050415E0,1.865083098E0
3.670394493E0,3.234566450E0,-9.320627213E0,1.838746905E0
3.672409267E0,3.181894064E0,-9.330204010E0,1.783680320E0
3.674424658E0,3.162740469E0,-9.337387085E0,1.764526606E0
3.676406740E0,3.114856482E0,-9.351752281E0,1.735796213E0
3.678420899E0,3.069366693E0,-9.339780807E0,1.719036818E0
3.680403981E0,3.047818661E0,-9.366117477E0,1.707065821E0
3.682417603E0,2.999934673E0,-9.366117477E0,1.678335428E0
3.684402531E0,2.966415882E0,-9.385271072E0,1.625662923E0
3.686416614E0,2.949656487E0,-9.387664795E0,1.592144132E0
3.688400311E0,2.937685490E0,-9.414001465E0,1.529894829E0
3.690414163E0,2.913743496E0,-9.437943459E0,1.482010841E0
3.692398168E0,2.899378300E0,-9.457097054E0,1.460463047E0
3.694414251E0,2.899378300E0,-9.478644371E0,1.448492050E0
3.696395718E0,2.911349297E0,-9.495404243E0,1.429338455E0
3.698409954E0,2.913743496E0,-9.483432770E0,1.407790542E0
3.700394498E0,2.925714493E0,-9.478644371E0,1.357512355E0
3.702407427E0,2.932897091E0,-9.466673851E0,1.304839969E0
3.704422509E0,2.959233284E0,-9.459490776E0,1.273715258E0
3.706405668E0,2.980781078E0,-9.445125580E0,1.211466074E0
3.708419443E0,2.983175278E0,-9.433155060E0,1.187524080E0
3.710403756E0,2.995146275E0,-9.392453194E0,1.146822572E0
3.712417916E0,3.002328873E0,-9.346963882E0,1.115697980E0
3.714401921E0,2.997540474E0,-9.332598686E0,1.103726983E0
3.716414927E0,3.002328873E0,-9.277531624E0,1.086967587E0
3.718398932E0,3.031059265E0,-9.248801231E0,1.070208192E0
3.720412784E0,3.040636063E0,-9.234436035E0,1.072602391E0
3.722397635E0,3.057395458E0,-9.186552048E0,1.065419793E0
3.724412102E0,3.076549292E0,-9.160215378E0,1.043871999E0
3.726393646E0,3.088520288E0,-9.153033257E0,1.039083481E0
3.728409344E0,3.095702887E0,-9.131484985E0,1.015141487E0
3.730422657E0,3.138798475E0,-9.114726067E0,1.005564690E0
3.732406894E0,3.150769472E0,-9.107542992E0,1.005564690E0
3.734421976E0,3.169923067E0,-9.078812599E0,1.000776291E0
3.736404443E0,3.167528868E0,-9.078812599E0,1.007958889E0
3.738418679E0,3.172317266E0,-9.081207275E0,9.959878922E-1
3.740403608E0,3.181894064E0,-9.069235802E0,9.911994934E-1
3.742417075E0,3.184288263E0,-9.071630478E0,9.959878922E-1
3.744399927E0,3.174711466E0,-9.066842079E0,9.935936928E-1
3.746414316E0,3.165134668E0,-9.071630478E0,9.888052940E-1
3.748397784E0,3.160346270E0,-9.071630478E0,9.911994934E-1
3.750412250E0,3.145981073E0,-9.057265282E0,1.000776291E0
3.752395333E0,3.122039080E0,-9.057265282E0,1.027112484E0
3.754410954E0,3.124433279E0,-9.069235802E0,1.029506683E0
3.756393498E0,3.102885485E0,-9.085995674E0,1.053448796E0
3.758407349E0,3.090914488E0,-9.081207275E0,1.072602391E0
3.760418125E0,3.088520288E0,-9.078812599E0,1.086967587E0
3.762405130E0,3.093308687E0,-9.093177795E0,1.098938584E0
3.764419905E0,3.090914488E0,-9.097966194E0,1.122880578E0
3.766403987E0,3.093308687E0,-9.117119789E0,1.142034173E0
3.768417454E0,3.110068083E0,-9.129091263E0,1.182735682E0
3.770400613E0,3.129221678E0,-9.131484985E0,1.192312479E0
3.772415696E0,3.167528868E0,-9.119514465E0,1.194706678E0
3.774400316E0,3.205836058E0,-9.157821655E0,1.180341482E0
3.776413476E0,3.234566450E0,-9.174580574E0,1.173158884E0
3.778397174E0,3.265691042E0,-9.193734169E0,1.170764685E0
3.780411410E0,3.325546265E0,-9.203310966E0,1.144428372E0
3.782394492E0,3.354276657E0,-9.222464561E0,1.132457376E0
3.784409498E0,3.392583847E0,-9.217676163E0,1.120486379E0
3.786422426E0,3.426102638E0,-9.220070839E0,1.106121182E0
3.788406432E0,3.450044632E0,-9.232041359E0,1.096544385E0
3.790420976E0,3.524264812E0,-9.236829758E0,1.070208192E0
3.792404905E0,3.548206806E0,-9.229647636E0,1.027112484E0
3.794419987E0,3.564966440E0,-9.232041359E0,1.007958889E0
3.796402224E0,3.600879431E0,-9.222464561E0,9.864110947E-1
3.798415767E0,3.632004023E0,-9.193734169E0,9.720458984E-1
3.800399389E0,3.648763418E0,-9.184157372E0,9.433154464E-1
3.802414547E0,3.677493811E0,-9.160215378E0,9.074024558E-1
3.804397938E0,3.684676409E0,-9.148244858E0,8.858546019E-1
3.806411097E0,3.706224203E0,-9.126696587E0,8.451532125E-1
3.808396026E0,3.722983599E0,-9.107542992E0,8.283938169E-1
3.810409954E0,3.727771997E0,-9.109937668E0,8.236053586E-1
3.812392960E0,3.722983599E0,-9.102754593E0,8.044517636E-1
3.814409888E0,3.727771997E0,-9.069235802E0,7.757213712E-1
3.816422202E0,3.727771997E0,-9.066842079E0,7.685387731E-1
3.818405284E0,3.739742994E0,-9.066842079E0,7.422025204E-1
3.820420751E0,3.732560396E0,-9.035717010E0,7.254431248E-1
3.822403756E0,3.732560396E0,-9.016563416E0,7.134721279E-1
3.824418224E0,3.727771997E0,-9.016563416E0,7.015010715E-1
3.826401075E0,3.715801001E0,-9.009381294E0,7.062895298E-1
3.828415235E0,3.699041605E0,-8.997409821E0,6.967126727E-1
3.830398624E0,3.672705412E0,-8.971074104E0,6.895300746E-1
3.832412168E0,3.660734415E0,-8.954314232E0,6.895300746E-1
3.834398020E0,3.646369219E0,-8.959102631E0,6.943184733E-1
3.836411179E0,3.610456228E0,-8.951920509E0,7.110779285E-1
3.838394646E0,3.586514235E0,-8.966285706E0,7.158663273E-1
3.840405728E0,3.545812607E0,-8.935160637E0,7.134721279E-1
3.842422042E0,3.507505417E0,-8.949525833E0,7.254431248E-1
3.844405662E0,3.481169224E0,-8.954314232E0,7.302315235E-1
3.846420745E0,3.445256233E0,-8.956708908E0,7.422025204E-1
3.848404827E0,3.399766445E0,-8.968679428E0,7.685387731E-1
3.850417680E0,3.366247654E0,-8.983044624E0,7.685387731E-1
3.852402069E0,3.318363667E0,-8.971074104E0,8.188169599E-1
3.854416767E0,3.287238836E0,-8.975862503E0,8.595184088E-1
3.856399619E0,3.282450438E0,-8.971074104E0,8.690952063E-1
3.858413778E0,3.258508444E0,-8.985439301E0,8.547300100E-1
3.860398707E0,3.220201254E0,-8.987833023E0,8.786720037E-1
3.862411943E0,3.210624456E0,-8.992621422E0,8.834604025E-1
3.864395256E0,3.186682463E0,-8.987833023E0,8.786720037E-1
3.866410108E0,3.189076662E0,-8.980650902E0,8.882488012E-1
3.868393498E0,3.167528868E0,-8.983044624E0,8.858546019E-1
3.870407273E0,3.189076662E0,-8.990227699E0,9.050082564E-1
3.872421740E0,3.191470861E0,-8.992621422E0,9.145850539E-1
3.874406976E0,3.179499865E0,-8.997409821E0,9.241618514E-1
3.876419597E0,3.169923067E0,-8.997409821E0,9.289502501E-1
3.878403295E0,3.174711466E0,-8.999804497E0,9.409212470E-1
3.880416300E0,3.189076662E0,-8.999804497E0,9.600749016E-1
3.882401768E0,3.210624456E0,-9.004592896E0,9.672574997E-1
3.884415619E0,3.208230257E0,-9.006986618E0,9.744400978E-1
3.886398086E0,3.236960649E0,-9.006986618E0,9.792284966E-1
3.888413553E0,3.268085241E0,-9.004592896E0,9.864110947E-1
3.890397251E0,3.272873640E0,-9.006986618E0,9.816226959E-1
3.892411948E0,3.294421434E0,-9.004592896E0,9.696516991E-1
3.894395647E0,3.339911461E0,-8.999804497E0,9.600749016E-1
3.896409190E0,3.349488258E0,-8.999804497E0,9.481038451E-1
3.898422812E0,3.390189648E0,-8.971074104E0,9.313444495E-1
3.900407663E0,3.402160645E0,-8.963891029E0,9.289502501E-1
3.902420592E0,3.411737442E0,-8.968679428E0,9.002198577E-1
3.904404674E0,3.423708439E0,-8.944737434E0,8.954314590E-1
3.906418218E0,3.435679436E0,-8.932766914E0,8.810662031E-1
3.908401916E0,3.452438831E0,-8.935160637E0,8.475474119E-1
3.910416306E0,3.471592426E0,-8.947132111E0,8.259995580E-1
3.912400311E0,3.471592426E0,-8.947132111E0,8.236053586E-1
3.914414471E0,3.469198227E0,-8.949525833E0,8.236053586E-1
3.916397861E0,3.469198227E0,-8.942343712E0,8.092401624E-1
3.918411790E0,3.464409828E0,-8.944737434E0,8.020575643E-1
3.920394795E0,3.478775024E0,-8.942343712E0,8.116343617E-1
3.922408955E0,3.483563423E0,-8.932766914E0,7.948749661E-1
3.924423806E0,3.481169224E0,-8.937555313E0,8.020575643E-1
3.926407812E0,3.490746021E0,-8.942343712E0,8.092401624E-1
3.928421894E0,3.473986626E0,-8.942343712E0,8.283938169E-1
3.930405284E0,3.464409828E0,-8.939949036E0,8.355764151E-1
3.932418828E0,3.459621429E0,-8.939949036E0,8.523358107E-1
3.934404449E0,3.447650433E0,-8.939949036E0,8.643068075E-1
3.936417685E0,3.438073635E0,-8.944737434E0,8.882488012E-1
3.938401076E0,3.433285236E0,-8.935160637E0,9.121908545E-1
3.940415850E0,3.423708439E0,-8.935160637E0,9.217676520E-1
3.942398240E0,3.421314240E0,-8.956708908E0,9.600749016E-1
3.944413015E0,3.414131641E0,-8.956708908E0,9.792284966E-1
3.946396097E0,3.414131641E0,-8.963891029E0,9.768342972E-1
3.948410949E0,3.378218651E0,-8.975862503E0,9.959878922E-1
3.950394338E0,3.354276657E0,-8.961497307E0,1.003170490E0
3.952408421E0,3.344699860E0,-8.956708908E0,1.015141487E0
3.954423889E0,3.318363667E0,-8.973467827E0,1.041477680E0
3.956406278E0,3.308786631E0,-8.997409821E0,1.070208192E0
3.958420515E0,3.284844637E0,-9.018958092E0,1.091755986E0
3.960403905E0,3.263296843E0,-9.016563416E0,1.118092179E0
3.962419218E0,3.258508444E0,-9.009381294E0,1.151610970E0
3.964402377E0,3.251325846E0,-9.014169693E0,1.165976286E0
3.966415921E0,3.241749048E0,-9.030928612E0,1.194706678E0
3.968400465E0,3.236960649E0,-9.040505409E0,1.201889277E0
3.970413701E0,3.224989653E0,-9.054870605E0,1.209071875E0
3.972397784E0,3.205836058E0,-9.057265282E0,1.223437071E0
3.974412481E0,3.205836058E0,-9.047688484E0,1.221042871E0
3.976395257E0,3.203441858E0,-9.054870605E0,1.211466074E0
3.978409492E0,3.196259260E0,-9.057265282E0,1.213860273E0
3.980423883E0,3.198653460E0,-9.062053680E0,1.221042871E0
3.982407965E0,3.196259260E0,-9.059659004E0,1.206677675E0
3.984422356E0,3.191470861E0,-9.038111687E0,1.201889277E0
3.986405437E0,3.196259260E0,-9.026140213E0,1.194706678E0
3.988419059E0,3.208230257E0,-9.006986618E0,1.194706678E0
3.990402372E0,3.196259260E0,-9.009381294E0,1.194706678E0
3.992417839E0,3.193865061E0,-9.002198219E0,1.192312479E0
3.994401152E0,3.193865061E0,-8.983044624E0,1.197100878E0
3.996415389E0,3.201047659E0,-8.971074104E0,1.185129881E0
3.998398394E0,3.217807055E0,-8.971074104E0,1.189918280E0
4.000408938E0,3.220201254E0,-8.968679428E0,1.185129881E0
4.002426712E0,3.234566450E0,-8.959102631E0,1.187524080E0
4.004410487E0,3.236960649E0,-8.944737434E0,1.175553083E0
4.006394108E0,3.232172251E0,-8.973467827E0,1.161187768E0
4.008409191E0,3.239354849E0,-8.975862503E0,1.163581967E0
4.010422119E0,3.248931646E0,-8.975862503E0,1.175553083E0
4.012406202E0,3.234566450E0,-8.973467827E0,1.177947283E0
4.014421591E0,3.236960649E0,-8.973467827E0,1.175553083E0
4.016404059E0,3.253720045E0,-8.954314232E0,1.161187768E0
4.018418526E0,3.272873640E0,-8.927978516E0,1.151610970E0
4.020402147E0,3.277662039E0,-8.932766914E0,1.142034173E0
4.022415998E0,3.280056238E0,-8.951920509E0,1.127668977E0
4.024399773E0,3.282450438E0,-8.959102631E0,1.139639974E0
4.026413855E0,3.280056238E0,-8.959102631E0,1.144428372E0
4.028397861E0,3.289633036E0,-8.942343712E0,1.154005170E0
4.030411482E0,3.306392431E0,-8.949525833E0,1.154005170E0
4.032395488E0,3.277662039E0,-8.949525833E0,1.158793569E0
4.034409954E0,3.282450438E0,-8.956708908E0,1.146822572E0
4.036423191E0,3.292027235E0,-8.966285706E0,1.149216771E0
4.038407427E0,3.277662039E0,-8.966285706E0,1.146822572E0
4.040420740E0,3.268085241E0,-8.980650902E0,1.158793569E0
4.042405361E0,3.263296843E0,-8.980650902E0,1.161187768E0
4.044419213E0,3.275267839E0,-8.980650902E0,1.163581967E0
4.046402295E0,3.265691042E0,-8.971074104E0,1.187524080E0
4.048417609E0,3.260902643E0,-8.975862503E0,1.197100878E0
4.050400691E0,3.270479441E0,-9.002198219E0,1.213860273E0
4.052414850E0,3.260902643E0,-9.018958092E0,1.237802267E0
4.054399778E0,3.253720045E0,-9.021351814E0,1.247379065E0
4.056412784E0,3.256114244E0,-9.021351814E0,1.268926859E0
4.058396482E0,3.241749048E0,-9.011775017E0,1.285686255E0
4.060410565E0,3.239354849E0,-9.009381294E0,1.288080573E0
4.062425108E0,3.256114244E0,-9.014169693E0,1.295263171E0
4.064408191E0,3.241749048E0,-9.030928612E0,1.309628367E0
4.066422350E0,3.220201254E0,-9.047688484E0,1.331176162E0
4.068406894E0,3.210624456E0,-9.054870605E0,1.335964561E0
4.070420438E0,3.201047659E0,-9.052476883E0,1.345541358E0
4.072404135E0,3.181894064E0,-9.045293808E0,1.345541358E0
4.074419218E0,3.160346270E0,-9.050082207E0,1.352723956E0
4.076402608E0,3.155557871E0,-9.052476883E0,1.364694953E0
4.078416768E0,3.131615877E0,-9.062053680E0,1.369483352E0
4.080399311E0,3.131615877E0,-9.054870605E0,1.388636947E0
4.082413471E0,3.124433279E0,-9.042900085E0,1.393425345E0
4.084397476E0,3.100491285E0,-9.045293808E0,1.410184860E0
4.086412174E0,3.081337690E0,-9.028534889E0,1.426944256E0
4.088395564E0,3.069366693E0,-9.028534889E0,1.429338455E0
4.090409416E0,3.083731890E0,-9.035717010E0,1.417367458E0
4.092423959E0,3.093308687E0,-9.035717010E0,1.426944256E0
4.094408889E0,3.086126089E0,-9.030928612E0,1.438915253E0
4.096422124E0,3.069366693E0,-9.030928612E0,1.438915253E0
4.098404900E0,3.064578056E0,-9.023746490E0,1.431732655E0
4.100419981E0,3.074155092E0,-9.014169693E0,1.436521053E0
4.102403295E0,3.093308687E0,-9.021351814E0,1.419761658E0
4.104416531E0,3.098097086E0,-9.018958092E0,1.414973259E0
4.106400537E0,3.093308687E0,-9.004592896E0,1.414973259E0
4.108414773E0,3.088520288E0,-9.023746490E0,1.400607944E0
4.110398471E0,3.093308687E0,-9.026140213E0,1.398213744E0
4.112413168E0,3.105279684E0,-9.009381294E0,1.395819545E0
4.114396944E0,3.112462282E0,-9.011775017E0,1.393425345E0
4.116410179E0,3.117250681E0,-9.016563416E0,1.403002143E0
4.118424955E0,3.129221678E0,-9.002198219E0,1.398213744E0
4.120407652E0,3.136404276E0,-9.014169693E0,1.400607944E0
4.122422427E0,3.162740469E0,-9.011775017E0,1.400607944E0
4.124406124E0,3.165134668E0,-9.014169693E0,1.388636947E0
4.126419977E0,3.193865061E0,-9.021351814E0,1.369483352E0
4.128404982E0,3.205836058E0,-9.030928612E0,1.359906554E0
4.130418218E0,3.222595453E0,-9.030928612E0,1.345541358E0
4.132402223E0,3.229778051E0,-9.035717010E0,1.333570361E0
4.134417537E0,3.232172251E0,-9.038111687E0,1.323993564E0
4.136399157E0,3.246537447E0,-9.035717010E0,1.328781962E0
4.138413240E0,3.258508444E0,-9.033323288E0,1.328781962E0
4.140397861E0,3.268085241E0,-9.054870605E0,1.331176162E0
4.142411482E0,3.272873640E0,-9.047688484E0,1.328781962E0
4.144394795E0,3.282450438E0,-9.045293808E0,1.333570361E0
4.146410493E0,3.311181068E0,-9.069235802E0,1.345541358E0
4.148424114E0,3.335123062E0,-9.066842079E0,1.352723956E0
4.150407197E0,3.342305660E0,-9.076418877E0,1.350329757E0
4.152421586E0,3.339911461E0,-9.093177795E0,1.345541358E0
4.154406515E0,3.354276657E0,-9.090784073E0,1.369483352E0
4.156418905E0,3.347094059E0,-9.074024200E0,1.376665950E0
4.158401988E0,3.347094059E0,-9.069235802E0,1.388636947E0
4.160415762E0,3.351882458E0,-9.054870605E0,1.383848548E0
4.162400999E0,3.337517262E0,-9.054870605E0,1.386242747E0
4.164415235E0,3.327940464E0,-9.042900085E0,1.391031146E0
4.166398625E0,3.330334663E0,-9.038111687E0,1.400607944E0
4.168412707E0,3.311181068E0,-9.062053680E0,1.410184860E0
4.170395867E0,3.294421434E0,-9.066842079E0,1.424550056E0
4.172410641E0,3.289633036E0,-9.059659004E0,1.441309452E0
4.174395493E0,3.299209833E0,-9.064447403E0,1.455674648E0
4.176408114E0,3.268085241E0,-9.081207275E0,1.441309452E0
4.178422658E0,3.258508444E0,-9.093177795E0,1.446097851E0
4.180406971E0,3.244143248E0,-9.078812599E0,1.455674648E0
4.182419900E0,3.220201254E0,-9.090784073E0,1.482010841E0
4.184403597E0,3.208230257E0,-9.105149269E0,1.486799240E0
