"Time (s)","Gyroscope x (rad/s)","Gyroscope y (rad/s)","Gyroscope z (rad/s)"
8.305890000E-3,-1.490511149E-1,-2.718350291E-1,4.276056774E-3
1.041120200E-2,-1.490511149E-1,-2.718350291E-1,4.276056774E-3
1.239490100E-2,-1.490511149E-1,-2.718350291E-1,4.276056774E-3
1.440990600E-2,-1.490511149E-1,-2.718350291E-1,4.276056774E-3
1.639306500E-2,-1.490511149E-1,-2.718350291E-1,4.276056774E-3
1.840745500E-2,-1.490511149E-1,-2.718350291E-1,4.276056774E-3
2.039207600E-2,-1.490511149E-1,-2.718350291E-1,4.276056774E-3
2.240508100E-2,-1.490511149E-1,-2.718350291E-1,4.276056774E-3
2.438908700E-2,-1.490511149E-1,-2.718350291E-1,4.276056774E-3
2.640293900E-2,-1.490511149E-1,-2.718350291E-1,4.276056774E-3
2.838686800E-2,-1.490511149E-1,-2.718350291E-1,4.276056774E-3
3.040102700E-2,-1.490511149E-1,-2.718350291E-1,4.276056774E-3
3.238387900E-2,-1.490511149E-1,-2.718350291E-1,4.276056774E-3
3.439865300E-2,-1.490511149E-1,-2.718350291E-1,4.276056774E-3
3.641242800E-2,-1.490511149E-1,-2.718350291E-1,4.276056774E-3
3.839643300E-2,-1.490511149E-1,-2.718350291E-1,4.276056774E-3
4.041090100E-2,-1.490511149E-1,-2.718350291E-1,4.276056774E-3
4.239436700E-2,-1.490511149E-1,-2.718350291E-1,4.276056774E-3
4.440852700E-2,-1.490511149E-1,-2.718350291E-1,4.276056774E-3
4.639153200E-2,-1.490511149E-1,-2.718350291E-1,4.276056774E-3
4.840600000E-2,-1.490511149E-1,-2.718350291E-1,4.276056774E-3
5.039008200E-2,-1.490511149E-1,-2.718350291E-1,4.276056774E-3
5.240508800E-2,-1.490511149E-1,-2.718350291E-1,4.276056774E-3
5.438878500E-2,-1.490511149E-1,-2.718350291E-1,4.276056774E-3
5.640240600E-2,-1.490511149E-1,-2.718350291E-1,4.276056774E-3
5.838518100E-2,-1.490511149E-1,-2.718350291E-1,4.276056774E-3
6.039995600E-2,-1.490511149E-1,-2.718350291E-1,4.276056774E-3
6.238334500E-2,-1.490511149E-1,-2.718350291E-1,4.276056774E-3
6.439712100E-2,-1.490511149E-1,-2.718350291E-1,4.276056774E-3
6.641166400E-2,-1.490511149E-1,-2.718350291E-1,4.276056774E-3
6.839528500E-2,-1.490511149E-1,-2.718350291E-1,4.276056774E-3
7.040982900E-2,-1.490511149E-1,-2.718350291E-1,4.276056774E-3
7.239322000E-2,-9.834930301E-2,-2.321287990E-2,9.162978828E-2
7.440791700E-2,-9.162978828E-2,-2.932153270E-2,9.285151958E-2
7.639100000E-2,-9.040805697E-2,-3.909537569E-2,9.773843735E-2
7.840515900E-2,-8.735372871E-2,-5.070181563E-2,1.050688252E-1
8.038862600E-2,-8.491026610E-2,-5.619960278E-2,1.117883399E-1
8.240178500E-2,-7.880161703E-2,-6.780604273E-2,1.136209369E-1
8.438609900E-2,-7.574728876E-2,-7.391469181E-2,1.172861308E-1
8.640087300E-2,-7.330382615E-2,-8.613199741E-2,1.215621829E-1
8.838434100E-2,-6.780604273E-2,-9.407325089E-2,1.282816976E-1
9.039819200E-2,-6.414084882E-2,-9.896016866E-2,1.288925707E-1
9.241319800E-2,-5.925392732E-2,-1.062905490E-1,1.343903542E-1
9.439843300E-2,-5.558873713E-2,-1.111774743E-1,1.423316002E-1
9.641105500E-2,-5.558873713E-2,-1.172861308E-1,1.441642046E-1
9.839382900E-2,-5.375614017E-2,-1.215621829E-1,1.472185254E-1
1.004086040E-1,-4.825835302E-2,-1.288925707E-1,1.527163088E-1
1.023923020E-1,-4.886921868E-2,-1.319468915E-1,1.539380401E-1
1.044061540E-1,-4.642575979E-2,-1.417207420E-1,1.594358236E-1
1.063902360E-1,-4.459316283E-2,-1.502728462E-1,1.643227488E-1
1.084046260E-1,-4.214970022E-2,-1.551597714E-1,1.643227488E-1
1.103870930E-1,-4.214970022E-2,-1.631010175E-1,1.667662114E-1
1.124019450E-1,-3.909537569E-2,-1.740965992E-1,1.710422635E-1
1.143868730E-1,-4.031710699E-2,-1.771509200E-1,1.747074574E-1
1.163998010E-1,-3.848451003E-2,-1.899790913E-1,1.838704348E-1
1.183834230E-1,-4.031710699E-2,-1.960877478E-1,1.869247705E-1
1.203969660E-1,-4.092797264E-2,-2.125810981E-1,2.015855312E-1
1.224130490E-1,-4.581489414E-2,-2.376265824E-1,2.211332172E-1
1.243963620E-1,-4.886921868E-2,-2.504547536E-1,2.357939780E-1
1.264087520E-1,-4.764748737E-2,-2.828305960E-1,2.571742535E-1
1.283936800E-1,-3.970624134E-2,-3.145956099E-1,2.736676335E-1
1.304072250E-1,-4.031710699E-2,-3.255911767E-1,2.693915665E-1
1.323909220E-1,-3.359758854E-2,-3.469714522E-1,2.638937831E-1
1.344059280E-1,-2.993239649E-2,-3.585779071E-1,2.443460971E-1
1.363887020E-1,-3.054326214E-2,-3.634648323E-1,2.327396572E-1
1.384029390E-1,-2.993239649E-2,-3.659082949E-1,2.089159191E-1
1.403875600E-1,-2.993239649E-2,-3.683517575E-1,1.905899495E-1
1.424007960E-1,-3.359758854E-2,-3.689626157E-1,1.832595766E-1
1.443841860E-1,-3.237585723E-2,-3.659082949E-1,1.716531366E-1
1.463985770E-1,-3.115412779E-2,-3.652974069E-1,1.655444801E-1
1.484121970E-1,-3.237585723E-2,-3.610213697E-1,1.563815027E-1
1.503962030E-1,-3.970624134E-2,-3.579670191E-1,1.508837193E-1
1.524103620E-1,-3.909537569E-2,-3.591887653E-1,1.539380401E-1
1.543945990E-1,-4.825835302E-2,-3.616322279E-1,1.624901593E-1
1.564084500E-1,-5.131268129E-2,-3.714060783E-1,1.771509200E-1
1.583913020E-1,-5.314527452E-2,-3.781255782E-1,1.826487035E-1
1.604054610E-1,-5.803219974E-2,-3.878994286E-1,1.973094791E-1
1.623894670E-1,-6.047565863E-2,-4.013384581E-1,2.083050460E-1
1.644042410E-1,-6.230825558E-2,-4.098905921E-1,2.125810981E-1
1.663872470E-1,-6.536258012E-2,-4.221078753E-1,2.205223590E-1
1.684017140E-1,-6.841690838E-2,-4.318817258E-1,2.241875380E-1
1.703851810E-1,-7.086037099E-2,-4.392121136E-1,2.260201424E-1
1.723993400E-1,-7.208210230E-2,-4.520402849E-1,2.290744632E-1
1.744134230E-1,-7.880161703E-2,-4.636467099E-1,2.302961946E-1
1.763975050E-1,-8.002334833E-2,-4.703662395E-1,2.315179259E-1
1.784107420E-1,-8.491026610E-2,-4.819726646E-1,2.302961946E-1
1.803952850E-1,-8.552113175E-2,-4.917465150E-1,2.296853364E-1
1.824095220E-1,-8.857546002E-2,-5.039638281E-1,2.266310006E-1
1.843934500E-1,-8.857546002E-2,-5.149593949E-1,2.247984111E-1
1.864073020E-1,-8.918632567E-2,-5.210680366E-1,2.205223590E-1
1.883903840E-1,-9.346238524E-2,-5.314527750E-1,2.162462920E-1
1.904046210E-1,-9.651670605E-2,-5.448917747E-1,2.113593817E-1
1.923891640E-1,-9.896016866E-2,-5.485569835E-1,2.101376504E-1
1.944030930E-1,-1.044579595E-1,-5.595525503E-1,2.052507252E-1
1.963858680E-1,-1.081231460E-1,-5.723807216E-1,2.021963894E-1
1.984008740E-1,-1.142318025E-1,-5.729916096E-1,2.009746730E-1
2.003833400E-1,-1.215621829E-1,-5.827654600E-1,2.003637999E-1
2.023990380E-1,-1.282816976E-1,-5.919284225E-1,2.003637999E-1
2.044126590E-1,-1.307251602E-1,-5.943718553E-1,1.979203373E-1
2.063950490E-1,-1.362229437E-1,-5.968153477E-1,1.997529417E-1
2.084101310E-1,-1.435533315E-1,-5.992587805E-1,2.009746730E-1
2.103939070E-1,-1.435533315E-1,-5.992587805E-1,2.021963894E-1
2.124082960E-1,-1.527163088E-1,-5.949827433E-1,2.034181207E-1
2.143926100E-1,-1.563815027E-1,-5.925393105E-1,2.034181207E-1
2.164058460E-1,-1.624901593E-1,-5.876523852E-1,2.095267773E-1
2.183899290E-1,-1.655444801E-1,-5.864306092E-1,2.144137025E-1
2.204049340E-1,-1.722639948E-1,-5.839871764E-1,2.186897546E-1
2.223874780E-1,-1.771509200E-1,-5.864306092E-1,2.278527319E-1
2.244010220E-1,-1.863138974E-1,-5.864306092E-1,2.406809032E-1
2.263856420E-1,-1.930334121E-1,-5.852088928E-1,2.455678284E-1
2.283991090E-1,-1.985312104E-1,-5.833762884E-1,2.608394623E-1
2.304126540E-1,-2.046398520E-1,-5.833762884E-1,2.767219543E-1
2.323975820E-1,-2.083050460E-1,-5.845980644E-1,2.864958048E-1
2.344123570E-1,-2.113593817E-1,-5.784893632E-1,2.993239760E-1
2.363958240E-1,-2.168571651E-1,-5.742133260E-1,3.103195429E-1
2.384093680E-1,-2.186897546E-1,-5.705481172E-1,3.164281845E-1
2.403920660E-1,-2.229658216E-1,-5.613851547E-1,3.207042515E-1
2.424065320E-1,-2.272418737E-1,-5.497786999E-1,3.219259977E-1
2.443906150E-1,-2.296853364E-1,-5.430592299E-1,3.188716471E-1
2.464050050E-1,-2.351831198E-1,-5.283984542E-1,3.133738637E-1
2.483884720E-1,-2.376265824E-1,-5.186246037E-1,3.139847219E-1
2.504020160E-1,-2.376265824E-1,-4.954117239E-1,3.066543639E-1
2.523857140E-1,-2.388483137E-1,-4.728097022E-1,3.029891551E-1
2.544004110E-1,-2.394591719E-1,-4.587597847E-1,2.987131178E-1
2.563838020E-1,-2.443460971E-1,-4.227187634E-1,2.968805134E-1
2.583985760E-1,-2.467895597E-1,-3.848451078E-1,3.005456924E-1
2.604130440E-1,-2.474004179E-1,-3.616322279E-1,3.023782969E-1
2.623962030E-1,-2.492330223E-1,-3.176499307E-1,3.084869385E-1
2.644100550E-1,-2.535090744E-1,-2.724458873E-1,3.164281845E-1
2.663937520E-1,-2.565633953E-1,-2.510656118E-1,3.225368559E-1
2.684079120E-1,-2.632829249E-1,-2.058615834E-1,3.335324228E-1
2.703915320E-1,-2.693915665E-1,-1.600466967E-1,3.457497358E-1
2.724066150E-1,-2.736676335E-1,-1.386664063E-1,3.561344445E-1
2.743903890E-1,-2.809980214E-1,-9.712757170E-2,3.726277947E-1
2.764036260E-1,-2.852740586E-1,-7.513642311E-2,3.830125034E-1
2.783867080E-1,-2.889392674E-1,-3.543018550E-2,4.068362415E-1
2.804011760E-1,-2.956587672E-1,5.497787148E-3,4.251621962E-1
2.823851810E-1,-2.950479090E-1,2.382374369E-2,4.392121136E-1
2.843995710E-1,-2.962696552E-1,6.047565863E-2,4.618141353E-1
2.864125760E-1,-2.974913716E-1,9.590584040E-2,4.807509482E-1
2.883968900E-1,-2.987131178E-1,1.111774743E-1,4.941899776E-1
2.904106640E-1,-2.962696552E-1,1.417207420E-1,5.125159621E-1
2.923949780E-1,-2.956587672E-1,1.667662114E-1,5.314527750E-1
2.944103680E-1,-2.938261926E-1,1.808161139E-1,5.406157374E-1
2.963938350E-1,-2.932153046E-1,2.021963894E-1,5.558874011E-1
2.984064560E-1,-2.852740586E-1,2.199114859E-1,5.681046844E-1
3.003901540E-1,-2.852740586E-1,2.290744632E-1,5.717698932E-1
3.024048510E-1,-2.822197378E-1,2.412917763E-1,5.839871764E-1
3.043883190E-1,-2.755002379E-1,2.504547536E-1,5.864306092E-1
3.064027850E-1,-2.755002379E-1,2.535090744E-1,5.888741016E-1
3.083860990E-1,-2.706133127E-1,2.565633953E-1,5.894849896E-1
3.104002580E-1,-2.663372457E-1,2.553416789E-1,5.882632136E-1
3.123837250E-1,-2.602286041E-1,2.498438805E-1,5.913175344E-1
3.143981920E-1,-2.535090744E-1,2.400700450E-1,5.833762884E-1
3.164123520E-1,-2.480112910E-1,2.321287990E-1,5.858197808E-1
3.183960490E-1,-2.419026345E-1,2.144137025E-1,5.778785348E-1
3.204073630E-1,-2.364048511E-1,1.918116808E-1,5.748242140E-1
3.223932910E-1,-2.333505303E-1,1.789835095E-1,5.687155724E-1
3.244083740E-1,-2.290744632E-1,1.496619880E-1,5.644394755E-1
3.263913790E-1,-2.235766798E-1,1.160643995E-1,5.601634383E-1
3.284056150E-1,-2.229658216E-1,9.896016866E-2,5.607742667E-1
3.303892360E-1,-2.138028294E-1,5.619960278E-2,5.522221923E-1
3.324037030E-1,-2.070833147E-1,1.466076635E-2,5.485569835E-1
3.343880930E-1,-2.046398520E-1,-4.886921961E-3,5.442809463E-1
3.364010220E-1,-1.973094791E-1,-5.497787148E-2,5.363397002E-1
3.383849500E-1,-1.930334121E-1,-1.044579595E-1,5.265658498E-1
3.403998020E-1,-1.918116808E-1,-1.270599663E-1,5.229006410E-1
3.424138840E-1,-1.954768747E-1,-1.722639948E-1,5.094616413E-1
3.443970440E-1,-1.985312104E-1,-1.991420686E-1,5.045747161E-1
3.464112030E-1,-2.015855312E-1,-2.431243658E-1,4.899139404E-1
3.483948240E-1,-2.058615834E-1,-2.877175212E-1,4.758640230E-1
3.504096760E-1,-2.070833147E-1,-3.090978265E-1,4.679227769E-1
3.523927580E-1,-2.095267773E-1,-3.512475193E-1,4.502076805E-1
3.544081480E-1,-2.138028294E-1,-3.860668242E-1,4.324925840E-1
3.563906150E-1,-2.193006277E-1,-4.019493461E-1,4.300491214E-1
3.584050050E-1,-2.217440903E-1,-4.276056588E-1,4.141666293E-1
3.603875490E-1,-2.260201424E-1,-4.471533597E-1,4.013384581E-1
3.624028620E-1,-2.290744632E-1,-4.544837475E-1,3.970624208E-1
3.643862520E-1,-2.315179259E-1,-4.660901725E-1,3.921754956E-1
3.663995660E-1,-2.357939780E-1,-4.697553813E-1,3.866777122E-1
3.684146490E-1,-2.364048511E-1,-4.746423066E-1,3.860668242E-1
3.703979610E-1,-2.412917763E-1,-4.728097022E-1,3.885102868E-1
3.724125050E-1,-2.431243658E-1,-4.685336351E-1,3.952298164E-1
3.743977420E-1,-2.455678284E-1,-4.667010605E-1,3.988949955E-1
3.764094390E-1,-2.455678284E-1,-4.599815309E-1,4.123340547E-1
3.783936760E-1,-2.437352389E-1,-4.569272101E-1,4.166100919E-1
3.804091420E-1,-2.449569702E-1,-4.447098970E-1,4.331034720E-1
3.823916100E-1,-2.455678284E-1,-4.324925840E-1,4.520402849E-1
3.844057690E-1,-2.480112910E-1,-4.269948006E-1,4.624249935E-1
3.863903900E-1,-2.461786866E-1,-4.129449129E-1,4.838052690E-1
3.884033180E-1,-2.467895597E-1,-3.988949955E-1,5.106833577E-1
3.903872470E-1,-2.461786866E-1,-3.921754956E-1,5.229006410E-1
3.924014060E-1,-2.492330223E-1,-3.811798990E-1,5.473352671E-1
3.943860270E-1,-2.516764700E-1,-3.726277947E-1,5.699372888E-1
3.963993400E-1,-2.528982162E-1,-3.701843321E-1,5.821545720E-1
3.984128080E-1,-2.571742535E-1,-3.683517575E-1,6.047565937E-1
4.003959670E-1,-2.614503205E-1,-3.720169365E-1,6.236934066E-1
4.024101260E-1,-2.626720667E-1,-3.787364662E-1,6.340781450E-1
4.043950540E-1,-2.657263875E-1,-3.958406746E-1,6.493497491E-1
4.064082910E-1,-2.736676335E-1,-4.202753007E-1,6.640105247E-1
4.083925270E-1,-2.773328125E-1,-4.349360466E-1,6.707300544E-1
4.104064560E-1,-2.852740586E-1,-4.715879560E-1,6.811147332E-1
4.123901530E-1,-2.913827300E-1,-4.929682612E-1,6.860016584E-1
4.144057750E-1,-2.999348342E-1,-5.393940210E-1,6.982190013E-1
4.163880110E-1,-3.121521473E-1,-5.955936313E-1,7.055493593E-1
4.184020930E-1,-3.158173263E-1,-6.279694438E-1,7.098253965E-1
4.203861750E-1,-3.268128932E-1,-6.969972253E-1,7.165449262E-1
4.223996430E-1,-3.371976018E-1,-7.739662528E-1,7.250970602E-1
4.244144940E-1,-3.445279896E-1,-8.155050874E-1,7.293730974E-1
4.263978080E-1,-3.561344445E-1,-9.071348906E-1,7.348709106E-1
4.284119670E-1,-3.695734739E-1,-1.007316828E0,7.360926270E-1
4.303962800E-1,-3.775147200E-1,-1.058629513E0,7.373143435E-1
4.324099010E-1,-3.897320330E-1,-1.172861218E0,7.367035151E-1
4.343947530E-1,-4.007275999E-1,-1.292590857E0,7.342600226E-1
4.364083730E-1,-4.043927789E-1,-1.354288220E0,7.318165898E-1
4.383914560E-1,-4.105014503E-1,-1.483791709E0,7.226535678E-1
4.404046920E-1,-4.111123085E-1,-1.549154282E0,7.183775306E-1
4.423901600E-1,-4.074471295E-1,-1.684155464E0,7.073819637E-1
4.444037030E-1,-3.970624208E-1,-1.817324162E0,6.945537925E-1
4.463867860E-1,-3.885102868E-1,-1.882686734E0,6.866125464E-1
4.484012520E-1,-3.732386529E-1,-2.006081581E0,6.688974500E-1
4.503843350E-1,-3.567453027E-1,-2.127643585E0,6.475171447E-1
4.523991100E-1,-3.463605940E-1,-2.182010651E0,6.371324658E-1
4.544145000E-1,-3.353650272E-1,-2.287079573E0,6.157521605E-1
4.563970440E-1,-3.262020350E-1,-2.381763697E0,5.925393105E-1
4.584108190E-1,-3.219259977E-1,-2.424524069E0,5.845980644E-1
4.603952090E-1,-3.072652221E-1,-2.503936529E0,5.644394755E-1
4.624090610E-1,-2.944370508E-1,-2.572964430E0,5.510004759E-1
4.643924500E-1,-2.871066630E-1,-2.605340242E0,5.479460955E-1
4.664065330E-1,-2.736676335E-1,-2.661539793E0,5.393940210E-1
4.683900000E-1,-2.590068579E-1,-2.714685202E0,5.332853794E-1
4.704044670E-1,-2.492330223E-1,-2.733622074E0,5.314527750E-1
4.723875490E-1,-2.309070677E-1,-2.775160789E0,5.296201706E-1
4.744023250E-1,-2.217440903E-1,-2.793486834E0,5.302310586E-1
4.763866370E-1,-2.040289938E-1,-2.824029922E0,5.290092826E-1
4.784001820E-1,-1.905899495E-1,-2.849075556E0,5.302310586E-1
4.804103410E-1,-1.814269722E-1,-2.858849287E0,5.308418870E-1
4.823967300E-1,-1.698205322E-1,-2.877175331E0,5.332853794E-1
4.844124280E-1,-1.551597714E-1,-2.887560129E0,5.363397002E-1
4.863955100E-1,-1.478293836E-1,-2.891836166E0,5.400048494E-1
4.884097470E-1,-1.362229437E-1,-2.890003443E0,5.436700583E-1
4.903933680E-1,-1.258382350E-1,-2.888170958E0,5.510004759E-1
4.924082200E-1,-1.178969890E-1,-2.886338234E0,5.528330207E-1
4.943916090E-1,-1.087340117E-1,-2.875953674E0,5.552765131E-1
4.964054620E-1,-1.014036313E-1,-2.863736153E0,5.644394755E-1
4.983882360E-1,-9.651670605E-2,-2.854573250E0,5.650503635E-1
5.004035490E-1,-9.346238524E-2,-2.837469101E0,5.760459304E-1
5.023870160E-1,-8.552113175E-2,-2.818532228E0,5.833762884E-1
5.044005600E-1,-8.246681094E-2,-2.811201811E0,5.888741016E-1
5.063848730E-1,-7.941248268E-2,-2.791654110E0,6.004805565E-1
5.083996480E-1,-7.941248268E-2,-2.780047655E0,6.053674817E-1
5.104125760E-1,-7.513642311E-2,-2.763554335E0,6.194173694E-1
5.123965060E-1,-7.513642311E-2,-2.745839357E0,6.310238242E-1
5.144113570E-1,-7.513642311E-2,-2.738508940E0,6.383541822E-1
5.163947470E-1,-7.696902007E-2,-2.724458933E0,6.560692787E-1
5.184088290E-1,-7.757988572E-2,-2.714685202E0,6.695083380E-1
5.203919890E-1,-8.124507964E-2,-2.707354784E0,6.762278080E-1
5.224066860E-1,-8.429940045E-2,-2.702467918E0,6.884451509E-1
5.243904620E-1,-8.796459436E-2,-2.700635195E0,7.018841505E-1
5.264040050E-1,-8.613199741E-2,-2.700635195E0,7.079927921E-1
5.283883190E-1,-8.429940045E-2,-2.703689575E0,7.159340382E-1
5.304024010E-1,-7.757988572E-2,-2.711019993E0,7.220427394E-1
5.323864070E-1,-7.086037099E-2,-2.717128515E0,7.195992470E-1
5.344017960E-1,-6.169738993E-2,-2.723237276E0,7.226535678E-1
5.363839560E-1,-5.375614017E-2,-2.726291656E0,7.189884186E-1
5.383975000E-1,-4.092797264E-2,-2.732400179E0,7.104362845E-1
5.404123520E-1,-2.932153270E-2,-2.731789351E0,6.988298297E-1
5.423957410E-1,-2.015855350E-2,-2.728734970E0,6.902777553E-1
5.444095170E-1,-6.719517522E-3,-2.715906858E0,6.774495840E-1
5.463932140E-1,1.221730490E-3,-2.692083120E0,6.621779203E-1
5.484071430E-1,6.719517522E-3,-2.676200628E0,6.548475623E-1
5.503916870E-1,1.160643995E-2,-2.638937950E0,6.383541822E-1
5.524056160E-1,1.649336144E-2,-2.592512131E0,6.249151230E-1
5.543901590E-1,1.649336144E-2,-2.563190460E0,6.188064814E-1
5.564033960E-1,1.954768784E-2,-2.506380081E0,6.120869517E-1
5.583868620E-1,2.015855350E-2,-2.441628456E0,6.035348773E-1
5.603969450E-1,2.015855350E-2,-2.408030748E0,5.998696685E-1
5.624145660E-1,2.015855350E-2,-2.335948706E0,5.955936313E-1
5.643988030E-1,1.893682219E-2,-2.263255835E0,5.925393105E-1
5.664132690E-1,1.893682219E-2,-2.225382090E0,5.900958180E-1
5.683967370E-1,1.649336144E-2,-2.143526077E0,5.937610269E-1
5.704108190E-1,1.527163107E-2,-2.063502789E0,5.949827433E-1
5.723942860E-1,1.649336144E-2,-2.025018215E0,5.980370641E-1
5.744096760E-1,1.282817032E-2,-1.940718889E0,6.047565937E-1
5.763927590E-1,1.160643995E-2,-1.900401831E0,6.072000265E-1
5.784063020E-1,1.038470957E-2,-1.816713214E0,6.175847650E-1
5.803909230E-1,6.719517522E-3,-1.732413888E0,6.291912198E-1
5.824047750E-1,3.054326167E-3,-1.690875053E0,6.346889734E-1
5.843881650E-1,-6.108652451E-4,-1.610851645E0,6.481280327E-1
5.864025550E-1,-6.108652335E-3,-1.531439185E0,6.621779203E-1
5.883860220E-1,-9.773843922E-3,-1.492343783E0,6.682865620E-1
5.903998740E-1,-1.527163107E-2,-1.414763927E0,6.878342628E-1
5.924142640E-1,-2.565634064E-2,-1.339627504E0,7.049384713E-1
5.943985770E-1,-2.932153270E-2,-1.302975535E0,7.165449262E-1
5.964125060E-1,-3.970624134E-2,-1.238223910E0,7.360926270E-1
5.983952030E-1,-4.825835302E-2,-1.180191636E0,7.556403279E-1
6.004091320E-1,-5.375614017E-2,-1.149648428E0,7.654141784E-1
6.023936760E-1,-6.047565863E-2,-1.099557400E0,7.843509912E-1
6.044075280E-1,-6.047565863E-2,-1.076344609E0,7.953465581E-1
6.063903790E-1,-6.475171447E-2,-1.037860036E0,8.124507666E-1
6.084056930E-1,-6.780604273E-2,-1.007927656E0,8.283332586E-1
6.103887750E-1,-6.841690838E-2,-9.975429177E-1,8.344419003E-1
6.124029340E-1,-7.086037099E-2,-9.773843884E-1,8.454375267E-1
6.143873240E-1,-7.391469181E-2,-9.669997096E-1,8.521569967E-1
6.164005600E-1,-7.330382615E-2,-9.633345008E-1,8.558222055E-1
6.184153350E-1,-7.452555746E-2,-9.608910084E-1,8.625417352E-1
6.203998790E-1,-7.391469181E-2,-9.657779336E-1,8.680394888E-1
6.224131160E-1,-7.452555746E-2,-9.706648588E-1,8.674286604E-1
6.243961970E-1,-7.269296050E-2,-9.828822017E-1,8.680394888E-1
6.264103570E-1,-7.024950534E-2,-1.005484223E0,8.704829812E-1
6.283940550E-1,-6.963863969E-2,-1.017701507E0,8.692612648E-1
6.304082910E-1,-6.475171447E-2,-1.043968678E0,8.692612648E-1
6.323919120E-1,-5.986479297E-2,-1.076344609E0,8.692612648E-1
6.344076100E-1,-5.681046844E-2,-1.094670534E0,8.662069440E-1
6.363898460E-1,-4.886921868E-2,-1.132544160E0,8.686503768E-1
6.384043130E-1,-4.764748737E-2,-1.152091861E0,8.668177724E-1
6.403870110E-1,-3.909537569E-2,-1.194241524E0,8.662069440E-1
6.424011710E-1,-3.176499158E-2,-1.235780358E0,8.625417352E-1
6.444165600E-1,-2.748893574E-2,-1.257160664E0,8.613200188E-1
6.463996430E-1,-1.832595654E-2,-1.299921274E0,8.600982428E-1
6.484138020E-1,-9.773843922E-3,-1.335962296E0,8.564330935E-1
6.503975770E-1,-7.330383174E-3,-1.355509996E0,8.527678847E-1
6.524116590E-1,6.108652451E-4,-1.390329242E0,8.515461683E-1
6.543957420E-1,4.886921961E-3,-1.420261741E0,8.478809595E-1
6.564107470E-1,6.719517522E-3,-1.433089852E0,8.454375267E-1
6.583929840E-1,1.282817032E-2,-1.453859329E0,8.429940343E-1
6.604080660E-1,1.588249579E-2,-1.469741821E0,8.405506015E-1
6.623914560E-1,1.832595654E-2,-1.475850463E0,8.405506015E-1
6.644055380E-1,1.832595654E-2,-1.482569933E0,8.368853927E-1
6.663886980E-1,1.832595654E-2,-1.483180761E0,8.319984674E-1
6.684033950E-1,1.710422710E-2,-1.481348276E0,8.338310719E-1
6.703862480E-1,1.282817032E-2,-1.472796082E0,8.283332586E-1
6.724013300E-1,1.099557430E-2,-1.465465665E0,8.258898258E-1
6.743855660E-1,6.719517522E-3,-1.444085479E0,8.222246170E-1
6.763988790E-1,3.665191587E-3,-1.422094345E0,8.203920126E-1
6.784127310E-1,0.000000000E0,-1.404990077E0,8.161159754E-1
6.803960440E-1,-7.330383174E-3,-1.368338108E0,8.124507666E-1
6.824111270E-1,-1.404990070E-2,-1.328021049E0,8.069530129E-1
6.843945930E-1,-1.893682219E-2,-1.304197311E0,8.038986921E-1
6.864077530E-1,-2.809980139E-2,-1.257771492E0,7.984008789E-1
6.883915270E-1,-3.481931984E-2,-1.205847979E0,7.941248417E-1
6.904059180E-1,-4.031710699E-2,-1.178359032E0,7.922922373E-1
6.923903080E-1,-4.886921868E-2,-1.120937705E0,7.849618196E-1
6.944053140E-1,-5.925392732E-2,-1.063516378E0,7.812966704E-1
6.963887030E-1,-6.475171447E-2,-1.034805775E0,7.806857824E-1
6.984023250E-1,-7.757988572E-2,-9.755517840E-1,7.794640660E-1
7.003857140E-1,-8.368854225E-2,-9.480628371E-1,7.794640660E-1
7.024001050E-1,-9.651670605E-2,-8.894197941E-1,7.800748944E-1
7.044139560E-1,-1.062905490E-1,-8.387179971E-1,7.800748944E-1
7.063968080E-1,-1.160643995E-1,-8.118399382E-1,7.806857824E-1
7.084115820E-1,-1.258382350E-1,-7.703011036E-1,7.831292152E-1
7.103952810E-1,-1.386664063E-1,-7.287622094E-1,7.874053121E-1
7.124088240E-1,-1.453859210E-1,-7.098253965E-1,7.861835957E-1
7.143934460E-1,-1.576032341E-1,-6.792821288E-1,7.904596329E-1
7.164082200E-1,-1.661553532E-1,-6.572909951E-1,7.922922373E-1
7.183909180E-1,-1.722639948E-1,-6.487388611E-1,7.922922373E-1
7.204044620E-1,-1.844813079E-1,-6.322455406E-1,7.941248417E-1
7.223887740E-1,-1.899790913E-1,-6.291912198E-1,7.935139537E-1
7.244029340E-1,-1.905899495E-1,-6.285803318E-1,7.971791625E-1
7.263866320E-1,-1.948660165E-1,-6.340781450E-1,7.965682745E-1
7.284007910E-1,-1.924225539E-1,-6.450737119E-1,7.953465581E-1
7.304149510E-1,-1.893682331E-1,-6.511823535E-1,7.929030657E-1
7.323981100E-1,-1.844813079E-1,-6.743952036E-1,7.922922373E-1
7.344140390E-1,-1.740965992E-1,-6.976081133E-1,7.886270285E-1
7.363968900E-1,-1.716531366E-1,-7.116580009E-1,7.825183868E-1
7.384104340E-1,-1.618792862E-1,-7.409795523E-1,7.782423496E-1
7.403944400E-1,-1.569923609E-1,-7.550294399E-1,7.751879692E-1
7.424082910E-1,-1.466076523E-1,-7.898487449E-1,7.672467232E-1
7.443916050E-1,-1.337794960E-1,-8.228355050E-1,7.586946487E-1
7.464055330E-1,-1.288925707E-1,-8.411614299E-1,7.568620443E-1
7.483894620E-1,-1.136209369E-1,-8.753699064E-1,7.470881939E-1
7.504036980E-1,-9.712757170E-2,-9.114109278E-1,7.415903807E-1
7.523876270E-1,-8.979719132E-2,-9.309586287E-1,7.367035151E-1
7.544030160E-1,-7.452555746E-2,-9.688322544E-1,7.269296646E-1
7.563848680E-1,-5.803219974E-2,-1.006095052E0,7.171558142E-1
7.583994120E-1,-5.375614017E-2,-1.023199320E0,7.122688890E-1
7.604129560E-1,-3.848451003E-2,-1.059240341E0,7.031059265E-1
7.623981150E-1,-2.382374369E-2,-1.095281363E0,6.963863969E-1
7.644123520E-1,-1.588249579E-2,-1.109942198E0,6.908885837E-1
7.663945110E-1,1.221730490E-3,-1.139263630E0,6.786713004E-1
7.684095170E-1,8.552113548E-3,-1.155757070E0,6.756169796E-1
7.703932910E-1,2.138028294E-2,-1.183856845E0,6.670648456E-1
7.724076820E-1,3.665191308E-2,-1.206458807E0,6.554583907E-1
7.743919940E-1,4.581489414E-2,-1.218065262E0,6.517932415E-1
7.764062310E-1,5.925392732E-2,-1.238223910E0,6.420193911E-1
7.783883900E-1,7.269296050E-2,-1.253495455E0,6.334672570E-1
7.804040880E-1,8.002334833E-2,-1.260215044E0,6.291912198E-1
7.823861700E-1,8.918632567E-2,-1.270599723E0,6.230825782E-1
7.844009460E-1,1.007927656E-1,-1.278540969E0,6.175847650E-1
7.864142580E-1,1.038470939E-1,-1.282817006E0,6.145304441E-1
7.883991100E-1,1.123992056E-1,-1.285260439E0,6.120869517E-1
7.904123460E-1,1.185078546E-1,-1.291369081E0,6.047565937E-1
7.923963520E-1,1.197295859E-1,-1.292590857E0,6.053674817E-1
7.944115110E-1,1.246165112E-1,-1.289536476E0,6.010913849E-1
7.963942860E-1,1.276708394E-1,-1.286482215E0,5.998696685E-1
7.984077530E-1,1.270599663E-1,-1.288925648E0,6.004805565E-1
8.003909130E-1,1.282816976E-1,-1.287703991E0,5.962044597E-1
8.024059950E-1,1.301143020E-1,-1.287093043E0,5.974262357E-1
8.043902310E-1,1.288925707E-1,-1.285260439E0,5.943718553E-1
8.064034670E-1,1.276708394E-1,-1.284038782E0,5.937610269E-1
8.083871650E-1,1.276708394E-1,-1.284038782E0,5.931501389E-1
8.104014010E-1,1.252273768E-1,-1.279762745E0,5.925393105E-1
8.124158690E-1,1.221730486E-1,-1.280984402E0,5.919284225E-1
8.144007200E-1,1.221730486E-1,-1.279151797E0,5.919284225E-1
8.164137260E-1,1.221730486E-1,-1.279762745E0,5.882632136E-1
8.183970390E-1,1.209513173E-1,-1.282206178E0,5.876523852E-1
8.204121220E-1,1.191187203E-1,-1.283427835E0,5.852088928E-1
8.223952800E-1,1.148426682E-1,-1.287703991E0,5.827654600E-1
8.244090560E-1,1.154535338E-1,-1.292590857E0,5.797111392E-1
8.263930610E-1,1.130100712E-1,-1.296256065E0,5.784893632E-1
8.284072970E-1,1.105666086E-1,-1.304197311E0,5.760459304E-1
8.303909180E-1,1.081231460E-1,-1.310305953E0,5.754350424E-1
8.324047700E-1,1.105666086E-1,-1.321912408E0,5.729916096E-1
8.343887750E-1,1.087340117E-1,-1.334740520E0,5.638286471E-1
8.364029350E-1,1.069014147E-1,-1.340849161E0,5.638286471E-1
8.383867090E-1,1.130100712E-1,-1.358564258E0,5.564982295E-1
8.404001770E-1,1.178969890E-1,-1.376890302E0,5.467243791E-1
8.424156430E-1,1.215621829E-1,-1.385442376E0,5.418374538E-1
8.443981110E-1,1.295034289E-1,-1.407433510E0,5.283984542E-1
8.464118850E-1,1.337794960E-1,-1.426370382E0,5.119050741E-1
8.483965060E-1,1.374446750E-1,-1.433700681E0,5.070181489E-1
8.504104340E-1,1.441642046E-1,-1.448972344E0,4.880813360E-1
8.523941320E-1,1.502728462E-1,-1.464854836E0,4.685336351E-1
8.544082920E-1,1.539380401E-1,-1.473407030E0,4.593706727E-1
8.563925270E-1,1.588249654E-1,-1.482569933E0,4.428772926E-1
8.584055330E-1,1.637118906E-1,-1.493565559E0,4.257730842E-1
8.603904610E-1,1.673770845E-1,-1.494787216E0,4.172209501E-1
8.624045440E-1,1.722639948E-1,-1.500895858E0,4.013384581E-1
8.643867030E-1,1.753183305E-1,-1.502728462E0,3.952298164E-1
8.664020940E-1,1.783726513E-1,-1.502728462E0,3.775147200E-1
8.683849450E-1,1.838704348E-1,-1.497841597E0,3.640756905E-1
8.703994120E-1,1.857030392E-1,-1.496008992E0,3.573561609E-1
8.724134940E-1,1.863138974E-1,-1.488067746E0,3.463605940E-1
8.743978850E-1,1.899790913E-1,-1.474628687E0,3.341432810E-1
8.764113520E-1,1.893682331E-1,-1.466687441E0,3.292563558E-1
8.783947420E-1,1.887573600E-1,-1.450804949E0,3.219259977E-1
8.804082860E-1,1.875356287E-1,-1.431257248E0,3.152064681E-1
8.823920610E-1,1.887573600E-1,-1.419650793E0,3.115412891E-1
8.844070660E-1,1.869247705E-1,-1.397659659E0,3.023782969E-1
8.863905330E-1,1.820378453E-1,-1.370170712E0,2.987131178E-1
8.884050000E-1,1.808161139E-1,-1.356120825E0,2.944370508E-1
8.903880830E-1,1.740965992E-1,-1.324355841E0,2.877175212E-1
8.924022420E-1,1.685988009E-1,-1.291369081E0,2.822197378E-1
8.943883250E-1,1.643227488E-1,-1.274264932E0,2.803871334E-1
8.964010220E-1,1.551597714E-1,-1.237612963E0,2.767219543E-1
8.984151050E-1,1.472185254E-1,-1.200961113E0,2.706133127E-1
9.003988020E-1,1.398881376E-1,-1.182635069E0,2.693915665E-1
9.024126540E-1,1.282816976E-1,-1.143539786E0,2.632829249E-1
9.043963520E-1,1.227839142E-1,-1.122770309E0,2.638937831E-1
9.064108190E-1,1.123992056E-1,-1.081842303E0,2.583959997E-1
9.083933630E-1,9.651670605E-2,-1.045801282E0,2.535090744E-1
9.104072150E-1,9.162978828E-2,-1.025642753E0,2.492330223E-1
9.123920660E-1,8.002334833E-2,-9.847147465E-1,2.449569702E-1
9.144066110E-1,6.658431143E-2,-9.511171579E-1,2.388483137E-1
9.163890770E-1,6.108652428E-2,-9.334021211E-1,2.357939780E-1
9.184037750E-1,4.825835302E-2,-8.973610401E-1,2.302961946E-1
9.203868570E-1,3.543018550E-2,-8.643743396E-1,2.235766798E-1
9.224028630E-1,3.054326214E-2,-8.491026759E-1,2.193006277E-1
9.243853300E-1,1.466076635E-2,-8.210029006E-1,2.150245607E-1
9.263991820E-1,6.108652451E-4,-7.935139537E-1,2.089159191E-1
9.284134180E-1,-6.719517522E-3,-7.806857824E-1,2.064724565E-1
9.303970390E-1,-1.893682219E-2,-7.593054771E-1,1.997529417E-1
9.324111980E-1,-2.809980139E-2,-7.489207983E-1,1.948660165E-1
9.343955120E-1,-4.214970022E-2,-7.318165898E-1,1.899790913E-1
9.364091320E-1,-5.681046844E-2,-7.226535678E-1,1.863138974E-1
9.383924460E-1,-6.414084882E-2,-7.177666426E-1,1.814269722E-1
9.404076050E-1,-7.819075137E-2,-7.110471725E-1,1.759291887E-1
9.423909950E-1,-8.918632567E-2,-7.092145681E-1,1.722639948E-1
9.444047700E-1,-9.590584040E-2,-7.098253965E-1,1.661553532E-1
9.463879290E-1,-1.069014147E-1,-7.134906054E-1,1.582140923E-1
9.484023960E-1,-1.166752651E-1,-7.183775306E-1,1.514945775E-1
9.503860940E-1,-1.191187203E-1,-7.226535678E-1,1.478293836E-1
9.524002530E-1,-1.258382350E-1,-7.330383062E-1,1.398881376E-1
9.544149510E-1,-1.295034289E-1,-7.440338731E-1,1.276708394E-1
9.563986490E-1,-1.307251602E-1,-7.501425147E-1,1.209513173E-1
9.584121930E-1,-1.313360333E-1,-7.648032904E-1,1.105666086E-1
9.603955830E-1,-1.337794960E-1,-7.733554244E-1,1.026253626E-1
9.624101270E-1,-1.356120855E-1,-7.776314616E-1,9.468411654E-2
9.643941320E-1,-1.392772794E-1,-7.898487449E-1,8.185594529E-2
9.664082150E-1,-1.368338168E-1,-7.947356701E-1,7.696902007E-2
9.683916820E-1,-1.392772794E-1,-8.032878041E-1,6.230825558E-2
9.704060720E-1,-1.392772794E-1,-8.081747293E-1,5.253441259E-2
9.723888470E-1,-1.374446750E-1,-8.118399382E-1,4.825835302E-2
9.744045450E-1,-1.356120855E-1,-8.155050874E-1,3.726277873E-2
9.763867810E-1,-1.331686229E-1,-8.185594082E-1,2.565634064E-2
9.784015550E-1,-1.325577646E-1,-8.179485798E-1,2.015855350E-2
9.804159460E-1,-1.276708394E-1,-8.197811842E-1,1.282817032E-2
9.823993350E-1,-1.240056455E-1,-8.191702962E-1,6.719517522E-3
9.844138800E-1,-1.203404516E-1,-8.179485798E-1,1.221730490E-3
9.863965770E-1,-1.117883399E-1,-8.155050874E-1,-4.276056774E-3
9.884105060E-1,-1.062905490E-1,-8.118399382E-1,-1.282817032E-2
9.903944340E-1,-1.026253626E-1,-8.075638413E-1,-1.710422710E-2
9.924086710E-1,-9.773843735E-2,-8.081747293E-1,-2.138028294E-2
9.943939070E-1,-9.468411654E-2,-8.069530129E-1,-2.015855350E-2
9.964080660E-1,-8.368854225E-2,-8.002334833E-1,-2.748893574E-2
9.983905330E-1,-7.391469181E-2,-7.886270285E-1,-3.115412779E-2
1.000404001E0,-6.963863969E-2,-7.825183868E-1,-3.604105115E-2
1.002388929E0,-6.108652428E-2,-7.678576112E-1,-3.970624134E-2
1.004403165E0,-5.803219974E-2,-7.464773059E-1,-4.398229718E-2
1.006385324E0,-5.375614017E-2,-7.367035151E-1,-4.825835302E-2
1.008400407E0,-4.764748737E-2,-7.086036801E-1,-5.253441259E-2
1.010414181E0,-4.581489414E-2,-6.792821288E-1,-5.925392732E-2
1.012398803E0,-4.764748737E-2,-6.621779203E-1,-6.047565863E-2
1.014412654E0,-4.520402849E-2,-6.285803318E-1,-6.536258012E-2
1.016395737E0,-4.276056588E-2,-5.913175344E-1,-7.269296050E-2
1.018409973E0,-4.031710699E-2,-5.729916096E-1,-7.208210230E-2
1.020394825E0,-3.909537569E-2,-5.375614166E-1,-7.635815442E-2
1.022408445E0,-3.970624134E-2,-5.002986193E-1,-7.757988572E-2
1.024391451E0,-3.848451003E-2,-4.819726646E-1,-8.002334833E-2
1.026405379E0,-4.153883830E-2,-4.459316432E-1,-8.185594529E-2
1.028389001E0,-4.031710699E-2,-4.245513380E-1,-8.185594529E-2
1.030403852E0,-4.459316283E-2,-3.854559660E-1,-8.491026610E-2
1.032387242E0,-4.703662544E-2,-3.500257730E-1,-8.124507964E-2
1.034401940E0,-4.886921868E-2,-3.329215646E-1,-8.185594529E-2
1.036415561E0,-5.131268129E-2,-2.962696552E-1,-8.002334833E-2
1.038399566E0,-5.436700583E-2,-2.602286041E-1,-7.635815442E-2
1.040413341E0,-5.253441259E-2,-2.461786866E-1,-7.391469181E-2
1.042395885E0,-5.619960278E-2,-2.138028294E-1,-6.902777404E-2
1.044411814E0,-6.230825558E-2,-1.820378453E-1,-6.047565863E-2
1.046394588E0,-6.230825558E-2,-1.679879427E-1,-5.681046844E-2
1.048408825E0,-6.536258012E-2,-1.368338168E-1,-4.886921868E-2
1.050392753E0,-6.658431143E-2,-1.111774743E-1,-3.726277873E-2
1.052407221E0,-6.902777404E-2,-9.712757170E-2,-3.298672289E-2
1.054391226E0,-7.452555746E-2,-7.757988572E-2,-2.015855350E-2
1.056404539E0,-7.880161703E-2,-6.047565863E-2,-1.160643995E-2
1.058388467E0,-7.696902007E-2,-5.375614017E-2,-3.665191587E-3
1.060402396E0,-8.429940045E-2,-4.092797264E-2,8.552113548E-3
1.062416478E0,-8.613199741E-2,-3.420845419E-2,1.466076635E-2
1.064399946E0,-8.918632567E-2,-2.932153270E-2,2.871066704E-2
1.066414105E0,-9.407325089E-2,-2.809980139E-2,3.970624134E-2
1.068398034E0,-9.651670605E-2,-2.871066704E-2,4.703662544E-2
1.070412577E0,-1.007927656E-1,-3.359758854E-2,5.742133409E-2
1.072395891E0,-1.062905490E-1,-4.153883830E-2,6.963863969E-2
1.074410665E0,-1.056796908E-1,-5.009094998E-2,7.452555746E-2
1.076393748E0,-1.099557430E-1,-6.719517708E-2,8.674286306E-2
1.078407599E0,-1.123992056E-1,-8.735372871E-2,9.468411654E-2
1.080390990E0,-1.123992056E-1,-1.014036313E-1,9.896016866E-2
1.082406149E0,-1.130100712E-1,-1.282816976E-1,1.062905490E-1
1.084389232E0,-1.069014147E-1,-1.594358236E-1,1.123992056E-1
1.086402391E0,-1.026253626E-1,-1.765400618E-1,1.160643995E-1
1.088386781E0,-9.957103431E-2,-2.113593817E-1,1.191187203E-1
1.090400863E0,-9.162978828E-2,-2.467895597E-1,1.246165112E-1
1.092415331E0,-9.040805697E-2,-2.663372457E-1,1.233947799E-1
1.094400028E0,-8.735372871E-2,-3.042109013E-1,1.270599663E-1
1.096413496E0,-8.796459436E-2,-3.225368559E-1,1.276708394E-1
1.098396347E0,-8.918632567E-2,-3.579670191E-1,1.264491081E-1
1.100412045E0,-8.674286306E-2,-3.933972120E-1,1.307251602E-1
1.102395050E0,-8.552113175E-2,-4.129449129E-1,1.295034289E-1
1.104408902E0,-8.185594529E-2,-4.471533597E-1,1.337794960E-1
1.106392292E0,-7.574728876E-2,-4.838052690E-1,1.313360333E-1
1.108406220E0,-7.452555746E-2,-5.002986193E-1,1.313360333E-1
1.110390457E0,-6.963863969E-2,-5.326744914E-1,1.319468915E-1
1.112404308E0,-6.719517708E-2,-5.613851547E-1,1.307251602E-1
1.114388622E0,-6.291911751E-2,-5.772676468E-1,1.313360333E-1
1.116401934E0,-6.230825558E-2,-5.986479521E-1,1.325577646E-1
1.118416094E0,-5.864306539E-2,-6.188064814E-1,1.337794960E-1
1.120399407E0,-5.742133409E-2,-6.291912198E-1,1.313360333E-1
1.122413644E0,-5.803219974E-2,-6.426302195E-1,1.325577646E-1
1.124398264E0,-5.864306539E-2,-6.505714655E-1,1.331686229E-1
1.126412424E0,-5.619960278E-2,-6.524040699E-1,1.307251602E-1
1.128395813E0,-5.497787148E-2,-6.542366743E-1,1.301143020E-1
1.130409358E0,-5.497787148E-2,-6.517932415E-1,1.233947799E-1
1.132393594E0,-5.619960278E-2,-6.475171447E-1,1.246165112E-1
1.134409061E0,-5.803219974E-2,-6.389650702E-1,1.209513173E-1
1.136391528E0,-5.681046844E-2,-6.322455406E-1,1.197295859E-1
1.138405380E0,-5.803219974E-2,-6.181956530E-1,1.148426682E-1
1.140389923E0,-6.414084882E-2,-5.974262357E-1,1.093448773E-1
1.142403776E0,-6.352998316E-2,-5.894849896E-1,1.062905490E-1
1.144387242E0,-6.658431143E-2,-5.687155724E-1,9.957103431E-2
1.146400787E0,-7.147123665E-2,-5.442809463E-1,9.468411654E-2
1.148415484E0,-7.513642311E-2,-5.314527750E-1,8.979719132E-2
1.150398336E0,-8.002334833E-2,-5.051855445E-1,8.307767659E-2
1.152412803E0,-8.491026610E-2,-4.783074856E-1,8.002334833E-2
1.154397962E0,-8.796459436E-2,-4.642575979E-1,7.452555746E-2
1.156410967E0,-8.979719132E-2,-4.367686510E-1,6.902777404E-2
1.158394666E0,-9.712757170E-2,-4.221078753E-1,6.475171447E-2
1.160407901E0,-1.020144969E-1,-3.940080702E-1,5.864306539E-2
1.162392831E0,-1.099557430E-1,-3.652974069E-1,5.192354694E-2
1.164406682E0,-1.105666086E-1,-3.524692357E-1,5.314527452E-2
1.166389380E0,-1.185078546E-1,-3.268128932E-1,4.825835302E-2
1.168404539E0,-1.209513173E-1,-3.036000133E-1,4.153883830E-2
1.170388237E0,-1.258382350E-1,-2.926044464E-1,3.848451003E-2
1.172402396E0,-1.282816976E-1,-2.693915665E-1,3.481931984E-2
1.174417710E0,-1.356120855E-1,-2.492330223E-1,2.748893574E-2
1.176400176E0,-1.356120855E-1,-2.406809032E-1,2.687807009E-2
1.178413721E0,-1.411098689E-1,-2.229658216E-1,2.260201424E-2
1.180398726E0,-1.435533315E-1,-2.058615834E-1,1.954768784E-2
1.182411963E0,-1.459967941E-1,-1.979203373E-1,1.527163107E-2
1.184395583E0,-1.490511149E-1,-1.881465018E-1,9.773843922E-3
1.186409204E0,-1.490511149E-1,-1.783726513E-1,8.552113548E-3
1.188392517E0,-1.508837193E-1,-1.759291887E-1,4.886921961E-3
1.190407600E0,-1.533271819E-1,-1.716531366E-1,2.443460980E-3
1.192390759E0,-1.527163088E-1,-1.722639948E-1,2.443460980E-3
1.194405842E0,-1.539380401E-1,-1.740965992E-1,-1.221730490E-3
1.196389539E0,-1.502728462E-1,-1.789835095E-1,-2.443460980E-3
1.198403083E0,-1.490511149E-1,-1.832595766E-1,-1.832595794E-3
1.200386396E0,-1.459967941E-1,-1.899790913E-1,-4.886921961E-3
1.202400325E0,-1.386664063E-1,-2.034181207E-1,-6.719517522E-3
1.204415715E0,-1.331686229E-1,-2.089159191E-1,-1.038470957E-2
1.206398721E0,-1.252273768E-1,-2.199114859E-1,-1.282817032E-2
1.208412880E0,-1.154535338E-1,-2.309070677E-1,-1.527163107E-2
1.210396655E0,-1.093448773E-1,-2.394591719E-1,-1.771509275E-2
1.212411352E0,-9.957103431E-2,-2.528982162E-1,-2.076941915E-2
1.214395743E0,-9.101892263E-2,-2.645046413E-1,-2.382374369E-2
1.216408594E0,-8.735372871E-2,-2.675589919E-1,-2.687807009E-2
1.218392600E0,-7.880161703E-2,-2.797762752E-1,-3.054326214E-2
1.220407067E0,-7.086037099E-2,-2.877175212E-1,-3.298672289E-2
1.222390225E0,-6.414084882E-2,-2.919935882E-1,-3.543018550E-2
1.224404924E0,-5.742133409E-2,-3.029891551E-1,-3.787364438E-2
1.226387160E0,-5.497787148E-2,-3.029891551E-1,-3.726277873E-2
1.228401550E0,-4.642575979E-2,-3.109304011E-1,-3.604105115E-2
1.230416710E0,-3.970624134E-2,-3.194825351E-1,-3.359758854E-2
1.232399407E0,-3.481931984E-2,-3.207042515E-1,-3.359758854E-2
1.234414797E0,-2.993239649E-2,-3.249803185E-1,-2.687807009E-2
1.236397957E0,-2.321287990E-2,-3.255911767E-1,-2.321287990E-2
1.238412962E0,-2.138028294E-2,-3.262020350E-1,-1.832595654E-2
1.240395122E0,-1.527163107E-2,-3.249803185E-1,-9.162978269E-3
1.242409896E0,-1.221730467E-2,-3.200933933E-1,-1.221730490E-3
1.244393594E0,-9.773843922E-3,-3.158173263E-1,2.443460980E-3
1.246407445E0,-5.497787148E-3,-3.109304011E-1,1.282817032E-2
1.248391144E0,-1.221730490E-3,-2.993239760E-1,2.565634064E-2
1.250404687E0,-1.832595794E-3,-2.956587672E-1,3.054326214E-2
1.252389693E0,2.443460980E-3,-2.803871334E-1,4.337143153E-2
1.254403852E0,5.497787148E-3,-2.687807083E-1,5.375614017E-2
1.256387550E0,4.276056774E-3,-2.602286041E-1,5.742133409E-2
1.258401017E0,9.162978269E-3,-2.455678284E-1,7.086037099E-2
1.260415484E0,8.552113548E-3,-2.370157093E-1,7.330382615E-2
1.262399259E0,7.941247895E-3,-2.193006277E-1,8.491026610E-2
1.264412726E0,1.099557430E-2,-2.040289938E-1,9.468411654E-2
1.266397116E0,9.773843922E-3,-1.954768747E-1,9.896016866E-2
1.268410660E0,1.038470957E-2,-1.802052408E-1,1.062905490E-1
1.270394358E0,1.099557430E-2,-1.624901593E-1,1.160643995E-1
1.272408517E0,1.282817032E-2,-1.539380401E-1,1.191187203E-1
1.274392522E0,1.221730467E-2,-1.392772794E-1,1.276708394E-1
1.276406605E0,1.038470957E-2,-1.240056455E-1,1.331686229E-1
1.278389995E0,1.038470957E-2,-1.166752651E-1,1.380555481E-1
1.280402693E0,1.038470957E-2,-1.038470939E-1,1.447750628E-1
1.282418083E0,8.552113548E-3,-9.285151958E-2,1.508837193E-1
1.284402089E0,9.773843922E-3,-8.796459436E-2,1.582140923E-1
1.286415940E0,7.941247895E-3,-7.880161703E-2,1.618792862E-1
1.288399638E0,7.941247895E-3,-7.635815442E-2,1.643227488E-1
1.290413490E0,3.665191587E-3,-6.902777404E-2,1.716531366E-1
1.292397803E0,3.054326167E-3,-6.536258012E-2,1.783726513E-1
1.294412885E0,1.221730490E-3,-6.475171447E-2,1.820378453E-1
1.296395353E0,0.000000000E0,-6.475171447E-2,1.893682331E-1
1.298409512E0,-6.108652451E-4,-6.597344577E-2,1.912008226E-1
1.300393748E0,-6.108652451E-4,-6.780604273E-2,1.924225539E-1
1.302407984E0,-4.276056774E-3,-7.391469181E-2,1.979203373E-1
1.304390682E0,-4.886921961E-3,-8.185594529E-2,2.028072625E-1
1.306405457E0,-7.330383174E-3,-8.552113175E-2,2.028072625E-1
1.308388540E0,-8.552113548E-3,-9.651670605E-2,2.034181207E-1
1.310402775E0,-6.719517522E-3,-1.056796908E-1,2.064724565E-1
1.312417166E0,-1.038470957E-2,-1.105666086E-1,2.058615834E-1
1.314402402E0,-6.719517522E-3,-1.233947799E-1,2.070833147E-1
1.316415408E0,-5.497787148E-3,-1.343903542E-1,2.076941878E-1
1.318398182E0,-1.832595794E-3,-1.411098689E-1,2.064724565E-1
1.320413188E0,0.000000000E0,-1.514945775E-1,2.070833147E-1
1.322397193E0,1.221730490E-3,-1.576032341E-1,2.064724565E-1
1.324410814E0,5.497787148E-3,-1.631010175E-1,2.058615834E-1
1.326393819E0,8.552113548E-3,-1.704314053E-1,2.009746730E-1
1.328408595E0,9.162978269E-3,-1.728748679E-1,1.997529417E-1
1.330392369E0,1.282817032E-2,-1.753183305E-1,1.991420686E-1
1.332406221E0,1.221730467E-2,-1.783726513E-1,1.960877478E-1
1.334390149E0,1.404990070E-2,-1.777617931E-1,1.936442852E-1
1.336404386E0,1.588249579E-2,-1.765400618E-1,1.948660165E-1
1.338387699E0,1.771509275E-2,-1.740965992E-1,1.930334121E-1
1.340402551E0,2.015855350E-2,-1.734857261E-1,1.924225539E-1
1.342415402E0,2.138028294E-2,-1.685988009E-1,1.924225539E-1
1.344400408E0,2.687807009E-2,-1.606575549E-1,1.912008226E-1
1.346413951E0,2.687807009E-2,-1.563815027E-1,1.918116808E-1
1.348397264E0,2.626720630E-2,-1.508837193E-1,1.912008226E-1
1.350411809E0,2.809980139E-2,-1.411098689E-1,1.924225539E-1
1.352394583E0,3.054326214E-2,-1.343903542E-1,1.930334121E-1
1.354410896E0,2.993239649E-2,-1.240056455E-1,1.960877478E-1
1.356393671E0,2.932153270E-2,-1.166752651E-1,1.960877478E-1
1.358407523E0,3.115412779E-2,-1.056796908E-1,1.960877478E-1
1.360390220E0,3.481931984E-2,-9.162978828E-2,1.997529417E-1
1.362404688E0,3.298672289E-2,-8.368854225E-2,1.985312104E-1
1.364388462E0,3.237585723E-2,-6.902777404E-2,2.021963894E-1
1.366403468E0,3.298672289E-2,-5.131268129E-2,2.040289938E-1
1.368386319E0,3.359758854E-2,-4.459316283E-2,2.064724565E-1
1.370399864E0,3.054326214E-2,-2.748893574E-2,2.064724565E-1
1.372414946E0,3.237585723E-2,-1.527163107E-2,2.095267773E-1
1.374399259E0,3.176499158E-2,-6.719517522E-3,2.101376504E-1
1.376413726E0,3.237585723E-2,7.330383174E-3,2.144137025E-1
1.378396424E0,3.298672289E-2,2.199114859E-2,2.131919712E-1
1.380411583E0,3.298672289E-2,2.565634064E-2,2.131919712E-1
1.382394589E0,2.993239649E-2,3.909537569E-2,2.156354338E-1
1.384408748E0,2.993239649E-2,4.764748737E-2,2.168571651E-1
1.386392215E0,3.054326214E-2,5.314527452E-2,2.174680233E-1
1.388405759E0,2.871066704E-2,5.925392732E-2,2.186897546E-1
1.390390303E0,2.871066704E-2,6.169738993E-2,2.186897546E-1
1.392403231E0,2.748893574E-2,6.902777404E-2,2.199114859E-1
1.394388545E0,2.504547499E-2,7.330382615E-2,2.211332172E-1
1.396402089E0,2.626720630E-2,7.330382615E-2,2.229658216E-1
1.398415941E0,2.626720630E-2,7.452555746E-2,2.235766798E-1
1.400399330E0,2.260201424E-2,7.513642311E-2,2.254092693E-1
1.402414952E0,2.565634064E-2,7.208210230E-2,2.241875380E-1
1.404397803E0,2.504547499E-2,7.024950534E-2,2.254092693E-1
1.406411040E0,2.443460934E-2,6.719517708E-2,2.241875380E-1
1.408395275E0,2.565634064E-2,6.475171447E-2,2.260201424E-1
1.410409204E0,2.565634064E-2,5.986479297E-2,2.229658216E-1
1.412393209E0,2.565634064E-2,5.558873713E-2,2.223549485E-1
1.414408215E0,2.443460934E-2,5.009094998E-2,2.217440903E-1
1.416391067E0,2.504547499E-2,4.520402849E-2,2.193006277E-1
1.418404919E0,2.748893574E-2,3.909537569E-2,2.174680233E-1
1.420388847E0,2.687807009E-2,3.237585723E-2,2.156354338E-1
1.422402776E0,3.115412779E-2,2.626720630E-2,2.101376504E-1
1.424416242E0,2.993239649E-2,2.260201424E-2,2.113593817E-1
1.426400556E0,3.420845419E-2,1.710422710E-2,2.064724565E-1
1.428414407E0,3.848451003E-2,6.719517522E-3,1.985312104E-1
1.430398413E0,4.031710699E-2,2.443460980E-3,1.985312104E-1
1.432412572E0,3.970624134E-2,-1.832595794E-3,1.930334121E-1
1.434397194E0,4.214970022E-2,-7.941247895E-3,1.887573600E-1
1.436411352E0,4.337143153E-2,-1.160643995E-2,1.850921661E-1
1.438394128E0,4.337143153E-2,-1.527163107E-2,1.789835095E-1
1.440404979E0,4.337143153E-2,-1.710422710E-2,1.728748679E-1
1.442391139E0,4.520402849E-2,-1.893682219E-2,1.704314053E-1
1.444405836E0,4.764748737E-2,-1.893682219E-2,1.673770845E-1
1.446389611E0,4.703662544E-2,-2.076941915E-2,1.649336219E-1
1.448404001E0,4.764748737E-2,-2.138028294E-2,1.624901593E-1
1.450387468E0,4.703662544E-2,-1.954768784E-2,1.582140923E-1
1.452401320E0,4.764748737E-2,-2.076941915E-2,1.569923609E-1
1.454417941E0,4.581489414E-2,-1.954768784E-2,1.539380401E-1
1.456399407E0,4.398229718E-2,-1.710422710E-2,1.508837193E-1
1.458414260E0,4.337143153E-2,-1.527163107E-2,1.514945775E-1
1.460398265E0,4.153883830E-2,-1.343903504E-2,1.496619880E-1
1.462412425E0,3.909537569E-2,-8.552113548E-3,1.472185254E-1
1.464395430E0,3.909537569E-2,-6.719517522E-3,1.478293836E-1
1.466409282E0,3.787364438E-2,-2.443460980E-3,1.466076523E-1
1.468392364E0,3.665191308E-2,0.000000000E0,1.429424733E-1
1.470407216E0,3.665191308E-2,4.276056774E-3,1.441642046E-1
1.472390605E0,3.115412779E-2,1.038470957E-2,1.429424733E-1
1.474406611E0,3.054326214E-2,1.282817032E-2,1.423316002E-1
1.476388693E0,2.993239649E-2,1.527163107E-2,1.447750628E-1
1.478402852E0,2.687807009E-2,2.076941915E-2,1.429424733E-1
1.480417012E0,2.382374369E-2,2.199114859E-2,1.441642046E-1
1.482401325E0,2.382374369E-2,2.443460934E-2,1.423316002E-1
1.484415177E0,2.443460934E-2,3.054326214E-2,1.435533315E-1
1.486397951E0,2.382374369E-2,2.871066704E-2,1.429424733E-1
1.488412803E0,2.015855350E-2,2.932153270E-2,1.435533315E-1
1.490396501E0,1.893682219E-2,3.237585723E-2,1.441642046E-1
1.492410968E0,1.710422710E-2,3.054326214E-2,1.404990107E-1
1.494394896E0,1.527163107E-2,2.809980139E-2,1.398881376E-1
1.496409056E0,1.588249579E-2,2.871066704E-2,1.386664063E-1
1.498391600E0,1.527163107E-2,2.687807009E-2,1.392772794E-1
1.500406682E0,1.404990070E-2,2.382374369E-2,1.362229437E-1
1.502389457E0,1.099557430E-2,2.076941915E-2,1.319468915E-1
1.504403617E0,1.343903504E-2,1.588249579E-2,1.313360333E-1
1.506387314E0,1.221730467E-2,1.099557430E-2,1.313360333E-1
1.508401781E0,9.162978269E-3,5.497787148E-3,1.233947799E-1
1.510415248E0,1.160643995E-2,1.832595794E-3,1.215621829E-1
1.512399331E0,1.099557430E-2,-3.054326167E-3,1.191187203E-1
1.514414336E0,1.404990070E-2,-1.038470957E-2,1.148426682E-1
1.516397188E0,1.527163107E-2,-1.466076635E-2,1.130100712E-1
1.518411578E0,1.466076635E-2,-2.076941915E-2,1.087340117E-1
1.520394122E0,1.527163107E-2,-2.260201424E-2,1.069014147E-1
1.522408589E0,1.710422710E-2,-2.871066704E-2,1.001819000E-1
1.524393518E0,1.771509275E-2,-3.481931984E-2,9.712757170E-2
1.526407061E0,1.832595654E-2,-3.726277873E-2,9.346238524E-2
1.528390452E0,2.199114859E-2,-4.153883830E-2,8.979719132E-2
1.530404841E0,2.443460934E-2,-4.520402849E-2,8.429940045E-2
1.532388617E0,2.443460934E-2,-4.703662544E-2,8.185594529E-2
1.534403391E0,2.748893574E-2,-5.070181563E-2,7.574728876E-2
1.536417243E0,2.993239649E-2,-5.131268129E-2,7.147123665E-2
1.538400556E0,3.176499158E-2,-5.375614017E-2,6.841690838E-2
1.540414793E0,3.298672289E-2,-5.253441259E-2,6.291911751E-2
1.542398490E0,3.481931984E-2,-5.497787148E-2,5.803219974E-2
1.544412342E0,3.665191308E-2,-5.497787148E-2,5.742133409E-2
1.546396270E0,3.848451003E-2,-5.375614017E-2,5.009094998E-2
1.548409815E0,4.092797264E-2,-5.436700583E-2,4.642575979E-2
1.550393896E0,4.153883830E-2,-5.497787148E-2,4.276056588E-2
1.552407979E0,4.092797264E-2,-5.192354694E-2,4.031710699E-2
1.554392677E0,4.337143153E-2,-5.192354694E-2,3.665191308E-2
1.556406452E0,4.276056588E-2,-4.948008433E-2,3.298672289E-2
1.558389303E0,4.153883830E-2,-4.642575979E-2,3.054326214E-2
1.560402848E0,4.031710699E-2,-4.520402849E-2,2.932153270E-2
1.562418776E0,4.092797264E-2,-4.214970022E-2,2.565634064E-2
1.564401859E0,4.092797264E-2,-3.604105115E-2,2.015855350E-2
1.566415171E0,3.848451003E-2,-3.115412779E-2,1.954768784E-2
1.568399793E0,3.726277873E-2,-2.809980139E-2,1.832595654E-2
1.570413875E0,3.909537569E-2,-2.321287990E-2,1.466076635E-2
1.572396958E0,3.848451003E-2,-2.076941915E-2,1.404990070E-2
1.574412116E0,3.543018550E-2,-1.404990070E-2,1.282817032E-2
1.576395199E0,3.726277873E-2,-7.941247895E-3,1.099557430E-2
1.578409589E0,3.420845419E-2,-3.665191587E-3,7.941247895E-3
1.580393287E0,3.481931984E-2,6.108652451E-4,1.221730490E-3
1.582406600E0,3.481931984E-2,1.832595794E-3,-6.108652451E-4
1.584389914E0,3.237585723E-2,8.552113548E-3,-6.108652335E-3
1.586405072E0,2.932153270E-2,1.404990070E-2,-6.719517522E-3
1.588388462E0,2.993239649E-2,1.343903504E-2,-8.552113548E-3
1.590402237E0,2.809980139E-2,2.015855350E-2,-1.466076635E-2
1.592417320E0,2.687807009E-2,2.260201424E-2,-1.893682219E-2
1.594401325E0,2.871066704E-2,2.260201424E-2,-2.199114859E-2
1.596414254E0,2.687807009E-2,2.443460934E-2,-2.626720630E-2
1.598398259E0,2.382374369E-2,2.443460934E-2,-3.176499158E-2
1.600411881E0,2.382374369E-2,2.443460934E-2,-3.420845419E-2
1.602396193E0,2.260201424E-2,2.443460934E-2,-3.848451003E-2
1.604410045E0,1.832595654E-2,2.443460934E-2,-4.153883830E-2
1.606393743E0,1.771509275E-2,2.015855350E-2,-4.337143153E-2
1.608407286E0,1.832595654E-2,1.771509275E-2,-4.459316283E-2
1.610391523E0,1.527163107E-2,1.160643995E-2,-4.886921868E-2
1.612406297E0,1.343903504E-2,1.343903504E-2,-4.886921868E-2
1.614389996E0,1.160643995E-2,4.276056774E-3,-5.436700583E-2
1.616404155E0,1.282817032E-2,3.665191587E-3,-5.375614017E-2
1.618387314E0,1.099557430E-2,-4.276056774E-3,-5.436700583E-2
1.620401473E0,7.330383174E-3,-1.099557430E-2,-6.047565863E-2
1.622415325E0,9.162978269E-3,-1.649336144E-2,-5.742133409E-2
1.624399023E0,7.941247895E-3,-2.443460934E-2,-6.230825558E-2
1.626413413E0,5.497787148E-3,-3.298672289E-2,-6.291911751E-2
1.628396880E0,6.108652335E-3,-3.604105115E-2,-6.536258012E-2
1.630411271E0,8.552113548E-3,-4.214970022E-2,-6.597344577E-2
1.632394968E0,4.886921961E-3,-5.070181563E-2,-7.086037099E-2
1.634409743E0,7.330383174E-3,-5.558873713E-2,-7.330382615E-2
1.636392825E0,6.108652335E-3,-6.108652428E-2,-7.452555746E-2
1.638406754E0,4.276056774E-3,-6.841690838E-2,-7.819075137E-2
1.640389759E0,6.108652335E-3,-6.841690838E-2,-7.880161703E-2
1.642405457E0,5.497787148E-3,-7.513642311E-2,-7.880161703E-2
1.644388847E0,5.497787148E-3,-8.124507964E-2,-8.124507964E-2
1.646401853E0,8.552113548E-3,-8.246681094E-2,-7.941248268E-2
1.648417166E0,1.038470957E-2,-8.613199741E-2,-8.185594529E-2
1.650400556E0,1.099557430E-2,-8.552113175E-2,-8.368854225E-2
1.652414100E0,1.588249579E-2,-8.735372871E-2,-8.613199741E-2
1.654399029E0,1.832595654E-2,-8.613199741E-2,-8.613199741E-2
1.656411957E0,1.893682219E-2,-8.552113175E-2,-8.735372871E-2
1.658396348E0,2.138028294E-2,-8.124507964E-2,-8.552113175E-2
1.660410814E0,2.199114859E-2,-7.819075137E-2,-8.735372871E-2
1.662393897E0,2.260201424E-2,-7.513642311E-2,-8.735372871E-2
1.664407441E0,2.504547499E-2,-6.841690838E-2,-8.552113175E-2
1.666391985E0,2.687807009E-2,-6.108652428E-2,-8.552113175E-2
1.668405913E0,2.809980139E-2,-6.047565863E-2,-8.185594529E-2
1.670389304E0,2.687807009E-2,-5.070181563E-2,-8.124507964E-2
1.672403386E0,2.626720630E-2,-4.459316283E-2,-8.124507964E-2
1.674419161E0,2.504547499E-2,-4.153883830E-2,-7.880161703E-2
1.676401935E0,2.443460934E-2,-3.237585723E-2,-7.757988572E-2
1.678415787E0,2.443460934E-2,-2.382374369E-2,-7.330382615E-2
1.680398792E0,2.321287990E-2,-2.015855350E-2,-7.024950534E-2
1.682412414E0,2.199114859E-2,-1.282817032E-2,-7.208210230E-2
1.684396957E0,2.382374369E-2,-8.552113548E-3,-7.024950534E-2
1.686411425E0,2.260201424E-2,1.221730490E-3,-6.841690838E-2
1.688394199E0,2.015855350E-2,1.038470957E-2,-6.719517708E-2
1.690409359E0,2.015855350E-2,1.343903504E-2,-6.658431143E-2
1.692392133E0,1.832595654E-2,2.138028294E-2,-6.536258012E-2
1.694407754E0,1.527163107E-2,3.481931984E-2,-6.230825558E-2
1.696390298E0,1.466076635E-2,3.665191308E-2,-6.414084882E-2
1.698404150E0,1.038470957E-2,4.886921868E-2,-6.291911751E-2
1.700388770E0,9.162978269E-3,5.742133409E-2,-6.108652428E-2
1.702402007E0,9.773843922E-3,5.986479297E-2,-6.169738993E-2
1.704416397E0,4.276056774E-3,6.902777404E-2,-6.047565863E-2
1.706400095E0,1.221730490E-3,7.330382615E-2,-5.803219974E-2
1.708414331E0,-1.221730490E-3,7.941248268E-2,-5.803219974E-2
1.710397414E0,-3.054326167E-3,8.307767659E-2,-5.558873713E-2
1.712411880E0,-4.886921961E-3,8.552113175E-2,-5.314527452E-2
1.714396117E0,-4.276056774E-3,8.491026610E-2,-5.314527452E-2
1.716410276E0,-9.162978269E-3,8.368854225E-2,-5.070181563E-2
1.718393666E0,-7.941247895E-3,8.429940045E-2,-4.825835302E-2
1.720406902E0,-7.941247895E-3,8.307767659E-2,-4.581489414E-2
1.722391600E0,-1.343903504E-2,7.880161703E-2,-4.214970022E-2
1.724405683E0,-1.466076635E-2,7.635815442E-2,-4.276056588E-2
1.726389149E0,-1.466076635E-2,7.513642311E-2,-3.726277873E-2
1.728403232E0,-1.404990070E-2,6.475171447E-2,-3.604105115E-2
1.730417084E0,-1.710422710E-2,6.230825558E-2,-3.359758854E-2
1.732402628E0,-1.771509275E-2,5.619960278E-2,-3.298672289E-2
1.734416787E0,-1.832595654E-2,4.825835302E-2,-3.420845419E-2
1.736399254E0,-1.832595654E-2,4.581489414E-2,-3.359758854E-2
1.738412798E0,-1.832595654E-2,3.481931984E-2,-3.237585723E-2
1.740398034E0,-1.954768784E-2,2.565634064E-2,-3.176499158E-2
1.742410655E0,-1.771509275E-2,2.138028294E-2,-3.481931984E-2
1.744394968E0,-1.832595654E-2,1.221730467E-2,-3.420845419E-2
1.746408820E0,-1.832595654E-2,6.108652335E-3,-3.359758854E-2
1.748392826E0,-1.832595654E-2,-4.886921961E-3,-3.481931984E-2
1.750406446E0,-1.832595654E-2,-1.282817032E-2,-3.726277873E-2
1.752390760E0,-1.893682219E-2,-1.710422710E-2,-3.848451003E-2
1.754405457E0,-2.015855350E-2,-2.504547499E-2,-3.970624134E-2
1.756388617E0,-2.138028294E-2,-3.420845419E-2,-3.909537569E-2
1.758402391E0,-1.954768784E-2,-3.909537569E-2,-4.092797264E-2
1.760412628E0,-2.015855350E-2,-4.703662544E-2,-4.276056588E-2
1.762399402E0,-2.138028294E-2,-5.375614017E-2,-4.214970022E-2
1.764414408E0,-1.893682219E-2,-5.436700583E-2,-4.276056588E-2
1.766398182E0,-2.076941915E-2,-5.986479297E-2,-4.276056588E-2
1.768412034E0,-2.199114859E-2,-6.414084882E-2,-4.276056588E-2
1.770396270E0,-2.138028294E-2,-6.597344577E-2,-4.153883830E-2
1.772409584E0,-2.199114859E-2,-6.841690838E-2,-4.398229718E-2
1.774394127E0,-2.199114859E-2,-7.208210230E-2,-4.031710699E-2
1.776408364E0,-2.199114859E-2,-7.208210230E-2,-3.970624134E-2
1.778391677E0,-2.076941915E-2,-7.391469181E-2,-3.848451003E-2
1.780405529E0,-2.076941915E-2,-7.391469181E-2,-3.848451003E-2
1.782389611E0,-2.199114859E-2,-7.513642311E-2,-3.726277873E-2
1.784403694E0,-1.954768784E-2,-7.391469181E-2,-3.481931984E-2
1.786417622E0,-2.076941915E-2,-7.452555746E-2,-3.359758854E-2
1.788401013E0,-2.138028294E-2,-7.452555746E-2,-3.359758854E-2
1.790416018E0,-1.954768784E-2,-7.330382615E-2,-2.748893574E-2
1.792398870E0,-2.321287990E-2,-7.391469181E-2,-2.809980139E-2
1.794413644E0,-2.076941915E-2,-7.330382615E-2,-2.626720630E-2
1.796396958E0,-2.199114859E-2,-7.452555746E-2,-2.504547499E-2
1.798411732E0,-2.260201424E-2,-7.757988572E-2,-2.321287990E-2
1.800393969E0,-2.076941915E-2,-7.452555746E-2,-2.382374369E-2
1.802408743E0,-2.260201424E-2,-7.269296050E-2,-2.443460934E-2
1.804392672E0,-1.954768784E-2,-7.391469181E-2,-2.260201424E-2
1.806406292E0,-1.649336144E-2,-7.574728876E-2,-2.199114859E-2
1.808389991E0,-1.527163107E-2,-7.635815442E-2,-2.443460934E-2
1.810404457E0,-1.343903504E-2,-7.757988572E-2,-2.809980139E-2
1.812388386E0,-6.108652335E-3,-7.574728876E-2,-2.932153270E-2
1.814403238E0,-5.497787148E-3,-7.574728876E-2,-3.176499158E-2
1.816416705E0,-4.276056774E-3,-7.513642311E-2,-3.604105115E-2
1.818399556E0,3.054326167E-3,-7.269296050E-2,-4.214970022E-2
1.820414870E0,2.443460980E-3,-7.208210230E-2,-4.459316283E-2
1.822397413E0,7.330383174E-3,-7.024950534E-2,-5.009094998E-2
1.824411881E0,1.343903504E-2,-6.597344577E-2,-5.619960278E-2
1.826396117E0,1.710422710E-2,-6.597344577E-2,-5.619960278E-2
1.828409738E0,2.321287990E-2,-6.475171447E-2,-6.536258012E-2
1.830393666E0,3.115412779E-2,-6.047565863E-2,-7.269296050E-2
1.832407595E0,3.481931984E-2,-5.681046844E-2,-7.819075137E-2
1.834391831E0,4.092797264E-2,-5.681046844E-2,-8.491026610E-2
1.836405145E0,5.009094998E-2,-5.131268129E-2,-9.529497474E-2
1.838389073E0,5.375614017E-2,-5.192354694E-2,-9.896016866E-2
1.840400156E0,6.047565863E-2,-4.825835302E-2,-1.117883399E-1
1.842417468E0,6.414084882E-2,-4.764748737E-2,-1.240056455E-1
1.844400858E0,6.841690838E-2,-4.703662544E-2,-1.295034289E-1
1.846415556E0,7.574728876E-2,-5.009094998E-2,-1.423316002E-1
1.848398715E0,7.757988572E-2,-5.009094998E-2,-1.502728462E-1
1.850413414E0,8.185594529E-2,-5.192354694E-2,-1.661553532E-1
1.852397495E0,8.796459436E-2,-5.070181563E-2,-1.795943826E-1
1.854411886E0,9.162978828E-2,-5.070181563E-2,-1.887573600E-1
1.856394122E0,9.162978828E-2,-5.192354694E-2,-2.064724565E-1
1.858409205E0,9.529497474E-2,-4.764748737E-2,-2.241875380E-1
1.860393133E0,9.957103431E-2,-4.703662544E-2,-2.333505303E-1
1.862406139E0,1.032362282E-1,-4.092797264E-2,-2.492330223E-1
1.864390067E0,1.117883399E-1,-3.359758854E-2,-2.663372457E-1
1.866404227E0,1.117883399E-1,-2.993239649E-2,-2.748893499E-1
1.868417847E0,1.240056455E-1,-2.076941915E-2,-2.926044464E-1
1.870401853E0,1.356120855E-1,-1.099557430E-2,-3.060434759E-1
1.872416550E0,1.423316002E-1,-6.719517522E-3,-3.152064681E-1
1.874401172E0,1.557706445E-1,3.665191587E-3,-3.298672438E-1
1.876414485E0,1.624901593E-1,1.038470957E-2,-3.371976018E-1
1.878398106E0,1.765400618E-1,1.649336144E-2,-3.530801237E-1
1.880411957E0,1.924225539E-1,2.443460934E-2,-3.659082949E-1
1.882396271E0,1.997529417E-1,3.115412779E-2,-3.756821156E-1
1.884409584E0,2.168571651E-1,4.031710699E-2,-3.903428912E-1
1.886392974E0,2.364048511E-1,5.070181563E-2,-4.062253833E-1
1.888407441E0,2.467895597E-1,5.864306539E-2,-4.166100919E-1
1.890391447E0,2.657263875E-1,7.024950534E-2,-4.312708676E-1
1.892404682E0,2.889392674E-1,8.552113175E-2,-4.520402849E-1
1.894390150E0,2.999348342E-1,9.224065393E-2,-4.593706727E-1
1.896403078E0,3.213151097E-1,1.099557430E-1,-4.783074856E-1
1.898417546E0,3.481931984E-1,1.264491081E-1,-4.990769029E-1
1.900401012E0,3.597996235E-1,1.386664063E-1,-5.088507533E-1
1.902415480E0,3.872885704E-1,1.582140923E-1,-5.265658498E-1
1.904398177E0,4.184426963E-1,1.771509200E-1,-5.485569835E-1
1.906412721E0,4.337143302E-1,1.899790913E-1,-5.577199459E-1
1.908396342E0,4.612032473E-1,2.156354338E-1,-5.772676468E-1
1.910410809E0,4.801400900E-1,2.266310006E-1,-5.858197808E-1
1.912394276E0,5.119050741E-1,2.498438805E-1,-6.041457057E-1
1.914408744E0,5.461135507E-1,2.730567753E-1,-6.212499738E-1
1.916393287E0,5.662720799E-1,2.822197378E-1,-6.285803318E-1
1.918406601E0,6.041457057E-1,3.066543639E-1,-6.462954283E-1
1.920389606E0,6.389650702E-1,3.262020350E-1,-6.585127115E-1
1.922403535E0,6.585127115E-1,3.341432810E-1,-6.646214128E-1
1.924418617E0,7.012733221E-1,3.536909819E-1,-6.750060916E-1
1.926401623E0,7.409795523E-1,3.677408695E-1,-6.866125464E-1
1.928416705E0,7.623597980E-1,3.750712574E-1,-6.927211881E-1
1.930399788E0,8.075638413E-1,3.860668242E-1,-6.994407177E-1
1.932413639E0,8.484918475E-1,3.946189582E-1,-7.061602473E-1
1.934398875E0,8.686503768E-1,3.988949955E-1,-7.098253965E-1
1.936411573E0,9.138544202E-1,4.031710625E-1,-7.147123218E-1
1.938395271E0,9.578366876E-1,4.086688459E-1,-7.159340382E-1
1.940409968E0,9.798278809E-1,4.074471295E-1,-7.177666426E-1
1.942393359E0,1.023810148E0,4.080579877E-1,-7.202101350E-1
1.944407210E0,1.045801282E0,4.080579877E-1,-7.183775306E-1
1.946391832E0,1.087950945E0,4.056145251E-1,-7.177666426E-1
1.948405683E0,1.130711555E0,4.007275999E-1,-7.159340382E-1
1.950388766E0,1.149037480E0,3.988949955E-1,-7.122688890E-1
1.952403001E0,1.189354658E0,3.933972120E-1,-7.067710757E-1
1.954417469E0,1.230893493E0,3.836233616E-1,-7.043276429E-1
1.956400551E0,1.247386813E0,3.793473244E-1,-6.994407177E-1
1.958415249E0,1.287093043E0,3.683517575E-1,-6.908885837E-1
1.960398716E0,1.326799273E0,3.549126983E-1,-6.835582256E-1
1.962413183E0,1.341460109E0,3.500257730E-1,-6.780604124E-1
1.964396804E0,1.379944563E0,3.335324228E-1,-6.695083380E-1
1.966409810E0,1.415985584E0,3.164281845E-1,-6.597344875E-1
1.968394969E0,1.435533285E0,3.066543639E-1,-6.499606371E-1
1.970409436E0,1.468520045E0,2.871066630E-1,-6.383541822E-1
1.972392210E0,1.505782843E0,2.663372457E-1,-6.243042946E-1
1.974407369E0,1.523497939E0,2.577851415E-1,-6.194173694E-1
1.976389837E0,1.560760736E0,2.345722616E-1,-6.078109145E-1
1.978404611E0,1.576643229E0,2.223549485E-1,-6.017022729E-1
1.980418771E0,1.613295078E0,1.960877478E-1,-5.882632136E-1
1.982402391E0,1.646892667E0,1.685988009E-1,-5.797111392E-1
1.984416013E0,1.665829539E0,1.527163088E-1,-5.748242140E-1
1.986400556E0,1.699427128E0,1.233947799E-1,-5.644394755E-1
1.988413870E0,1.734246373E0,9.040805697E-2,-5.571091175E-1
1.990397798E0,1.754405022E0,7.452555746E-2,-5.540547967E-1
1.992411419E0,1.786780834E0,4.092797264E-2,-5.491678715E-1
1.994396270E0,1.822211027E0,6.719517522E-3,-5.455026627E-1
1.996409815E0,1.838704348E0,-1.038470957E-2,-5.455026627E-1
1.998392974E0,1.873523712E0,-4.886921868E-2,-5.400048494E-1
2.000404057E0,1.909564734E0,-8.979719132E-2,-5.424483418E-1
2.002420985E0,1.921782017E0,-1.050688252E-1,-5.424483418E-1
2.004405606E0,1.957212210E0,-1.453859210E-1,-5.436700583E-1
2.006388996E0,1.974927306E0,-1.655444801E-1,-5.430592299E-1
2.008403156E0,2.010968447E0,-2.058615834E-1,-5.485569835E-1
2.010416622E0,2.046398640E0,-2.486221492E-1,-5.503895879E-1
2.012400705E0,2.062891960E0,-2.706133127E-1,-5.503895879E-1
2.014415710E0,2.097711325E0,-3.121521473E-1,-5.534439087E-1
2.016398255E0,2.133752346E0,-3.518583775E-1,-5.613851547E-1
2.018413029E0,2.150856495E0,-3.738495409E-1,-5.644394755E-1
2.020396650E0,2.182010651E0,-4.086688459E-1,-5.699372888E-1
2.022410501E0,2.212553978E0,-4.428772926E-1,-5.754350424E-1
2.024393969E0,2.227825642E0,-4.599815309E-1,-5.791002512E-1
2.026408128E0,2.257147074E0,-4.893030524E-1,-5.870414972E-1
2.028391826E0,2.284636021E0,-5.125159621E-1,-5.900958180E-1
2.030405985E0,2.298074961E0,-5.222898126E-1,-5.925393105E-1
2.032389683E0,2.320677042E0,-5.387831330E-1,-5.974262357E-1
2.034405073E0,2.345722437E0,-5.461135507E-1,-6.029239893E-1
2.036388079E0,2.356718063E0,-5.491678715E-1,-6.065891981E-1
2.038401391E0,2.376265764E0,-5.479460955E-1,-6.090326309E-1
2.040414859E0,2.386039734E0,-5.479460955E-1,-6.108652353E-1
2.042399787E0,2.403754711E0,-5.387831330E-1,-6.157521605E-1
2.044414870E0,2.420858860E0,-5.222898126E-1,-6.200281978E-1
2.046396414E0,2.428800106E0,-5.112941861E-1,-6.224716902E-1
2.048411573E0,2.443460941E0,-4.868595898E-1,-6.261368990E-1
2.050394886E0,2.459343433E0,-4.550946057E-1,-6.304129362E-1
2.052409123E0,2.464230299E0,-4.367686510E-1,-6.334672570E-1
2.054393666E0,2.481334686E0,-3.958406746E-1,-6.365215778E-1
2.056407518E0,2.495384455E0,-3.518583775E-1,-6.401867867E-1
2.058390985E0,2.503936529E0,-3.274237812E-1,-6.444628239E-1
2.060405683E0,2.517986536E0,-2.791654170E-1,-6.469063163E-1
2.062389073E0,2.532036543E0,-2.247984111E-1,-6.499606371E-1
2.064402925E0,2.539366722E0,-1.997529417E-1,-6.511823535E-1
2.066417161E0,2.555249214E0,-1.453859210E-1,-6.560692787E-1
2.068400859E0,2.564412355E0,-9.040805697E-2,-6.585127115E-1
2.070414941E0,2.570520878E0,-6.108652428E-2,-6.585127115E-1
2.072398101E0,2.584570885E0,-1.038470957E-2,-6.609562039E-1
2.074414337E0,2.591901302E0,1.588249579E-2,-6.579018831E-1
2.076396189E0,2.602896690E0,6.658431143E-2,-6.603453159E-1
2.078410425E0,2.610838175E0,1.123992056E-1,-6.591235995E-1
2.080393738E0,2.616335869E0,1.331686229E-1,-6.579018831E-1
2.082408282E0,2.627331495E0,1.765400618E-1,-6.542366743E-1
2.084391980E0,2.635883570E0,2.138028294E-1,-6.493497491E-1
2.086406370E0,2.639548779E0,2.333505303E-1,-6.469063163E-1
2.088390067E0,2.648100853E0,2.675589919E-1,-6.401867867E-1
2.090403996E0,2.654820442E0,2.981022298E-1,-6.322455406E-1
2.092417464E0,2.659707308E0,3.121521473E-1,-6.273586154E-1
2.094403084E0,2.668259382E0,3.408628106E-1,-6.163630486E-1
2.096416321E0,2.674368143E0,3.659082949E-1,-6.072000265E-1
2.098399095E0,2.678033352E0,3.762930036E-1,-6.010913849E-1
2.100414177E0,2.685363531E0,3.964515328E-1,-5.870414972E-1
2.102397568E0,2.690250635E0,4.147774875E-1,-5.742133260E-1
2.104411650E0,2.693304777E0,4.233296216E-1,-5.681046844E-1
2.106395425E0,2.693915844E0,4.398229718E-1,-5.583308339E-1
2.108408968E0,2.698191881E0,4.440990388E-1,-5.491678715E-1
2.110392974E0,2.698191881E0,4.587597847E-1,-5.381723046E-1
2.112407441E0,2.701246023E0,4.697553813E-1,-5.277875662E-1
2.114391678E0,2.703078747E0,4.752531648E-1,-5.241223574E-1
2.116404683E0,2.706133127E0,4.856378734E-1,-5.192354321E-1
2.118418535E0,2.707354784E0,4.996877611E-1,-5.131267905E-1
2.120402771E0,2.710409164E0,5.051855445E-1,-5.119050741E-1
2.122417546E0,2.713463306E0,5.149593949E-1,-5.070181489E-1
2.124401012E0,2.716517687E0,5.265658498E-1,-5.088507533E-1
2.126413941E0,2.719572067E0,5.332853794E-1,-5.094616413E-1
2.128398254E0,2.724458933E0,5.442809463E-1,-5.088507533E-1
2.130412645E0,2.728124142E0,5.546656251E-1,-5.100724697E-1
2.132396342E0,2.729956865E0,5.607742667E-1,-5.100724697E-1
2.134411810E0,2.738508940E0,5.687155724E-1,-5.149593949E-1
2.136393968E0,2.740952253E0,5.772676468E-1,-5.180137157E-1
2.138408051E0,2.746450186E0,5.888741016E-1,-5.210680366E-1
2.140392364E0,2.755002260E0,5.962044597E-1,-5.216789246E-1
2.142407216E0,2.759278297E0,6.023131609E-1,-5.229006410E-1
2.144389683E0,2.767830372E0,6.108652353E-1,-5.259549618E-1
2.146404381E0,2.776382446E0,6.163630486E-1,-5.247332454E-1
2.148418001E0,2.778215170E0,6.206390858E-1,-5.259549618E-1
2.150401084E0,2.787988901E0,6.249151230E-1,-5.229006410E-1
2.152415551E0,2.790432453E0,6.249151230E-1,-5.229006410E-1
2.154401018E0,2.795319319E0,6.273586154E-1,-5.192354321E-1
2.156413639E0,2.795930147E0,6.273586154E-1,-5.167919993E-1
2.158397645E0,2.798373699E0,6.285803318E-1,-5.100724697E-1
2.160410573E0,2.799595356E0,6.310238242E-1,-5.057964325E-1
2.162394887E0,2.798373699E0,6.340781450E-1,-4.996877611E-1
2.164409430E0,2.797762871E0,6.407976151E-1,-4.899139404E-1
2.166392128E0,2.794097662E0,6.432411075E-1,-4.850270152E-1
2.168407210E0,2.796540976E0,6.517932415E-1,-4.776966274E-1
2.170390678E0,2.794097662E0,6.554583907E-1,-4.691445231E-1
2.172404529E0,2.788599730E0,6.664539576E-1,-4.575380683E-1
2.174419843E0,2.784323692E0,6.768386960E-1,-4.471533597E-1
2.176402925E0,2.786156416E0,6.847799420E-1,-4.434881806E-1
2.178417085E0,2.781880379E0,6.994407177E-1,-4.324925840E-1
2.180401090E0,2.777604342E0,7.128797174E-1,-4.202753007E-1
2.182415019E0,2.776993513E0,7.202101350E-1,-4.166100919E-1
2.184397793E0,2.774549961E0,7.373143435E-1,-4.068362415E-1
2.186412491E0,2.767830372E0,7.538077235E-1,-3.995058835E-1
2.188396496E0,2.765387058E0,7.623597980E-1,-3.958406746E-1
2.190410656E0,2.758667469E0,7.782423496E-1,-3.921754956E-1
2.192393199E0,2.755613089E0,7.959573865E-1,-3.854559660E-1
2.194409821E0,2.748893499E0,8.051204085E-1,-3.866777122E-1
2.196391595E0,2.740952253E0,8.210029006E-1,-3.817907870E-1
2.198405755E0,2.732400179E0,8.387179971E-1,-3.787364662E-1
2.200388837E0,2.728734970E0,8.448266387E-1,-3.762930036E-1
2.202404843E0,2.722626448E0,8.594874144E-1,-3.732386529E-1
2.204418771E0,2.712241650E0,8.759807348E-1,-3.726277947E-1
2.206400315E0,2.709187269E0,8.820894361E-1,-3.720169365E-1
2.208415628E0,2.698802710E0,8.967501521E-1,-3.695734739E-1
2.210399096E0,2.695748329E0,9.010262489E-1,-3.671300113E-1
2.212414408E0,2.686585426E0,9.132435322E-1,-3.652974069E-1
2.214398106E0,2.681087494E0,9.205739498E-1,-3.610213697E-1
2.216412035E0,2.674368143E0,9.248499870E-1,-3.597996235E-1
2.218395040E0,2.664594173E0,9.315695167E-1,-3.561344445E-1
2.220409815E0,2.655431271E0,9.370672703E-1,-3.536909819E-1
2.222393589E0,2.649322510E0,9.382890463E-1,-3.506366611E-1
2.224407364E0,2.642603159E0,9.413433671E-1,-3.475823104E-1
2.226390754E0,2.634661913E0,9.437867999E-1,-3.469714522E-1
2.228405299E0,2.630385637E0,9.443976879E-1,-3.469714522E-1
2.230419073E0,2.624277115E0,9.474520087E-1,-3.463605940E-1
2.232402156E0,2.617557526E0,9.511171579E-1,-3.451388776E-1
2.234418161E0,2.614503145E0,9.523389339E-1,-3.463605940E-1
2.236401013E0,2.606561899E0,9.560040832E-1,-3.488040566E-1
2.238415172E0,2.604118586E0,9.596692920E-1,-3.518583775E-1
2.240397639E0,2.598620653E0,9.645562172E-1,-3.530801237E-1
2.242411721E0,2.593122959E0,9.669997096E-1,-3.567453027E-1
2.244395804E0,2.591290474E0,9.700540304E-1,-3.579670191E-1
2.246410271E0,2.583349228E0,9.773843884E-1,-3.640756905E-1
2.248393354E0,2.573575258E0,9.859365225E-1,-3.652974069E-1
2.250408128E0,2.569910049E0,9.859365225E-1,-3.677408695E-1
2.252391826E0,2.562579632E0,9.914342761E-1,-3.720169365E-1
2.254406908E0,2.555860281E0,1.003040791E0,-3.756821156E-1
2.256389606E0,2.552805901E0,1.003651619E0,-3.781255782E-1
2.258404150E0,2.541199446E0,1.011592865E0,-3.799581826E-1
2.260418540E0,2.531425476E0,1.020144939E0,-3.805690408E-1
2.262401622E0,2.526538610E0,1.027475357E0,-3.799581826E-1
2.264415475E0,2.517375708E0,1.036638379E0,-3.805690408E-1
2.266399249E0,2.506990910E0,1.050077319E0,-3.781255782E-1
2.268414024E0,2.501493216E0,1.058629513E0,-3.756821156E-1
2.270397106E0,2.494773626E0,1.072679400E0,-3.683517575E-1
2.272411497E0,2.488665104E0,1.082453251E0,-3.665191531E-1
2.274394886E0,2.481945515E0,1.095281363E0,-3.597996235E-1
2.276409661E0,2.469117403E0,1.114829063E0,-3.506366611E-1
2.278393359E0,2.465452194E0,1.123992085E0,-3.469714522E-1
2.280406288E0,2.458121777E0,1.139874578E0,-3.384193480E-1
2.282390985E0,2.448347807E0,1.161254883E0,-3.280346394E-1
2.284405376E0,2.444682598E0,1.171639562E0,-3.237585723E-1
2.286418304E0,2.436741352E0,1.192408919E0,-3.133738637E-1
2.288403002E0,2.425745964E0,1.214400053E0,-3.011565804E-1
2.290416853E0,2.422080755E0,1.224173903E0,-2.968805134E-1
2.292399936E0,2.413528681E0,1.246165156E0,-2.864958048E-1
2.294415557E0,2.403754711E0,1.267545342E0,-2.761110961E-1
2.296398332E0,2.399478674E0,1.277319193E0,-2.706133127E-1
2.298412875E0,2.392759085E0,1.298699498E0,-2.590068579E-1
2.300396189E0,2.387261391E0,1.303586483E0,-2.541199327E-1
2.302410040E0,2.382985353E0,1.323745012E0,-2.467895597E-1
2.304393431E0,2.376265764E0,1.339016676E0,-2.394591719E-1
2.306408820E0,2.371989727E0,1.346346974E0,-2.351831198E-1
2.308391288E0,2.366492033E0,1.357953429E0,-2.284636050E-1
2.310405524E0,2.359161615E0,1.369559884E0,-2.235766798E-1
2.312389453E0,2.356718063E0,1.372614264E0,-2.211332172E-1
2.314404919E0,2.349387646E0,1.382387996E0,-2.168571651E-1
2.316417848E0,2.342057467E0,1.387274981E0,-2.138028294E-1
2.318401777E0,2.340835571E0,1.389107585E0,-2.119702399E-1
2.320412321E0,2.332894325E0,1.392161846E0,-2.076941878E-1
2.322398788E0,2.328618288E0,1.392161846E0,-2.046398520E-1
2.324413255E0,2.323731422E0,1.391551018E0,-2.034181207E-1
2.326396875E0,2.318233490E0,1.390329242E0,-1.997529417E-1
2.328410805E0,2.309070587E0,1.382998943E0,-1.985312104E-1
2.330395040E0,2.305405378E0,1.380555511E0,-1.936442852E-1
2.332408585E0,2.298074961E0,1.372003317E0,-1.924225539E-1
2.334393898E0,2.292577267E0,1.366505504E0,-1.905899495E-1
2.336407750E0,2.281581640E0,1.353066564E0,-1.857030392E-1
2.338390755E0,2.270586014E0,1.340238333E0,-1.844813079E-1
2.340404915E0,2.266309977E0,1.336573124E0,-1.802052408E-1
2.342418766E0,2.255314589E0,1.324966669E0,-1.771509200E-1
2.344402771E0,2.247373343E0,1.311527729E0,-1.692096740E-1
2.346416392E0,2.243097067E0,1.305419087E0,-1.673770845E-1
2.348400089E0,2.238821030E0,1.293812633E0,-1.643227488E-1
2.350415403E0,2.232712507E0,1.285260439E0,-1.563815027E-1
2.352398485E0,2.232101679E0,1.281595230E0,-1.545489132E-1
2.354412414E0,2.227825642E0,1.274264932E0,-1.472185254E-1
2.356396034E0,2.217440844E0,1.273653984E0,-1.411098689E-1
2.358409656E0,2.214997292E0,1.272432327E0,-1.362229437E-1
2.360392661E0,2.210721254E0,1.273043156E0,-1.313360333E-1
2.362407513E0,2.202780008E0,1.277930140E0,-1.215621829E-1
2.364392133E0,2.200947523E0,1.282817006E0,-1.191187203E-1
2.366405293E0,2.197282314E0,1.287093043E0,-1.081231460E-1
2.368419837E0,2.196060658E0,1.295645237E0,-1.044579595E-1
2.370403766E0,2.193006277E0,1.304197311E0,-9.529497474E-2
2.372417694E0,2.186286688E0,1.311527729E0,-8.613199741E-2
2.374402238E0,2.186286688E0,1.319468975E0,-8.368854225E-2
2.376415243E0,2.182621479E0,1.329242826E0,-7.269296050E-2
2.378398942E0,2.177123785E0,1.340849161E0,-6.291911751E-2
2.380413639E0,2.177734613E0,1.347568750E0,-5.864306539E-2
2.382397107E0,2.173458576E0,1.356120825E0,-4.948008433E-2
2.384410881E0,2.171015024E0,1.367116451E0,-4.153883830E-2
2.386394964E0,2.171625853E0,1.370170712E0,-3.604105115E-2
2.388408507E0,2.166128159E0,1.381777167E0,-2.504547499E-2
2.390392129E0,2.160630465E0,1.389107585E0,-1.527163107E-2
2.392406057E0,2.160019398E0,1.387885809E0,-1.038470957E-2
2.394390370E0,2.153300047E0,1.393383622E0,1.832595794E-3
2.396404760E0,2.145969629E0,1.393383622E0,1.221730467E-2
2.398418381E0,2.141082764E0,1.395827055E0,1.588249579E-2
2.400401694E0,2.134974003E0,1.393383622E0,2.504547499E-2
2.402415623E0,2.129476309E0,1.391551018E0,2.993239649E-2
2.404400474E0,2.122756720E0,1.387274981E0,4.459316283E-2
2.406414326E0,2.113593817E0,1.381777167E0,5.558873713E-2
2.408397793E0,2.107485056E0,1.380555511E0,5.986479297E-2
2.410412568E0,2.097100496E0,1.373225093E0,7.452555746E-2
2.412395342E0,2.087326527E0,1.365894675E0,8.979719132E-2
2.414410733E0,2.083661318E0,1.362229466E0,9.590584040E-2
2.416393200E0,2.070833206E0,1.351844788E0,1.105666086E-1
2.418407667E0,2.062891960E0,1.342681766E0,1.252273768E-1
2.420391672E0,2.057394028E0,1.336573124E0,1.350012124E-1
2.422406063E0,2.045787811E0,1.323134065E0,1.490511149E-1
2.424389760E0,2.036624670E0,1.307862520E0,1.637118906E-1
2.426403612E0,2.029905319E0,1.298088670E0,1.734857261E-1
2.428417540E0,2.021353006E0,1.282206178E0,1.887573600E-1
2.430400854E0,2.017076969E0,1.271210551E0,1.985312104E-1
2.432415936E0,2.006081581E0,1.252273798E0,2.144137025E-1
2.434399096E0,1.994475007E0,1.229060888E0,2.296853364E-1
2.436413562E0,1.988366365E0,1.216843605E0,2.351831198E-1
2.438396338E0,1.979814291E0,1.193019867E0,2.516764700E-1
2.440410112E0,1.968207836E0,1.164309144E0,2.645046413E-1
2.442395733E0,1.960266590E0,1.151481032E0,2.700024247E-1
2.444409277E0,1.949881911E0,1.122159481E0,2.840523422E-1
2.446392052E0,1.939497113E0,1.092227101E0,2.956587672E-1
2.448407365E0,1.934610248E0,1.073901057E0,3.011565804E-1
2.450390448E0,1.924225569E0,1.039692640E0,3.109304011E-1
2.452405222E0,1.913840771E0,1.006095052E0,3.200933933E-1
2.454419151E0,1.908343077E0,9.877691269E-1,3.237585723E-1
2.456403464E0,1.899180055E0,9.523389339E-1,3.335324228E-1
2.458416316E0,1.888795376E0,9.150761366E-1,3.408628106E-1
2.460401321E0,1.882686734E0,8.967501521E-1,3.433062732E-1
2.462414173E0,1.872301936E0,8.594874144E-1,3.518583775E-1
2.464397255E0,1.866804242E0,8.423831463E-1,3.549126983E-1
2.466412107E0,1.858862996E0,8.045095205E-1,3.597996235E-1
2.468396035E0,1.847256541E0,7.666358948E-1,3.616322279E-1
2.470409579E0,1.839926124E0,7.476990819E-1,3.640756905E-1
2.472393277E0,1.827708840E0,7.104362845E-1,3.689626157E-1
2.474408743E0,1.818545818E0,6.731734872E-1,3.683517575E-1
2.476391442E0,1.811215401E0,6.572909951E-1,3.701843321E-1
2.478405908E0,1.798998117E0,6.200281978E-1,3.732386529E-1
2.480417991E0,1.782504797E0,5.882632136E-1,3.738495409E-1
2.482404073E0,1.774563551E0,5.729916096E-1,3.769038618E-1
2.484417925E0,1.756848454E0,5.442809463E-1,3.787364662E-1
2.486401007E0,1.737300754E0,5.167919993E-1,3.781255782E-1
2.488414936E0,1.726916075E0,5.051855445E-1,3.793473244E-1
2.490399557E0,1.705535769E0,4.844161272E-1,3.805690408E-1
2.492412793E0,1.686598897E0,4.612032473E-1,3.836233616E-1
2.494397645E0,1.674992561E0,4.544837475E-1,3.824016452E-1
2.496410574E0,1.656055689E0,4.373795092E-1,3.891211748E-1
2.498394886E0,1.645671010E0,4.324925840E-1,3.903428912E-1
2.500408815E0,1.623679876E0,4.190535545E-1,3.921754956E-1
2.502392205E0,1.605964780E0,4.105014503E-1,3.970624208E-1
2.504406288E0,1.594969153E0,4.056145251E-1,3.988949955E-1
2.506420524E0,1.575421453E0,3.982841372E-1,4.031710625E-1
2.508403914E0,1.556484699E0,3.958406746E-1,4.062253833E-1
2.510418689E0,1.544878244E0,3.964515328E-1,4.092797041E-1
2.512401772E0,1.524108768E0,3.933972120E-1,4.141666293E-1
2.514417392E0,1.502117634E0,3.921754956E-1,4.196644127E-1
2.516400552E0,1.491122007E0,3.927863538E-1,4.202753007E-1
2.518414326E0,1.467298269E0,3.927863538E-1,4.251621962E-1
2.520396870E0,1.443474531E0,3.927863538E-1,4.300491214E-1
2.522412875E0,1.431257248E0,3.927863538E-1,4.318817258E-1
2.524395882E0,1.408655286E0,3.921754956E-1,4.337143302E-1
2.526409117E0,1.381777167E0,3.897320330E-1,4.361577928E-1
2.528393816E0,1.365894675E0,3.921754956E-1,4.398229718E-1
2.530407359E0,1.340849161E0,3.891211748E-1,4.379903674E-1
2.532391673E0,1.326799273E0,3.903428912E-1,4.404338300E-1
2.534405524E0,1.300532103E0,3.903428912E-1,4.422664344E-1
2.536419607E0,1.275486588E0,3.891211748E-1,4.422664344E-1
2.538403073E0,1.262047648E0,3.897320330E-1,4.410447180E-1
2.540418387E0,1.234558702E0,3.848451078E-1,4.434881806E-1
2.542401469E0,1.206458807E0,3.836233616E-1,4.447098970E-1
2.544415013E0,1.193630695E0,3.811798990E-1,4.410447180E-1
2.546398788E0,1.167974353E0,3.769038618E-1,4.410447180E-1
2.548412871E0,1.139874578E0,3.695734739E-1,4.386012554E-1
2.550397260E0,1.123992085E0,3.695734739E-1,4.379903674E-1
2.552410728E0,1.097724795E0,3.622430861E-1,4.337143302E-1
2.554395964E0,1.068403363E0,3.561344445E-1,4.306600094E-1
2.556408970E0,1.055575132E0,3.530801237E-1,4.269948006E-1
2.558391667E0,1.029307961E0,3.463605940E-1,4.263839424E-1
2.560404365E0,1.003040791E0,3.384193480E-1,4.196644127E-1
2.562421524E0,9.883799553E-1,3.347541690E-1,4.178318381E-1
2.564403761E0,9.615018964E-1,3.268128932E-1,4.117231667E-1
2.566419074E0,9.498954415E-1,3.243694305E-1,4.092797041E-1
2.568402849E0,9.230173826E-1,3.139847219E-1,4.043927789E-1
2.570415777E0,8.985827565E-1,3.042109013E-1,3.970624208E-1
2.572400014E0,8.833111525E-1,2.993239760E-1,3.933972120E-1
2.574414480E0,8.564330935E-1,2.871066630E-1,3.860668242E-1
2.576398486E0,8.307767510E-1,2.755002379E-1,3.799581826E-1
2.578412030E0,8.173376918E-1,2.693915665E-1,3.738495409E-1
2.580396113E0,7.874053121E-1,2.590068579E-1,3.671300113E-1
2.582409656E0,7.623597980E-1,2.412917763E-1,3.573561609E-1
2.584393046E0,7.470881939E-1,2.345722616E-1,3.561344445E-1
2.586406898E0,7.195992470E-1,2.211332172E-1,3.481931984E-1
2.588391134E0,6.927211881E-1,2.058615834E-1,3.408628106E-1
2.590405370E0,6.792821288E-1,1.960877478E-1,3.353650272E-1
2.592419838E0,6.536257863E-1,1.820378453E-1,3.243694305E-1
2.594403843E0,6.420193911E-1,1.740965992E-1,3.237585723E-1
2.596417387E0,6.200281978E-1,1.600466967E-1,3.139847219E-1
2.598401392E0,5.968153477E-1,1.435533315E-1,3.078760803E-1
2.600414859E0,5.876523852E-1,1.356120855E-1,3.054326177E-1
2.602399480E0,5.632177591E-1,1.215621829E-1,2.962696552E-1
2.604413101E0,5.375614166E-1,1.081231460E-1,2.858849466E-1
2.606395876E0,5.271766782E-1,9.957103431E-2,2.846632004E-1
2.608410035E0,4.984660447E-1,8.307767659E-2,2.773328125E-1
2.610394656E0,4.734205604E-1,7.208210230E-2,2.687807083E-1
2.612408738E0,4.593706727E-1,6.841690838E-2,2.657263875E-1
2.614392206E0,4.312708676E-1,5.558873713E-2,2.577851415E-1
2.616406057E0,4.013384581E-1,4.214970022E-2,2.522873580E-1
2.618420832E0,3.885102868E-1,3.726277873E-2,2.480112910E-1
2.620405760E0,3.579670191E-1,2.199114859E-2,2.425135076E-1
2.622418612E0,3.298672438E-1,1.099557430E-2,2.382374406E-1
2.624401771E0,3.127630055E-1,7.330383174E-3,2.351831198E-1
2.626416239E0,2.816088796E-1,-6.719517522E-3,2.315179259E-1
2.628399551E0,2.651155293E-1,-1.160643995E-2,2.278527319E-1
2.630414096E0,2.315179259E-1,-2.687807009E-2,2.254092693E-1
2.632397716E0,1.979203373E-1,-3.726277873E-2,2.205223590E-1
2.634413107E0,1.820378453E-1,-4.031710699E-2,2.205223590E-1
2.636395343E0,1.447750628E-1,-4.948008433E-2,2.174680233E-1
2.638410041E0,1.105666086E-1,-5.681046844E-2,2.193006277E-1
2.640392277E0,9.346238524E-2,-6.536258012E-2,2.193006277E-1
2.642406744E0,5.925392732E-2,-7.208210230E-2,2.150245607E-1
2.644391057E0,2.504547499E-2,-7.941248268E-2,2.168571651E-1
2.646404601E0,9.162978269E-3,-8.613199741E-2,2.180788964E-1
2.648419299E0,-2.504547499E-2,-9.285151958E-2,2.186897546E-1
2.650403612E0,-5.803219974E-2,-1.001819000E-1,2.186897546E-1
2.652416540E0,-7.269296050E-2,-1.038470939E-1,2.193006277E-1
2.654401547E0,-1.075122803E-1,-1.117883399E-1,2.199114859E-1
2.656415936E0,-1.404990107E-1,-1.166752651E-1,2.162462920E-1
2.658399019E0,-1.582140923E-1,-1.203404516E-1,2.168571651E-1
2.660413486E0,-1.893682331E-1,-1.227839142E-1,2.125810981E-1
2.662396876E0,-2.058615834E-1,-1.270599663E-1,2.131919712E-1
2.664411343E0,-2.376265824E-1,-1.313360333E-1,2.076941878E-1
2.666394426E0,-2.681698501E-1,-1.350012124E-1,2.009746730E-1
2.668408585E0,-2.846632004E-1,-1.368338168E-1,2.009746730E-1
2.670392667E0,-3.152064681E-1,-1.404990107E-1,1.942551434E-1
2.672405903E0,-3.420845270E-1,-1.447750628E-1,1.863138974E-1
2.674420678E0,-3.573561609E-1,-1.459967941E-1,1.820378453E-1
2.676404299E0,-3.848451078E-1,-1.508837193E-1,1.740965992E-1
2.678418459E0,-4.117231667E-1,-1.569923609E-1,1.661553532E-1
2.680401002E0,-4.233296216E-1,-1.618792862E-1,1.631010175E-1
2.682416931E0,-4.453207552E-1,-1.698205322E-1,1.527163088E-1
2.684399475E0,-4.685336351E-1,-1.795943826E-1,1.429424733E-1
2.686413250E0,-4.807509482E-1,-1.857030392E-1,1.380555481E-1
2.688397332E0,-5.002986193E-1,-1.966986060E-1,1.301143020E-1
2.690412415E0,-5.235115290E-1,-2.113593817E-1,1.178969890E-1
2.692395804E0,-5.351179838E-1,-2.168571651E-1,1.123992056E-1
2.694411118E0,-5.552765131E-1,-2.302961946E-1,1.026253626E-1
2.696393662E0,-5.674937963E-1,-2.376265824E-1,9.651670605E-2
2.698407437E0,-5.845980644E-1,-2.541199327E-1,8.613199741E-2
2.700390596E0,-6.023131609E-1,-2.693915665E-1,7.819075137E-2
2.702405063E0,-6.114761233E-1,-2.785545588E-1,7.208210230E-2
2.704418837E0,-6.285803318E-1,-2.968805134E-1,6.414084882E-2
2.706402305E0,-6.438519955E-1,-3.164281845E-1,5.375614017E-2
2.708417002E0,-6.554583907E-1,-3.237585723E-1,4.825835302E-2
2.710400469E0,-6.701191664E-1,-3.451388776E-1,3.848451003E-2
2.712415244E0,-6.872233748E-1,-3.659082949E-1,2.871066704E-2
2.714398941E0,-6.963863969E-1,-3.756821156E-1,2.748893574E-2
2.716413640E0,-7.116580009E-1,-3.940080702E-1,1.832595654E-2
2.718396722E0,-7.293730974E-1,-4.153883755E-1,1.221730467E-2
2.720406882E0,-7.360926270E-1,-4.251621962E-1,6.719517522E-3
2.722424503E0,-7.550294399E-1,-4.410447180E-1,1.221730490E-3
2.724408508E0,-7.709119320E-1,-4.599815309E-1,-3.054326167E-3
2.726392436E0,-7.776314616E-1,-4.685336351E-1,-9.773843922E-3
2.728405980E0,-7.977899909E-1,-4.831944108E-1,-1.404990070E-2
2.730420755E0,-8.081747293E-1,-4.899139404E-1,-1.588249579E-2
2.732403838E0,-8.289441466E-1,-5.045747161E-1,-2.321287990E-2
2.734419920E0,-8.515461683E-1,-5.167919993E-1,-2.443460934E-2
2.736402002E0,-8.655960560E-1,-5.198463202E-1,-2.687807009E-2
2.738415931E0,-8.888089061E-1,-5.314527750E-1,-3.115412779E-2
2.740400244E0,-9.126327038E-1,-5.351179838E-1,-3.176499158E-2
2.742414018E0,-9.260717034E-1,-5.381723046E-1,-3.237585723E-2
2.744397409E0,-9.486737251E-1,-5.400048494E-1,-3.298672289E-2
2.746411568E0,-9.700540304E-1,-5.406157374E-1,-3.359758854E-2
2.748395035E0,-9.816604257E-1,-5.363397002E-1,-3.420845419E-2
2.750410041E0,-1.003040791E0,-5.320636034E-1,-3.481931984E-2
2.752392585E0,-1.024420977E0,-5.308418870E-1,-3.298672289E-2
2.754407667E0,-1.036638379E0,-5.277875662E-1,-3.420845419E-2
2.756391981E0,-1.055575132E0,-5.198463202E-1,-3.237585723E-2
2.758405139E0,-1.065959811E0,-5.186246037E-1,-3.115412779E-2
2.760418145E0,-1.081231475E0,-5.161811113E-1,-3.298672289E-2
2.762403612E0,-1.098335743E0,-5.082398653E-1,-3.054326214E-2
2.764417156E0,-1.107498646E0,-5.051855445E-1,-2.871066704E-2
2.766399931E0,-1.120937705E0,-5.021312237E-1,-2.932153270E-2
2.768414398E0,-1.136209369E0,-4.960225821E-1,-2.993239649E-2
2.770398788E0,-1.145372391E0,-4.954117239E-1,-3.176499158E-2
2.772412255E0,-1.158200502E0,-4.917465150E-1,-3.543018550E-2
2.774397183E0,-1.168585181E0,-4.886921942E-1,-3.665191308E-2
2.776410420E0,-1.175304770E0,-4.905247986E-1,-3.787364438E-2
2.778393887E0,-1.186300278E0,-4.911356568E-1,-4.092797264E-2
2.780408970E0,-1.195463300E0,-4.966334403E-1,-4.459316283E-2
2.782392052E0,-1.202793717E0,-4.972442985E-1,-4.703662544E-2
2.784406135E0,-1.210734963E0,-5.088507533E-1,-5.070181563E-2
2.786420370E0,-1.220508814E0,-5.192354321E-1,-5.253441259E-2
2.788403761E0,-1.225395679E0,-5.265658498E-1,-5.375614017E-2
2.790418151E0,-1.235780358E0,-5.455026627E-1,-5.742133409E-2
2.792402157E0,-1.237002134E0,-5.546656251E-1,-5.803219974E-2
2.794417239E0,-1.247386813E0,-5.778785348E-1,-6.230825558E-2
2.796399475E0,-1.253495455E0,-5.986479521E-1,-6.291911751E-2
2.798413865E0,-1.257160664E0,-6.120869517E-1,-6.108652428E-2
2.800396332E0,-1.266323686E0,-6.340781450E-1,-6.291911751E-2
2.802411107E0,-1.275486588E0,-6.609562039E-1,-6.475171447E-2
2.804395113E0,-1.276708364E0,-6.731734872E-1,-6.475171447E-2
2.806409348E0,-1.284038782E0,-6.988298297E-1,-6.414084882E-2
2.808393278E0,-1.289536476E0,-7.257078886E-1,-6.230825558E-2
2.810406590E0,-1.292590857E0,-7.391469479E-1,-6.230825558E-2
2.812421365E0,-1.296866894E0,-7.678576112E-1,-6.291911751E-2
2.814405601E0,-1.301753879E0,-7.971791625E-1,-6.108652428E-2
2.816419838E0,-1.307251573E0,-8.087855577E-1,-6.169738993E-2
2.818403228E0,-1.317636371E0,-8.405506015E-1,-6.230825558E-2
2.820417618E0,-1.331686258E0,-8.686503768E-1,-6.169738993E-2
2.822400469E0,-1.340238333E0,-8.833111525E-1,-6.169738993E-2
2.824415168E0,-1.357953429E0,-9.101892114E-1,-6.230825558E-2
2.826398019E0,-1.368949056E0,-9.230173826E-1,-6.475171447E-2
2.828412717E0,-1.390329242E0,-9.474520087E-1,-6.475171447E-2
2.830396184E0,-1.415374756E0,-9.645562172E-1,-6.780604273E-2
2.832410267E0,-1.428202987E0,-9.694431424E-1,-7.269296050E-2
2.834394964E0,-1.454470158E0,-9.822713137E-1,-7.147123665E-2
2.836408201E0,-1.478904724E0,-9.877691269E-1,-7.391469181E-2
2.838392206E0,-1.491732955E0,-9.902125597E-1,-7.391469181E-2
2.840405442E0,-1.518610954E0,-9.914342761E-1,-7.635815442E-2
2.842420448E0,-1.541213036E0,-9.865473509E-1,-7.757988572E-2
2.844405068E0,-1.554652095E0,-9.853256345E-1,-7.819075137E-2
2.846417074E0,-1.580919266E0,-9.786061049E-1,-7.757988572E-2
2.848401156E0,-1.604743004E0,-9.694431424E-1,-7.574728876E-2
2.850415854E0,-1.616349459E0,-9.621127844E-1,-7.452555746E-2
2.852399628E0,-1.636507988E0,-9.505063295E-1,-7.574728876E-2
2.854414711E0,-1.658499122E0,-9.358455539E-1,-7.391469181E-2
2.856397486E0,-1.666440368E0,-9.260717034E-1,-7.391469181E-2
2.858411338E0,-1.682933807E0,-9.120218158E-1,-7.208210230E-2
2.860394958E0,-1.690875053E0,-9.022479653E-1,-7.330382615E-2
2.862409195E0,-1.704313993E0,-8.881980777E-1,-7.330382615E-2
2.864393123E0,-1.715309620E0,-8.710938692E-1,-7.269296050E-2
2.866406437E0,-1.723861694E0,-8.637634516E-1,-7.391469181E-2
2.868421442E0,-1.734857321E0,-8.521569967E-1,-7.574728876E-2
2.870405448E0,-1.749518037E0,-8.399397135E-1,-7.757988572E-2
2.872418760E0,-1.756848454E0,-8.356636763E-1,-7.757988572E-2
2.874403920E0,-1.765400529E0,-8.265006542E-1,-7.880161703E-2
2.876417156E0,-1.781283021E0,-8.203920126E-1,-8.002334833E-2
2.878400931E0,-1.785559058E0,-8.197811842E-1,-7.941248268E-2
2.880412321E0,-1.794722080E0,-8.203920126E-1,-7.757988572E-2
2.882397481E0,-1.803274155E0,-8.197811842E-1,-7.513642311E-2
2.884412640E0,-1.806939363E0,-8.216137290E-1,-7.330382615E-2
2.886395723E0,-1.815491557E0,-8.271115422E-1,-6.841690838E-2
2.888410420E0,-1.818545818E0,-8.301658630E-1,-6.719517708E-2
2.890393503E0,-1.828930497E0,-8.356636763E-1,-5.864306539E-2
2.892408969E0,-1.839315295E0,-8.405506015E-1,-5.253441259E-2
2.894393514E0,-1.846034765E0,-8.442157507E-1,-4.825835302E-2
2.896406750E0,-1.855197787E0,-8.509352803E-1,-3.970624134E-2
2.898419986E0,-1.870469332E0,-8.564330935E-1,-3.176499158E-2
2.900404068E0,-1.877188921E0,-8.594874144E-1,-2.871066704E-2
2.902418151E0,-1.890017033E0,-8.680394888E-1,-2.015855350E-2
2.904401541E0,-1.904677868E0,-8.698720932E-1,-1.221730467E-2
2.906416624E0,-1.913229942E0,-8.692612648E-1,-9.162978269E-3
2.908398783E0,-1.930334210E0,-8.674286604E-1,-2.443460980E-3
2.910413327E0,-1.948660135E0,-8.625417352E-1,3.665191587E-3
2.912396640E0,-1.955990553E0,-8.625417352E-1,4.276056774E-3
2.914412338E0,-1.976149082E0,-8.564330935E-1,7.941247895E-3
2.916395497E0,-1.995085835E0,-8.454375267E-1,9.773843922E-3
2.918409272E0,-2.001194477E0,-8.393288255E-1,1.282817032E-2
2.920392046E0,-2.020131350E0,-8.271115422E-1,1.160643995E-2
2.922407514E0,-2.029294252E0,-8.210029006E-1,1.160643995E-2
2.924390904E0,-2.046398640E0,-8.069530129E-1,8.552113548E-3
2.926403833E0,-2.062281132E0,-7.935139537E-1,9.162978269E-3
2.928418915E0,-2.070833206E0,-7.874053121E-1,4.886921961E-3
2.930403228E0,-2.084882975E0,-7.751879692E-1,3.054326167E-3
2.932417079E0,-2.100765467E0,-7.660250068E-1,-5.497787148E-3
2.934402008E0,-2.108095884E0,-7.611380816E-1,-5.497787148E-3
2.936415552E0,-2.125200272E0,-7.507534027E-1,-1.160643995E-2
2.938398327E0,-2.139250040E0,-7.428121567E-1,-1.832595654E-2
2.940412717E0,-2.148413181E0,-7.385360599E-1,-1.954768784E-2
2.942395569E0,-2.164295673E0,-7.318165898E-1,-2.748893574E-2
2.944410343E0,-2.179567099E0,-7.263187766E-1,-2.993239649E-2
2.946393734E0,-2.183843136E0,-7.269296646E-1,-3.298672289E-2
2.948407816E0,-2.198503971E0,-7.226535678E-1,-3.420845419E-2
2.950391898E0,-2.204612732E0,-7.287622094E-1,-3.543018550E-2
2.952406365E0,-2.208888769E0,-7.318165898E-1,-3.359758854E-2
2.954420833E0,-2.209499598E0,-7.409795523E-1,-3.359758854E-2
2.956403530E0,-2.211943150E0,-7.489207983E-1,-2.993239649E-2
2.958417998E0,-2.207667112E0,-7.629706860E-1,-2.626720630E-2
2.960400772E0,-2.206445217E0,-7.843509912E-1,-2.076941915E-2
2.962415239E0,-2.207667112E0,-7.941248417E-1,-1.771509275E-2
2.964399321E0,-2.205834389E0,-8.167268038E-1,-1.038470957E-2
2.966413172E0,-2.204612732E0,-8.381071091E-1,-6.108652451E-4
2.968397409E0,-2.206445217E0,-8.515461683E-1,3.054326167E-3
2.970411030E0,-2.202780008E0,-8.772025108E-1,1.466076635E-2
2.972395266E0,-2.200947523E0,-9.034696817E-1,2.260201424E-2
2.974410041E0,-2.199114799E0,-9.156870246E-1,2.993239649E-2
2.976392585E0,-2.197282314E0,-9.413433671E-1,3.970624134E-2
2.978406975E0,-2.193006277E0,-9.682214260E-1,4.764748737E-2
2.980421442E0,-2.188730240E0,-9.822713137E-1,5.253441259E-2
2.982405217E0,-2.185675859E0,-1.004873276E0,6.047565863E-2
2.984418761E0,-2.182621479E0,-1.027475357E0,6.475171447E-2
2.986403304E0,-2.183232307E0,-1.038470864E0,6.963863969E-2
2.988416926E0,-2.178956270E0,-1.054964304E0,7.208210230E-2
2.990400239E0,-2.175291061E0,-1.067792416E0,7.391469181E-2
2.992415398E0,-2.176512957E0,-1.081842303E0,7.513642311E-2
2.994399096E0,-2.173458576E0,-1.095892191E0,7.513642311E-2
2.996412640E0,-2.177123785E0,-1.098946571E0,7.452555746E-2
2.998395645E0,-2.180178165E0,-1.108720422E0,7.269296050E-2
3.000409497E0,-2.184454203E0,-1.120937705E0,6.841690838E-2
3.002394733E0,-2.186286688E0,-1.126435518E0,6.658431143E-2
3.004407662E0,-2.191173553E0,-1.132544160E0,6.230825558E-2
3.006421590E0,-2.198503971E0,-1.139874578E0,5.803219974E-2
3.008406135E0,-2.201558352E0,-1.145983219E0,5.436700583E-2
3.010420601E0,-2.210721254E0,-1.149037480E0,5.192354694E-2
3.012403684E0,-2.219884396E0,-1.153924465E0,4.398229718E-2
3.014418766E0,-2.225992918E0,-1.154535294E0,4.276056588E-2
3.016401311E0,-2.237599373E0,-1.159422278E0,3.970624134E-2
3.018415085E0,-2.244929790E0,-1.158811331E0,3.848451003E-2
3.020400322E0,-2.249816656E0,-1.160033107E0,3.787364438E-2
3.022414173E0,-2.258979559E0,-1.157589674E0,3.543018550E-2
3.024396717E0,-2.264477491E0,-1.155757070E0,3.909537569E-2
3.026411491E0,-2.271807909E0,-1.147204876E0,3.848451003E-2
3.028395113E0,-2.280970812E0,-1.136209369E0,4.214970022E-2
3.030409041E0,-2.282803535E0,-1.131322384E0,4.214970022E-2
3.032392124E0,-2.288301229E0,-1.117272496E0,4.764748737E-2
3.034407206E0,-2.294409752E0,-1.095892191E0,5.314527452E-2
3.036421058E0,-2.297464132E0,-1.084896684E0,5.742133409E-2
3.038404755E0,-2.301129341E0,-1.065959811E0,6.658431143E-2
3.040416761E0,-2.302350998E0,-1.046412110E0,7.391469181E-2
3.042401689E0,-2.300518513E0,-1.040303469E0,7.880161703E-2
3.044416772E0,-2.296853304E0,-1.026864529E0,8.979719132E-2
3.046399547E0,-2.293798923E0,-1.020144939E0,9.834930301E-2
3.048414553E0,-2.288912058E0,-1.017090678E0,1.014036313E-1
3.050397711E0,-2.280359983E0,-1.014647126E0,1.123992056E-1
3.052412410E0,-2.277916431E0,-1.017701507E0,1.154535338E-1
3.054396722E0,-2.266921043E0,-1.022588372E0,1.240056455E-1
3.056410036E0,-2.258368731E0,-1.031751394E0,1.295034289E-1
3.058393349E0,-2.254092693E0,-1.037860036E0,1.295034289E-1
3.060408739E0,-2.244929790E0,-1.053131700E0,1.350012124E-1
3.062392129E0,-2.235155821E0,-1.068403363E0,1.368338168E-1
3.064405981E0,-2.225992918E0,-1.078177214E0,1.392772794E-1
3.066419909E0,-2.214386463E0,-1.098946571E0,1.398881376E-1
3.068413992E0,-2.201558352E0,-1.121548533E0,1.411098689E-1
3.070387305E0,-2.194227934E0,-1.133765936E0,1.404990107E-1
3.072401388E0,-2.182621479E0,-1.158811331E0,1.429424733E-1
3.074416470E0,-2.169793367E0,-1.183246017E0,1.447750628E-1
3.076399322E0,-2.163684607E0,-1.196684957E0,1.453859210E-1
3.078413173E0,-2.150245667E0,-1.226617455E0,1.496619880E-1
3.080396563E0,-2.141693592E0,-1.255328059E0,1.588249654E-1
3.082410953E0,-2.135584831E0,-1.269988894E0,1.624901593E-1
3.084394728E0,-2.123978376E0,-1.302975535E0,1.716531366E-1
3.086407964E0,-2.119091511E0,-1.320690632E0,1.771509200E-1
3.088392508E0,-2.108095884E0,-1.354288220E0,1.899790913E-1
3.090406360E0,-2.099543810E0,-1.392772794E0,2.064724565E-1
3.092420520E0,-2.099543810E0,-1.408655286E0,2.107485086E-1
3.094405217E0,-2.098322153E0,-1.440420270E0,2.266310006E-1
3.096419299E0,-2.101987362E0,-1.473407030E0,2.437352389E-1
3.098402690E0,-2.105652571E0,-1.484402537E0,2.516764700E-1
3.100416925E0,-2.117259026E0,-1.504561067E0,2.681698501E-1
3.102400316E0,-2.133141518E0,-1.514945865E0,2.822197378E-1
3.104413783E0,-2.141693592E0,-1.517389297E0,2.901609838E-1
3.106397250E0,-2.159408569E0,-1.513724089E0,2.993239760E-1
3.108412024E0,-2.181399822E0,-1.500895858E0,3.115412891E-1
3.110395646E0,-2.185675859E0,-1.491122007E0,3.164281845E-1
3.112409574E0,-2.205223560E0,-1.459967971E0,3.274237812E-1
3.114395118E0,-2.218662500E0,-1.422705173E0,3.341432810E-1
3.116407969E0,-2.224771261E0,-1.399492264E0,3.359758854E-1
3.118391129E0,-2.240042925E0,-1.345125318E0,3.384193480E-1
3.120401519E0,-2.246762276E0,-1.315803766E0,3.378084898E-1
3.122419063E0,-2.262644768E0,-1.251662850E0,3.402519524E-1
3.124403376E0,-2.276083946E0,-1.185689449E0,3.371976018E-1
3.126418228E0,-2.283414364E0,-1.149648428E0,3.341432810E-1
3.128400618E0,-2.291966438E0,-1.077566266E0,3.280346394E-1
3.130415085E0,-2.304183722E0,-1.006705880E0,3.225368559E-1
3.132399783E0,-2.306016207E0,-9.731083512E-1,3.176499307E-1
3.134414789E0,-2.312124968E0,-9.034696817E-1,3.097086847E-1
3.136396717E0,-2.315790176E0,-8.356636763E-1,2.981022298E-1
3.138410569E0,-2.314568520E0,-8.032878041E-1,2.926044464E-1
3.140395497E0,-2.318233490E0,-7.403686643E-1,2.828305960E-1
3.142408118E0,-2.317011833E0,-6.841690540E-1,2.706133127E-1
3.144392047E0,-2.315790176E0,-6.572909951E-1,2.651155293E-1
3.146405899E0,-2.311514139E0,-6.059783101E-1,2.590068579E-1
3.148420442E0,-2.309070587E0,-5.626068711E-1,2.504547536E-1
3.150404064E0,-2.305405378E0,-5.424483418E-1,2.443460971E-1
3.152418915E0,-2.294409752E0,-5.076290369E-1,2.382374406E-1
3.154403151E0,-2.290133715E0,-4.941899776E-1,2.370157093E-1
3.156416464E0,-2.278527260E0,-4.715879560E-1,2.339613885E-1
3.158399778E0,-2.259590626E0,-4.569272101E-1,2.345722616E-1
3.160413937E0,-2.251038313E0,-4.502076805E-1,2.357939780E-1
3.162398327E0,-2.230879784E0,-4.489859641E-1,2.382374406E-1
3.164412178E0,-2.207056046E0,-4.563163519E-1,2.431243658E-1
3.166394877E0,-2.194227934E0,-4.636467099E-1,2.474004179E-1
3.168410266E0,-2.168571711E0,-4.862487316E-1,2.565633953E-1
3.170393426E0,-2.140471935E0,-5.161811113E-1,2.638937831E-1
3.172408124E0,-2.126421928E0,-5.345070958E-1,2.687807083E-1
3.174391591E0,-2.103819847E0,-5.760459304E-1,2.809980214E-1
3.176406288E0,-2.074498415E0,-6.230825782E-1,2.913827300E-1
3.178419218E0,-2.064113617E0,-6.487388611E-1,2.962696552E-1
3.180403607E0,-2.037846565E0,-6.988298297E-1,3.084869385E-1
3.182417767E0,-2.026850939E0,-7.263187766E-1,3.158173263E-1
3.184401387E0,-2.009135723E0,-7.819074988E-1,3.255911767E-1
3.186415009E0,-1.990809798E0,-8.344419003E-1,3.335324228E-1
3.188398398E0,-1.981646895E0,-8.613200188E-1,3.396410644E-1
3.190412866E0,-1.970040441E0,-9.126327038E-1,3.463605940E-1
3.192396563E0,-1.960266590E0,-9.590584636E-1,3.561344445E-1
3.194411954E0,-1.954157948E0,-9.779952765E-1,3.597996235E-1
3.196394651E0,-1.948049307E0,-1.015868902E0,3.677408695E-1
3.198407965E0,-1.939497113E0,-1.048855662E0,3.775147200E-1
3.200422124E0,-1.936442852E0,-1.062905550E0,3.824016452E-1
3.202405822E0,-1.927279830E0,-1.085507512E0,3.909537494E-1
3.204420519E0,-1.918116927E0,-1.103833556E0,3.995058835E-1
3.206404294E0,-1.910786510E0,-1.112996459E0,4.025602043E-1
3.208418684E0,-1.905288696E0,-1.120937705E0,4.111123085E-1
3.210402074E0,-1.896125674E0,-1.127046347E0,4.166100919E-1
3.212415926E0,-1.893071413E0,-1.125824690E0,4.166100919E-1
3.214401239E0,-1.885130167E0,-1.125213742E0,4.166100919E-1
3.216414475E0,-1.883297563E0,-1.122159481E0,4.196644127E-1
3.218397557E0,-1.875967145E0,-1.116050839E0,4.190535545E-1
3.220412563E0,-1.868025899E0,-1.100779176E0,4.159992337E-1
3.222395722E0,-1.867415071E0,-1.094059706E0,4.135557711E-1
3.224409574E0,-1.861917257E0,-1.076344609E0,4.068362415E-1
3.226392656E0,-1.852143407E0,-1.056185961E0,4.025602043E-1
3.228407739E0,-1.850310802E0,-1.043968678E0,4.007275999E-1
3.230421283E0,-1.842369556E0,-1.018923283E0,3.927863538E-1
3.232404981E0,-1.836871743E0,-9.896016717E-1,3.921754956E-1
3.234420601E0,-1.832595706E0,-9.724974632E-1,3.903428912E-1
3.236402838E0,-1.826487064E0,-9.437867999E-1,3.878994286E-1
3.238417305E0,-1.819767594E0,-9.132435322E-1,3.860668242E-1
3.240400618E0,-1.818545818E0,-8.979719281E-1,3.866777122E-1
3.242416008E0,-1.810604572E0,-8.674286604E-1,3.885102868E-1
3.244399091E0,-1.804495931E0,-8.423831463E-1,3.952298164E-1
3.246412019E0,-1.802052498E0,-8.289441466E-1,3.964515328E-1
3.248396410E0,-1.795332909E0,-8.063421249E-1,4.062253833E-1
3.250410569E0,-1.794722080E0,-7.971791625E-1,4.086688459E-1
3.252394882E0,-1.784948230E0,-7.819074988E-1,4.190535545E-1
3.254409041E0,-1.777617812E0,-7.690793276E-1,4.269948006E-1
3.256392739E0,-1.771509171E0,-7.641924024E-1,4.318817258E-1
3.258405360E0,-1.758681059E0,-7.556403279E-1,4.440990388E-1
3.260421366E0,-1.746463776E0,-7.507534027E-1,4.544837475E-1
3.262403217E0,-1.737911582E0,-7.525860071E-1,4.575380683E-1
3.264418300E0,-1.726916075E0,-7.470881939E-1,4.636467099E-1
3.266402228E0,-1.712866187E0,-7.464773059E-1,4.697553813E-1
3.268416080E0,-1.705535769E0,-7.489207983E-1,4.685336351E-1
3.270400162E0,-1.693318486E0,-7.470881939E-1,4.660901725E-1
3.272414014E0,-1.685988069E0,-7.464773059E-1,4.642575979E-1
3.274398327E0,-1.679879427E0,-7.470881939E-1,4.618141353E-1
3.276411871E0,-1.673159957E0,-7.470881939E-1,4.538728893E-1
3.278394876E0,-1.665829539E0,-7.464773059E-1,4.471533597E-1
3.280407267E0,-1.662775159E0,-7.483099103E-1,4.434881806E-1
3.282423272E0,-1.657277465E0,-7.519751191E-1,4.318817258E-1
3.284406893E0,-1.651779652E0,-7.538077235E-1,4.306600094E-1
3.286421745E0,-1.646892667E0,-7.562511563E-1,4.214970171E-1
3.288405366E0,-1.637729764E0,-7.623597980E-1,4.141666293E-1
3.290419217E0,-1.634675384E0,-7.641924024E-1,4.074471295E-1
3.292403531E0,-1.630399346E0,-7.672467232E-1,4.037819207E-1
3.294417997E0,-1.621236324E0,-7.709119320E-1,3.946189582E-1
3.296401465E0,-1.619403720E0,-7.715228200E-1,3.933972120E-1
3.298415008E0,-1.612684250E0,-7.739662528E-1,3.915646076E-1
3.300399014E0,-1.605964780E0,-7.751879692E-1,3.921754956E-1
3.302412481E0,-1.601688623E0,-7.757988572E-1,3.927863538E-1
3.304396256E0,-1.596801758E0,-7.764097452E-1,3.927863538E-1
3.306410723E0,-1.588860512E0,-7.739662528E-1,3.970624208E-1
3.308394113E0,-1.583973527E0,-7.721336484E-1,3.988949955E-1
3.310407964E0,-1.574810624E0,-7.654141784E-1,4.031710625E-1
3.312423047E0,-1.568701982E0,-7.593054771E-1,4.092797041E-1
3.314407283E0,-1.566869378E0,-7.556403279E-1,4.123340547E-1
3.316421212E0,-1.557706356E0,-7.476990819E-1,4.208861589E-1
3.318403986E0,-1.554652095E0,-7.428121567E-1,4.233296216E-1
3.320418146E0,-1.544267297E0,-7.330383062E-1,4.288274050E-1
3.322402151E0,-1.538158655E0,-7.214318514E-1,4.379903674E-1
3.324416927E0,-1.535104394E0,-7.177666426E-1,4.410447180E-1
3.326398470E0,-1.525330544E0,-7.055493593E-1,4.508185387E-1
3.328414091E0,-1.518000126E0,-6.976081133E-1,4.581489265E-1
3.330397250E0,-1.513724089E0,-6.945537925E-1,4.636467099E-1
3.332412026E0,-1.508837104E0,-6.841690540E-1,4.740314186E-1
3.334396646E0,-1.499674201E0,-6.798930168E-1,4.825835526E-1
3.336409574E0,-1.496619821E0,-6.762278080E-1,4.899139404E-1
3.338392965E0,-1.489289522E0,-6.725626588E-1,5.021312237E-1
3.340408277E0,-1.483180761E0,-6.743952036E-1,5.149593949E-1
3.342421283E0,-1.478904724E0,-6.719517708E-1,5.198463202E-1
3.344404904E0,-1.473407030E0,-6.743952036E-1,5.338962078E-1
3.346419064E0,-1.470963478E0,-6.768386960E-1,5.400048494E-1
3.348402761E0,-1.463633180E0,-6.792821288E-1,5.540547967E-1
3.350416998E0,-1.458135366E0,-6.853908300E-1,5.693264008E-1
3.352400618E0,-1.453859329E0,-6.890559793E-1,5.760459304E-1
3.354416009E0,-1.443474531E0,-6.957755089E-1,5.876523852E-1
3.356399091E0,-1.435533285E0,-7.031059265E-1,6.035348773E-1
3.358413250E0,-1.431257248E0,-7.073819637E-1,6.072000265E-1
3.360395486E0,-1.419039965E0,-7.122688890E-1,6.194173694E-1
3.362410261E0,-1.411709547E0,-7.171558142E-1,6.285803318E-1
3.364393959E0,-1.406211853E0,-7.189884186E-1,6.328563690E-1
3.366408657E0,-1.396438003E0,-7.214318514E-1,6.383541822E-1
3.368422816E0,-1.387274981E0,-7.202101350E-1,6.414085031E-1
3.370406207E0,-1.384220600E0,-7.183775306E-1,6.414085031E-1
3.372420673E0,-1.379333735E0,-7.141014934E-1,6.420193911E-1
3.374404679E0,-1.370170712E0,-7.043276429E-1,6.395758986E-1
3.376417915E0,-1.368338108E0,-6.976081133E-1,6.383541822E-1
3.378401690E0,-1.362229466E0,-6.860016584E-1,6.346889734E-1
3.380416157E0,-1.359175205E0,-6.774495840E-1,6.322455406E-1
3.382399855E0,-1.354899168E0,-6.603453159E-1,6.249151230E-1
3.384414014E0,-1.348790407E0,-6.407976151E-1,6.212499738E-1
3.386397635E0,-1.346346974E0,-6.291912198E-1,6.188064814E-1
3.388411871E0,-1.340849161E0,-6.053674817E-1,6.108652353E-1
3.390395262E0,-1.335962296E0,-5.760459304E-1,6.059783101E-1
3.392409113E0,-1.335962296E0,-5.595525503E-1,6.035348773E-1
3.394394042E0,-1.334129691E0,-5.216789246E-1,5.974262357E-1
3.396406970E0,-1.330464482E0,-4.807509482E-1,5.919284225E-1
3.398421361E0,-1.326188445E0,-4.612032473E-1,5.894849896E-1
3.400404827E0,-1.324355841E0,-4.117231667E-1,5.870414972E-1
3.402420218E0,-1.317636371E0,-3.616322279E-1,5.815436840E-1
3.404403838E0,-1.315192819E0,-3.341432810E-1,5.821545720E-1
3.406416767E0,-1.313971162E0,-2.779437006E-1,5.784893632E-1
3.408400541E0,-1.306640744E0,-2.217440903E-1,5.748242140E-1
3.410413778E0,-1.300532103E0,-1.936442852E-1,5.742133260E-1
3.412399322E0,-1.295645237E0,-1.331686229E-1,5.723807216E-1
3.414414097E0,-1.291369081E0,-1.014036313E-1,5.736024380E-1
3.416396794E0,-1.286482215E0,-4.520402849E-2,5.699372888E-1
3.418410646E0,-1.278540969E0,1.404990070E-2,5.668829679E-1
3.420395344E0,-1.274264932E0,4.031710699E-2,5.638286471E-1
3.422408273E0,-1.266323686E0,9.407325089E-2,5.626068711E-1
3.424422355E0,-1.262658477E0,1.484402567E-1,5.571091175E-1
3.426406361E0,-1.260215044E0,1.722639948E-1,5.577199459E-1
3.428420212E0,-1.254106402E0,2.199114859E-1,5.491678715E-1
3.430404218E0,-1.249830246E0,2.657263875E-1,5.430592299E-1
3.432418069E0,-1.245554209E0,2.871066630E-1,5.387831330E-1
3.434403075E0,-1.241889000E0,3.268128932E-1,5.320636034E-1
3.436416003E0,-1.236391306E0,3.610213697E-1,5.210680366E-1
3.438399624E0,-1.233336926E0,3.781255782E-1,5.186246037E-1
3.440410399E0,-1.227228284E0,4.098905921E-1,5.039638281E-1
3.442397559E0,-1.223563075E0,4.221078753E-1,4.990769029E-1
3.444412640E0,-1.218676209E0,4.495968223E-1,4.874704778E-1
3.446395646E0,-1.208291411E0,4.697553813E-1,4.746423066E-1
3.448408575E0,-1.207069755E0,4.770857692E-1,4.691445231E-1
3.450423350E0,-1.197906733E0,4.923573732E-1,4.526511431E-1
3.452407739E0,-1.188743711E0,5.064072609E-1,4.398229718E-1
3.454422130E0,-1.187522054E0,5.125159621E-1,4.324925840E-1
3.456404597E0,-1.178969979E0,5.210680366E-1,4.184426963E-1
3.458419449E0,-1.163698316E0,5.271766782E-1,4.037819207E-1
3.460403685E0,-1.157589674E0,5.296201706E-1,3.995058835E-1
3.462416690E0,-1.144150615E0,5.357288122E-1,3.897320330E-1
3.464400696E0,-1.127046347E0,5.400048494E-1,3.756821156E-1
3.466416316E0,-1.119105101E0,5.418374538E-1,3.671300113E-1
3.468398783E0,-1.102611780E0,5.448917747E-1,3.579670191E-1
3.470413019E0,-1.084896684E0,5.430592299E-1,3.457497358E-1
3.472396410E0,-1.075122833E0,5.430592299E-1,3.420845270E-1
3.474410799E0,-1.058018565E0,5.455026627E-1,3.329215646E-1
3.476393959E0,-1.049466491E0,5.448917747E-1,3.286454976E-1
3.478408349E0,-1.032973170E0,5.381723046E-1,3.200933933E-1
3.480421663E0,-1.013425469E0,5.345070958E-1,3.164281845E-1
3.482406591E0,-1.003651619E0,5.320636034E-1,3.097086847E-1
3.484420981E0,-9.859365225E-1,5.235115290E-1,3.072652221E-1
3.486404063E0,-9.682214260E-1,5.112941861E-1,3.017674387E-1
3.488418223E0,-9.590584636E-1,5.070181489E-1,3.017674387E-1
3.490401690E0,-9.413433671E-1,4.917465150E-1,2.999348342E-1
3.492416080E0,-9.248499870E-1,4.746423066E-1,2.981022298E-1
3.494400162E0,-9.175195694E-1,4.691445231E-1,2.962696552E-1
3.496413399E0,-9.004153609E-1,4.483750761E-1,2.962696552E-1
3.498397635E0,-8.845328689E-1,4.288274050E-1,2.981022298E-1
3.500411795E0,-8.747590184E-1,4.184426963E-1,2.962696552E-1
3.502395800E0,-8.619308472E-1,3.964515328E-1,2.993239760E-1
3.504409652E0,-8.429940343E-1,3.726277947E-1,3.066543639E-1
3.506393118E0,-8.356636763E-1,3.616322279E-1,3.060434759E-1
3.508406894E0,-8.197811842E-1,3.378084898E-1,3.103195429E-1
3.510421745E0,-8.112290502E-1,3.262020350E-1,3.133738637E-1
3.512405443E0,-7.941248417E-1,3.017674387E-1,3.182607889E-1
3.514419602E0,-7.776314616E-1,2.791654170E-1,3.237585723E-1
3.516402608E0,-7.703011036E-1,2.681698501E-1,3.249803185E-1
3.518417074E0,-7.495316267E-1,2.437352389E-1,3.286454976E-1
3.520400234E0,-7.244861722E-1,2.180788964E-1,3.323107064E-1
3.522413778E0,-7.086036801E-1,2.058615834E-1,3.347541690E-1
3.524398938E0,-6.737843752E-1,1.783726513E-1,3.371976018E-1
3.526412481E0,-6.444628239E-1,1.508837193E-1,3.408628106E-1
3.528396256E0,-6.249151230E-1,1.337794960E-1,3.445279896E-1
3.530409723E0,-5.974262357E-1,1.026253626E-1,3.445279896E-1
3.532394113E0,-5.717698932E-1,6.475171447E-2,3.463605940E-1
3.534408580E0,-5.552765131E-1,4.031710699E-2,3.488040566E-1
3.536422740E0,-5.229006410E-1,-8.552113548E-3,3.500257730E-1
3.538406053E0,-4.893030524E-1,-6.780604273E-2,3.549126983E-1
3.540419982E0,-4.728097022E-1,-9.834930301E-2,3.549126983E-1
3.542404217E0,-4.349360466E-1,-1.685988009E-1,3.610213697E-1
3.544418146E0,-4.153883755E-1,-2.070833147E-1,3.597996235E-1
3.546401767E0,-3.762930036E-1,-2.877175212E-1,3.634648323E-1
3.548415619E0,-3.310889602E-1,-3.756821156E-1,3.573561609E-1
3.550399624E0,-3.109304011E-1,-4.214970171E-1,3.549126983E-1
3.552413861E0,-2.669481039E-1,-5.112941861E-1,3.475823104E-1
3.554398404E0,-2.217440903E-1,-5.998696685E-1,3.335324228E-1
3.556411103E0,-2.015855312E-1,-6.407976151E-1,3.274237812E-1
3.558394800E0,-1.594358236E-1,-7.208209634E-1,3.109304011E-1
3.560408344E0,-1.215621829E-1,-7.898487449E-1,2.913827300E-1
3.562423734E0,-9.712757170E-2,-8.283332586E-1,2.834414840E-1
3.564407432E0,-6.230825558E-2,-8.869763613E-1,2.632829249E-1
3.566420899E0,-2.321287990E-2,-9.413433671E-1,2.394591719E-1
3.568405597E0,-3.054326167E-3,-9.651671052E-1,2.290744632E-1
3.570418756E0,3.054326214E-2,-1.009760261E0,2.034181207E-1
3.572402224E0,6.414084882E-2,-1.044579625E0,1.795943826E-1
3.574416921E0,7.819075137E-2,-1.059240341E0,1.673770845E-1
3.576400618E0,1.020144969E-1,-1.083064079E0,1.417207420E-1
3.578414240E0,1.154535338E-1,-1.092837930E0,1.307251602E-1
3.580398860E0,1.386664063E-1,-1.105666041E0,1.056796908E-1
3.582412404E0,1.545489132E-1,-1.110553026E0,8.491026610E-2
3.584396409E0,1.612684280E-1,-1.107498646E0,7.574728876E-2
3.586409646E0,1.753183305E-1,-1.100168347E0,5.558873713E-2
3.588393882E0,1.875356287E-1,-1.086118460E0,4.031710699E-2
3.590408350E0,1.912008226E-1,-1.073901057E0,3.359758854E-2
3.592422816E0,1.966986060E-1,-1.043357849E0,1.954768784E-2
3.594406514E0,1.960877478E-1,-1.009760261E0,6.108652335E-3
3.596419519E0,1.973094791E-1,-9.889908433E-1,1.832595794E-3
3.598404141E0,1.973094791E-1,-9.462302923E-1,-8.552113548E-3
3.600414915E0,1.930334121E-1,-8.924741149E-1,-1.710422710E-2
3.602400459E0,1.905899495E-1,-8.668177724E-1,-1.893682219E-2
3.604416695E0,1.857030392E-1,-8.081747293E-1,-2.260201424E-2
3.606399470E0,1.832595766E-1,-7.770205736E-1,-2.443460934E-2
3.608413706E0,1.740965992E-1,-7.061602473E-1,-2.871066704E-2
3.610396712E0,1.643227488E-1,-6.298020482E-1,-3.237585723E-2
3.612410871E0,1.600466967E-1,-5.858197808E-1,-3.237585723E-2
3.614395877E0,1.484402567E-1,-4.984660447E-1,-3.176499158E-2
3.616409344E0,1.356120855E-1,-4.013384581E-1,-3.298672289E-2
3.618392734E0,1.307251602E-1,-3.530801237E-1,-3.420845419E-2
3.620408432E0,1.197295859E-1,-2.522873580E-1,-3.481931984E-2
3.622421438E0,1.099557430E-1,-1.472185254E-1,-3.420845419E-2
3.624405135E0,1.026253626E-1,-9.651670605E-2,-3.420845419E-2
3.626419218E0,9.773843735E-2,7.941247895E-3,-3.420845419E-2
3.628402992E0,8.735372871E-2,1.142318025E-1,-3.359758854E-2
3.630416460E0,8.246681094E-2,1.655444801E-1,-2.932153270E-2
3.632400542E0,7.574728876E-2,2.657263875E-1,-2.993239649E-2
3.634415240E0,6.841690838E-2,3.677408695E-1,-2.504547499E-2
3.636397783E0,6.291911751E-2,4.135557711E-1,-2.443460934E-2
3.638412559E0,5.803219974E-2,5.027421117E-1,-2.015855350E-2
3.640394948E0,5.681046844E-2,5.430592299E-1,-2.076941915E-2
3.642410723E0,5.131268129E-2,6.230825782E-1,-1.588249579E-2
3.644394113E0,5.131268129E-2,6.902777553E-1,-1.038470957E-2
3.646407042E0,5.192354694E-2,7.257078886E-1,-7.330383174E-3
3.648422124E0,5.314527452E-2,7.794640660E-1,-2.443460980E-3
3.650405745E0,5.497787148E-2,8.240572214E-1,1.221730490E-3
3.652420520E0,5.253441259E-2,8.472700715E-1,1.832595794E-3
3.654404603E0,5.803219974E-2,8.814785480E-1,8.552113548E-3
3.656417454E0,6.230825558E-2,9.059131742E-1,1.404990070E-2
3.658400921E0,6.658431143E-2,9.138544202E-1,1.588249579E-2
3.660416234E0,7.391469181E-2,9.260717034E-1,1.832595654E-2
3.662399394E0,8.063421398E-2,9.272934198E-1,1.893682219E-2
3.664413553E0,8.491026610E-2,9.254608750E-1,1.893682219E-2
3.666397559E0,9.773843735E-2,9.175195694E-1,2.199114859E-2
3.668411718E0,1.123992056E-1,9.022479653E-1,2.138028294E-2
3.670394493E0,1.172861308E-1,8.912523985E-1,2.321287990E-2
3.672409267E0,1.264491081E-1,8.674286604E-1,2.199114859E-2
3.674424658E0,1.337794960E-1,8.546004891E-1,2.443460934E-2
3.676406740E0,1.447750628E-1,8.265006542E-1,2.443460934E-2
3.678420899E0,1.588249654E-1,7.953465581E-1,2.076941915E-2
3.680403981E0,1.667662114E-1,7.806857824E-1,2.138028294E-2
3.682417603E0,1.789835095E-1,7.470881939E-1,2.015855350E-2
3.684402531E0,1.905899495E-1,7.128797174E-1,2.076941915E-2
3.686416614E0,1.960877478E-1,6.976081133E-1,1.893682219E-2
3.688400311E0,2.064724565E-1,6.688974500E-1,2.138028294E-2
3.690414163E0,2.174680233E-1,6.352998614E-1,2.687807009E-2
3.692398168E0,2.229658216E-1,6.224716902E-1,2.443460934E-2
3.694414251E0,2.321287990E-1,5.931501389E-1,3.054326214E-2
3.696395718E0,2.437352389E-1,5.638286471E-1,3.604105115E-2
3.698409954E0,2.516764700E-1,5.485569835E-1,3.970624134E-2
3.700394498E0,2.626720667E-1,5.216789246E-1,4.337143153E-2
3.702407427E0,2.693915665E-1,4.978551865E-1,5.253441259E-2
3.704422509E0,2.724458873E-1,4.856378734E-1,5.497787148E-2
3.706405668E0,2.809980214E-1,4.648684561E-1,6.475171447E-2
3.708419443E0,2.828305960E-1,4.587597847E-1,6.780604273E-2
3.710403756E0,2.871066630E-1,4.416555762E-1,7.819075137E-2
3.712417916E0,2.938261926E-1,4.276056588E-1,8.674286306E-2
3.714401921E0,2.981022298E-1,4.221078753E-1,9.101892263E-2
3.716414927E0,2.993239760E-1,4.111123085E-1,1.038470939E-1
3.718398932E0,3.017674387E-1,4.037819207E-1,1.123992056E-1
3.720412784E0,3.060434759E-1,4.001167417E-1,1.203404516E-1
3.722397635E0,3.042109013E-1,3.946189582E-1,1.307251602E-1
3.724412102E0,3.048217595E-1,3.927863538E-1,1.386664063E-1
3.726393646E0,3.048217595E-1,3.903428912E-1,1.423316002E-1
3.728409344E0,3.023782969E-1,3.860668242E-1,1.496619880E-1
3.730422657E0,3.005456924E-1,3.836233616E-1,1.582140923E-1
3.732406894E0,2.987131178E-1,3.811798990E-1,1.631010175E-1
3.734421976E0,2.974913716E-1,3.787364662E-1,1.692096740E-1
3.736404443E0,2.938261926E-1,3.756821156E-1,1.704314053E-1
3.738418679E0,2.919935882E-1,3.707951903E-1,1.740965992E-1
3.740403608E0,2.877175212E-1,3.604104817E-1,1.771509200E-1
3.742417075E0,2.840523422E-1,3.567453027E-1,1.777617931E-1
3.744399927E0,2.791654170E-1,3.433062732E-1,1.783726513E-1
3.746414316E0,2.748893499E-1,3.323107064E-1,1.771509200E-1
3.748397784E0,2.724458873E-1,3.249803185E-1,1.783726513E-1
3.750412250E0,2.675589919E-1,3.054326177E-1,1.777617931E-1
3.752395333E0,2.596177161E-1,2.858849466E-1,1.771509200E-1
3.754410954E0,2.590068579E-1,2.767219543E-1,1.783726513E-1
3.756393498E0,2.528982162E-1,2.541199327E-1,1.747074574E-1
3.758407349E0,2.504547536E-1,2.290744632E-1,1.765400618E-1
3.760418125E0,2.486221492E-1,2.180788964E-1,1.747074574E-1
3.762405130E0,2.455678284E-1,1.912008226E-1,1.728748679E-1
3.764419905E0,2.443460971E-1,1.649336219E-1,1.728748679E-1
3.766403987E0,2.443460971E-1,1.521054506E-1,1.704314053E-1
3.768417454E0,2.412917763E-1,1.246165112E-1,1.698205322E-1
3.770400613E0,2.394591719E-1,1.136209369E-1,1.643227488E-1
3.772415696E0,2.412917763E-1,8.613199741E-2,1.655444801E-1
3.774400316E0,2.425135076E-1,5.742133409E-2,1.588249654E-1
3.776413476E0,2.419026345E-1,4.581489414E-2,1.576032341E-1
3.778397174E0,2.412917763E-1,2.504547499E-2,1.527163088E-1
3.780411410E0,2.406809032E-1,1.832595794E-3,1.447750628E-1
3.782394492E0,2.419026345E-1,-7.330383174E-3,1.423316002E-1
3.784409498E0,2.412917763E-1,-2.565634064E-2,1.331686229E-1
3.786422426E0,2.437352389E-1,-4.214970022E-2,1.301143020E-1
3.788406432E0,2.412917763E-1,-4.703662544E-2,1.246165112E-1
3.790420976E0,2.400700450E-1,-5.681046844E-2,1.215621829E-1
3.792404905E0,2.431243658E-1,-6.536258012E-2,1.148426682E-1
3.794419987E0,2.412917763E-1,-6.658431143E-2,1.117883399E-1
3.796402224E0,2.437352389E-1,-6.902777404E-2,1.062905490E-1
3.798415767E0,2.419026345E-1,-6.719517708E-2,1.007927656E-1
3.800399389E0,2.406809032E-1,-6.352998316E-2,9.896016866E-2
3.802414547E0,2.394591719E-1,-5.742133409E-2,9.468411654E-2
3.804397938E0,2.400700450E-1,-5.314527452E-2,9.529497474E-2
3.806411097E0,2.394591719E-1,-4.520402849E-2,9.101892263E-2
3.808396026E0,2.370157093E-1,-2.932153270E-2,8.918632567E-2
3.810409954E0,2.351831198E-1,-2.199114859E-2,8.796459436E-2
3.812392960E0,2.351831198E-1,-5.497787148E-3,8.735372871E-2
3.814409888E0,2.315179259E-1,1.160643995E-2,8.857546002E-2
3.816422202E0,2.321287990E-1,2.199114859E-2,9.040805697E-2
3.818405284E0,2.284636050E-1,3.909537569E-2,9.101892263E-2
3.820420751E0,2.235766798E-1,6.230825558E-2,9.162978828E-2
3.822403756E0,2.217440903E-1,7.024950534E-2,9.040805697E-2
3.824418224E0,2.168571651E-1,9.040805697E-2,9.407325089E-2
3.826401075E0,2.131919712E-1,1.087340117E-1,9.590584040E-2
3.828415235E0,2.144137025E-1,1.203404516E-1,9.651670605E-2
3.830398624E0,2.089159191E-1,1.374446750E-1,9.529497474E-2
3.832412168E0,2.052507252E-1,1.551597714E-1,9.651670605E-2
3.834398020E0,2.040289938E-1,1.643227488E-1,9.529497474E-2
3.836411179E0,1.991420686E-1,1.747074574E-1,9.651670605E-2
3.838394646E0,1.979203373E-1,1.814269722E-1,9.651670605E-2
3.840405728E0,1.930334121E-1,1.936442852E-1,9.529497474E-2
3.842422042E0,1.899790913E-1,1.997529417E-1,9.896016866E-2
3.844405662E0,1.875356287E-1,2.009746730E-1,9.651670605E-2
3.846420745E0,1.838704348E-1,2.064724565E-1,9.590584040E-2
3.848404827E0,1.808161139E-1,2.052507252E-1,9.773843735E-2
3.850417680E0,1.820378453E-1,2.046398520E-1,9.773843735E-2
3.852402069E0,1.753183305E-1,2.009746730E-1,9.346238524E-2
3.854416767E0,1.753183305E-1,1.954768747E-1,9.224065393E-2
3.856399619E0,1.728748679E-1,1.912008226E-1,9.162978828E-2
3.858413778E0,1.722639948E-1,1.795943826E-1,9.224065393E-2
3.860398707E0,1.734857261E-1,1.673770845E-1,8.918632567E-2
3.862411943E0,1.698205322E-1,1.594358236E-1,8.918632567E-2
3.864395256E0,1.679879427E-1,1.459967941E-1,8.918632567E-2
3.866410108E0,1.643227488E-1,1.295034289E-1,8.552113175E-2
3.868393498E0,1.637118906E-1,1.191187203E-1,8.368854225E-2
3.870407273E0,1.618792862E-1,1.032362282E-1,8.185594529E-2
3.872421740E0,1.588249654E-1,9.285151958E-2,8.063421398E-2
3.874406976E0,1.582140923E-1,7.696902007E-2,7.696902007E-2
3.876419597E0,1.539380401E-1,5.864306539E-2,7.269296050E-2
3.878403295E0,1.551597714E-1,4.825835302E-2,7.208210230E-2
3.880416300E0,1.508837193E-1,3.237585723E-2,6.963863969E-2
3.882401768E0,1.490511149E-1,1.649336144E-2,6.658431143E-2
3.884415619E0,1.484402567E-1,7.330383174E-3,6.414084882E-2
3.886398086E0,1.478293836E-1,-3.665191587E-3,6.352998316E-2
3.888413553E0,1.459967941E-1,-1.771509275E-2,6.108652428E-2
3.890397251E0,1.435533315E-1,-2.138028294E-2,6.047565863E-2
3.892411948E0,1.441642046E-1,-2.932153270E-2,5.558873713E-2
3.894395647E0,1.404990107E-1,-3.420845419E-2,5.558873713E-2
3.896409190E0,1.386664063E-1,-3.909537569E-2,5.375614017E-2
3.898422812E0,1.350012124E-1,-4.092797264E-2,5.070181563E-2
3.900407663E0,1.337794960E-1,-4.031710699E-2,5.131268129E-2
3.902420592E0,1.350012124E-1,-4.153883830E-2,5.009094998E-2
3.904404674E0,1.295034289E-1,-3.787364438E-2,4.948008433E-2
3.906418218E0,1.282816976E-1,-3.726277873E-2,4.825835302E-2
3.908401916E0,1.227839142E-1,-3.176499158E-2,5.009094998E-2
3.910416306E0,1.185078546E-1,-2.443460934E-2,4.948008433E-2
3.912400311E0,1.172861308E-1,-2.138028294E-2,4.948008433E-2
3.914414471E0,1.130100712E-1,-1.038470957E-2,5.192354694E-2
3.916397861E0,1.075122803E-1,6.108652451E-4,5.436700583E-2
3.918411790E0,1.056796908E-1,5.497787148E-3,5.375614017E-2
3.920394795E0,9.896016866E-2,1.771509275E-2,5.619960278E-2
3.922408955E0,9.407325089E-2,3.054326214E-2,6.169738993E-2
3.924423806E0,9.285151958E-2,3.543018550E-2,6.169738993E-2
3.926407812E0,8.613199741E-2,5.131268129E-2,6.719517708E-2
3.928421894E0,8.307767659E-2,6.291911751E-2,6.841690838E-2
3.930405284E0,8.063421398E-2,7.086037099E-2,7.086037099E-2
3.932418828E0,7.452555746E-2,8.368854225E-2,7.391469181E-2
3.934404449E0,7.086037099E-2,8.796459436E-2,7.513642311E-2
3.936417685E0,6.658431143E-2,9.896016866E-2,8.002334833E-2
3.938401076E0,6.352998316E-2,1.075122803E-1,8.185594529E-2
3.940415850E0,5.742133409E-2,1.111774743E-1,8.368854225E-2
3.942398240E0,5.436700583E-2,1.178969890E-1,8.246681094E-2
3.944413015E0,5.253441259E-2,1.233947799E-1,8.796459436E-2
3.946396097E0,4.948008433E-2,1.246165112E-1,8.979719132E-2
3.948410949E0,4.276056588E-2,1.313360333E-1,8.857546002E-2
3.950394338E0,4.031710699E-2,1.325577646E-1,8.979719132E-2
3.952408421E0,3.726277873E-2,1.356120855E-1,8.979719132E-2
3.954423889E0,3.237585723E-2,1.350012124E-1,9.285151958E-2
3.956406278E0,2.809980139E-2,1.368338168E-1,9.529497474E-2
3.958420515E0,2.932153270E-2,1.350012124E-1,9.529497474E-2
3.960403905E0,2.321287990E-2,1.343903542E-1,9.590584040E-2
3.962419218E0,2.138028294E-2,1.313360333E-1,9.285151958E-2
3.964402377E0,2.015855350E-2,1.301143020E-1,9.407325089E-2
3.966415921E0,1.649336144E-2,1.233947799E-1,9.468411654E-2
3.968400465E0,1.649336144E-2,1.197295859E-1,9.651670605E-2
3.970413701E0,1.527163107E-2,1.130100712E-1,9.529497474E-2
3.972397784E0,9.773843922E-3,1.081231460E-1,9.529497474E-2
3.974412481E0,9.773843922E-3,1.050688252E-1,9.468411654E-2
3.976395257E0,6.108652335E-3,9.896016866E-2,9.346238524E-2
3.978409492E0,3.054326167E-3,8.918632567E-2,9.407325089E-2
3.980423883E0,6.108652451E-4,8.613199741E-2,9.285151958E-2
3.982407965E0,-4.276056774E-3,7.819075137E-2,9.162978828E-2
3.984422356E0,-3.665191587E-3,6.963863969E-2,9.346238524E-2
3.986405437E0,-7.330383174E-3,6.902777404E-2,9.040805697E-2
3.988419059E0,-1.038470957E-2,5.925392732E-2,8.979719132E-2
3.990402372E0,-1.404990070E-2,4.948008433E-2,8.735372871E-2
