"Time (s)","Gyroscope x (rad/s)","Gyroscope y (rad/s)","Gyroscope z (rad/s)"
7.388615000E-3,-2.871066704E-2,-3.543018401E-1,4.703662544E-2
9.494154000E-3,-2.871066704E-2,-3.543018401E-1,4.703662544E-2
1.147723100E-2,-2.871066704E-2,-3.543018401E-1,4.703662544E-2
1.349238500E-2,-2.871066704E-2,-3.543018401E-1,4.703662544E-2
1.547600000E-2,-2.871066704E-2,-3.543018401E-1,4.703662544E-2
1.748892300E-2,-2.871066704E-2,-3.543018401E-1,4.703662544E-2
1.947323100E-2,-2.871066704E-2,-3.543018401E-1,4.703662544E-2
2.148776900E-2,-2.871066704E-2,-3.543018401E-1,4.703662544E-2
2.347169200E-2,-2.871066704E-2,-3.543018401E-1,4.703662544E-2
2.548500000E-2,-2.871066704E-2,-3.543018401E-1,4.703662544E-2
2.746992300E-2,-2.871066704E-2,-3.543018401E-1,4.703662544E-2
2.948253800E-2,-2.871066704E-2,-3.543018401E-1,4.703662544E-2
3.146707700E-2,-2.871066704E-2,-3.543018401E-1,4.703662544E-2
3.348123100E-2,-2.871066704E-2,-3.543018401E-1,4.703662544E-2
3.549453800E-2,-2.871066704E-2,-3.543018401E-1,4.703662544E-2
3.747884600E-2,-2.871066704E-2,-3.543018401E-1,4.703662544E-2
3.949207700E-2,-2.871066704E-2,-3.543018401E-1,4.703662544E-2
4.147638500E-2,-2.871066704E-2,-3.543018401E-1,4.703662544E-2
4.348992300E-2,-2.871066704E-2,-3.543018401E-1,4.703662544E-2
4.547453800E-2,-2.871066704E-2,-3.543018401E-1,4.703662544E-2
4.748953900E-2,-2.871066704E-2,-3.543018401E-1,4.703662544E-2
4.947230900E-2,-2.871066704E-2,-3.543018401E-1,4.703662544E-2
5.148561600E-2,-2.871066704E-2,-3.543018401E-1,4.703662544E-2
5.346961600E-2,-2.871066704E-2,-3.543018401E-1,4.703662544E-2
5.548407800E-2,-2.871066704E-2,-3.543018401E-1,4.703662544E-2
5.746684700E-2,-2.871066704E-2,-3.543018401E-1,4.703662544E-2
5.948184700E-2,-2.871066704E-2,-3.543018401E-1,4.703662544E-2
6.146554000E-2,-2.871066704E-2,-3.543018401E-1,4.703662544E-2
6.347969300E-2,-2.871066704E-2,-3.543018401E-1,4.703662544E-2
6.549384700E-2,-2.871066704E-2,-3.543018401E-1,4.703662544E-2
6.747815500E-2,-2.871066704E-2,-3.543018401E-1,4.703662544E-2
6.949138600E-2,-2.871066704E-2,-3.543018401E-1,4.703662544E-2
7.147577000E-2,-6.047565863E-2,-2.993239649E-2,8.918632567E-2
7.348923200E-2,-6.169738993E-2,-1.588249579E-2,9.162978828E-2
7.547361600E-2,-6.230825558E-2,-8.552113548E-3,9.101892263E-2
7.748684700E-2,-6.475171447E-2,5.497787148E-3,9.285151958E-2
7.947084700E-2,-6.658431143E-2,1.343903504E-2,9.162978828E-2
8.148492400E-2,-6.780604273E-2,2.748893574E-2,9.834930301E-2
8.346869300E-2,-7.208210230E-2,4.031710699E-2,9.468411654E-2
8.548254000E-2,-7.086037099E-2,4.703662544E-2,1.001819000E-1
8.746777100E-2,-7.208210230E-2,5.986479297E-2,1.007927656E-1
8.948038700E-2,-7.513642311E-2,6.963863969E-2,1.038470939E-1
9.149423300E-2,-7.757988572E-2,7.208210230E-2,1.020144969E-1
9.347877100E-2,-8.002334833E-2,7.574728876E-2,1.056796908E-1
9.549231000E-2,-8.063421398E-2,8.124507964E-2,1.105666086E-1
9.747515600E-2,-8.002334833E-2,8.063421398E-2,1.117883399E-1
9.949077100E-2,-8.063421398E-2,7.696902007E-2,1.160643995E-1
1.014738480E-1,-8.246681094E-2,6.902777404E-2,1.178969890E-1
1.034880790E-1,-8.491026610E-2,6.475171447E-2,1.166752651E-1
1.054723870E-1,-8.429940045E-2,5.803219974E-2,1.178969890E-1
1.074867710E-1,-8.491026610E-2,4.276056588E-2,1.215621829E-1
1.094698480E-1,-8.674286306E-2,3.543018550E-2,1.197295859E-1
1.114843100E-1,-8.368854225E-2,2.138028294E-2,1.233947799E-1
1.134671560E-1,-8.491026610E-2,1.527163107E-2,1.221730486E-1
1.154812330E-1,-8.429940045E-2,-2.443460980E-3,1.215621829E-1
1.174650020E-1,-8.552113175E-2,-2.015855350E-2,1.197295859E-1
1.194790790E-1,-8.491026610E-2,-2.871066704E-2,1.197295859E-1
1.214929250E-1,-8.491026610E-2,-4.764748737E-2,1.166752651E-1
1.234772330E-1,-8.368854225E-2,-6.597344577E-2,1.130100712E-1
1.254910790E-1,-8.368854225E-2,-7.452555746E-2,1.136209369E-1
1.274760800E-1,-8.368854225E-2,-9.224065393E-2,1.105666086E-1
1.294890030E-1,-8.429940045E-2,-1.099557430E-1,1.087340117E-1
1.314720800E-1,-8.246681094E-2,-1.160643995E-1,1.081231460E-1
1.334865420E-1,-8.185594529E-2,-1.313360333E-1,1.069014147E-1
1.354707720E-1,-8.307767659E-2,-1.472185254E-1,1.014036313E-1
1.374843880E-1,-8.063421398E-2,-1.551597714E-1,1.026253626E-1
1.394683110E-1,-8.185594529E-2,-1.661553532E-1,1.032362282E-1
1.414828490E-1,-8.368854225E-2,-1.734857261E-1,1.032362282E-1
1.434655420E-1,-8.491026610E-2,-1.777617931E-1,1.026253626E-1
1.454797720E-1,-8.246681094E-2,-1.814269722E-1,1.026253626E-1
1.474956960E-1,-8.552113175E-2,-1.826487035E-1,1.020144969E-1
1.494781570E-1,-8.491026610E-2,-1.869247705E-1,1.026253626E-1
1.514923880E-1,-8.857546002E-2,-1.838704348E-1,1.038470939E-1
1.534766190E-1,-8.857546002E-2,-1.832595766E-1,1.056796908E-1
1.554902340E-1,-9.101892263E-2,-1.747074574E-1,1.062905490E-1
1.574733110E-1,-9.162978828E-2,-1.685988009E-1,1.099557430E-1
1.594876960E-1,-9.346238524E-2,-1.643227488E-1,1.111774743E-1
1.614714650E-1,-9.651670605E-2,-1.533271819E-1,1.178969890E-1
1.634849260E-1,-9.834930301E-2,-1.392772794E-1,1.203404516E-1
1.654693110E-1,-9.957103431E-2,-1.350012124E-1,1.215621829E-1
1.674834660E-1,-1.020144969E-1,-1.209513173E-1,1.276708394E-1
1.694671580E-1,-1.050688252E-1,-1.075122803E-1,1.319468915E-1
1.714809270E-1,-1.044579595E-1,-9.957103431E-2,1.350012124E-1
1.734963890E-1,-1.075122803E-1,-8.735372871E-2,1.404990107E-1
1.754794660E-1,-1.093448773E-1,-7.391469181E-2,1.441642046E-1
1.774923890E-1,-1.111774743E-1,-6.841690838E-2,1.478293836E-1
1.794763120E-1,-1.142318025E-1,-5.253441259E-2,1.521054506E-1
1.814913890E-1,-1.130100712E-1,-4.948008433E-2,1.533271819E-1
1.834747740E-1,-1.166752651E-1,-3.848451003E-2,1.594358236E-1
1.854883120E-1,-1.185078546E-1,-3.237585723E-2,1.655444801E-1
1.874733120E-1,-1.209513173E-1,-2.565634064E-2,1.655444801E-1
1.894870810E-1,-1.227839142E-1,-1.893682219E-2,1.704314053E-1
1.914708510E-1,-1.252273768E-1,-1.588249579E-2,1.734857261E-1
1.934843890E-1,-1.258382350E-1,-1.466076635E-2,1.759291887E-1
1.954686200E-1,-1.288925707E-1,-1.527163107E-2,1.802052408E-1
1.974821580E-1,-1.295034289E-1,-1.466076635E-2,1.844813079E-1
1.994655430E-1,-1.325577646E-1,-1.649336144E-2,1.857030392E-1
2.014803120E-1,-1.331686229E-1,-2.260201424E-2,1.881465018E-1
2.034942350E-1,-1.368338168E-1,-2.809980139E-2,1.912008226E-1
2.054778510E-1,-1.374446750E-1,-3.359758854E-2,1.924225539E-1
2.074923900E-1,-1.398881376E-1,-4.276056588E-2,1.954768747E-1
2.094753900E-1,-1.411098689E-1,-4.948008433E-2,1.960877478E-1
2.114895440E-1,-1.435533315E-1,-6.169738993E-2,2.003637999E-1
2.134726980E-1,-1.478293836E-1,-7.635815442E-2,2.009746730E-1
2.154876980E-1,-1.484402567E-1,-8.429940045E-2,2.052507252E-1
2.174711590E-1,-1.521054506E-1,-9.834930301E-2,2.076941878E-1
2.194853130E-1,-1.563815027E-1,-1.172861308E-1,2.095267773E-1
2.214690050E-1,-1.539380401E-1,-1.233947799E-1,2.119702399E-1
2.234831590E-1,-1.576032341E-1,-1.411098689E-1,2.150245607E-1
2.254668520E-1,-1.582140923E-1,-1.588249654E-1,2.156354338E-1
2.274818520E-1,-1.582140923E-1,-1.692096740E-1,2.162462920E-1
2.294652360E-1,-1.612684280E-1,-1.844813079E-1,2.174680233E-1
2.314800820E-1,-1.618792862E-1,-2.021963894E-1,2.162462920E-1
2.334938520E-1,-1.649336219E-1,-2.058615834E-1,2.174680233E-1
2.354763130E-1,-1.655444801E-1,-2.193006277E-1,2.186897546E-1
2.374910820E-1,-1.704314053E-1,-2.272418737E-1,2.211332172E-1
2.394748520E-1,-1.698205322E-1,-2.309070677E-1,2.223549485E-1
2.414886980E-1,-1.734857261E-1,-2.351831198E-1,2.260201424E-1
2.434716980E-1,-1.777617931E-1,-2.419026345E-1,2.315179259E-1
2.454868520E-1,-1.808161139E-1,-2.449569702E-1,2.351831198E-1
2.474701590E-1,-1.838704348E-1,-2.467895597E-1,2.406809032E-1
2.494840830E-1,-1.850921661E-1,-2.498438805E-1,2.431243658E-1
2.514673910E-1,-1.905899495E-1,-2.498438805E-1,2.498438805E-1
2.534822370E-1,-1.973094791E-1,-2.474004179E-1,2.577851415E-1
2.554658530E-1,-1.985312104E-1,-2.492330223E-1,2.596177161E-1
2.574791600E-1,-2.028072625E-1,-2.474004179E-1,2.657263875E-1
2.594945450E-1,-2.083050460E-1,-2.437352389E-1,2.730567753E-1
2.614773140E-1,-2.107485086E-1,-2.419026345E-1,2.803871334E-1
2.634920070E-1,-2.138028294E-1,-2.333505303E-1,2.864958048E-1
2.654750830E-1,-2.162462920E-1,-2.302961946E-1,2.950479090E-1
2.674901600E-1,-2.180788964E-1,-2.284636050E-1,2.987131178E-1
2.694738530E-1,-2.241875380E-1,-2.199114859E-1,3.036000133E-1
2.714877760E-1,-2.278527319E-1,-2.138028294E-1,3.072652221E-1
2.734713910E-1,-2.296853364E-1,-2.101376504E-1,3.109304011E-1
2.754850070E-1,-2.339613885E-1,-2.046398520E-1,3.145956099E-1
2.774686990E-1,-2.376265824E-1,-1.991420686E-1,3.164281845E-1
2.794828530E-1,-2.400700450E-1,-1.905899495E-1,3.213151097E-1
2.814664680E-1,-2.437352389E-1,-1.844813079E-1,3.213151097E-1
2.834809300E-1,-2.449569702E-1,-1.814269722E-1,3.243694305E-1
2.854953910E-1,-2.480112910E-1,-1.759291887E-1,3.243694305E-1
2.874797760E-1,-2.516764700E-1,-1.710422635E-1,3.255911767E-1
2.894923920E-1,-2.541199327E-1,-1.698205322E-1,3.249803185E-1
2.914753920E-1,-2.571742535E-1,-1.649336219E-1,3.262020350E-1
2.934899310E-1,-2.596177161E-1,-1.600466967E-1,3.268128932E-1
2.954745460E-1,-2.583959997E-1,-1.594358236E-1,3.286454976E-1
2.974886230E-1,-2.614503205E-1,-1.569923609E-1,3.286454976E-1
2.994714690E-1,-2.614503205E-1,-1.569923609E-1,3.249803185E-1
3.014864690E-1,-2.590068579E-1,-1.539380401E-1,3.274237812E-1
3.034699310E-1,-2.590068579E-1,-1.545489132E-1,3.268128932E-1
3.054837770E-1,-2.583959997E-1,-1.502728462E-1,3.268128932E-1
3.074690080E-1,-2.553416789E-1,-1.490511149E-1,3.292563558E-1
3.094816230E-1,-2.553416789E-1,-1.472185254E-1,3.237585723E-1
3.114656230E-1,-2.541199327E-1,-1.453859210E-1,3.243694305E-1
3.134797770E-1,-2.522873580E-1,-1.411098689E-1,3.243694305E-1
3.154936230E-1,-2.480112910E-1,-1.368338168E-1,3.237585723E-1
3.174773150E-1,-2.492330223E-1,-1.319468915E-1,3.225368559E-1
3.194911620E-1,-2.431243658E-1,-1.270599663E-1,3.219259977E-1
3.214748540E-1,-2.412917763E-1,-1.197295859E-1,3.188716471E-1
3.234892380E-1,-2.376265824E-1,-1.166752651E-1,3.170390725E-1
3.254732380E-1,-2.370157093E-1,-1.093448773E-1,3.152064681E-1
3.274886230E-1,-2.339613885E-1,-9.896016866E-2,3.090978265E-1
3.294708550E-1,-2.333505303E-1,-9.468411654E-2,3.103195429E-1
3.314843930E-1,-2.260201424E-1,-8.368854225E-2,3.060434759E-1
3.334687010E-1,-2.211332172E-1,-7.330382615E-2,3.023782969E-1
3.354831630E-1,-2.205223590E-1,-6.719517708E-2,2.999348342E-1
3.374652390E-1,-2.193006277E-1,-5.558873713E-2,2.950479090E-1
3.394803160E-1,-2.156354338E-1,-4.948008433E-2,2.919935882E-1
3.414954700E-1,-2.138028294E-1,-3.420845419E-2,2.901609838E-1
3.434787780E-1,-2.119702399E-1,-1.954768784E-2,2.877175212E-1
3.454920090E-1,-2.113593817E-1,-1.404990070E-2,2.883284092E-1
3.474766240E-1,-2.076941878E-1,-6.108652451E-4,2.840523422E-1
3.494905470E-1,-2.034181207E-1,1.404990070E-2,2.852740586E-1
3.514748550E-1,-2.028072625E-1,1.954768784E-2,2.864958048E-1
3.534883160E-1,-2.040289938E-1,3.237585723E-2,2.852740586E-1
3.554717780E-1,-2.009746730E-1,4.459316283E-2,2.852740586E-1
3.574864700E-1,-2.015855312E-1,5.009094998E-2,2.858849466E-1
3.594696240E-1,-2.003637999E-1,5.864306539E-2,2.852740586E-1
3.614840860E-1,-1.997529417E-1,6.902777404E-2,2.871066630E-1
3.634677780E-1,-1.997529417E-1,7.696902007E-2,2.864958048E-1
3.654816240E-1,-2.003637999E-1,8.002334833E-2,2.907718420E-1
3.674667780E-1,-2.009746730E-1,8.674286306E-2,2.895501256E-1
3.694794710E-1,-2.034181207E-1,9.101892263E-2,2.901609838E-1
3.714927020E-1,-2.003637999E-1,9.162978828E-2,2.913827300E-1
3.734776250E-1,-2.015855312E-1,9.407325089E-2,2.913827300E-1
3.754910870E-1,-2.015855312E-1,9.346238524E-2,2.956587672E-1
3.774750870E-1,-2.034181207E-1,9.162978828E-2,2.968805134E-1
3.794892410E-1,-2.040289938E-1,9.224065393E-2,2.956587672E-1
3.814729330E-1,-2.028072625E-1,8.552113175E-2,2.968805134E-1
3.834870870E-1,-2.058615834E-1,7.880161703E-2,2.999348342E-1
3.854707790E-1,-2.058615834E-1,7.696902007E-2,2.981022298E-1
3.874861640E-1,-2.064724565E-1,6.780604273E-2,2.962696552E-1
3.894680100E-1,-2.046398520E-1,5.864306539E-2,2.974913716E-1
3.914822410E-1,-2.070833147E-1,5.253441259E-2,2.968805134E-1
3.934667790E-1,-2.076941878E-1,4.214970022E-2,2.974913716E-1
3.954803940E-1,-2.070833147E-1,2.565634064E-2,2.950479090E-1
3.974953940E-1,-2.064724565E-1,2.076941915E-2,2.950479090E-1
3.994784710E-1,-2.034181207E-1,6.719517522E-3,2.938261926E-1
4.014917790E-1,-2.009746730E-1,-7.941247895E-3,2.913827300E-1
4.034757790E-1,-1.997529417E-1,-1.588249579E-2,2.901609838E-1
4.054893180E-1,-1.960877478E-1,-3.237585723E-2,2.883284092E-1
4.074747790E-1,-1.930334121E-1,-3.970624134E-2,2.840523422E-1
4.094886260E-1,-1.893682331E-1,-5.497787148E-2,2.748893499E-1
4.114710880E-1,-1.844813079E-1,-6.963863969E-2,2.706133127E-1
4.134865490E-1,-1.820378453E-1,-7.574728876E-2,2.675589919E-1
4.154701650E-1,-1.802052408E-1,-8.735372871E-2,2.614503205E-1
4.174837030E-1,-1.771509200E-1,-9.773843735E-2,2.528982162E-1
4.194670880E-1,-1.740965992E-1,-9.834930301E-2,2.480112910E-1
4.214818570E-1,-1.710422635E-1,-1.007927656E-1,2.443460971E-1
4.234652420E-1,-1.692096740E-1,-1.044579595E-1,2.382374406E-1
4.254790880E-1,-1.661553532E-1,-1.020144969E-1,2.370157093E-1
4.274942420E-1,-1.655444801E-1,-1.014036313E-1,2.315179259E-1
4.294769340E-1,-1.600466967E-1,-1.001819000E-1,2.296853364E-1
4.314911650E-1,-1.606575549E-1,-9.651670605E-2,2.266310006E-1
4.334745490E-1,-1.594358236E-1,-9.040805697E-2,2.266310006E-1
4.354887030E-1,-1.576032341E-1,-8.368854225E-2,2.254092693E-1
4.374723960E-1,-1.588249654E-1,-7.819075137E-2,2.223549485E-1
4.394861650E-1,-1.569923609E-1,-6.902777404E-2,2.223549485E-1
4.414698570E-1,-1.576032341E-1,-6.230825558E-2,2.241875380E-1
4.434843190E-1,-1.582140923E-1,-5.070181563E-2,2.254092693E-1
4.454680110E-1,-1.557706445E-1,-3.909537569E-2,2.241875380E-1
4.474833960E-1,-1.545489132E-1,-3.298672289E-2,2.260201424E-1
4.494658580E-1,-1.521054506E-1,-2.076941915E-2,2.278527319E-1
4.514793970E-1,-1.533271819E-1,-9.773843922E-3,2.315179259E-1
4.534938580E-1,-1.508837193E-1,-2.443460980E-3,2.315179259E-1
4.554776270E-1,-1.514945775E-1,1.038470957E-2,2.357939780E-1
4.574920120E-1,-1.514945775E-1,2.504547499E-2,2.345722616E-1
4.594753970E-1,-1.496619880E-1,2.809980139E-2,2.370157093E-1
4.614895500E-1,-1.514945775E-1,3.481931984E-2,2.382374406E-1
4.634736270E-1,-1.514945775E-1,4.337143153E-2,2.388483137E-1
4.654880120E-1,-1.521054506E-1,4.459316283E-2,2.394591719E-1
4.674723200E-1,-1.533271819E-1,4.825835302E-2,2.406809032E-1
4.694858580E-1,-1.539380401E-1,5.314527452E-2,2.382374406E-1
4.714695500E-1,-1.514945775E-1,4.703662544E-2,2.382374406E-1
4.734831660E-1,-1.557706445E-1,4.581489414E-2,2.388483137E-1
4.754668580E-1,-1.533271819E-1,4.337143153E-2,2.376265824E-1
4.774810120E-1,-1.533271819E-1,3.604105115E-2,2.370157093E-1
4.794953970E-1,-1.521054506E-1,2.565634064E-2,2.345722616E-1
4.814790890E-1,-1.508837193E-1,2.015855350E-2,2.333505303E-1
4.834933200E-1,-1.496619880E-1,9.162978269E-3,2.327396572E-1
4.854763970E-1,-1.484402567E-1,-5.497787148E-3,2.296853364E-1
4.874920120E-1,-1.472185254E-1,-1.466076635E-2,2.278527319E-1
4.894741670E-1,-1.472185254E-1,-2.504547499E-2,2.229658216E-1
4.914874750E-1,-1.459967941E-1,-4.153883830E-2,2.193006277E-1
4.934727050E-1,-1.447750628E-1,-4.764748737E-2,2.168571651E-1
4.954868590E-1,-1.441642046E-1,-6.108652428E-2,2.144137025E-1
4.974693210E-1,-1.423316002E-1,-7.452555746E-2,2.083050460E-1
4.994843980E-1,-1.417207420E-1,-8.063421398E-2,2.070833147E-1
5.014671670E-1,-1.423316002E-1,-9.468411654E-2,2.009746730E-1
5.034818590E-1,-1.392772794E-1,-9.712757170E-2,1.997529417E-1
5.054653210E-1,-1.404990107E-1,-1.062905490E-1,1.954768747E-1
5.074807050E-1,-1.386664063E-1,-1.178969890E-1,1.924225539E-1
5.094939360E-1,-1.380555481E-1,-1.227839142E-1,1.930334121E-1
5.114787820E-1,-1.386664063E-1,-1.264491081E-1,1.875356287E-1
5.134911670E-1,-1.368338168E-1,-1.331686229E-1,1.844813079E-1
5.154757820E-1,-1.374446750E-1,-1.368338168E-1,1.826487035E-1
5.174892440E-1,-1.368338168E-1,-1.392772794E-1,1.808161139E-1
5.194736290E-1,-1.362229437E-1,-1.423316002E-1,1.771509200E-1
5.214877820E-1,-1.331686229E-1,-1.435533315E-1,1.771509200E-1
5.234710900E-1,-1.356120855E-1,-1.435533315E-1,1.740965992E-1
5.254865520E-1,-1.325577646E-1,-1.435533315E-1,1.716531366E-1
5.274698590E-1,-1.319468915E-1,-1.392772794E-1,1.698205322E-1
5.294833980E-1,-1.282816976E-1,-1.368338168E-1,1.685988009E-1
5.314662450E-1,-1.270599663E-1,-1.319468915E-1,1.667662114E-1
5.334800140E-1,-1.264491081E-1,-1.319468915E-1,1.679879427E-1
5.354954760E-1,-1.240056455E-1,-1.233947799E-1,1.649336219E-1
5.374784760E-1,-1.240056455E-1,-1.227839142E-1,1.637118906E-1
5.394929370E-1,-1.209513173E-1,-1.178969890E-1,1.600466967E-1
5.414753990E-1,-1.197295859E-1,-1.142318025E-1,1.612684280E-1
5.434902450E-1,-1.185078546E-1,-1.099557430E-1,1.600466967E-1
5.454744760E-1,-1.160643995E-1,-1.075122803E-1,1.576032341E-1
5.474892450E-1,-1.154535338E-1,-1.020144969E-1,1.569923609E-1
5.494726300E-1,-1.136209369E-1,-9.712757170E-2,1.533271819E-1
5.514865530E-1,-1.130100712E-1,-9.773843735E-2,1.521054506E-1
5.534693220E-1,-1.111774743E-1,-9.346238524E-2,1.496619880E-1
5.554843220E-1,-1.111774743E-1,-9.224065393E-2,1.459967941E-1
5.574671680E-1,-1.093448773E-1,-9.285151958E-2,1.453859210E-1
5.594813220E-1,-1.056796908E-1,-9.224065393E-2,1.386664063E-1
5.614655530E-1,-1.050688252E-1,-8.979719132E-2,1.380555481E-1
5.634797830E-1,-1.044579595E-1,-9.285151958E-2,1.325577646E-1
5.654932450E-1,-1.001819000E-1,-9.407325089E-2,1.288925707E-1
5.674782450E-1,-1.032362282E-1,-9.590584040E-2,1.227839142E-1
5.694917830E-1,-9.712757170E-2,-1.001819000E-1,1.154535338E-1
5.714747840E-1,-9.773843735E-2,-1.007927656E-1,1.123992056E-1
5.734898610E-1,-9.346238524E-2,-1.032362282E-1,1.050688252E-1
5.754730150E-1,-9.346238524E-2,-1.050688252E-1,9.834930301E-2
5.774865540E-1,-9.346238524E-2,-1.044579595E-1,9.529497474E-2
5.794707850E-1,-9.101892263E-2,-1.056796908E-1,8.979719132E-2
5.814847080E-1,-9.224065393E-2,-1.062905490E-1,8.246681094E-2
5.834677850E-1,-9.224065393E-2,-1.069014147E-1,8.124507964E-2
5.854827850E-1,-9.346238524E-2,-1.026253626E-1,7.574728876E-2
5.874668610E-1,-9.346238524E-2,-1.007927656E-1,7.330382615E-2
5.894806310E-1,-9.346238524E-2,-1.014036313E-1,7.024950534E-2
5.914951690E-1,-9.407325089E-2,-9.651670605E-2,6.780604273E-2
5.934779380E-1,-9.468411654E-2,-9.529497474E-2,6.536258012E-2
5.954920150E-1,-9.651670605E-2,-9.040805697E-2,6.475171447E-2
5.974757850E-1,-9.896016866E-2,-8.491026610E-2,6.108652428E-2
5.994898610E-1,-1.001819000E-1,-7.941248268E-2,6.047565863E-2
6.014733230E-1,-1.020144969E-1,-7.513642311E-2,5.864306539E-2
6.034880150E-1,-1.050688252E-1,-6.719517708E-2,6.047565863E-2
6.054720150E-1,-1.081231460E-1,-6.597344577E-2,6.047565863E-2
6.074868610E-1,-1.130100712E-1,-5.864306539E-2,6.169738993E-2
6.094702460E-1,-1.166752651E-1,-5.009094998E-2,6.475171447E-2
6.114825550E-1,-1.191187203E-1,-4.398229718E-2,6.597344577E-2
6.134674010E-1,-1.215621829E-1,-3.237585723E-2,7.024950534E-2
6.154816320E-1,-1.264491081E-1,-2.443460934E-2,7.574728876E-2
6.174655550E-1,-1.276708394E-1,-2.015855350E-2,7.696902007E-2
6.194794010E-1,-1.313360333E-1,-7.330383174E-3,8.185594529E-2
6.214936320E-1,-1.343903542E-1,0.000000000E0,8.796459436E-2
6.234775550E-1,-1.362229437E-1,4.276056774E-3,8.979719132E-2
6.254911700E-1,-1.362229437E-1,1.343903504E-2,9.651670605E-2
6.274751700E-1,-1.411098689E-1,2.138028294E-2,9.896016866E-2
6.294892470E-1,-1.423316002E-1,2.321287990E-2,1.014036313E-1
6.314726320E-1,-1.441642046E-1,2.748893574E-2,1.001819000E-1
6.334864780E-1,-1.453859210E-1,3.176499158E-2,1.038470939E-1
6.354702470E-1,-1.490511149E-1,3.848451003E-2,1.026253626E-1
6.374847090E-1,-1.478293836E-1,3.848451003E-2,1.044579595E-1
6.394674010E-1,-1.490511149E-1,4.214970022E-2,1.032362282E-1
6.414824780E-1,-1.521054506E-1,4.398229718E-2,9.957103431E-2
6.434664780E-1,-1.533271819E-1,4.520402849E-2,9.834930301E-2
6.454800930E-1,-1.490511149E-1,4.398229718E-2,9.712757170E-2
6.474950930E-1,-1.545489132E-1,4.764748737E-2,9.407325089E-2
6.494787860E-1,-1.563815027E-1,4.825835302E-2,9.162978828E-2
6.514924020E-1,-1.533271819E-1,4.520402849E-2,9.407325089E-2
6.534764020E-1,-1.557706445E-1,4.398229718E-2,8.918632567E-2
6.554908640E-1,-1.563815027E-1,4.153883830E-2,8.857546002E-2
6.574730170E-1,-1.569923609E-1,3.909537569E-2,8.552113175E-2
6.594880940E-1,-1.576032341E-1,3.420845419E-2,8.552113175E-2
6.614714790E-1,-1.557706445E-1,2.809980139E-2,8.429940045E-2
6.634858640E-1,-1.582140923E-1,2.504547499E-2,8.552113175E-2
6.654690170E-1,-1.606575549E-1,2.076941915E-2,8.368854225E-2
6.674844020E-1,-1.606575549E-1,1.649336144E-2,8.124507964E-2
6.694677100E-1,-1.594358236E-1,8.552113548E-3,8.246681094E-2
6.714827870E-1,-1.582140923E-1,3.665191587E-3,8.491026610E-2
6.734658640E-1,-1.600466967E-1,1.221730490E-3,8.674286306E-2
6.754794020E-1,-1.588249654E-1,-6.719517522E-3,8.613199741E-2
6.774930180E-1,-1.606575549E-1,-1.038470957E-2,8.674286306E-2
6.794772480E-1,-1.594358236E-1,-1.343903504E-2,8.979719132E-2
6.814914020E-1,-1.618792862E-1,-1.893682219E-2,9.224065393E-2
6.834748640E-1,-1.631010175E-1,-2.015855350E-2,9.712757170E-2
6.854892480E-1,-1.637118906E-1,-2.382374369E-2,9.590584040E-2
6.874739410E-1,-1.618792862E-1,-2.443460934E-2,9.834930301E-2
6.894867870E-1,-1.624901593E-1,-2.321287990E-2,1.007927656E-1
6.914696340E-1,-1.643227488E-1,-2.565634064E-2,1.032362282E-1
6.934834800E-1,-1.637118906E-1,-2.504547499E-2,1.032362282E-1
6.954686340E-1,-1.612684280E-1,-2.504547499E-2,1.062905490E-1
6.974827880E-1,-1.618792862E-1,-2.321287990E-2,1.075122803E-1
6.994655570E-1,-1.618792862E-1,-1.893682219E-2,1.111774743E-1
7.014800190E-1,-1.624901593E-1,-1.832595654E-2,1.130100712E-1
7.034944800E-1,-1.582140923E-1,-1.527163107E-2,1.130100712E-1
7.054779420E-1,-1.582140923E-1,-1.038470957E-2,1.185078546E-1
7.074938650E-1,-1.600466967E-1,-9.162978269E-3,1.203404516E-1
7.094760960E-1,-1.582140923E-1,-4.276056774E-3,1.240056455E-1
7.114914030E-1,-1.582140923E-1,3.054326167E-3,1.288925707E-1
7.134735570E-1,-1.563815027E-1,2.443460980E-3,1.307251602E-1
7.154871720E-1,-1.551597714E-1,7.330383174E-3,1.350012124E-1
7.174714030E-1,-1.563815027E-1,9.773843922E-3,1.411098689E-1
7.194852490E-1,-1.563815027E-1,1.160643995E-2,1.447750628E-1
7.214692490E-1,-1.563815027E-1,1.527163107E-2,1.484402567E-1
7.234834030E-1,-1.557706445E-1,1.588249579E-2,1.533271819E-1
7.254668650E-1,-1.551597714E-1,1.771509275E-2,1.533271819E-1
7.274818650E-1,-1.527163088E-1,1.710422710E-2,1.594358236E-1
7.294644030E-1,-1.508837193E-1,1.954768784E-2,1.606575549E-1
7.314782500E-1,-1.508837193E-1,1.893682219E-2,1.649336219E-1
7.334929430E-1,-1.496619880E-1,2.076941915E-2,1.673770845E-1
7.354770200E-1,-1.496619880E-1,2.138028294E-2,1.679879427E-1
7.374898660E-1,-1.484402567E-1,2.260201424E-2,1.722639948E-1
7.394748660E-1,-1.484402567E-1,2.565634064E-2,1.734857261E-1
7.414886350E-1,-1.472185254E-1,2.565634064E-2,1.728748679E-1
7.434720200E-1,-1.478293836E-1,2.748893574E-2,1.716531366E-1
7.454864810E-1,-1.508837193E-1,3.298672289E-2,1.722639948E-1
7.474710970E-1,-1.521054506E-1,3.665191308E-2,1.704314053E-1
7.494850200E-1,-1.557706445E-1,4.276056588E-2,1.692096740E-1
7.514683270E-1,-1.588249654E-1,4.886921868E-2,1.685988009E-1
7.534822500E-1,-1.569923609E-1,5.375614017E-2,1.692096740E-1
7.554650200E-1,-1.594358236E-1,6.352998316E-2,1.704314053E-1
7.574794810E-1,-1.612684280E-1,7.757988572E-2,1.722639948E-1
7.594935580E-1,-1.600466967E-1,8.063421398E-2,1.728748679E-1
7.614770200E-1,-1.576032341E-1,9.285151958E-2,1.765400618E-1
7.634917120E-1,-1.569923609E-1,9.834930301E-2,1.802052408E-1
7.654757120E-1,-1.551597714E-1,1.069014147E-1,1.850921661E-1
7.674911740E-1,-1.545489132E-1,1.178969890E-1,1.936442852E-1
7.694736350E-1,-1.539380401E-1,1.215621829E-1,1.948660165E-1
7.714868670E-1,-1.551597714E-1,1.288925707E-1,2.028072625E-1
7.734707900E-1,-1.551597714E-1,1.343903542E-1,2.070833147E-1
7.754856360E-1,-1.551597714E-1,1.368338168E-1,2.089159191E-1
7.774689440E-1,-1.576032341E-1,1.398881376E-1,2.144137025E-1
7.794827900E-1,-1.569923609E-1,1.466076523E-1,2.168571651E-1
7.814664820E-1,-1.569923609E-1,1.484402567E-1,2.193006277E-1
7.834812520E-1,-1.545489132E-1,1.527163088E-1,2.186897546E-1
7.854945590E-1,-1.527163088E-1,1.563815027E-1,2.205223590E-1
7.874788670E-1,-1.521054506E-1,1.576032341E-1,2.235766798E-1
7.894924050E-1,-1.502728462E-1,1.624901593E-1,2.217440903E-1
7.914772520E-1,-1.502728462E-1,1.698205322E-1,2.217440903E-1
7.934907900E-1,-1.472185254E-1,1.692096740E-1,2.229658216E-1
7.954739440E-1,-1.453859210E-1,1.740965992E-1,2.211332172E-1
7.974877130E-1,-1.453859210E-1,1.759291887E-1,2.223549485E-1
7.994714820E-1,-1.472185254E-1,1.814269722E-1,2.199114859E-1
8.014859440E-1,-1.478293836E-1,1.832595766E-1,2.229658216E-1
8.034698670E-1,-1.447750628E-1,1.850921661E-1,2.199114859E-1
8.054840210E-1,-1.435533315E-1,1.863138974E-1,2.186897546E-1
8.074686360E-1,-1.404990107E-1,1.863138974E-1,2.168571651E-1
8.094821750E-1,-1.398881376E-1,1.875356287E-1,2.180788964E-1
8.114649450E-1,-1.362229437E-1,1.850921661E-1,2.168571651E-1
8.134797910E-1,-1.343903542E-1,1.826487035E-1,2.180788964E-1
8.154942530E-1,-1.343903542E-1,1.814269722E-1,2.193006277E-1
8.174766370E-1,-1.295034289E-1,1.795943826E-1,2.138028294E-1
8.194917910E-1,-1.276708394E-1,1.765400618E-1,2.138028294E-1
8.214745600E-1,-1.276708394E-1,1.777617931E-1,2.138028294E-1
8.234896370E-1,-1.252273768E-1,1.722639948E-1,2.119702399E-1
8.254729450E-1,-1.221730486E-1,1.698205322E-1,2.125810981E-1
8.274874060E-1,-1.185078546E-1,1.710422635E-1,2.107485086E-1
8.294710990E-1,-1.160643995E-1,1.667662114E-1,2.095267773E-1
8.314858680E-1,-1.136209369E-1,1.661553532E-1,2.095267773E-1
8.334684070E-1,-1.093448773E-1,1.618792862E-1,2.070833147E-1
8.354827910E-1,-1.105666086E-1,1.637118906E-1,2.076941878E-1
8.374662530E-1,-1.062905490E-1,1.612684280E-1,2.089159191E-1
8.394806370E-1,-1.032362282E-1,1.612684280E-1,2.040289938E-1
8.414945600E-1,-1.007927656E-1,1.624901593E-1,2.058615834E-1
8.434781760E-1,-9.896016866E-2,1.588249654E-1,2.058615834E-1
8.454926370E-1,-9.896016866E-2,1.612684280E-1,2.040289938E-1
8.474764070E-1,-9.468411654E-2,1.618792862E-1,2.021963894E-1
8.494907910E-1,-9.651670605E-2,1.649336219E-1,1.997529417E-1
8.514732530E-1,-9.468411654E-2,1.661553532E-1,1.997529417E-1
8.534871000E-1,-9.224065393E-2,1.667662114E-1,2.034181207E-1
8.554724080E-1,-9.162978828E-2,1.685988009E-1,2.021963894E-1
8.574856380E-1,-9.162978828E-2,1.704314053E-1,2.034181207E-1
8.594695610E-1,-8.979719132E-2,1.722639948E-1,2.040289938E-1
8.614846380E-1,-8.979719132E-2,1.783726513E-1,2.034181207E-1
8.634674840E-1,-8.735372871E-2,1.802052408E-1,2.046398520E-1
8.654821770E-1,-8.491026610E-2,1.820378453E-1,2.046398520E-1
8.674661770E-1,-8.368854225E-2,1.850921661E-1,2.064724565E-1
8.694794080E-1,-8.002334833E-2,1.875356287E-1,2.058615834E-1
8.714938690E-1,-8.002334833E-2,1.887573600E-1,2.058615834E-1
8.734772540E-1,-7.941248268E-2,1.924225539E-1,2.070833147E-1
8.754914850E-1,-7.147123665E-2,1.966986060E-1,2.076941878E-1
8.774748690E-1,-7.086037099E-2,1.954768747E-1,2.070833147E-1
8.794887150E-1,-6.963863969E-2,1.991420686E-1,2.058615834E-1
8.814729460E-1,-6.780604273E-2,2.021963894E-1,2.015855312E-1
8.834868690E-1,-6.658431143E-2,2.040289938E-1,2.015855312E-1
8.854699460E-1,-6.658431143E-2,2.076941878E-1,2.003637999E-1
8.874856380E-1,-6.414084882E-2,2.113593817E-1,1.985312104E-1
8.894687150E-1,-6.475171447E-2,2.138028294E-1,1.979203373E-1
8.914819460E-1,-6.414084882E-2,2.174680233E-1,1.960877478E-1
8.934664860E-1,-6.291911751E-2,2.205223590E-1,1.930334121E-1
8.954809470E-1,-6.230825558E-2,2.241875380E-1,1.924225539E-1
8.974938700E-1,-6.108652428E-2,2.302961946E-1,1.893682331E-1
8.994778700E-1,-5.925392732E-2,2.351831198E-1,1.881465018E-1
9.014921010E-1,-5.803219974E-2,2.388483137E-1,1.881465018E-1
9.034757160E-1,-5.742133409E-2,2.425135076E-1,1.863138974E-1
9.054902550E-1,-5.558873713E-2,2.425135076E-1,1.863138974E-1
9.074747930E-1,-5.619960278E-2,2.498438805E-1,1.838704348E-1
9.094880240E-1,-5.436700583E-2,2.541199327E-1,1.826487035E-1
9.114724090E-1,-5.314527452E-2,2.565633953E-1,1.814269722E-1
9.134862550E-1,-5.192354694E-2,2.602286041E-1,1.802052408E-1
9.154692550E-1,-5.070181563E-2,2.608394623E-1,1.771509200E-1
9.174831780E-1,-5.009094998E-2,2.614503205E-1,1.777617931E-1
9.194674860E-1,-5.192354694E-2,2.638937831E-1,1.765400618E-1
9.214810240E-1,-4.825835302E-2,2.632829249E-1,1.765400618E-1
9.234954860E-1,-4.764748737E-2,2.614503205E-1,1.759291887E-1
9.254784860E-1,-4.459316283E-2,2.590068579E-1,1.734857261E-1
9.274948700E-1,-4.459316283E-2,2.583959997E-1,1.747074574E-1
9.294767160E-1,-4.214970022E-2,2.535090744E-1,1.734857261E-1
9.314904860E-1,-4.092797264E-2,2.516764700E-1,1.722639948E-1
9.334741790E-1,-4.031710699E-2,2.504547536E-1,1.698205322E-1
9.354895640E-1,-3.604105115E-2,2.425135076E-1,1.661553532E-1
9.374724100E-1,-3.176499158E-2,2.370157093E-1,1.649336219E-1
9.394861790E-1,-3.237585723E-2,2.315179259E-1,1.637118906E-1
9.414701790E-1,-2.687807009E-2,2.223549485E-1,1.612684280E-1
9.434841020E-1,-2.504547499E-2,2.193006277E-1,1.527163088E-1
9.454677170E-1,-2.138028294E-2,2.150245607E-1,1.508837193E-1
9.474828710E-1,-1.649336144E-2,2.052507252E-1,1.496619880E-1
9.494661790E-1,-1.404990070E-2,1.979203373E-1,1.411098689E-1
9.514807170E-1,-1.282817032E-2,1.942551434E-1,1.417207420E-1
9.534944870E-1,-7.330383174E-3,1.869247705E-1,1.374446750E-1
9.554773330E-1,-6.108652451E-4,1.783726513E-1,1.288925707E-1
9.574920250E-1,1.832595794E-3,1.753183305E-1,1.276708394E-1
9.594754870E-1,5.497787148E-3,1.704314053E-1,1.252273768E-1
9.614895640E-1,8.552113548E-3,1.655444801E-1,1.203404516E-1
9.634726410E-1,1.221730467E-2,1.594358236E-1,1.160643995E-1
9.654883330E-1,1.832595654E-2,1.600466967E-1,1.123992056E-1
9.674717180E-1,2.138028294E-2,1.569923609E-1,1.087340117E-1
9.694855640E-1,2.260201424E-2,1.521054506E-1,1.062905490E-1
9.714683330E-1,2.871066704E-2,1.551597714E-1,9.896016866E-2
9.734844110E-1,3.115412779E-2,1.539380401E-1,9.590584040E-2
9.754674880E-1,3.665191308E-2,1.545489132E-1,9.285151958E-2
9.774806420E-1,4.153883830E-2,1.551597714E-1,8.979719132E-2
9.794948720E-1,4.276056588E-2,1.569923609E-1,8.613199741E-2
9.814788720E-1,4.703662544E-2,1.606575549E-1,8.307767659E-2
9.834933340E-1,5.070181563E-2,1.649336219E-1,7.635815442E-2
9.854766420E-1,5.131268129E-2,1.685988009E-1,7.391469181E-2
9.874920260E-1,5.681046844E-2,1.716531366E-1,7.024950534E-2
9.894741800E-1,6.108652428E-2,1.795943826E-1,6.352998316E-2
9.914889490E-1,6.169738993E-2,1.850921661E-1,6.108652428E-2
9.934724110E-1,6.475171447E-2,1.930334121E-1,5.436700583E-2
9.954862570E-1,6.414084882E-2,1.979203373E-1,5.131268129E-2
9.974701800E-1,6.780604273E-2,2.083050460E-1,5.131268129E-2
9.994841030E-1,7.147123665E-2,2.193006277E-1,4.642575979E-2
1.001467488E0,7.269296050E-2,2.241875380E-1,4.520402849E-2
1.003482257E0,7.208210230E-2,2.327396572E-1,4.214970022E-2
1.005465872E0,7.513642311E-2,2.455678284E-1,4.214970022E-2
1.007480642E0,7.880161703E-2,2.480112910E-1,3.970624134E-2
1.009494872E0,7.574728876E-2,2.577851415E-1,3.665191308E-2
1.011476949E0,7.696902007E-2,2.638937831E-1,3.237585723E-2
1.013491181E0,7.757988572E-2,2.651155293E-1,3.298672289E-2
1.015475797E0,7.880161703E-2,2.724458873E-1,2.932153270E-2
1.017489643E0,7.819075137E-2,2.761110961E-1,2.871066704E-2
1.019473258E0,7.941248268E-2,2.791654170E-1,2.809980139E-2
1.021486797E0,8.185594529E-2,2.816088796E-1,2.443460934E-2
1.023471489E0,8.246681094E-2,2.846632004E-1,2.321287990E-2
1.025484950E0,8.307767659E-2,2.858849466E-1,2.260201424E-2
1.027469643E0,8.491026610E-2,2.864958048E-1,1.832595654E-2
1.029482797E0,8.552113175E-2,2.858849466E-1,2.015855350E-2
1.031467412E0,8.613199741E-2,2.864958048E-1,1.527163107E-2
1.033481027E0,8.857546002E-2,2.852740586E-1,1.527163107E-2
1.035495181E0,8.979719132E-2,2.834414840E-1,1.404990070E-2
1.037478258E0,8.979719132E-2,2.816088796E-1,1.160643995E-2
1.039492412E0,9.224065393E-2,2.803871334E-1,9.162978269E-3
1.041476643E0,9.101892263E-2,2.791654170E-1,7.330383174E-3
1.043490566E0,9.468411654E-2,2.748893499E-1,5.497787148E-3
1.045474797E0,9.590584040E-2,2.718350291E-1,1.832595794E-3
1.047489566E0,9.773843735E-2,2.687807083E-1,4.276056774E-3
1.049472027E0,1.007927656E-1,2.657263875E-1,6.108652451E-4
1.051485566E0,1.044579595E-1,2.596177161E-1,-1.221730490E-3
1.053470490E0,1.050688252E-1,2.590068579E-1,-4.276056774E-3
1.055484644E0,1.062905490E-1,2.522873580E-1,-1.832595794E-3
1.057467490E0,1.075122803E-1,2.480112910E-1,-1.221730490E-3
1.059481952E0,1.123992056E-1,2.431243658E-1,-2.443460980E-3
1.061465259E0,1.148426682E-1,2.351831198E-1,-6.108652451E-4
1.063479721E0,1.160643995E-1,2.333505303E-1,-3.054326167E-3
1.065493952E0,1.178969890E-1,2.302961946E-1,-3.054326167E-3
1.067478182E0,1.209513173E-1,2.205223590E-1,-3.054326167E-3
1.069491490E0,1.227839142E-1,2.174680233E-1,-4.276056774E-3
1.071476028E0,1.233947799E-1,2.083050460E-1,-4.886921961E-3
1.073489644E0,1.276708394E-1,1.985312104E-1,-4.276056774E-3
1.075473336E0,1.295034289E-1,1.930334121E-1,-5.497787148E-3
1.077487490E0,1.325577646E-1,1.838704348E-1,-6.719517522E-3
1.079470567E0,1.350012124E-1,1.740965992E-1,-3.665191587E-3
1.081485567E0,1.337794960E-1,1.667662114E-1,-6.719517522E-3
1.083468336E0,1.374446750E-1,1.569923609E-1,-7.941247895E-3
1.085482798E0,1.374446750E-1,1.453859210E-1,-6.108652335E-3
1.087467182E0,1.380555481E-1,1.392772794E-1,-6.108652335E-3
1.089480413E0,1.392772794E-1,1.270599663E-1,-9.773843922E-3
1.091493952E0,1.404990107E-1,1.197295859E-1,-9.162978269E-3
1.093477876E0,1.429424733E-1,1.087340117E-1,-8.552113548E-3
1.095492722E0,1.429424733E-1,9.590584040E-2,-1.160643995E-2
1.097476106E0,1.441642046E-1,9.040805697E-2,-9.162978269E-3
1.099490799E0,1.447750628E-1,7.757988572E-2,-8.552113548E-3
1.101473953E0,1.453859210E-1,6.841690838E-2,-1.343903504E-2
1.103488645E0,1.466076523E-1,6.475171447E-2,-1.099557430E-2
1.105472030E0,1.466076523E-1,5.314527452E-2,-1.404990070E-2
1.107486876E0,1.496619880E-1,4.520402849E-2,-1.466076635E-2
1.109469030E0,1.484402567E-1,4.031710699E-2,-1.710422710E-2
1.111484645E0,1.490511149E-1,3.481931984E-2,-1.710422710E-2
1.113467799E0,1.478293836E-1,2.809980139E-2,-2.015855350E-2
1.115481645E0,1.490511149E-1,2.443460934E-2,-2.015855350E-2
1.117465030E0,1.514945775E-1,2.199114859E-2,-2.260201424E-2
1.119480030E0,1.496619880E-1,1.893682219E-2,-2.260201424E-2
1.121493645E0,1.502728462E-1,2.076941915E-2,-2.138028294E-2
1.123477030E0,1.490511149E-1,1.771509275E-2,-2.321287990E-2
1.125491722E0,1.466076523E-1,1.832595654E-2,-2.382374369E-2
1.127475414E0,1.490511149E-1,2.076941915E-2,-2.321287990E-2
1.129489568E0,1.472185254E-1,2.443460934E-2,-2.321287990E-2
1.131472107E0,1.466076523E-1,2.626720630E-2,-2.199114859E-2
1.133487492E0,1.435533315E-1,3.115412779E-2,-2.260201424E-2
1.135470877E0,1.441642046E-1,3.787364438E-2,-1.893682219E-2
1.137483492E0,1.441642046E-1,4.031710699E-2,-1.832595654E-2
1.139468338E0,1.429424733E-1,4.581489414E-2,-1.832595654E-2
1.141482569E0,1.392772794E-1,5.253441259E-2,-1.588249579E-2
1.143466261E0,1.423316002E-1,5.497787148E-2,-1.527163107E-2
1.145480646E0,1.404990107E-1,6.291911751E-2,-1.221730467E-2
1.147495492E0,1.386664063E-1,6.719517708E-2,-1.343903504E-2
1.149477954E0,1.392772794E-1,7.086037099E-2,-1.038470957E-2
1.151492415E0,1.368338168E-1,7.880161703E-2,-9.162978269E-3
1.153476108E0,1.368338168E-1,8.246681094E-2,-9.162978269E-3
1.155489877E0,1.343903542E-1,8.918632567E-2,-9.162978269E-3
1.157473877E0,1.343903542E-1,9.468411654E-2,-9.162978269E-3
1.159487800E0,1.301143020E-1,9.957103431E-2,-9.773843922E-3
1.161471415E0,1.325577646E-1,1.026253626E-1,-4.886921961E-3
1.163485646E0,1.270599663E-1,1.056796908E-1,-6.108652335E-3
1.165469261E0,1.282816976E-1,1.081231460E-1,-4.886921961E-3
1.167484338E0,1.246165112E-1,1.099557430E-1,-3.665191587E-3
1.169467723E0,1.221730486E-1,1.117883399E-1,-6.108652335E-3
1.171480723E0,1.246165112E-1,1.099557430E-1,-5.497787148E-3
1.173495415E0,1.209513173E-1,1.099557430E-1,-5.497787148E-3
1.175479186E0,1.209513173E-1,1.087340117E-1,-6.108652335E-3
1.177493339E0,1.209513173E-1,1.062905490E-1,-4.276056774E-3
1.179476724E0,1.185078546E-1,1.020144969E-1,-3.665191587E-3
1.181490878E0,1.191187203E-1,9.712757170E-2,-6.108652335E-3
1.183474493E0,1.166752651E-1,9.285151958E-2,-4.886921961E-3
1.185488724E0,1.160643995E-1,8.918632567E-2,-6.719517522E-3
1.187473032E0,1.172861308E-1,8.491026610E-2,-7.330383174E-3
1.189487493E0,1.191187203E-1,7.696902007E-2,-4.886921961E-3
1.191470570E0,1.166752651E-1,7.208210230E-2,-1.038470957E-2
1.193485032E0,1.166752651E-1,6.475171447E-2,-1.038470957E-2
1.195468109E0,1.185078546E-1,5.681046844E-2,-1.466076635E-2
1.197481878E0,1.166752651E-1,4.703662544E-2,-1.710422710E-2
1.199465647E0,1.148426682E-1,4.398229718E-2,-1.771509275E-2
1.201479724E0,1.148426682E-1,3.420845419E-2,-1.771509275E-2
1.203494186E0,1.160643995E-1,2.199114859E-2,-1.954768784E-2
1.205478263E0,1.160643995E-1,1.832595654E-2,-2.199114859E-2
1.207493032E0,1.154535338E-1,6.108652335E-3,-2.321287990E-2
1.209474878E0,1.154535338E-1,-1.832595794E-3,-2.687807009E-2
1.211489647E0,1.111774743E-1,-6.108652335E-3,-2.748893574E-2
1.213474186E0,1.142318025E-1,-1.710422710E-2,-2.871066704E-2
1.215488033E0,1.136209369E-1,-2.382374369E-2,-3.237585723E-2
1.217470494E0,1.148426682E-1,-2.993239649E-2,-3.176499158E-2
1.219485648E0,1.154535338E-1,-3.848451003E-2,-3.604105115E-2
1.221469033E0,1.130100712E-1,-4.276056588E-2,-3.665191308E-2
1.223483417E0,1.123992056E-1,-5.009094998E-2,-3.665191308E-2
1.225467110E0,1.099557430E-1,-5.497787148E-2,-4.092797264E-2
1.227482494E0,1.123992056E-1,-5.803219974E-2,-3.848451003E-2
1.229465264E0,1.069014147E-1,-6.230825558E-2,-4.337143153E-2
1.231480341E0,1.032362282E-1,-6.719517708E-2,-4.276056588E-2
1.233492725E0,1.032362282E-1,-6.963863969E-2,-4.459316283E-2
1.235476417E0,1.020144969E-1,-6.902777404E-2,-4.459316283E-2
1.237490494E0,9.957103431E-2,-7.391469181E-2,-4.642575979E-2
1.239474802E0,9.529497474E-2,-7.024950534E-2,-4.642575979E-2
1.241488956E0,9.040805697E-2,-7.147123665E-2,-4.703662544E-2
1.243472341E0,8.613199741E-2,-6.780604273E-2,-4.886921868E-2
1.245487110E0,8.552113175E-2,-6.963863969E-2,-4.642575979E-2
1.247470879E0,8.124507964E-2,-6.719517708E-2,-4.886921868E-2
1.249483725E0,7.757988572E-2,-6.475171447E-2,-4.948008433E-2
1.251466879E0,7.574728876E-2,-6.475171447E-2,-5.009094998E-2
1.253481264E0,7.269296050E-2,-6.047565863E-2,-5.009094998E-2
1.255465649E0,6.780604273E-2,-5.436700583E-2,-5.253441259E-2
1.257480034E0,6.414084882E-2,-5.009094998E-2,-5.070181563E-2
1.259494265E0,6.047565863E-2,-4.703662544E-2,-5.131268129E-2
1.261477265E0,5.986479297E-2,-4.825835302E-2,-5.131268129E-2
1.263491803E0,5.314527452E-2,-4.031710699E-2,-5.253441259E-2
1.265475726E0,5.131268129E-2,-3.665191308E-2,-5.314527452E-2
1.267490188E0,4.764748737E-2,-3.298672289E-2,-5.131268129E-2
1.269473342E0,4.398229718E-2,-2.748893574E-2,-5.436700583E-2
1.271488111E0,4.153883830E-2,-2.260201424E-2,-5.131268129E-2
1.273471419E0,3.787364438E-2,-1.832595654E-2,-5.436700583E-2
1.275485034E0,3.359758854E-2,-1.527163107E-2,-5.375614017E-2
1.277468649E0,3.176499158E-2,-1.282817032E-2,-5.253441259E-2
1.279479111E0,2.871066704E-2,-1.038470957E-2,-5.375614017E-2
1.281496957E0,2.504547499E-2,-6.108652335E-3,-5.314527452E-2
1.283481034E0,2.260201424E-2,-4.886921961E-3,-5.253441259E-2
1.285495188E0,2.015855350E-2,-4.276056774E-3,-5.131268129E-2
1.287479726E0,1.710422710E-2,-1.832595794E-3,-4.948008433E-2
1.289493034E0,1.404990070E-2,-2.443460980E-3,-5.070181563E-2
1.291476342E0,1.099557430E-2,-3.054326167E-3,-4.948008433E-2
1.293491188E0,1.099557430E-2,-3.665191587E-3,-4.886921868E-2
1.295474804E0,7.330383174E-3,-1.221730490E-3,-5.192354694E-2
1.297488035E0,7.330383174E-3,-6.108652335E-3,-5.131268129E-2
1.299472112E0,4.276056774E-3,-7.941247895E-3,-5.131268129E-2
1.301486189E0,4.276056774E-3,-9.162978269E-3,-5.009094998E-2
1.303470497E0,3.054326167E-3,-1.466076635E-2,-5.131268129E-2
1.305484035E0,5.497787148E-3,-1.893682219E-2,-5.070181563E-2
1.307468420E0,1.221730490E-3,-2.260201424E-2,-5.375614017E-2
1.309482573E0,2.443460980E-3,-3.054326214E-2,-5.436700583E-2
1.311466189E0,1.221730490E-3,-3.543018550E-2,-5.436700583E-2
1.313480035E0,-1.221730490E-3,-4.092797264E-2,-5.803219974E-2
1.315493881E0,-6.108652451E-4,-4.886921868E-2,-5.803219974E-2
1.317477343E0,-6.108652451E-4,-5.192354694E-2,-5.925392732E-2
1.319491112E0,0.000000000E0,-6.047565863E-2,-5.986479297E-2
1.321474881E0,0.000000000E0,-6.780604273E-2,-6.475171447E-2
1.323489650E0,0.000000000E0,-7.269296050E-2,-6.352998316E-2
1.325473266E0,1.221730490E-3,-8.185594529E-2,-6.291911751E-2
1.327488420E0,4.276056774E-3,-9.285151958E-2,-6.475171447E-2
1.329470881E0,4.276056774E-3,-9.773843735E-2,-6.291911751E-2
1.331484420E0,8.552113548E-3,-1.099557430E-1,-6.475171447E-2
1.333467804E0,1.160643995E-2,-1.246165112E-1,-6.780604273E-2
1.335482805E0,1.404990070E-2,-1.331686229E-1,-6.719517708E-2
1.337466267E0,2.076941915E-2,-1.472185254E-1,-7.024950534E-2
1.339480728E0,2.565634064E-2,-1.655444801E-1,-7.086037099E-2
1.341495421E0,2.748893574E-2,-1.728748679E-1,-7.330382615E-2
1.343478267E0,3.481931984E-2,-1.942551434E-1,-7.574728876E-2
1.345492651E0,4.153883830E-2,-2.193006277E-1,-7.880161703E-2
1.347477651E0,4.520402849E-2,-2.302961946E-1,-7.880161703E-2
1.349490575E0,5.009094998E-2,-2.547308207E-1,-8.429940045E-2
1.351474498E0,5.314527452E-2,-2.700024247E-1,-8.429940045E-2
1.353488036E0,6.047565863E-2,-2.987131178E-1,-8.674286306E-2
1.355471805E0,6.719517708E-2,-3.262020350E-1,-9.162978828E-2
1.357486575E0,7.024950534E-2,-3.408628106E-1,-9.468411654E-2
1.359469959E0,7.757988572E-2,-3.738495409E-1,-9.651670605E-2
1.361484421E0,8.185594529E-2,-4.043927789E-1,-9.957103431E-2
1.363467728E0,8.491026610E-2,-4.227187634E-1,-1.014036313E-1
1.365482267E0,9.162978828E-2,-4.544837475E-1,-1.044579595E-1
1.367466267E0,9.529497474E-2,-4.874704778E-1,-1.069014147E-1
1.369479728E0,9.834930301E-2,-5.015203953E-1,-1.105666086E-1
1.371492728E0,1.014036313E-1,-5.363397002E-1,-1.105666086E-1
1.373477652E0,1.062905490E-1,-5.662720799E-1,-1.148426682E-1
1.375492114E0,1.075122803E-1,-5.791002512E-1,-1.136209369E-1
1.377474576E0,1.087340117E-1,-6.072000265E-1,-1.166752651E-1
1.379489037E0,1.105666086E-1,-6.322455406E-1,-1.185078546E-1
1.381472114E0,1.111774743E-1,-6.420193911E-1,-1.191187203E-1
1.383486499E0,1.093448773E-1,-6.652322412E-1,-1.209513173E-1
1.385470576E0,1.099557430E-1,-6.713408828E-1,-1.233947799E-1
1.387486268E0,1.062905490E-1,-6.823364496E-1,-1.227839142E-1
1.389468730E0,1.081231460E-1,-6.927211881E-1,-1.233947799E-1
1.391482883E0,1.087340117E-1,-6.933320761E-1,-1.246165112E-1
1.393466499E0,1.044579595E-1,-6.957755089E-1,-1.252273768E-1
1.395479730E0,1.044579595E-1,-6.933320761E-1,-1.246165112E-1
1.397494268E0,1.038470939E-1,-6.902777553E-1,-1.233947799E-1
1.399478576E0,9.773843735E-2,-6.811147332E-1,-1.233947799E-1
1.401492345E0,9.651670605E-2,-6.676757336E-1,-1.227839142E-1
1.403475191E0,9.651670605E-2,-6.579018831E-1,-1.209513173E-1
1.405490191E0,9.346238524E-2,-6.414085031E-1,-1.197295859E-1
1.407474883E0,8.796459436E-2,-6.151412725E-1,-1.191187203E-1
1.409487191E0,8.857546002E-2,-6.041457057E-1,-1.185078546E-1
1.411471114E0,8.368854225E-2,-5.766568184E-1,-1.160643995E-1
1.413485345E0,7.635815442E-2,-5.467243791E-1,-1.130100712E-1
1.415468654E0,7.452555746E-2,-5.302310586E-1,-1.142318025E-1
1.417483808E0,7.086037099E-2,-4.972442985E-1,-1.111774743E-1
1.419467115E0,6.780604273E-2,-4.789183438E-1,-1.087340117E-1
1.421480961E0,6.414084882E-2,-4.422664344E-1,-1.044579595E-1
1.423495115E0,5.864306539E-2,-4.074471295E-1,-1.026253626E-1
1.425479115E0,5.619960278E-2,-3.854559660E-1,-9.896016866E-2
1.427493961E0,5.253441259E-2,-3.469714522E-1,-9.773843735E-2
1.429477577E0,4.703662544E-2,-3.048217595E-1,-9.407325089E-2
1.431491500E0,4.520402849E-2,-2.840523422E-1,-9.285151958E-2
1.433475115E0,4.153883830E-2,-2.443460971E-1,-9.040805697E-2
1.435489269E0,3.481931984E-2,-2.040289938E-1,-8.552113175E-2
1.437472654E0,3.359758854E-2,-1.844813079E-1,-8.552113175E-2
1.439486192E0,2.993239649E-2,-1.435533315E-1,-7.941248268E-2
1.441470577E0,2.565634064E-2,-1.050688252E-1,-7.635815442E-2
1.443483731E0,2.382374369E-2,-8.613199741E-2,-7.330382615E-2
1.445468038E0,2.199114859E-2,-4.886921868E-2,-6.780604273E-2
1.447483500E0,1.954768784E-2,-2.932153270E-2,-6.536258012E-2
1.449466192E0,1.832595654E-2,4.886921961E-3,-5.925392732E-2
1.451479423E0,1.710422710E-2,3.665191308E-2,-5.558873713E-2
1.453496038E0,1.649336144E-2,5.253441259E-2,-5.192354694E-2
1.455478192E0,1.466076635E-2,7.941248268E-2,-4.520402849E-2
1.457491424E0,1.466076635E-2,1.020144969E-1,-3.848451003E-2
1.459475424E0,1.404990070E-2,1.123992056E-1,-3.787364438E-2
1.461489655E0,1.282817032E-2,1.350012124E-1,-3.176499158E-2
1.463472424E0,1.404990070E-2,1.502728462E-1,-2.382374369E-2
1.465488347E0,1.343903504E-2,1.582140923E-1,-2.199114859E-2
1.467472655E0,1.221730467E-2,1.704314053E-1,-1.710422710E-2
1.469485655E0,1.160643995E-2,1.783726513E-1,-1.099557430E-2
1.471469270E0,1.282817032E-2,1.795943826E-1,-7.941247895E-3
1.473483424E0,9.773843922E-3,1.857030392E-1,-1.832595794E-3
1.475466193E0,1.160643995E-2,1.838704348E-1,1.221730490E-3
1.477481578E0,1.099557430E-2,1.826487035E-1,3.665191587E-3
1.479464424E0,1.343903504E-2,1.783726513E-1,8.552113548E-3
1.481479116E0,1.282817032E-2,1.740965992E-1,9.162978269E-3
1.483493578E0,1.466076635E-2,1.643227488E-1,1.649336144E-2
1.485476655E0,1.282817032E-2,1.533271819E-1,1.954768784E-2
1.487491732E0,1.588249579E-2,1.466076523E-1,2.260201424E-2
1.489474578E0,1.527163107E-2,1.331686229E-1,2.260201424E-2
1.491487809E0,1.343903504E-2,1.154535338E-1,2.871066704E-2
1.493473270E0,1.649336144E-2,1.062905490E-1,2.871066704E-2
1.495487193E0,1.466076635E-2,8.979719132E-2,3.420845419E-2
1.497469887E0,1.466076635E-2,7.208210230E-2,3.604105115E-2
1.499483425E0,1.710422710E-2,6.108652428E-2,3.848451003E-2
1.501468040E0,1.404990070E-2,4.459316283E-2,4.337143153E-2
1.503481887E0,1.649336144E-2,2.687807009E-2,4.581489414E-2
1.505465887E0,1.343903504E-2,1.710422710E-2,5.070181563E-2
1.507480425E0,1.160643995E-2,6.108652451E-4,5.375614017E-2
1.509493579E0,8.552113548E-3,-1.649336144E-2,5.925392732E-2
1.511478502E0,1.038470957E-2,-2.565634064E-2,6.108652428E-2
1.513492348E0,9.773843922E-3,-4.092797264E-2,6.597344577E-2
1.515475425E0,9.773843922E-3,-4.825835302E-2,6.902777404E-2
1.517489041E0,7.941247895E-3,-6.169738993E-2,7.391469181E-2
1.519472733E0,4.886921961E-3,-7.330382615E-2,7.635815442E-2
1.521487733E0,7.941247895E-3,-8.063421398E-2,7.941248268E-2
1.523471194E0,3.054326167E-3,-8.857546002E-2,8.246681094E-2
1.525485348E0,1.832595794E-3,-9.773843735E-2,8.491026610E-2
1.527469964E0,0.000000000E0,-9.957103431E-2,8.796459436E-2
1.529483117E0,-1.832595794E-3,-1.007927656E-1,8.857546002E-2
1.531466194E0,0.000000000E0,-1.014036313E-1,9.224065393E-2
1.533481348E0,-6.108652451E-4,-1.007927656E-1,9.346238524E-2
1.535464964E0,-6.108652451E-4,-1.014036313E-1,9.529497474E-2
1.537478503E0,-1.832595794E-3,-9.590584040E-2,9.407325089E-2
1.539492657E0,-3.665191587E-3,-9.224065393E-2,9.529497474E-2
1.541476965E0,-6.108652335E-3,-8.368854225E-2,9.957103431E-2
1.543490195E0,-4.276056774E-3,-7.086037099E-2,9.957103431E-2
1.545474811E0,-4.886921961E-3,-6.719517708E-2,1.001819000E-1
1.547489042E0,-8.552113548E-3,-5.314527452E-2,1.007927656E-1
1.549471811E0,-9.773843922E-3,-4.703662544E-2,1.026253626E-1
1.551487119E0,-8.552113548E-3,-3.237585723E-2,1.050688252E-1
1.553469580E0,-1.343903504E-2,-1.649336144E-2,1.032362282E-1
1.555483734E0,-1.282817032E-2,-1.038470957E-2,1.056796908E-1
1.557467811E0,-1.466076635E-2,6.108652335E-3,1.087340117E-1
1.559481888E0,-1.710422710E-2,2.199114859E-2,1.105666086E-1
1.561465888E0,-1.893682219E-2,3.115412779E-2,1.111774743E-1
1.563479811E0,-1.771509275E-2,4.764748737E-2,1.148426682E-1
1.565493657E0,-2.015855350E-2,6.719517708E-2,1.142318025E-1
1.567478580E0,-2.321287990E-2,7.513642311E-2,1.166752651E-1
1.569491734E0,-2.382374369E-2,8.979719132E-2,1.215621829E-1
1.571475426E0,-2.809980139E-2,1.062905490E-1,1.221730486E-1
1.573488426E0,-2.687807009E-2,1.148426682E-1,1.233947799E-1
1.575473272E0,-3.115412779E-2,1.325577646E-1,1.282816976E-1
1.577487427E0,-2.993239649E-2,1.459967941E-1,1.270599663E-1
1.579470581E0,-3.359758854E-2,1.508837193E-1,1.301143020E-1
1.581484427E0,-3.054326214E-2,1.661553532E-1,1.343903542E-1
1.583468735E0,-3.481931984E-2,1.722639948E-1,1.374446750E-1
1.585482273E0,-3.604105115E-2,1.832595766E-1,1.411098689E-1
1.587467120E0,-3.604105115E-2,1.924225539E-1,1.423316002E-1
1.589481043E0,-3.726277873E-2,1.997529417E-1,1.423316002E-1
1.591495120E0,-3.604105115E-2,2.040289938E-1,1.411098689E-1
1.593478581E0,-3.726277873E-2,2.101376504E-1,1.459967941E-1
1.595492427E0,-3.787364438E-2,2.113593817E-1,1.423316002E-1
1.597476120E0,-3.665191308E-2,2.107485086E-1,1.423316002E-1
1.599490273E0,-3.665191308E-2,2.107485086E-1,1.386664063E-1
1.601473966E0,-3.604105115E-2,2.101376504E-1,1.404990107E-1
1.603488658E0,-3.787364438E-2,2.058615834E-1,1.380555481E-1
1.605472043E0,-3.543018550E-2,1.979203373E-1,1.350012124E-1
1.607487197E0,-3.787364438E-2,1.936442852E-1,1.337794960E-1
1.609469889E0,-3.726277873E-2,1.844813079E-1,1.325577646E-1
1.611483120E0,-3.481931984E-2,1.802052408E-1,1.331686229E-1
1.613468350E0,-3.726277873E-2,1.698205322E-1,1.301143020E-1
1.615481889E0,-3.787364438E-2,1.576032341E-1,1.295034289E-1
1.617464736E0,-3.665191308E-2,1.484402567E-1,1.295034289E-1
1.619478890E0,-3.726277873E-2,1.374446750E-1,1.258382350E-1
1.621493659E0,-3.970624134E-2,1.246165112E-1,1.227839142E-1
1.623477275E0,-3.726277873E-2,1.178969890E-1,1.233947799E-1
1.625491428E0,-3.543018550E-2,1.075122803E-1,1.233947799E-1
1.627475736E0,-3.787364438E-2,9.529497474E-2,1.203404516E-1
1.629489351E0,-3.970624134E-2,9.040805697E-2,1.178969890E-1
1.631473582E0,-3.604105115E-2,8.124507964E-2,1.148426682E-1
1.633486582E0,-3.604105115E-2,7.208210230E-2,1.130100712E-1
1.635471121E0,-3.543018550E-2,6.719517708E-2,1.099557430E-1
1.637485044E0,-3.726277873E-2,5.742133409E-2,1.050688252E-1
1.639468121E0,-3.604105115E-2,4.825835302E-2,1.014036313E-1
1.641482890E0,-3.665191308E-2,4.092797264E-2,1.020144969E-1
1.643465352E0,-3.604105115E-2,3.481931984E-2,9.651670605E-2
1.645480659E0,-3.543018550E-2,3.054326214E-2,9.468411654E-2
1.647495736E0,-3.420845419E-2,2.321287990E-2,9.101892263E-2
1.649478198E0,-3.176499158E-2,1.649336144E-2,8.552113175E-2
1.651489352E0,-3.359758854E-2,1.588249579E-2,8.307767659E-2
1.653475505E0,-3.359758854E-2,1.099557430E-2,7.941248268E-2
1.655489967E0,-2.871066704E-2,4.886921961E-3,7.574728876E-2
1.657473660E0,-2.565634064E-2,2.443460980E-3,7.513642311E-2
1.659488045E0,-2.443460934E-2,-4.886921961E-3,6.902777404E-2
1.661471506E0,-2.076941915E-2,-1.038470957E-2,7.208210230E-2
1.663485660E0,-2.138028294E-2,-1.588249579E-2,7.086037099E-2
1.665469583E0,-1.649336144E-2,-2.565634064E-2,6.597344577E-2
1.667484660E0,-1.221730467E-2,-3.787364438E-2,6.597344577E-2
1.669468122E0,-1.282817032E-2,-4.642575979E-2,6.475171447E-2
1.671481660E0,-9.773843922E-3,-5.925392732E-2,6.352998316E-2
1.673464737E0,-8.552113548E-3,-7.330382615E-2,6.291911751E-2
1.675478891E0,-7.330383174E-3,-8.124507964E-2,6.169738993E-2
1.677492968E0,-6.108652335E-3,-9.590584040E-2,6.230825558E-2
1.679477353E0,-4.886921961E-3,-1.020144969E-1,6.169738993E-2
1.681491430E0,-3.054326167E-3,-1.148426682E-1,6.169738993E-2
1.683474891E0,-3.665191587E-3,-1.270599663E-1,6.230825558E-2
1.685489353E0,-3.054326167E-3,-1.313360333E-1,6.230825558E-2
1.687473583E0,-5.497787148E-3,-1.374446750E-1,6.169738993E-2
1.689486814E0,-4.276056774E-3,-1.435533315E-1,6.108652428E-2
1.691469891E0,-6.719517522E-3,-1.435533315E-1,6.230825558E-2
1.693484430E0,-6.108652335E-3,-1.447750628E-1,5.986479297E-2
1.695468353E0,-7.941247895E-3,-1.435533315E-1,5.864306539E-2
1.697481354E0,-7.941247895E-3,-1.411098689E-1,6.047565863E-2
1.699496354E0,-8.552113548E-3,-1.362229437E-1,6.047565863E-2
1.701480354E0,-1.160643995E-2,-1.331686229E-1,5.497787148E-2
1.703494277E0,-1.710422710E-2,-1.325577646E-1,5.375614017E-2
1.705477584E0,-2.687807009E-2,-1.221730486E-1,5.742133409E-2
1.707492969E0,-2.015855350E-2,-1.178969890E-1,5.436700583E-2
1.709475431E0,-1.343903504E-2,-1.154535338E-1,5.436700583E-2
1.711490584E0,-1.160643995E-2,-1.026253626E-1,5.497787148E-2
1.713473661E0,-1.282817032E-2,-1.014036313E-1,5.375614017E-2
1.715487815E0,-1.221730467E-2,-9.468411654E-2,5.070181563E-2
1.717471123E0,-1.343903504E-2,-8.674286306E-2,5.314527452E-2
1.719485354E0,-1.282817032E-2,-8.185594529E-2,5.253441259E-2
1.721468431E0,-1.282817032E-2,-7.147123665E-2,5.619960278E-2
1.723483738E0,-1.282817032E-2,-6.230825558E-2,5.986479297E-2
1.725467815E0,-1.649336144E-2,-5.314527452E-2,5.864306539E-2
1.727481969E0,-1.649336144E-2,-4.337143153E-2,6.352998316E-2
1.729465277E0,-1.282817032E-2,-3.420845419E-2,6.597344577E-2
1.731478277E0,-1.588249579E-2,-2.504547499E-2,6.536258012E-2
1.733491738E0,-1.588249579E-2,-1.588249579E-2,7.024950534E-2
1.735476661E0,-1.527163107E-2,-1.832595794E-3,7.391469181E-2
1.737490816E0,-1.649336144E-2,6.108652335E-3,7.452555746E-2
1.739474586E0,-1.466076635E-2,1.588249579E-2,7.635815442E-2
1.741488970E0,-1.404990070E-2,2.443460934E-2,7.757988572E-2
1.743472355E0,-1.527163107E-2,3.665191308E-2,7.635815442E-2
1.745486278E0,-1.588249579E-2,4.825835302E-2,7.696902007E-2
1.747470586E0,-1.466076635E-2,5.619960278E-2,7.574728876E-2
1.749485047E0,-1.710422710E-2,6.352998316E-2,7.574728876E-2
1.751468662E0,-1.710422710E-2,7.269296050E-2,6.902777404E-2
1.753482278E0,-1.832595654E-2,7.330382615E-2,6.780604273E-2
1.755466278E0,-1.588249579E-2,8.063421398E-2,6.597344577E-2
1.757480124E0,-1.588249579E-2,8.613199741E-2,6.108652428E-2
1.759494201E0,-1.527163107E-2,8.735372871E-2,5.619960278E-2
1.761477355E0,-1.527163107E-2,8.735372871E-2,5.253441259E-2
1.763491432E0,-1.710422710E-2,8.857546002E-2,4.948008433E-2
1.765475509E0,-1.588249579E-2,8.735372871E-2,5.009094998E-2
1.767490509E0,-1.893682219E-2,8.674286306E-2,4.520402849E-2
1.769473278E0,-1.954768784E-2,8.124507964E-2,4.276056588E-2
1.771486893E0,-1.649336144E-2,7.208210230E-2,4.214970022E-2
1.773472047E0,-1.466076635E-2,6.536258012E-2,3.909537569E-2
1.775486201E0,-1.710422710E-2,6.291911751E-2,3.909537569E-2
1.777468047E0,-1.527163107E-2,4.764748737E-2,3.848451003E-2
1.779483202E0,-1.343903504E-2,3.665191308E-2,3.787364438E-2
1.781466894E0,-1.282817032E-2,3.420845419E-2,3.787364438E-2
1.783480433E0,-1.099557430E-2,2.199114859E-2,3.909537569E-2
1.785494587E0,-1.038470957E-2,1.160643995E-2,3.604105115E-2
1.787479433E0,-1.099557430E-2,7.330383174E-3,3.726277873E-2
1.789493356E0,-9.773843922E-3,1.221730490E-3,3.543018550E-2
1.791477279E0,-1.038470957E-2,-6.719517522E-3,3.604105115E-2
1.793490587E0,-1.038470957E-2,-9.773843922E-3,3.420845419E-2
1.795474279E0,-9.773843922E-3,-9.773843922E-3,3.543018550E-2
1.797488356E0,-1.282817032E-2,-1.160643995E-2,3.237585723E-2
1.799472048E0,-1.099557430E-2,-1.466076635E-2,3.359758854E-2
1.801485894E0,-1.282817032E-2,-1.404990070E-2,3.115412779E-2
1.803469587E0,-1.282817032E-2,-1.343903504E-2,2.687807009E-2
1.805484048E0,-1.343903504E-2,-1.099557430E-2,2.809980139E-2
1.807468433E0,-1.527163107E-2,-9.162978269E-3,2.382374369E-2
1.809482510E0,-1.649336144E-2,-7.941247895E-3,2.443460934E-2
1.811464971E0,-1.466076635E-2,-3.665191587E-3,2.199114859E-2
1.813478817E0,-1.343903504E-2,0.000000000E0,1.527163107E-2
1.815493664E0,-1.527163107E-2,6.108652451E-4,1.404990070E-2
1.817477279E0,-1.466076635E-2,7.330383174E-3,9.773843922E-3
1.819491434E0,-1.099557430E-2,1.343903504E-2,3.054326167E-3
1.821475511E0,-1.099557430E-2,1.588249579E-2,2.443460980E-3
1.823489588E0,-8.552113548E-3,1.832595654E-2,-6.108652451E-4
1.825472972E0,-9.162978269E-3,2.138028294E-2,-5.497787148E-3
1.827488049E0,-7.941247895E-3,2.199114859E-2,-6.719517522E-3
1.829470818E0,-5.497787148E-3,2.321287990E-2,-9.773843922E-3
1.831485357E0,-3.665191587E-3,2.748893574E-2,-1.466076635E-2
1.833468357E0,0.000000000E0,2.809980139E-2,-1.527163107E-2
1.835482895E0,-6.108652451E-4,3.115412779E-2,-2.015855350E-2
1.837466280E0,1.221730490E-3,3.115412779E-2,-2.260201424E-2
1.839480742E0,4.886921961E-3,3.359758854E-2,-2.443460934E-2
1.841495126E0,7.941247895E-3,3.420845419E-2,-2.748893574E-2
1.843478280E0,8.552113548E-3,3.665191308E-2,-3.054326214E-2
1.845492434E0,1.221730467E-2,3.787364438E-2,-3.176499158E-2
1.847477280E0,1.466076635E-2,3.909537569E-2,-3.298672289E-2
1.849490280E0,1.527163107E-2,3.970624134E-2,-3.481931984E-2
1.851473357E0,1.527163107E-2,4.153883830E-2,-3.481931984E-2
1.853488434E0,2.076941915E-2,4.031710699E-2,-3.543018550E-2
1.855472434E0,2.382374369E-2,4.031710699E-2,-3.481931984E-2
1.857484742E0,2.748893574E-2,3.970624134E-2,-3.604105115E-2
1.859469896E0,2.871066704E-2,3.848451003E-2,-3.665191308E-2
1.861483204E0,3.115412779E-2,3.604105115E-2,-3.787364438E-2
1.863467127E0,3.604105115E-2,3.298672289E-2,-4.153883830E-2
1.865481358E0,3.604105115E-2,3.115412779E-2,-4.459316283E-2
1.867465897E0,4.031710699E-2,2.932153270E-2,-4.581489414E-2
1.869479820E0,4.214970022E-2,2.932153270E-2,-4.764748737E-2
1.871494204E0,4.337143153E-2,2.687807009E-2,-4.825835302E-2
1.873477358E0,4.581489414E-2,2.565634064E-2,-4.948008433E-2
1.875491204E0,4.764748737E-2,2.382374369E-2,-5.314527452E-2
1.877474820E0,4.825835302E-2,2.199114859E-2,-5.436700583E-2
1.879488743E0,4.886921868E-2,1.649336144E-2,-5.864306539E-2
1.881472743E0,5.131268129E-2,1.282817032E-2,-5.986479297E-2
1.883486589E0,5.009094998E-2,9.773843922E-3,-6.230825558E-2
1.885470512E0,5.009094998E-2,4.886921961E-3,-6.352998316E-2
1.887485589E0,5.192354694E-2,-1.221730490E-3,-6.536258012E-2
1.889468435E0,5.253441259E-2,-5.497787148E-3,-6.597344577E-2
1.891481973E0,5.253441259E-2,-1.282817032E-2,-6.963863969E-2
1.893465589E0,5.375614017E-2,-1.710422710E-2,-7.086037099E-2
1.895480743E0,5.375614017E-2,-2.015855350E-2,-6.963863969E-2
1.897494589E0,5.803219974E-2,-2.443460934E-2,-7.208210230E-2
1.899478282E0,5.558873713E-2,-2.809980139E-2,-7.024950534E-2
1.901492128E0,5.925392732E-2,-3.420845419E-2,-7.208210230E-2
1.903475744E0,6.108652428E-2,-3.726277873E-2,-7.452555746E-2
1.905490282E0,5.925392732E-2,-3.726277873E-2,-7.391469181E-2
1.907474898E0,6.352998316E-2,-4.276056588E-2,-7.513642311E-2
1.909488667E0,6.414084882E-2,-4.398229718E-2,-7.757988572E-2
1.911472128E0,6.230825558E-2,-4.459316283E-2,-7.574728876E-2
1.913485975E0,6.475171447E-2,-4.214970022E-2,-7.941248268E-2
1.915468667E0,6.658431143E-2,-4.276056588E-2,-7.880161703E-2
1.917483744E0,6.719517708E-2,-4.031710699E-2,-8.185594529E-2
1.919467205E0,6.963863969E-2,-4.031710699E-2,-7.819075137E-2
1.921481898E0,6.902777404E-2,-4.031710699E-2,-8.185594529E-2
1.923465282E0,7.269296050E-2,-4.276056588E-2,-8.124507964E-2
1.925479128E0,7.391469181E-2,-3.787364438E-2,-8.307767659E-2
1.927493667E0,7.757988572E-2,-4.092797264E-2,-8.613199741E-2
1.929477359E0,7.696902007E-2,-3.909537569E-2,-8.552113175E-2
1.931490821E0,7.696902007E-2,-3.726277873E-2,-8.735372871E-2
1.933475513E0,7.880161703E-2,-3.481931984E-2,-8.857546002E-2
1.935489975E0,8.063421398E-2,-3.665191308E-2,-8.674286306E-2
1.937472052E0,8.368854225E-2,-3.665191308E-2,-8.979719132E-2
1.939486899E0,8.368854225E-2,-3.665191308E-2,-8.735372871E-2
1.941469591E0,8.552113175E-2,-3.420845419E-2,-8.735372871E-2
1.943484976E0,8.491026610E-2,-3.176499158E-2,-9.224065393E-2
1.945468668E0,8.796459436E-2,-3.665191308E-2,-9.407325089E-2
1.947483206E0,9.162978828E-2,-3.604105115E-2,-9.468411654E-2
1.949466591E0,9.040805697E-2,-3.359758854E-2,-9.590584040E-2
1.951480745E0,9.346238524E-2,-3.298672289E-2,-9.407325089E-2
1.953493591E0,9.285151958E-2,-2.993239649E-2,-9.590584040E-2
1.955477976E0,9.529497474E-2,-2.748893574E-2,-9.651670605E-2
1.957491514E0,9.651670605E-2,-2.932153270E-2,-9.834930301E-2
1.959475514E0,9.896016866E-2,-2.626720630E-2,-1.001819000E-1
1.961490283E0,9.896016866E-2,-2.443460934E-2,-9.896016866E-2
1.963473591E0,9.957103431E-2,-2.321287990E-2,-9.957103431E-2
1.965488360E0,1.020144969E-1,-1.893682219E-2,-1.007927656E-1
1.967472745E0,1.056796908E-1,-1.832595654E-2,-1.020144969E-1
1.969486206E0,1.001819000E-1,-1.466076635E-2,-1.026253626E-1
1.971468745E0,1.026253626E-1,-1.160643995E-2,-1.038470939E-1
1.973482514E0,1.026253626E-1,-5.497787148E-3,-1.038470939E-1
1.975467130E0,9.957103431E-2,-1.832595794E-3,-1.050688252E-1
1.977481283E0,9.896016866E-2,6.108652335E-3,-1.026253626E-1
1.979494900E0,1.007927656E-1,7.941247895E-3,-1.032362282E-1
1.981479131E0,9.773843735E-2,1.588249579E-2,-1.056796908E-1
1.983492977E0,9.957103431E-2,1.954768784E-2,-1.007927656E-1
1.985476438E0,9.834930301E-2,2.565634064E-2,-1.020144969E-1
1.987491823E0,9.834930301E-2,3.237585723E-2,-9.896016866E-2
1.989475207E0,9.896016866E-2,4.092797264E-2,-1.001819000E-1
1.991488746E0,9.590584040E-2,4.825835302E-2,-9.957103431E-2
1.993473361E0,9.407325089E-2,5.558873713E-2,-9.896016866E-2
1.995486592E0,9.407325089E-2,6.536258012E-2,-9.651670605E-2
1.997470592E0,9.285151958E-2,6.780604273E-2,-9.773843735E-2
1.999484438E0,9.162978828E-2,8.002334833E-2,-9.651670605E-2
2.001467746E0,8.918632567E-2,8.307767659E-2,-9.407325089E-2
2.003482208E0,9.040805697E-2,9.040805697E-2,-9.712757170E-2
2.005465592E0,8.979719132E-2,9.957103431E-2,-9.407325089E-2
2.007480669E0,8.918632567E-2,1.056796908E-1,-9.346238524E-2
2.009493977E0,9.162978828E-2,1.123992056E-1,-9.162978828E-2
2.011476977E0,9.224065393E-2,1.185078546E-1,-9.407325089E-2
2.013492438E0,9.040805697E-2,1.221730486E-1,-9.224065393E-2
2.015476361E0,9.162978828E-2,1.270599663E-1,-8.979719132E-2
2.017489361E0,9.040805697E-2,1.331686229E-1,-9.285151958E-2
2.019472978E0,8.979719132E-2,1.331686229E-1,-9.407325089E-2
2.021488362E0,9.224065393E-2,1.343903542E-1,-9.162978828E-2
2.023471439E0,9.285151958E-2,1.356120855E-1,-9.285151958E-2
2.025485055E0,9.224065393E-2,1.356120855E-1,-8.979719132E-2
2.027469901E0,9.407325089E-2,1.331686229E-1,-9.285151958E-2
2.029483209E0,9.407325089E-2,1.270599663E-1,-9.224065393E-2
2.031467516E0,9.529497474E-2,1.240056455E-1,-9.346238524E-2
2.033481055E0,9.468411654E-2,1.203404516E-1,-9.468411654E-2
2.035495132E0,9.712757170E-2,1.160643995E-1,-9.407325089E-2
2.037478593E0,9.651670605E-2,1.111774743E-1,-9.529497474E-2
2.039492747E0,9.896016866E-2,1.007927656E-1,-9.773843735E-2
2.041476670E0,1.007927656E-1,9.773843735E-2,-9.651670605E-2
2.043490209E0,1.007927656E-1,9.162978828E-2,-9.896016866E-2
2.045474209E0,1.038470939E-1,8.674286306E-2,-1.001819000E-1
2.047489055E0,1.050688252E-1,8.246681094E-2,-1.007927656E-1
2.049472670E0,1.056796908E-1,7.330382615E-2,-1.050688252E-1
2.051485286E0,1.099557430E-1,6.719517708E-2,-1.069014147E-1
2.053469593E0,1.093448773E-1,6.414084882E-2,-1.081231460E-1
2.055484132E0,1.123992056E-1,5.925392732E-2,-1.130100712E-1
2.057466901E0,1.123992056E-1,5.742133409E-2,-1.154535338E-1
2.059481979E0,1.123992056E-1,5.375614017E-2,-1.160643995E-1
2.061465364E0,1.160643995E-1,5.253441259E-2,-1.178969890E-1
2.063479748E0,1.160643995E-1,4.886921868E-2,-1.221730486E-1
2.065493364E0,1.160643995E-1,4.825835302E-2,-1.221730486E-1
2.067478517E0,1.185078546E-1,4.948008433E-2,-1.264491081E-1
2.069492133E0,1.185078546E-1,4.948008433E-2,-1.246165112E-1
2.071475825E0,1.172861308E-1,4.948008433E-2,-1.276708394E-1
2.073489671E0,1.185078546E-1,5.253441259E-2,-1.288925707E-1
2.075473671E0,1.185078546E-1,5.314527452E-2,-1.319468915E-1
2.077486902E0,1.166752651E-1,5.681046844E-2,-1.356120855E-1
2.079471210E0,1.197295859E-1,6.108652428E-2,-1.343903542E-1
2.081484671E0,1.185078546E-1,6.719517708E-2,-1.398881376E-1
2.083468671E0,1.191187203E-1,7.269296050E-2,-1.398881376E-1
2.085482594E0,1.215621829E-1,8.124507964E-2,-1.429424733E-1
2.087467210E0,1.209513173E-1,8.552113175E-2,-1.423316002E-1
2.089481056E0,1.185078546E-1,9.468411654E-2,-1.453859210E-1
2.091494594E0,1.203404516E-1,1.032362282E-1,-1.472185254E-1
2.093479825E0,1.215621829E-1,1.093448773E-1,-1.484402567E-1
2.095492364E0,1.215621829E-1,1.166752651E-1,-1.496619880E-1
2.097476364E0,1.233947799E-1,1.240056455E-1,-1.502728462E-1
2.099490287E0,1.233947799E-1,1.313360333E-1,-1.508837193E-1
2.101473980E0,1.258382350E-1,1.386664063E-1,-1.466076523E-1
2.103488057E0,1.258382350E-1,1.423316002E-1,-1.459967941E-1
2.105471826E0,1.252273768E-1,1.502728462E-1,-1.466076523E-1
2.107486595E0,1.276708394E-1,1.576032341E-1,-1.459967941E-1
2.109469672E0,1.276708394E-1,1.600466967E-1,-1.447750628E-1
2.111484749E0,1.307251602E-1,1.661553532E-1,-1.423316002E-1
2.113467211E0,1.295034289E-1,1.710422635E-1,-1.429424733E-1
2.115481595E0,1.295034289E-1,1.734857261E-1,-1.417207420E-1
2.117465288E0,1.313360333E-1,1.771509200E-1,-1.380555481E-1
2.119478903E0,1.313360333E-1,1.826487035E-1,-1.392772794E-1
2.121493057E0,1.325577646E-1,1.820378453E-1,-1.374446750E-1
2.123477365E0,1.319468915E-1,1.832595766E-1,-1.350012124E-1
2.125491519E0,1.325577646E-1,1.814269722E-1,-1.337794960E-1
2.127475749E0,1.331686229E-1,1.802052408E-1,-1.331686229E-1
2.129489288E0,1.307251602E-1,1.789835095E-1,-1.307251602E-1
2.131472134E0,1.319468915E-1,1.783726513E-1,-1.270599663E-1
2.133486519E0,1.319468915E-1,1.704314053E-1,-1.276708394E-1
2.135470288E0,1.313360333E-1,1.655444801E-1,-1.227839142E-1
2.137485057E0,1.307251602E-1,1.612684280E-1,-1.227839142E-1
2.139467749E0,1.307251602E-1,1.527163088E-1,-1.203404516E-1
2.141482289E0,1.313360333E-1,1.429424733E-1,-1.185078546E-1
2.143466212E0,1.288925707E-1,1.362229437E-1,-1.185078546E-1
2.145480058E0,1.276708394E-1,1.258382350E-1,-1.166752651E-1
2.147495827E0,1.301143020E-1,1.142318025E-1,-1.172861308E-1
2.149478289E0,1.307251602E-1,1.044579595E-1,-1.154535338E-1
2.151493289E0,1.270599663E-1,9.346238524E-2,-1.166752651E-1
2.153476135E0,1.301143020E-1,7.757988572E-2,-1.148426682E-1
2.155490212E0,1.288925707E-1,7.208210230E-2,-1.166752651E-1
2.157474212E0,1.258382350E-1,5.864306539E-2,-1.154535338E-1
2.159488366E0,1.276708394E-1,4.581489414E-2,-1.191187203E-1
2.161471827E0,1.288925707E-1,4.092797264E-2,-1.178969890E-1
2.163485058E0,1.276708394E-1,2.626720630E-2,-1.191187203E-1
2.165469904E0,1.295034289E-1,1.893682219E-2,-1.178969890E-1
2.167484366E0,1.307251602E-1,8.552113548E-3,-1.185078546E-1
2.169467827E0,1.313360333E-1,-4.276056774E-3,-1.203404516E-1
2.171480981E0,1.307251602E-1,-9.773843922E-3,-1.221730486E-1
2.173496366E0,1.301143020E-1,-1.771509275E-2,-1.221730486E-1
2.175480058E0,1.319468915E-1,-2.871066704E-2,-1.240056455E-1
2.177492750E0,1.313360333E-1,-3.237585723E-2,-1.233947799E-1
2.179477597E0,1.331686229E-1,-3.970624134E-2,-1.240056455E-1
2.181491136E0,1.307251602E-1,-4.581489414E-2,-1.227839142E-1
2.183474905E0,1.288925707E-1,-4.825835302E-2,-1.246165112E-1
2.185489367E0,1.301143020E-1,-5.131268129E-2,-1.227839142E-1
2.187473367E0,1.295034289E-1,-5.436700583E-2,-1.227839142E-1
2.189486521E0,1.276708394E-1,-5.619960278E-2,-1.197295859E-1
2.191471136E0,1.258382350E-1,-5.558873713E-2,-1.197295859E-1
2.193484444E0,1.270599663E-1,-5.131268129E-2,-1.178969890E-1
2.195468136E0,1.264491081E-1,-5.192354694E-2,-1.148426682E-1
2.197481982E0,1.258382350E-1,-4.825835302E-2,-1.136209369E-1
2.199466521E0,1.240056455E-1,-4.703662544E-2,-1.093448773E-1
2.201480444E0,1.209513173E-1,-4.214970022E-2,-1.087340117E-1
2.203494213E0,1.215621829E-1,-3.481931984E-2,-1.050688252E-1
2.205479213E0,1.215621829E-1,-3.298672289E-2,-1.020144969E-1
2.207493367E0,1.197295859E-1,-2.687807009E-2,-1.014036313E-1
2.209476444E0,1.172861308E-1,-2.015855350E-2,-9.896016866E-2
2.211488751E0,1.203404516E-1,-1.954768784E-2,-1.001819000E-1
2.213472444E0,1.178969890E-1,-1.099557430E-2,-9.712757170E-2
2.215487828E0,1.136209369E-1,-6.108652335E-3,-9.896016866E-2
2.217471444E0,1.123992056E-1,-4.276056774E-3,-9.529497474E-2
2.219485290E0,1.117883399E-1,4.886921961E-3,-9.590584040E-2
2.221469906E0,1.117883399E-1,7.330383174E-3,-9.529497474E-2
2.223483522E0,1.111774743E-1,9.162978269E-3,-9.529497474E-2
2.225466522E0,1.081231460E-1,1.466076635E-2,-9.712757170E-2
2.227481983E0,1.087340117E-1,1.710422710E-2,-9.529497474E-2
2.229465060E0,1.056796908E-1,1.832595654E-2,-9.896016866E-2
2.231480368E0,1.056796908E-1,1.954768784E-2,-9.773843735E-2
2.233493368E0,1.062905490E-1,2.138028294E-2,-9.773843735E-2
2.235476983E0,1.050688252E-1,2.199114859E-2,-9.773843735E-2
2.237490829E0,1.038470939E-1,2.015855350E-2,-9.773843735E-2
2.239473676E0,1.032362282E-1,2.260201424E-2,-9.773843735E-2
2.241488676E0,1.007927656E-1,2.015855350E-2,-9.957103431E-2
2.243472137E0,9.896016866E-2,1.527163107E-2,-1.001819000E-1
2.245487137E0,1.001819000E-1,1.221730467E-2,-9.957103431E-2
2.247470906E0,9.957103431E-2,1.160643995E-2,-1.032362282E-1
2.249484137E0,9.773843735E-2,6.719517522E-3,-1.050688252E-1
2.251467522E0,9.957103431E-2,3.665191587E-3,-1.069014147E-1
2.253482291E0,9.590584040E-2,1.221730490E-3,-1.050688252E-1
2.255466214E0,9.712757170E-2,-3.054326167E-3,-1.087340117E-1
2.257478830E0,9.651670605E-2,-4.276056774E-3,-1.099557430E-1
2.259494214E0,9.529497474E-2,-9.162978269E-3,-1.130100712E-1
2.261477907E0,9.346238524E-2,-7.941247895E-3,-1.142318025E-1
2.263491831E0,9.346238524E-2,-1.404990070E-2,-1.160643995E-1
2.265475523E0,9.468411654E-2,-1.649336144E-2,-1.209513173E-1
2.267490600E0,9.529497474E-2,-1.710422710E-2,-1.233947799E-1
2.269472984E0,9.529497474E-2,-1.710422710E-2,-1.270599663E-1
2.271487831E0,9.407325089E-2,-1.954768784E-2,-1.337794960E-1
2.273470831E0,9.346238524E-2,-2.076941915E-2,-1.362229437E-1
2.275485061E0,9.224065393E-2,-2.015855350E-2,-1.392772794E-1
2.277468984E0,9.162978828E-2,-1.710422710E-2,-1.435533315E-1
2.279483215E0,9.224065393E-2,-1.588249579E-2,-1.466076523E-1
2.281466831E0,8.979719132E-2,-1.160643995E-2,-1.484402567E-1
2.283480754E0,9.162978828E-2,-5.497787148E-3,-1.508837193E-1
2.285495138E0,9.101892263E-2,-5.497787148E-3,-1.521054506E-1
2.287479138E0,9.162978828E-2,0.000000000E0,-1.539380401E-1
2.289493292E0,9.040805697E-2,6.719517522E-3,-1.521054506E-1
2.291475754E0,9.162978828E-2,7.941247895E-3,-1.527163088E-1
2.293490523E0,9.224065393E-2,1.649336144E-2,-1.521054506E-1
2.295474215E0,9.407325089E-2,1.832595654E-2,-1.502728462E-1
2.297488138E0,9.101892263E-2,2.443460934E-2,-1.490511149E-1
2.299471831E0,9.468411654E-2,3.054326214E-2,-1.466076523E-1
2.301485985E0,9.407325089E-2,3.420845419E-2,-1.447750628E-1
2.303469985E0,9.651670605E-2,4.031710699E-2,-1.423316002E-1
2.305484062E0,9.529497474E-2,4.459316283E-2,-1.368338168E-1
2.307468139E0,9.529497474E-2,4.581489414E-2,-1.362229437E-1
2.309481678E0,9.773843735E-2,4.886921868E-2,-1.337794960E-1
2.311466601E0,9.590584040E-2,5.192354694E-2,-1.282816976E-1
2.313480139E0,9.651670605E-2,5.253441259E-2,-1.276708394E-1
2.315493985E0,9.651670605E-2,5.375614017E-2,-1.233947799E-1
2.317477293E0,9.896016866E-2,5.314527452E-2,-1.160643995E-1
2.319491832E0,9.773843735E-2,5.131268129E-2,-1.160643995E-1
2.321475832E0,1.007927656E-1,4.948008433E-2,-1.105666086E-1
2.323488755E0,9.957103431E-2,4.703662544E-2,-1.038470939E-1
2.325472678E0,1.020144969E-1,4.398229718E-2,-1.007927656E-1
2.327487755E0,1.014036313E-1,3.970624134E-2,-9.712757170E-2
2.329471755E0,1.014036313E-1,3.604105115E-2,-9.224065393E-2
2.331484678E0,1.026253626E-1,2.626720630E-2,-8.796459436E-2
2.333469986E0,1.050688252E-1,1.710422710E-2,-8.307767659E-2
2.335483832E0,1.032362282E-1,1.343903504E-2,-8.002334833E-2
2.337466216E0,1.075122803E-1,2.443460980E-3,-7.635815442E-2
2.339481062E0,1.056796908E-1,-6.108652335E-3,-7.269296050E-2
2.341495525E0,1.062905490E-1,-9.162978269E-3,-6.780604273E-2
2.343477910E0,1.087340117E-1,-2.015855350E-2,-6.658431143E-2
2.345492140E0,1.105666086E-1,-3.054326214E-2,-6.291911751E-2
2.347476756E0,1.123992056E-1,-3.481931984E-2,-6.047565863E-2
2.349490910E0,1.136209369E-1,-4.214970022E-2,-5.558873713E-2
2.351474525E0,1.130100712E-1,-5.131268129E-2,-5.436700583E-2
2.353488371E0,1.160643995E-1,-5.558873713E-2,-5.375614017E-2
2.355472064E0,1.178969890E-1,-5.864306539E-2,-5.192354694E-2
2.357486294E0,1.203404516E-1,-6.536258012E-2,-4.948008433E-2
2.359469602E0,1.203404516E-1,-6.597344577E-2,-5.009094998E-2
2.361484140E0,1.191187203E-1,-6.963863969E-2,-4.948008433E-2
2.363467833E0,1.215621829E-1,-6.963863969E-2,-4.948008433E-2
2.365481294E0,1.221730486E-1,-6.841690838E-2,-4.825835302E-2
2.367466525E0,1.227839142E-1,-6.597344577E-2,-5.009094998E-2
2.369480064E0,1.246165112E-1,-6.414084882E-2,-5.009094998E-2
2.371492756E0,1.246165112E-1,-5.864306539E-2,-5.131268129E-2
2.373476987E0,1.258382350E-1,-5.192354694E-2,-5.314527452E-2
2.375491217E0,1.252273768E-1,-4.703662544E-2,-5.131268129E-2
2.377475140E0,1.258382350E-1,-3.970624134E-2,-5.314527452E-2
2.379489064E0,1.258382350E-1,-2.565634064E-2,-5.192354694E-2
2.381472987E0,1.301143020E-1,-1.893682219E-2,-5.070181563E-2
2.383486526E0,1.282816976E-1,-6.108652335E-3,-4.948008433E-2
2.385470295E0,1.295034289E-1,7.941247895E-3,-4.886921868E-2
2.387485911E0,1.288925707E-1,1.282817032E-2,-4.642575979E-2
2.389468449E0,1.301143020E-1,2.748893574E-2,-4.642575979E-2
2.391483526E0,1.307251602E-1,3.848451003E-2,-4.398229718E-2
2.393466526E0,1.307251602E-1,4.581489414E-2,-4.459316283E-2
2.395479757E0,1.295034289E-1,5.742133409E-2,-4.459316283E-2
2.397493988E0,1.288925707E-1,6.719517708E-2,-4.337143153E-2
2.399478603E0,1.319468915E-1,7.513642311E-2,-4.520402849E-2
2.401492065E0,1.331686229E-1,8.491026610E-2,-4.031710699E-2
2.403476142E0,1.337794960E-1,8.918632567E-2,-4.092797264E-2
2.405489988E0,1.319468915E-1,9.224065393E-2,-3.970624134E-2
2.407474526E0,1.319468915E-1,9.957103431E-2,-3.909537569E-2
2.409488372E0,1.319468915E-1,9.957103431E-2,-3.909537569E-2
2.411470603E0,1.356120855E-1,1.001819000E-1,-3.909537569E-2
2.413486295E0,1.380555481E-1,9.957103431E-2,-3.787364438E-2
2.415469680E0,1.380555481E-1,9.773843735E-2,-3.909537569E-2
2.417483526E0,1.386664063E-1,9.224065393E-2,-4.031710699E-2
2.419466834E0,1.429424733E-1,8.429940045E-2,-4.337143153E-2
2.421481065E0,1.459967941E-1,7.941248268E-2,-4.276056588E-2
2.423465066E0,1.521054506E-1,6.780604273E-2,-4.337143153E-2
2.425478835E0,1.502728462E-1,5.925392732E-2,-4.642575979E-2
2.427494835E0,1.576032341E-1,4.581489414E-2,-4.825835302E-2
2.429477066E0,1.631010175E-1,2.871066704E-2,-5.314527452E-2
2.431491835E0,1.661553532E-1,2.076941915E-2,-5.619960278E-2
2.433474604E0,1.740965992E-1,3.665191587E-3,-6.169738993E-2
2.435488758E0,1.802052408E-1,-1.343903504E-2,-6.963863969E-2
2.437472681E0,1.826487035E-1,-2.199114859E-2,-7.269296050E-2
2.439487220E0,1.905899495E-1,-3.970624134E-2,-8.124507964E-2
2.441470604E0,1.997529417E-1,-5.681046844E-2,-8.857546002E-2
2.443484450E0,2.028072625E-1,-6.291911751E-2,-9.712757170E-2
2.445468450E0,2.107485086E-1,-7.941248268E-2,-1.062905490E-1
2.447483758E0,2.186897546E-1,-9.407325089E-2,-1.172861308E-1
2.449466297E0,2.199114859E-1,-9.773843735E-2,-1.240056455E-1
2.451480066E0,2.315179259E-1,-1.087340117E-1,-1.331686229E-1
2.453494220E0,2.400700450E-1,-1.185078546E-1,-1.441642046E-1
2.455477681E0,2.412917763E-1,-1.197295859E-1,-1.502728462E-1
2.457492143E0,2.510656118E-1,-1.240056455E-1,-1.588249654E-1
2.459475758E0,2.559525371E-1,-1.246165112E-1,-1.667662114E-1
2.461489066E0,2.645046413E-1,-1.319468915E-1,-1.789835095E-1
2.463473298E0,2.736676335E-1,-1.313360333E-1,-1.893682331E-1
2.465487221E0,2.791654170E-1,-1.325577646E-1,-1.954768747E-1
2.467471759E0,2.919935882E-1,-1.325577646E-1,-2.064724565E-1
2.469485682E0,3.029891551E-1,-1.319468915E-1,-2.205223590E-1
2.471469682E0,3.090978265E-1,-1.301143020E-1,-2.266310006E-1
2.473483451E0,3.225368559E-1,-1.270599663E-1,-2.394591719E-1
2.475467451E0,3.390302062E-1,-1.240056455E-1,-2.547308207E-1
2.477480451E0,3.481931984E-1,-1.246165112E-1,-2.608394623E-1
2.479495451E0,3.634648323E-1,-1.166752651E-1,-2.785545588E-1
2.481478298E0,3.781255782E-1,-1.142318025E-1,-2.962696552E-1
2.483492759E0,3.878994286E-1,-1.160643995E-1,-3.054326177E-1
2.485476682E0,3.970624208E-1,-1.117883399E-1,-3.249803185E-1
2.487491759E0,3.995058835E-1,-1.081231460E-1,-3.420845270E-1
2.489474298E0,4.105014503E-1,-1.087340117E-1,-3.549126983E-1
2.491488144E0,4.440990388E-1,-1.136209369E-1,-3.750712574E-1
2.493472759E0,4.587597847E-1,-1.136209369E-1,-3.848451078E-1
2.495486836E0,4.795292318E-1,-1.209513173E-1,-4.129449129E-1
2.497469913E0,4.996877611E-1,-1.264491081E-1,-4.379903674E-1
2.499484067E0,5.082398653E-1,-1.313360333E-1,-4.520402849E-1
2.501468067E0,5.253441334E-1,-1.398881376E-1,-4.776966274E-1
2.503482222E0,5.442809463E-1,-1.478293836E-1,-5.045747161E-1
2.505465683E0,5.510004759E-1,-1.514945775E-1,-5.161811113E-1
2.507480452E0,5.723807216E-1,-1.576032341E-1,-5.418374538E-1
2.509494529E0,5.919284225E-1,-1.649336219E-1,-5.619960427E-1
2.511477991E0,6.041457057E-1,-1.685988009E-1,-5.742133260E-1
2.513491760E0,6.261368990E-1,-1.771509200E-1,-5.955936313E-1
2.515475837E0,6.456845403E-1,-1.850921661E-1,-6.224716902E-1
2.517488991E0,6.585127115E-1,-1.918116808E-1,-6.346889734E-1
2.519473068E0,6.780604124E-1,-2.015855312E-1,-6.579018831E-1
2.521487453E0,7.006624341E-1,-2.119702399E-1,-6.811147332E-1
2.523471529E0,7.086036801E-1,-2.156354338E-1,-6.927211881E-1
2.525485376E0,7.293730974E-1,-2.260201424E-1,-7.147123218E-1
2.527469606E0,7.397578359E-1,-2.327396572E-1,-7.275404930E-1
2.529483453E0,7.635815740E-1,-2.431243658E-1,-7.476990819E-1
2.531465683E0,7.843509912E-1,-2.577851415E-1,-7.678576112E-1
2.533480991E0,7.910705209E-1,-2.614503205E-1,-7.782423496E-1
2.535494914E0,8.124507666E-1,-2.730567753E-1,-7.953465581E-1
2.537478606E0,8.301658630E-1,-2.877175212E-1,-8.118399382E-1
2.539492991E0,8.399397135E-1,-2.950479090E-1,-8.197811842E-1
2.541476145E0,8.600982428E-1,-3.048217595E-1,-8.362745047E-1
2.543490838E0,8.784242272E-1,-3.188716471E-1,-8.491026759E-1
2.545473684E0,8.869763613E-1,-3.237585723E-1,-8.570439219E-1
2.547488761E0,9.101892114E-1,-3.359758854E-1,-8.674286604E-1
2.549472377E0,9.364564419E-1,-3.488040566E-1,-8.790351152E-1
2.551486838E0,9.529497623E-1,-3.549126983E-1,-8.851437569E-1
2.553469992E0,9.779952765E-1,-3.659082949E-1,-8.961393237E-1
2.555483761E0,9.883799553E-1,-3.738495409E-1,-9.040805697E-1
2.557467761E0,1.015258074E0,-3.854559660E-1,-9.211847782E-1
2.559482223E0,1.045801282E0,-3.970624208E-1,-9.340129495E-1
2.561464992E0,1.059851170E0,-4.001167417E-1,-9.407324791E-1
2.563479838E0,1.087340117E0,-4.117231667E-1,-9.553932548E-1
2.565493992E0,1.117272496E0,-4.227187634E-1,-9.743300676E-1
2.567479146E0,1.131933331E0,-4.269948006E-1,-9.816604257E-1
2.569491531E0,1.165530920E0,-4.386012554E-1,-9.987646937E-1
2.571474607E0,1.196074128E0,-4.489859641E-1,-1.015868902E0
2.573490223E0,1.213789225E0,-4.569272101E-1,-1.025031924E0
2.575473992E0,1.243721604E0,-4.691445231E-1,-1.045801282E0
2.577486838E0,1.274875760E0,-4.850270152E-1,-1.065959811E0
2.579471146E0,1.290758252E0,-4.923573732E-1,-1.075733662E0
2.581485069E0,1.321912408E0,-5.112941861E-1,-1.100168347E0
2.583468685E0,1.352455616E0,-5.326744914E-1,-1.120326877E0
2.585483147E0,1.367116451E0,-5.448917747E-1,-1.132544160E0
2.587467532E0,1.397659659E0,-5.717698932E-1,-1.158811331E0
2.589480685E0,1.411098719E0,-5.839871764E-1,-1.171028733E0
2.591495224E0,1.444085479E0,-6.151412725E-1,-1.194852471E0
2.593478916E0,1.475850463E0,-6.481280327E-1,-1.223563075E0
2.595492455E0,1.489289522E0,-6.676757336E-1,-1.239445567E0
2.597476070E0,1.522887111E0,-7.055493593E-1,-1.266934514E0
2.599491224E0,1.552208543E0,-7.440338731E-1,-1.298699498E0
2.601473609E0,1.566258430E0,-7.641924024E-1,-1.313360333E0
2.603488070E0,1.589471340E0,-8.038986921E-1,-1.344514370E0
2.605472147E0,1.618792892E0,-8.448266387E-1,-1.377501130E0
2.607487762E0,1.629177570E0,-8.649851680E-1,-1.393383622E0
2.609470609E0,1.654833913E0,-9.059131742E-1,-1.426370382E0
2.611480378E0,1.681101203E0,-9.456194043E-1,-1.462411404E0
2.613497916E0,1.692096710E0,-9.633345008E-1,-1.478293896E0
2.615481609E0,1.713477015E0,-9.957103729E-1,-1.512502313E0
2.617464993E0,1.734857321E0,-1.031140566E0,-1.550375938E0
2.619478839E0,1.745852828E0,-1.047023058E0,-1.566258430E0
2.621493916E0,1.767233133E0,-1.072679400E0,-1.601077795E0
2.623476994E0,1.776396155E0,-1.084896684E0,-1.622458100E0
2.625491148E0,1.795332909E0,-1.107498646E0,-1.658499122E0
2.627476071E0,1.810604572E0,-1.122770309E0,-1.693929315E0
2.629489994E0,1.813048005E0,-1.128878951E0,-1.711644411E0
2.631473302E0,1.825876236E0,-1.136209369E0,-1.742187738E0
2.633487148E0,1.842980504E0,-1.141707182E0,-1.775785327E0
2.635470302E0,1.852143407E0,-1.141096234E0,-1.793500304E0
2.637484071E0,1.870469332E0,-1.141096234E0,-1.825876236E0
2.639468379E0,1.884519339E0,-1.139263630E0,-1.862528086E0
2.641482302E0,1.890017033E0,-1.133765936E0,-1.879632354E0
2.643466225E0,1.902845263E0,-1.126435518E0,-1.913840771E0
2.645480456E0,1.915673375E0,-1.110553026E0,-1.948049307E0
2.647494917E0,1.921782017E0,-1.105666041E0,-1.966375232E0
2.649478840E0,1.935831904E0,-1.088561893E0,-1.996307611E0
2.651491840E0,1.944994926E0,-1.066570759E0,-2.028683424E0
2.653476764E0,1.948660135E0,-1.054353356E0,-2.043955088E0
2.655489994E0,1.957823157E0,-1.030529618E0,-2.073887587E0
2.657472994E0,1.960877419E0,-1.017090678E0,-2.089159250E0
2.659488148E0,1.967597008E0,-9.920451641E-1,-2.111150265E0
2.661471840E0,1.977370739E0,-9.669997096E-1,-2.136806726E0
2.663485380E0,1.980425119E0,-9.511171579E-1,-2.151467323E0
2.665469995E0,1.989588141E0,-9.242390990E-1,-2.172236919E0
2.667484688E0,1.994475007E0,-8.985827565E-1,-2.196671486E0
2.669467457E0,1.996918440E0,-8.857545853E-1,-2.202169180E0
2.671482226E0,2.007914066E0,-8.613200188E-1,-2.224771261E0
2.673465303E0,2.013411760E0,-8.368853927E-1,-2.243708134E0
2.675479534E0,2.017687798E0,-8.271115422E-1,-2.251649380E0
2.677493303E0,2.028072596E0,-8.063421249E-1,-2.270586014E0
2.679477380E0,2.038457394E0,-7.880161405E-1,-2.285857677E0
2.681491226E0,2.041511536E0,-7.788531780E-1,-2.291966438E0
2.683474842E0,2.054339886E0,-7.641924024E-1,-2.310903311E0
2.685489072E0,2.066557169E0,-7.501425147E-1,-2.325563908E0
2.687473303E0,2.072054863E0,-7.409795523E-1,-2.335337877E0
2.689486842E0,2.083661318E0,-7.312057018E-1,-2.349387646E0
2.691469918E0,2.087937355E0,-7.287622094E-1,-2.359161615E0
2.693483534E0,2.101987362E0,-7.208209634E-1,-2.374433279E0
2.695468149E0,2.112371922E0,-7.153232098E-1,-2.390315771E0
2.697482226E0,2.120924234E0,-7.116580009E-1,-2.397646189E0
2.699465688E0,2.135584831E0,-7.067710757E-1,-2.414139509E0
2.701479457E0,2.152689219E0,-7.098253965E-1,-2.430022001E0
2.703494226E0,2.160630465E0,-7.098253965E-1,-2.437352419E0
2.705477920E0,2.177734613E0,-7.141014934E-1,-2.455067396E0
2.707491843E0,2.197282314E0,-7.202101350E-1,-2.470949888E0
2.709475843E0,2.204001904E0,-7.226535678E-1,-2.478891134E0
2.711490843E0,2.224160433E0,-7.324274182E-1,-2.497217178E0
2.713473304E0,2.237599373E0,-7.415903807E-1,-2.516154051E0
2.715487843E0,2.246151447E0,-7.464773059E-1,-2.524706125E0
2.717470920E0,2.264477491E0,-7.580837607E-1,-2.543642998E0
2.719485381E0,2.272418737E0,-7.635815740E-1,-2.553416729E0
2.721468996E0,2.287690401E0,-7.764097452E-1,-2.574796915E0
2.723483535E0,2.302962065E0,-7.849618196E-1,-2.596177340E0
2.725467458E0,2.313346624E0,-7.929030657E-1,-2.605340242E0
2.727482612E0,2.324342251E0,-8.032878041E-1,-2.626109600E0
2.729464996E0,2.336559534E0,-8.106181622E-1,-2.647490025E0
2.731478920E0,2.339003086E0,-8.136724830E-1,-2.659096479E0
2.733494227E0,2.349387646E0,-8.228355050E-1,-2.677422285E0
2.735477381E0,2.356107235E0,-8.265006542E-1,-2.696359158E0
2.737490227E0,2.361604929E0,-8.289441466E-1,-2.705522060E0
2.739475150E0,2.367713690E0,-8.307767510E-1,-2.722626448E0
2.741488766E0,2.371378899E0,-8.271115422E-1,-2.739119768E0
2.743472073E0,2.371378899E0,-8.277224302E-1,-2.745228529E0
2.745486921E0,2.375044107E0,-8.234463334E-1,-2.759889126E0
2.747471459E0,2.373822451E0,-8.161159754E-1,-2.773328304E0
2.749483844E0,2.376265764E0,-8.130616546E-1,-2.776993513E0
2.751468151E0,2.374433279E0,-8.057312369E-1,-2.786156416E0
2.753482228E0,2.373822451E0,-8.014551997E-1,-2.791654110E0
2.755466228E0,2.372600555E0,-7.916813493E-1,-2.798373699E0
2.757479767E0,2.368324518E0,-7.849618196E-1,-2.805093288E0
2.759494536E0,2.365881205E0,-7.800748944E-1,-2.806925774E0
2.761477613E0,2.357939959E0,-7.727445364E-1,-2.814867020E0
2.763492382E0,2.348776817E0,-7.690793276E-1,-2.816699743E0
2.765475459E0,2.343889952E0,-7.666358948E-1,-2.815477848E0
2.767490305E0,2.334727049E0,-7.660250068E-1,-2.817921400E0
2.769473921E0,2.326174736E0,-7.629706860E-1,-2.819753885E0
2.771486844E0,2.324953079E0,-7.641924024E-1,-2.822197437E0
2.773470613E0,2.317622662E0,-7.654141784E-1,-2.824640989E0
2.775485690E0,2.311514139E0,-7.696902156E-1,-2.829527855E0
2.777468690E0,2.309070587E0,-7.703011036E-1,-2.831360340E0
2.779482536E0,2.303572893E0,-7.757988572E-1,-2.841745138E0
2.781466613E0,2.302962065E0,-7.825183868E-1,-2.848464727E0
2.783481075E0,2.291355610E0,-7.867944241E-1,-2.858238459E0
2.785495537E0,2.287079573E0,-7.996225953E-1,-2.874731779E0
2.787479152E0,2.280970812E0,-8.032878041E-1,-2.883283854E0
2.789493306E0,2.269975185E0,-8.130616546E-1,-2.903442621E0
2.791476460E0,2.259590626E0,-8.246681094E-1,-2.919935942E0
2.793490306E0,2.252871037E0,-8.319984674E-1,-2.931542397E0
2.795474306E0,2.241264582E0,-8.442157507E-1,-2.951700926E0
2.797488691E0,2.229658127E0,-8.552113175E-1,-2.970026731E0
2.799471768E0,2.224160433E0,-8.594874144E-1,-2.982855082E0
2.801485999E0,2.208277941E0,-8.686503768E-1,-2.999959230E0
2.803470306E0,2.196671486E0,-8.790351152E-1,-3.019506931E0
2.805484153E0,2.191784382E0,-8.833111525E-1,-3.026837349E0
2.807468768E0,2.180788994E0,-8.930850029E-1,-3.044552326E0
2.809482229E0,2.171625853E0,-8.979719281E-1,-3.057991505E0
2.811464691E0,2.165517330E0,-9.034696817E-1,-3.063489199E0
2.813480691E0,2.158186913E0,-9.095783234E-1,-3.074484825E0
2.815494537E0,2.153910875E0,-9.144652486E-1,-3.085480452E0
2.817476999E0,2.150856495E0,-9.187413454E-1,-3.090367317E0
2.819491845E0,2.143526077E0,-9.230173826E-1,-3.102584600E0
2.821475845E0,2.139860868E0,-9.254608750E-1,-3.103195429E0
2.823489383E0,2.134974003E0,-9.321803451E-1,-3.112358332E0
2.825472692E0,2.126421928E0,-9.352346659E-1,-3.119688749E0
2.827488769E0,2.122145891E0,-9.352346659E-1,-3.125186682E0
2.829471461E0,2.112371922E0,-9.364564419E-1,-3.134960413E0
2.831486230E0,2.102598190E0,-9.407324791E-1,-3.140458107E0
2.833467846E0,2.097100496E0,-9.401215911E-1,-3.141680002E0
2.835483154E0,2.086715698E0,-9.407324791E-1,-3.147177696E0
2.837466231E0,2.075109243E0,-9.419541955E-1,-3.151453733E0
2.839481000E0,2.071444035E0,-9.419541955E-1,-3.151453733E0
2.841494615E0,2.061059237E0,-9.437867999E-1,-3.153286457E0
2.843478307E0,2.050063848E0,-9.480628371E-1,-3.150842905E0
2.845492769E0,2.045787811E0,-9.480628371E-1,-3.147788525E0
2.847477000E0,2.036013842E0,-9.529497623E-1,-3.144734383E0
2.849490538E0,2.029294252E0,-9.663888216E-1,-3.138625622E0
2.851473307E0,2.028072596E0,-9.718865752E-1,-3.137403965E0
2.853487769E0,2.021964073E0,-9.908234477E-1,-3.136182070E0
2.855471846E0,2.018909693E0,-1.001208186E0,-3.136793137E0
2.857485923E0,2.015855312E0,-1.023810148E0,-3.138625622E0
2.859469615E0,2.012800932E0,-1.050077319E0,-3.141069174E0
2.861483769E0,2.005470514E0,-1.062294602E0,-3.144734383E0
2.863467231E0,1.994475007E0,-1.087950945E0,-3.151453733E0
2.865480770E0,1.983479500E0,-1.114218235E0,-3.161227703E0
2.867496770E0,1.976149082E0,-1.127657294E0,-3.166114569E0
2.869479539E0,1.966986060E0,-1.154535294E0,-3.175888300E0
2.871494309E0,1.960266590E0,-1.175915599E0,-3.186883926E0
2.873477001E0,1.955379605E0,-1.188132882E0,-3.195436001E0
2.875491770E0,1.946216702E0,-1.206458807E0,-3.208875179E0
2.877475232E0,1.940108061E0,-1.226617455E0,-3.222924948E0
2.879489385E0,1.933388472E0,-1.237002134E0,-3.233309746E0
2.881473309E0,1.921171188E0,-1.250441194E0,-3.251024723E0
2.883486847E0,1.915062547E0,-1.255328059E0,-3.257744312E0
2.885470001E0,1.902234316E0,-1.265101910E0,-3.273626804E0
2.887486539E0,1.892460585E0,-1.268767118E0,-3.288898468E0
2.889468385E0,1.888184428E0,-1.269377947E0,-3.294396162E0
2.891482232E0,1.877799749E0,-1.263269305E0,-3.312722206E0
2.893466847E0,1.868636727E0,-1.255328059E0,-3.324328661E0
2.895480770E0,1.861306429E0,-1.246775985E0,-3.331048250E0
2.897493616E0,1.852754235E0,-1.230282545E0,-3.340821981E0
2.899478309E0,1.839315295E0,-1.208291411E0,-3.348763227E0
2.901492078E0,1.832595706E0,-1.197906733E0,-3.354261160E0
2.903476078E0,1.820989251E0,-1.166752577E0,-3.362202406E0
2.905490233E0,1.808161139E0,-1.137431145E0,-3.367700100E0
2.907474925E0,1.798387289E0,-1.120326877E0,-3.368921757E0
2.909488694E0,1.784337401E0,-1.087950945E0,-3.376863003E0
2.911471540E0,1.766011477E0,-1.051909924E0,-3.382971764E0
2.913486233E0,1.755626678E0,-1.034805775E0,-3.388469458E0
2.915469387E0,1.735468149E0,-9.981538057E-1,-3.394578218E0
2.917483463E0,1.721418262E0,-9.792169929E-1,-3.398243427E0
2.919467233E0,1.701259732E0,-9.401215911E-1,-3.408017159E0
2.921481387E0,1.679268599E0,-9.028588533E-1,-3.409849882E0
2.923465079E0,1.668272972E0,-8.808676600E-1,-3.414125919E0
2.925479848E0,1.647503614E0,-8.436049223E-1,-3.414125919E0
2.927495156E0,1.624901533E0,-8.075638413E-1,-3.417791128E0
2.929477079E0,1.612684250E0,-7.874053121E-1,-3.417791128E0
2.931490848E0,1.592525721E0,-7.513642311E-1,-3.414736748E0
2.933473694E0,1.569923639E0,-7.147123218E-1,-3.413515091E0
2.935488464E0,1.559538960E0,-6.957755089E-1,-3.409238815E0
2.937472771E0,1.541213036E0,-6.621779203E-1,-3.403130293E0
2.939486310E0,1.521054506E0,-6.291912198E-1,-3.395189047E0
2.941469925E0,1.508837104E0,-6.139195561E-1,-3.391523838E0
2.943484387E0,1.490511179E0,-5.864306092E-1,-3.383582592E0
2.945468080E0,1.480737329E0,-5.729916096E-1,-3.380528212E0
2.947483157E0,1.464244008E0,-5.516113043E-1,-3.376252174E0
2.949465388E0,1.450804949E0,-5.369505286E-1,-3.373197794E0
2.951481080E0,1.442863703E0,-5.320636034E-1,-3.372586966E0
2.953463541E0,1.430035591E0,-5.235115290E-1,-3.367700100E0
2.955478003E0,1.419039965E0,-5.161811113E-1,-3.372586966E0
2.957492080E0,1.415374756E0,-5.155702829E-1,-3.375030518E0
2.959475541E0,1.404379249E0,-5.149593949E-1,-3.382360935E0
2.961490003E0,1.392161846E0,-5.174028873E-1,-3.393967390E0
2.963474003E0,1.382998943E0,-5.149593949E-1,-3.401908636E0
2.965488388E0,1.366505504E0,-5.155702829E-1,-3.415958405E0
2.967472388E0,1.347568750E0,-5.143485069E-1,-3.434284449E0
2.969485311E0,1.336573124E0,-5.106833577E-1,-3.443447351E0
2.971468772E0,1.316414595E0,-5.021312237E-1,-3.460551500E0
2.973483542E0,1.296866894E0,-4.899139404E-1,-3.476433992E0
2.975467157E0,1.290147424E0,-4.801400900E-1,-3.481321096E0
2.977480772E0,1.272432327E0,-4.575380683E-1,-3.491705656E0
2.979495157E0,1.261436701E0,-4.294382632E-1,-3.496592760E0
2.981479465E0,1.240667343E0,-4.141666293E-1,-3.499036074E0
2.983493618E0,1.215621829E0,-3.769038618E-1,-3.501479626E0
2.985476465E0,1.203404546E0,-3.561344445E-1,-3.500868797E0
2.987491543E0,1.177137375E0,-3.133738637E-1,-3.494149208E0
2.989475850E0,1.155757070E0,-2.687807083E-1,-3.483153582E0
2.991489927E0,1.143539786E0,-2.443460971E-1,-3.475823164E0
2.993472389E0,1.117272496E0,-1.973094791E-1,-3.454442978E0
2.995485927E0,1.094670534E0,-1.478293836E-1,-3.431840897E0
2.997469927E0,1.083674908E0,-1.258382350E-1,-3.416569233E0
2.999484389E0,1.054964304E0,-7.391469181E-2,-3.386026144E0
3.001468081E0,1.028086185E0,-2.809980139E-2,-3.349985123E0
3.003482620E0,1.016479731E0,-1.221730490E-3,-3.332880735E0
3.005466235E0,9.950994849E-1,4.337143153E-2,-3.295007229E0
3.007481389E0,9.706648588E-1,9.040805697E-2,-3.254079103E0
3.009494543E0,9.615018964E-1,1.136209369E-1,-3.236364126E0
3.011477312E0,9.413433671E-1,1.563815027E-1,-3.198490381E0
3.013491466E0,9.334021211E-1,1.747074574E-1,-3.180775404E0
3.015475543E0,9.169087410E-1,2.113593817E-1,-3.147177696E0
3.017489389E0,8.998045325E-1,2.419026345E-1,-3.114801884E0
3.019473389E0,8.900306821E-1,2.535090744E-1,-3.098919392E0
3.021487850E0,8.741481900E-1,2.730567753E-1,-3.076928139E0
3.023471543E0,8.564330935E-1,2.809980214E-1,-3.056158781E0
3.025485696E0,8.478809595E-1,2.822197378E-1,-3.049439192E0
3.027469621E0,8.289441466E-1,2.742784917E-1,-3.038443804E0
3.029483159E0,8.100073338E-1,2.602286041E-1,-3.036000252E0
3.031467467E0,7.996225953E-1,2.504547536E-1,-3.032945871E0
3.033480774E0,7.812966704E-1,2.211332172E-1,-3.032945871E0
3.035494928E0,7.648032904E-1,1.857030392E-1,-3.032945871E0
3.037478544E0,7.562511563E-1,1.637118906E-1,-3.034778595E0
3.039492159E0,7.464773059E-1,1.172861308E-1,-3.034778595E0
3.041476159E0,7.379252315E-1,6.597344577E-2,-3.034778595E0
3.043490313E0,7.336491346E-1,3.481931984E-2,-3.036611080E0
3.045474236E0,7.293730974E-1,-2.809980139E-2,-3.038443804E0
3.047490005E0,7.250970602E-1,-6.108652428E-2,-3.039665461E0
3.049472698E0,7.189884186E-1,-1.295034289E-1,-3.035389423E0
3.051486005E0,7.079927921E-1,-2.028072625E-1,-3.033556700E0
3.053470621E0,7.073819637E-1,-2.400700450E-1,-3.032945871E0
3.055484774E0,7.012733221E-1,-3.121521473E-1,-3.025004625E0
3.057466621E0,6.957755089E-1,-3.903428912E-1,-3.015230894E0
3.059482544E0,6.914994717E-1,-4.251621962E-1,-3.009122133E0
3.061465698E0,6.823364496E-1,-4.941899776E-1,-2.998126507E0
3.063479544E0,6.768386960E-1,-5.601634383E-1,-2.981633186E0
3.065493928E0,6.743952036E-1,-5.919284225E-1,-2.975524664E0
3.067478545E0,6.725626588E-1,-6.481280327E-1,-2.963918209E0
3.069492083E0,6.731734872E-1,-7.012733221E-1,-2.946814060E0
3.071475852E0,6.701191664E-1,-7.275404930E-1,-2.943759680E0
3.073489699E0,6.664539576E-1,-7.703011036E-1,-2.927877188E0
3.075473083E0,6.621779203E-1,-8.038986921E-1,-2.920546770E0
3.077487237E0,6.554583907E-1,-8.179485798E-1,-2.907718658E0
3.079471468E0,6.450737119E-1,-8.387179971E-1,-2.896723032E0
3.081484699E0,6.414085031E-1,-8.497135639E-1,-2.891836166E0
3.083468699E0,6.249151230E-1,-8.564330935E-1,-2.877175331E0
3.085483160E0,6.139195561E-1,-8.570439219E-1,-2.863125324E0
3.087467468E0,6.053674817E-1,-8.539896011E-1,-2.852129936E0
3.089480468E0,5.937610269E-1,-8.460483551E-1,-2.836247444E0
3.091491545E0,5.778785348E-1,-8.301658630E-1,-2.814256191E0
3.093478237E0,5.687155724E-1,-8.203920126E-1,-2.800206184E0
3.095492468E0,5.540547967E-1,-7.990117669E-1,-2.773939133E0
3.097477006E0,5.345070958E-1,-7.727445364E-1,-2.746450186E0
3.099489929E0,5.210680366E-1,-7.605272532E-1,-2.731178522E0
3.101473391E0,5.021312237E-1,-7.379252315E-1,-2.698802710E0
3.103488391E0,4.819726646E-1,-7.122688890E-1,-2.663372517E0
3.105471853E0,4.715879560E-1,-7.018841505E-1,-2.646268129E0
3.107486546E0,4.514294267E-1,-6.811147332E-1,-2.611449003E0
3.109470238E0,4.428772926E-1,-6.713408828E-1,-2.592512131E0
3.111484700E0,4.245513380E-1,-6.517932415E-1,-2.557692766E0
3.113467238E0,4.098905921E-1,-6.371324658E-1,-2.524095297E0
3.115481315E0,4.007275999E-1,-6.340781450E-1,-2.505158424E0
3.117495854E0,3.854559660E-1,-6.255260110E-1,-2.471560717E0
3.119479546E0,3.714060783E-1,-6.188064814E-1,-2.441017628E0
3.121493084E0,3.659082949E-1,-6.188064814E-1,-2.423913240E0
3.123477007E0,3.512475193E-1,-6.200281978E-1,-2.395202637E0
3.125491777E0,3.359758854E-1,-6.267477274E-1,-2.364048481E0
3.127476161E0,3.286454976E-1,-6.298020482E-1,-2.354885578E0
3.129489315E0,3.231477141E-1,-6.395758986E-1,-2.326785803E0
3.131472161E0,3.243694305E-1,-6.462954283E-1,-2.304183722E0
3.133487238E0,3.280346394E-1,-6.542366743E-1,-2.296242476E0
3.135471777E0,3.274237812E-1,-6.664539576E-1,-2.281581640E0
3.137484700E0,3.219259977E-1,-6.805039048E-1,-2.274251223E0
3.139468700E0,3.188716471E-1,-6.878342628E-1,-2.271807909E0
3.141482931E0,3.078760803E-1,-7.006624341E-1,-2.275473118E0
3.143466315E0,3.029891551E-1,-7.086036801E-1,-2.273029566E0
3.145480469E0,2.889392674E-1,-7.189884186E-1,-2.280970812E0
3.147495547E0,2.791654170E-1,-7.318165898E-1,-2.291355610E0
3.149478239E0,2.736676335E-1,-7.354817390E-1,-2.296853304E0
3.151493008E0,2.638937831E-1,-7.428121567E-1,-2.309681416E0
3.153476085E0,2.522873580E-1,-7.470881939E-1,-2.315790176E0
3.155490008E0,2.449569702E-1,-7.464773059E-1,-2.319455385E0
3.157473624E0,2.333505303E-1,-7.458664775E-1,-2.323731422E0
3.159487547E0,2.174680233E-1,-7.360926270E-1,-2.326174736E0
3.161472085E0,2.101376504E-1,-7.299839854E-1,-2.325563908E0
3.163485624E0,1.966986060E-1,-7.098253965E-1,-2.317622662E0
3.165469624E0,1.838704348E-1,-6.866125464E-1,-2.305405378E0
3.167484778E0,1.789835095E-1,-6.756169796E-1,-2.297464132E0
3.169467547E0,1.631010175E-1,-6.456845403E-1,-2.269975185E0
3.171478855E0,1.459967941E-1,-6.126978397E-1,-2.246762276E0
3.173494624E0,1.337794960E-1,-5.974262357E-1,-2.232101679E0
3.175479778E0,1.075122803E-1,-5.613851547E-1,-2.189341068E0
3.177493009E0,9.529497474E-2,-5.461135507E-1,-2.168571711E0
3.179476701E0,7.574728876E-2,-5.088507533E-1,-2.124589205E0
3.181492085E0,5.925392732E-2,-4.703662395E-1,-2.075109243E0
3.183475162E0,4.948008433E-2,-4.514294267E-1,-2.050674677E0
3.185489009E0,3.237585723E-2,-4.159992337E-1,-2.002416372E0
3.187472394E0,2.076941915E-2,-3.842342496E-1,-1.952325344E0
3.189486548E0,1.221730467E-2,-3.714060783E-1,-1.926669002E0
3.191470625E0,-1.832595794E-3,-3.433062732E-1,-1.879632354E0
3.193484779E0,-1.466076635E-2,-3.152064681E-1,-1.835039139E0
3.195468471E0,-2.504547499E-2,-3.036000133E-1,-1.813658953E0
3.197482548E0,-3.726277873E-2,-2.834414840E-1,-1.770898342E0
3.199465625E0,-5.009094998E-2,-2.675589919E-1,-1.734857321E0
3.201480702E0,-5.375614017E-2,-2.583959997E-1,-1.716531396E0
3.203494548E0,-6.475171447E-2,-2.516764700E-1,-1.680490255E0
3.205477933E0,-7.452555746E-2,-2.492330223E-1,-1.652390480E0
3.207493317E0,-7.941248268E-2,-2.516764700E-1,-1.642616630E0
3.209475856E0,-9.040805697E-2,-2.614503205E-1,-1.619403720E0
3.211489702E0,-9.407325089E-2,-2.700024247E-1,-1.611462474E0
3.213474010E0,-9.834930301E-2,-2.956587672E-1,-1.594969153E0
3.215488163E0,-1.062905490E-1,-3.262020350E-1,-1.584584475E0
3.217471163E0,-1.069014147E-1,-3.457497358E-1,-1.579086661E0
3.219485317E0,-1.130100712E-1,-3.885102868E-1,-1.570534587E0
3.221468779E0,-1.160643995E-1,-4.392121136E-1,-1.564425945E0
3.223483548E0,-1.136209369E-1,-4.660901725E-1,-1.561982393E0
3.225466856E0,-1.038470939E-1,-5.216789246E-1,-1.557706356E0
3.227481318E0,-8.735372871E-2,-5.736024380E-1,-1.555873752E0
3.229494934E0,-8.002334833E-2,-5.986479521E-1,-1.555262923E0
3.231479780E0,-6.719517708E-2,-6.462954283E-1,-1.558317184E0
3.233493703E0,-5.925392732E-2,-6.896668673E-1,-1.557095528E0
3.235476703E0,-5.681046844E-2,-7.067710757E-1,-1.559538960E0
3.237491165E0,-5.375614017E-2,-7.379252315E-1,-1.560149789E0
3.239474934E0,-5.009094998E-2,-7.513642311E-1,-1.561982393E0
3.241489011E0,-4.764748737E-2,-7.672467232E-1,-1.558317184E0
3.243472165E0,-4.337143153E-2,-7.745771408E-1,-1.555262923E0
3.245486857E0,-4.153883830E-2,-7.764097452E-1,-1.552208543E0
3.247470857E0,-3.970624134E-2,-7.721336484E-1,-1.547321677E0
3.249484165E0,-3.970624134E-2,-7.568620443E-1,-1.538158655E0
3.251466934E0,-4.337143153E-2,-7.464773059E-1,-1.532660842E0
3.253481626E0,-4.459316283E-2,-7.202101350E-1,-1.518000126E0
3.255465934E0,-5.009094998E-2,-6.878342628E-1,-1.500895858E0
3.257480088E0,-5.375614017E-2,-6.676757336E-1,-1.491732955E0
3.259494242E0,-5.742133409E-2,-6.249151230E-1,-1.468520045E0
3.261477934E0,-6.475171447E-2,-5.754350424E-1,-1.443474531E0
3.263491549E0,-7.024950534E-2,-5.467243791E-1,-1.432479024E0
3.265475780E0,-7.574728876E-2,-4.948008358E-1,-1.405600905E0
3.267491166E0,-8.124507964E-2,-4.416555762E-1,-1.368949056E0
3.269473089E0,-8.552113175E-2,-4.105014503E-1,-1.352455616E0
3.271488089E0,-9.285151958E-2,-3.555235863E-1,-1.315192819E0
3.273470858E0,-9.957103431E-2,-3.280346394E-1,-1.298088670E0
3.275485089E0,-1.062905490E-1,-2.742784917E-1,-1.258382440E0
3.277469627E0,-1.142318025E-1,-2.193006277E-1,-1.217454433E0
3.279483166E0,-1.209513173E-1,-1.936442852E-1,-1.199739337E0
3.281466858E0,-1.295034289E-1,-1.386664063E-1,-1.157589674E0
3.283480704E0,-1.392772794E-1,-9.346238524E-2,-1.119716048E0
3.285495166E0,-1.435533315E-1,-7.147123665E-2,-1.101390004E0
3.287479781E0,-1.514945775E-1,-3.604105115E-2,-1.061683774E0
3.289493627E0,-1.594358236E-1,-7.330383174E-3,-1.028086185E0
3.291475858E0,-1.624901593E-1,2.443460980E-3,-1.011592865E0
3.293491243E0,-1.704314053E-1,1.771509275E-2,-9.810495973E-1
3.295474550E0,-1.765400618E-1,1.954768784E-2,-9.511171579E-1
3.297487781E0,-1.808161139E-1,1.954768784E-2,-9.370672703E-1
3.299472704E0,-1.881465018E-1,9.162978269E-3,-9.138544202E-1
3.301486320E0,-1.954768747E-1,-1.099557430E-2,-8.924741149E-1
3.303469704E0,-1.985312104E-1,-2.443460934E-2,-8.827002645E-1
3.305484166E0,-2.009746730E-1,-5.681046844E-2,-8.631525636E-1
3.307468473E0,-1.979203373E-1,-7.452555746E-2,-8.546004891E-1
3.309481936E0,-1.991420686E-1,-1.221730486E-1,-8.405506015E-1
3.311465936E0,-2.021963894E-1,-1.728748679E-1,-8.258898258E-1
3.313479782E0,-2.052507252E-1,-1.997529417E-1,-8.234463334E-1
3.315493321E0,-2.119702399E-1,-2.583959997E-1,-8.106181622E-1
3.317477397E0,-2.144137025E-1,-3.225368559E-1,-8.014551997E-1
3.319491859E0,-2.138028294E-1,-3.524692357E-1,-7.947356701E-1
3.321475474E0,-2.095267773E-1,-4.166100919E-1,-7.825183868E-1
3.323489090E0,-2.058615834E-1,-4.776966274E-1,-7.733554244E-1
3.325473628E0,-2.015855312E-1,-5.082398653E-1,-7.690793276E-1
3.327488167E0,-1.985312104E-1,-5.668829679E-1,-7.605272532E-1
3.329471167E0,-1.979203373E-1,-6.243042946E-1,-7.519751191E-1
3.331484705E0,-1.973094791E-1,-6.481280327E-1,-7.513642311E-1
3.333468090E0,-1.930334121E-1,-6.969972253E-1,-7.409795523E-1
3.335482936E0,-1.936442852E-1,-7.379252315E-1,-7.312057018E-1
3.337466551E0,-1.930334121E-1,-7.568620443E-1,-7.257078886E-1
3.339480782E0,-1.912008226E-1,-7.904596329E-1,-7.171558142E-1
3.341494936E0,-1.887573600E-1,-8.045095205E-1,-7.128797174E-1
3.343478013E0,-1.875356287E-1,-8.252789378E-1,-6.976081133E-1
3.345493090E0,-1.808161139E-1,-8.374962807E-1,-6.823364496E-1
3.347476705E0,-1.802052408E-1,-8.387179971E-1,-6.780604124E-1
3.349490552E0,-1.777617931E-1,-8.344419003E-1,-6.566801667E-1
3.351474629E0,-1.710422635E-1,-8.203920126E-1,-6.401867867E-1
3.353488091E0,-1.692096740E-1,-8.081747293E-1,-6.255260110E-1
3.355471476E0,-1.667662114E-1,-7.794640660E-1,-6.023131609E-1
3.357485937E0,-1.624901593E-1,-7.397578359E-1,-5.760459304E-1
3.359470014E0,-1.594358236E-1,-7.153232098E-1,-5.626068711E-1
3.361483476E0,-1.563815027E-1,-6.688974500E-1,-5.418374538E-1
3.363466937E0,-1.514945775E-1,-6.114761233E-1,-5.106833577E-1
3.365481706E0,-1.527163088E-1,-5.809328556E-1,-5.009095073E-1
3.367465706E0,-1.459967941E-1,-5.204572082E-1,-4.715879560E-1
3.369479860E0,-1.453859210E-1,-4.599815309E-1,-4.453207552E-1
3.371492783E0,-1.447750628E-1,-4.269948006E-1,-4.343251884E-1
3.373478552E0,-1.423316002E-1,-3.659082949E-1,-4.098905921E-1
3.375491860E0,-1.417207420E-1,-3.365867436E-1,-3.976732790E-1
3.377474629E0,-1.386664063E-1,-2.809980214E-1,-3.726277947E-1
3.379488476E0,-1.374446750E-1,-2.309070677E-1,-3.488040566E-1
3.381472476E0,-1.362229437E-1,-2.076941878E-1,-3.335324228E-1
3.383487168E0,-1.362229437E-1,-1.624901593E-1,-3.109304011E-1
3.385470322E0,-1.356120855E-1,-1.246165112E-1,-2.852740586E-1
3.387485629E0,-1.343903542E-1,-1.099557430E-1,-2.718350291E-1
3.389468092E0,-1.331686229E-1,-7.880161703E-2,-2.431243658E-1
3.391483169E0,-1.350012124E-1,-5.375614017E-2,-2.168571651E-1
3.393466554E0,-1.343903542E-1,-4.764748737E-2,-2.040289938E-1
3.395480707E0,-1.343903542E-1,-3.298672289E-2,-1.759291887E-1
3.397494630E0,-1.331686229E-1,-2.443460934E-2,-1.484402567E-1
3.399478246E0,-1.307251602E-1,-2.626720630E-2,-1.356120855E-1
3.401492477E0,-1.264491081E-1,-3.237585723E-2,-1.117883399E-1
3.403475861E0,-1.227839142E-1,-4.153883830E-2,-9.590584040E-2
3.405490015E0,-1.240056455E-1,-5.925392732E-2,-7.696902007E-2
3.407475784E0,-1.282816976E-1,-8.552113175E-2,-5.681046844E-2
3.409488092E0,-1.307251602E-1,-9.834930301E-2,-4.764748737E-2
3.411470323E0,-1.301143020E-1,-1.319468915E-1,-3.298672289E-2
3.413485323E0,-1.301143020E-1,-1.673770845E-1,-2.260201424E-2
3.415469631E0,-1.295034289E-1,-1.850921661E-1,-1.588249579E-2
3.417483246E0,-1.288925707E-1,-2.217440903E-1,-7.330383174E-3
3.419466938E0,-1.276708394E-1,-2.645046413E-1,1.221730490E-3
3.421481938E0,-1.264491081E-1,-2.828305960E-1,1.832595794E-3
3.423465092E0,-1.209513173E-1,-3.219259977E-1,4.886921961E-3
3.425479246E0,-1.185078546E-1,-3.604104817E-1,7.330383174E-3
3.427493707E0,-1.160643995E-1,-3.781255782E-1,7.941247895E-3
3.429476478E0,-1.130100712E-1,-4.117231667E-1,7.941247895E-3
3.431491785E0,-1.087340117E-1,-4.434881806E-1,3.054326167E-3
3.433474939E0,-1.087340117E-1,-4.569272101E-1,3.054326167E-3
3.435489093E0,-1.099557430E-1,-4.795292318E-1,-1.832595794E-3
3.437472785E0,-1.093448773E-1,-4.880813360E-1,-4.276056774E-3
3.439486632E0,-1.099557430E-1,-5.027421117E-1,-9.162978269E-3
3.441470324E0,-1.117883399E-1,-5.106833577E-1,-1.466076635E-2
3.443484478E0,-1.123992056E-1,-5.137376785E-1,-1.527163107E-2
3.445468478E0,-1.160643995E-1,-5.106833577E-1,-2.382374369E-2
3.447483555E0,-1.166752651E-1,-5.064072609E-1,-2.687807009E-2
3.449466016E0,-1.185078546E-1,-4.990769029E-1,-2.809980139E-2
3.451479478E0,-1.185078546E-1,-4.862487316E-1,-3.115412779E-2
3.453494555E0,-1.209513173E-1,-4.697553813E-1,-3.054326214E-2
3.455478555E0,-1.227839142E-1,-4.581489265E-1,-2.871066704E-2
3.457491862E0,-1.252273768E-1,-4.324925840E-1,-2.443460934E-2
3.459476401E0,-1.270599663E-1,-4.043927789E-1,-2.260201424E-2
3.461489709E0,-1.282816976E-1,-3.891211748E-1,-1.954768784E-2
3.463473093E0,-1.282816976E-1,-3.555235863E-1,-1.404990070E-2
3.465488478E0,-1.337794960E-1,-3.182607889E-1,-7.330383174E-3
3.467472709E0,-1.362229437E-1,-2.999348342E-1,-4.886921961E-3
3.469486248E0,-1.386664063E-1,-2.602286041E-1,2.443460980E-3
3.471469325E0,-1.404990107E-1,-2.382374406E-1,3.665191587E-3
3.473484171E0,-1.429424733E-1,-1.973094791E-1,1.038470957E-2
3.475467171E0,-1.447750628E-1,-1.521054506E-1,1.466076635E-2
3.477481325E0,-1.472185254E-1,-1.307251602E-1,1.893682219E-2
3.479465017E0,-1.539380401E-1,-8.796459436E-2,2.260201424E-2
3.481479171E0,-1.545489132E-1,-4.642575979E-2,2.260201424E-2
3.483493402E0,-1.563815027E-1,-2.504547499E-2,2.443460934E-2
3.485476479E0,-1.588249654E-1,1.404990070E-2,2.626720630E-2
3.487492710E0,-1.649336219E-1,5.009094998E-2,2.871066704E-2
3.489474863E0,-1.643227488E-1,6.597344577E-2,2.626720630E-2
3.491486556E0,-1.667662114E-1,9.468411654E-2,2.565634064E-2
3.493472402E0,-1.685988009E-1,1.203404516E-1,2.382374369E-2
3.495486633E0,-1.704314053E-1,1.288925707E-1,2.260201424E-2
3.497470556E0,-1.722639948E-1,1.447750628E-1,2.076941915E-2
3.499484094E0,-1.753183305E-1,1.563815027E-1,1.649336144E-2
3.501467787E0,-1.747074574E-1,1.594358236E-1,1.282817032E-2
3.503481940E0,-1.765400618E-1,1.612684280E-1,9.773843922E-3
3.505465633E0,-1.771509200E-1,1.612684280E-1,8.552113548E-3
3.507481017E0,-1.753183305E-1,1.582140923E-1,2.443460980E-3
3.509494018E0,-1.753183305E-1,1.508837193E-1,-2.443460980E-3
3.511478941E0,-1.753183305E-1,1.429424733E-1,-5.497787148E-3
3.513491788E0,-1.753183305E-1,1.331686229E-1,-9.773843922E-3
3.515475557E0,-1.771509200E-1,1.166752651E-1,-1.527163107E-2
3.517489711E0,-1.765400618E-1,1.093448773E-1,-1.832595654E-2
3.519473403E0,-1.747074574E-1,8.796459436E-2,-2.260201424E-2
3.521487788E0,-1.753183305E-1,6.597344577E-2,-2.809980139E-2
3.523471557E0,-1.740965992E-1,5.558873713E-2,-3.237585723E-2
3.525485326E0,-1.753183305E-1,2.932153270E-2,-3.787364438E-2
3.527470326E0,-1.740965992E-1,3.665191587E-3,-4.214970022E-2
3.529483172E0,-1.710422635E-1,-8.552113548E-3,-4.276056588E-2
3.531466018E0,-1.710422635E-1,-3.237585723E-2,-4.825835302E-2
3.533481634E0,-1.692096740E-1,-4.581489414E-2,-5.009094998E-2
3.535465018E0,-1.673770845E-1,-6.780604273E-2,-5.681046844E-2
3.537478018E0,-1.655444801E-1,-8.796459436E-2,-5.986479297E-2
3.539493018E0,-1.631010175E-1,-9.834930301E-2,-6.352998316E-2
3.541476480E0,-1.618792862E-1,-1.136209369E-1,-6.841690838E-2
3.543490326E0,-1.618792862E-1,-1.288925707E-1,-7.391469181E-2
3.545474018E0,-1.606575549E-1,-1.356120855E-1,-7.452555746E-2
3.547489326E0,-1.606575549E-1,-1.459967941E-1,-7.941248268E-2
3.549471789E0,-1.600466967E-1,-1.557706445E-1,-8.185594529E-2
3.551487250E0,-1.582140923E-1,-1.588249654E-1,-8.429940045E-2
3.553470250E0,-1.588249654E-1,-1.612684280E-1,-8.918632567E-2
3.555484481E0,-1.600466967E-1,-1.618792862E-1,-9.101892263E-2
3.557467866E0,-1.576032341E-1,-1.612684280E-1,-8.979719132E-2
3.559482558E0,-1.569923609E-1,-1.600466967E-1,-9.162978828E-2
3.561465712E0,-1.539380401E-1,-1.527163088E-1,-9.590584040E-2
3.563479481E0,-1.551597714E-1,-1.472185254E-1,-9.407325089E-2
3.565494019E0,-1.527163088E-1,-1.404990107E-1,-9.407325089E-2
3.567478635E0,-1.527163088E-1,-1.350012124E-1,-9.285151958E-2
3.569491558E0,-1.527163088E-1,-1.258382350E-1,-9.162978828E-2
3.571477635E0,-1.521054506E-1,-1.130100712E-1,-8.857546002E-2
3.573489096E0,-1.539380401E-1,-1.087340117E-1,-8.979719132E-2
3.575473096E0,-1.527163088E-1,-9.896016866E-2,-8.613199741E-2
3.577487173E0,-1.533271819E-1,-8.796459436E-2,-8.307767659E-2
3.579470558E0,-1.545489132E-1,-8.185594529E-2,-8.185594529E-2
3.581485096E0,-1.539380401E-1,-7.269296050E-2,-7.757988572E-2
3.583468481E0,-1.551597714E-1,-5.925392732E-2,-7.513642311E-2
3.585483173E0,-1.557706445E-1,-5.619960278E-2,-7.269296050E-2
3.587467250E0,-1.539380401E-1,-4.764748737E-2,-7.024950534E-2
3.589481097E0,-1.563815027E-1,-3.665191308E-2,-6.780604273E-2
3.591496405E0,-1.563815027E-1,-3.115412779E-2,-6.597344577E-2
3.593479174E0,-1.569923609E-1,-2.260201424E-2,-6.352998316E-2
3.595493021E0,-1.588249654E-1,-1.588249579E-2,-6.230825558E-2
3.597476174E0,-1.569923609E-1,-1.466076635E-2,-6.047565863E-2
3.599490559E0,-1.557706445E-1,-7.330383174E-3,-5.925392732E-2
3.601473713E0,-1.600466967E-1,-5.497787148E-3,-5.803219974E-2
3.603488482E0,-1.594358236E-1,-2.443460980E-3,-5.558873713E-2
3.605471867E0,-1.576032341E-1,-2.443460980E-3,-5.436700583E-2
3.607486559E0,-1.557706445E-1,-1.221730490E-3,-5.681046844E-2
3.609470251E0,-1.569923609E-1,-1.832595794E-3,-5.436700583E-2
3.611484098E0,-1.569923609E-1,-5.497787148E-3,-5.619960278E-2
3.613468098E0,-1.551597714E-1,-9.162978269E-3,-5.375614017E-2
3.615482021E0,-1.576032341E-1,-1.038470957E-2,-5.070181563E-2
3.617464174E0,-1.569923609E-1,-1.527163107E-2,-5.070181563E-2
3.619478944E0,-1.569923609E-1,-2.015855350E-2,-5.070181563E-2
3.621493636E0,-1.576032341E-1,-2.443460934E-2,-5.070181563E-2
3.623477021E0,-1.576032341E-1,-3.054326214E-2,-4.703662544E-2
3.625491482E0,-1.576032341E-1,-3.420845419E-2,-4.764748737E-2
3.627476405E0,-1.594358236E-1,-3.970624134E-2,-4.642575979E-2
3.629489021E0,-1.588249654E-1,-4.398229718E-2,-4.398229718E-2
3.631473945E0,-1.594358236E-1,-4.581489414E-2,-4.092797264E-2
3.633487175E0,-1.606575549E-1,-5.070181563E-2,-3.787364438E-2
3.635470637E0,-1.631010175E-1,-5.009094998E-2,-3.848451003E-2
3.637485022E0,-1.612684280E-1,-5.619960278E-2,-3.298672289E-2
3.639468175E0,-1.624901593E-1,-5.619960278E-2,-3.115412779E-2
3.641481714E0,-1.624901593E-1,-6.108652428E-2,-3.054326214E-2
3.643466329E0,-1.637118906E-1,-6.230825558E-2,-2.809980139E-2
3.645480483E0,-1.673770845E-1,-6.414084882E-2,-2.504547499E-2
3.647495483E0,-1.679879427E-1,-6.597344577E-2,-2.687807009E-2
3.649478637E0,-1.692096740E-1,-6.841690838E-2,-2.382374369E-2
3.651491560E0,-1.698205322E-1,-6.902777404E-2,-2.321287990E-2
3.653475791E0,-1.710422635E-1,-6.780604273E-2,-2.199114859E-2
3.655490560E0,-1.722639948E-1,-6.841690838E-2,-1.893682219E-2
3.657473099E0,-1.740965992E-1,-6.414084882E-2,-2.015855350E-2
3.659488714E0,-1.722639948E-1,-6.230825558E-2,-1.832595654E-2
3.661471483E0,-1.747074574E-1,-5.864306539E-2,-1.710422710E-2
3.663485637E0,-1.722639948E-1,-5.681046844E-2,-1.527163107E-2
3.665469022E0,-1.753183305E-1,-5.192354694E-2,-1.771509275E-2
3.667484714E0,-1.716531366E-1,-4.703662544E-2,-1.343903504E-2
3.669467483E0,-1.734857261E-1,-4.459316283E-2,-1.527163107E-2
3.671481946E0,-1.765400618E-1,-4.214970022E-2,-1.466076635E-2
3.673464177E0,-1.753183305E-1,-3.726277873E-2,-1.343903504E-2
3.675479177E0,-1.747074574E-1,-3.543018550E-2,-1.404990070E-2
3.677493946E0,-1.753183305E-1,-3.237585723E-2,-1.649336144E-2
3.679477100E0,-1.771509200E-1,-3.054326214E-2,-1.832595654E-2
3.681491177E0,-1.753183305E-1,-3.054326214E-2,-2.015855350E-2
3.683474561E0,-1.777617931E-1,-2.993239649E-2,-2.382374369E-2
3.685488484E0,-1.765400618E-1,-3.298672289E-2,-2.626720630E-2
3.687473715E0,-1.777617931E-1,-3.359758854E-2,-2.504547499E-2
3.689486869E0,-1.765400618E-1,-3.481931984E-2,-3.237585723E-2
3.691469638E0,-1.777617931E-1,-3.481931984E-2,-3.481931984E-2
3.693484484E0,-1.771509200E-1,-3.665191308E-2,-3.909537569E-2
3.695469023E0,-1.771509200E-1,-3.604105115E-2,-4.153883830E-2
3.697481638E0,-1.765400618E-1,-3.848451003E-2,-4.337143153E-2
3.699466330E0,-1.759291887E-1,-3.604105115E-2,-4.642575979E-2
3.701480100E0,-1.728748679E-1,-3.481931984E-2,-5.131268129E-2
3.703494561E0,-1.710422635E-1,-3.420845419E-2,-5.192354694E-2
3.705478331E0,-1.685988009E-1,-3.359758854E-2,-5.558873713E-2
3.707493023E0,-1.685988009E-1,-2.748893574E-2,-5.558873713E-2
3.709476100E0,-1.679879427E-1,-2.748893574E-2,-5.803219974E-2
3.711491178E0,-1.649336219E-1,-2.260201424E-2,-6.047565863E-2
3.713473639E0,-1.624901593E-1,-1.832595654E-2,-6.108652428E-2
3.715487793E0,-1.618792862E-1,-1.893682219E-2,-5.925392732E-2
3.717471870E0,-1.594358236E-1,-1.221730467E-2,-5.986479297E-2
3.719485947E0,-1.594358236E-1,-7.941247895E-3,-6.108652428E-2
3.721469101E0,-1.576032341E-1,-6.108652335E-3,-5.986479297E-2
3.723483255E0,-1.569923609E-1,0.000000000E0,-5.864306539E-2
3.725466870E0,-1.527163088E-1,3.054326167E-3,-5.558873713E-2
3.727482562E0,-1.496619880E-1,6.108652335E-3,-5.497787148E-2
3.729465332E0,-1.466076523E-1,8.552113548E-3,-5.192354694E-2
3.731478024E0,-1.466076523E-1,1.282817032E-2,-5.375614017E-2
3.733493408E0,-1.435533315E-1,1.588249579E-2,-5.070181563E-2
3.735476716E0,-1.429424733E-1,2.138028294E-2,-4.703662544E-2
3.737490562E0,-1.392772794E-1,2.015855350E-2,-4.764748737E-2
3.739474255E0,-1.392772794E-1,2.260201424E-2,-4.581489414E-2
3.741488716E0,-1.350012124E-1,2.321287990E-2,-4.642575979E-2
3.743471793E0,-1.325577646E-1,2.199114859E-2,-4.520402849E-2
3.745486947E0,-1.325577646E-1,2.382374369E-2,-4.153883830E-2
3.747471178E0,-1.258382350E-1,2.321287990E-2,-4.092797264E-2
3.749485024E0,-1.246165112E-1,2.138028294E-2,-4.031710699E-2
3.751469102E0,-1.215621829E-1,2.321287990E-2,-3.909537569E-2
3.753481948E0,-1.172861308E-1,1.954768784E-2,-3.604105115E-2
3.755465640E0,-1.160643995E-1,2.199114859E-2,-3.298672289E-2
3.757480717E0,-1.105666086E-1,2.015855350E-2,-3.359758854E-2
3.759494333E0,-1.093448773E-1,2.015855350E-2,-2.993239649E-2
3.761477102E0,-1.075122803E-1,1.954768784E-2,-2.626720630E-2
3.763491871E0,-1.044579595E-1,1.954768784E-2,-2.626720630E-2
3.765475179E0,-1.038470939E-1,1.771509275E-2,-2.443460934E-2
3.767490256E0,-1.032362282E-1,1.649336144E-2,-2.138028294E-2
3.769473717E0,-1.020144969E-1,1.588249579E-2,-2.015855350E-2
3.771486871E0,-9.896016866E-2,1.282817032E-2,-1.893682219E-2
3.773470948E0,-9.773843735E-2,6.108652335E-3,-1.832595654E-2
3.775486333E0,-9.651670605E-2,3.054326167E-3,-1.771509275E-2
3.777468717E0,-9.651670605E-2,-6.108652451E-4,-1.527163107E-2
3.779483487E0,-9.346238524E-2,-3.054326167E-3,-1.466076635E-2
3.781466871E0,-8.857546002E-2,-1.038470957E-2,-1.282817032E-2
3.783480717E0,-8.857546002E-2,-1.160643995E-2,-1.649336144E-2
3.785494871E0,-8.735372871E-2,-1.527163107E-2,-1.710422710E-2
3.787480102E0,-8.552113175E-2,-2.138028294E-2,-1.649336144E-2
3.789492794E0,-8.246681094E-2,-2.382374369E-2,-1.649336144E-2
3.791477103E0,-8.246681094E-2,-2.504547499E-2,-2.076941915E-2
3.793491257E0,-8.307767659E-2,-2.809980139E-2,-2.015855350E-2
3.795473641E0,-7.941248268E-2,-3.115412779E-2,-2.382374369E-2
3.797487872E0,-7.941248268E-2,-3.237585723E-2,-2.382374369E-2
3.799471564E0,-7.696902007E-2,-3.298672289E-2,-2.443460934E-2
3.801486334E0,-7.696902007E-2,-3.420845419E-2,-2.748893574E-2
3.803469411E0,-7.391469181E-2,-3.359758854E-2,-2.993239649E-2
3.805484488E0,-7.330382615E-2,-3.237585723E-2,-3.176499158E-2
3.807468488E0,-7.391469181E-2,-2.809980139E-2,-3.237585723E-2
3.809482334E0,-6.841690838E-2,-2.748893574E-2,-3.604105115E-2
3.811465026E0,-7.086037099E-2,-2.809980139E-2,-3.787364438E-2
3.813478641E0,-6.719517708E-2,-2.076941915E-2,-3.909537569E-2
3.815493949E0,-6.719517708E-2,-2.138028294E-2,-3.970624134E-2
3.817477718E0,-6.658431143E-2,-2.076941915E-2,-3.726277873E-2
3.819491257E0,-6.475171447E-2,-1.832595654E-2,-4.092797264E-2
3.821474641E0,-6.230825558E-2,-1.099557430E-2,-4.153883830E-2
3.823489334E0,-5.986479297E-2,-9.162978269E-3,-4.214970022E-2
3.825473103E0,-5.986479297E-2,-5.497787148E-3,-4.276056588E-2
3.827488103E0,-5.742133409E-2,-3.665191587E-3,-4.459316283E-2
3.829470949E0,-5.681046844E-2,1.832595794E-3,-4.459316283E-2
3.831486027E0,-5.314527452E-2,3.054326167E-3,-4.398229718E-2
3.833468489E0,-5.192354694E-2,5.497787148E-3,-4.459316283E-2
3.835482335E0,-5.131268129E-2,9.773843922E-3,-4.581489414E-2
3.837466643E0,-4.825835302E-2,1.343903504E-2,-4.764748737E-2
3.839479796E0,-4.642575979E-2,1.588249579E-2,-4.642575979E-2
3.841494566E0,-4.581489414E-2,1.893682219E-2,-4.886921868E-2
3.843478873E0,-4.276056588E-2,2.076941915E-2,-4.886921868E-2
3.845493027E0,-4.153883830E-2,2.321287990E-2,-5.009094998E-2
3.847477104E0,-3.909537569E-2,2.687807009E-2,-5.314527452E-2
3.849490566E0,-3.787364438E-2,3.176499158E-2,-5.192354694E-2
3.851473412E0,-3.848451003E-2,3.237585723E-2,-5.558873713E-2
3.853488719E0,-3.665191308E-2,3.176499158E-2,-5.558873713E-2
3.855472181E0,-3.726277873E-2,3.481931984E-2,-5.375614017E-2
3.857485412E0,-3.726277873E-2,3.604105115E-2,-5.681046844E-2
3.859469719E0,-3.481931984E-2,3.481931984E-2,-5.497787148E-2
3.861483566E0,-3.420845419E-2,3.604105115E-2,-5.558873713E-2
3.863467258E0,-3.237585723E-2,3.604105115E-2,-5.375614017E-2
3.865482566E0,-3.176499158E-2,3.237585723E-2,-5.192354694E-2
3.867466258E0,-3.176499158E-2,3.481931984E-2,-5.131268129E-2
3.869479873E0,-2.871066704E-2,3.543018550E-2,-5.131268129E-2
3.871494644E0,-2.687807009E-2,3.176499158E-2,-4.764748737E-2
3.873478028E0,-2.687807009E-2,3.481931984E-2,-4.642575979E-2
3.875490951E0,-2.626720630E-2,3.420845419E-2,-4.153883830E-2
3.877475259E0,-2.260201424E-2,3.237585723E-2,-3.787364438E-2
3.879489951E0,-2.443460934E-2,3.359758854E-2,-3.726277873E-2
3.881473105E0,-2.565634064E-2,3.176499158E-2,-3.665191308E-2
3.883486644E0,-2.260201424E-2,2.809980139E-2,-3.176499158E-2
3.885470951E0,-2.382374369E-2,2.565634064E-2,-3.176499158E-2
3.887485413E0,-2.565634064E-2,2.382374369E-2,-2.871066704E-2
3.889468797E0,-2.565634064E-2,1.710422710E-2,-2.626720630E-2
3.891481951E0,-2.504547499E-2,1.343903504E-2,-2.687807009E-2
3.893466336E0,-2.565634064E-2,8.552113548E-3,-2.687807009E-2
3.895480490E0,-2.504547499E-2,4.276056774E-3,-2.809980139E-2
3.897494874E0,-2.871066704E-2,-3.054326167E-3,-2.748893574E-2
3.899478259E0,-2.504547499E-2,-1.221730467E-2,-2.748893574E-2
3.901492413E0,-2.626720630E-2,-1.588249579E-2,-2.993239649E-2
3.903475490E0,-2.687807009E-2,-2.443460934E-2,-2.993239649E-2
3.905490951E0,-2.626720630E-2,-3.054326214E-2,-3.176499158E-2
3.907474567E0,-2.871066704E-2,-3.481931984E-2,-3.359758854E-2
3.909488721E0,-2.993239649E-2,-4.581489414E-2,-3.543018550E-2
3.911471567E0,-2.932153270E-2,-5.131268129E-2,-3.604105115E-2
3.913485722E0,-3.176499158E-2,-5.253441259E-2,-3.665191308E-2
3.915469645E0,-3.298672289E-2,-5.619960278E-2,-3.726277873E-2
3.917483568E0,-3.359758854E-2,-5.925392732E-2,-3.848451003E-2
3.919466875E0,-3.298672289E-2,-5.803219974E-2,-3.665191308E-2
3.921481029E0,-3.420845419E-2,-5.925392732E-2,-3.604105115E-2
3.923495799E0,-3.481931984E-2,-5.803219974E-2,-3.420845419E-2
3.925479260E0,-3.604105115E-2,-5.925392732E-2,-3.481931984E-2
3.927494645E0,-3.604105115E-2,-5.619960278E-2,-3.420845419E-2
3.929477414E0,-3.665191308E-2,-5.497787148E-2,-3.237585723E-2
3.931490568E0,-3.787364438E-2,-5.375614017E-2,-2.993239649E-2
3.933474876E0,-4.031710699E-2,-5.131268129E-2,-2.993239649E-2
3.935489337E0,-3.848451003E-2,-5.070181563E-2,-2.748893574E-2
3.937471876E0,-3.665191308E-2,-4.886921868E-2,-2.809980139E-2
3.939487799E0,-4.031710699E-2,-4.398229718E-2,-2.565634064E-2
3.941470876E0,-3.726277873E-2,-4.337143153E-2,-2.687807009E-2
3.943484491E0,-3.665191308E-2,-3.787364438E-2,-2.687807009E-2
3.945468799E0,-3.481931984E-2,-3.359758854E-2,-2.626720630E-2
3.947482952E0,-3.604105115E-2,-2.993239649E-2,-2.504547499E-2
3.949466568E0,-3.237585723E-2,-2.626720630E-2,-2.382374369E-2
3.951481414E0,-3.298672289E-2,-2.076941915E-2,-2.199114859E-2
3.953494338E0,-3.054326214E-2,-1.893682219E-2,-1.893682219E-2
3.955478261E0,-2.932153270E-2,-1.343903504E-2,-1.649336144E-2
3.957491800E0,-2.809980139E-2,-9.162978269E-3,-1.588249579E-2
