"Time (s)","Linear Acceleration x (m/s^2)","Linear Acceleration y (m/s^2)","Linear Acceleration z (m/s^2)"
1.547600000E-2,-5.405545235E-2,1.798729897E-1,-1.136479378E-1
2.347169200E-2,3.754758835E-2,1.340651512E-1,-1.887426376E-1
3.146707700E-2,1.845712662E-1,1.244344711E-1,-1.183037758E-1
3.949207700E-2,1.715860367E-1,1.135168076E-1,-7.755756378E-2
4.748953900E-2,1.136844158E-1,8.293914795E-2,-2.093982697E-2
5.548407800E-2,1.756341457E-1,2.800083160E-2,-4.468441010E-3
6.347969300E-2,1.907291412E-1,1.188611984E-2,-3.759145737E-2
7.147577000E-2,1.819527149E-1,2.884244919E-2,-7.945489883E-2
7.947084700E-2,1.337704659E-1,3.068447113E-2,-8.577585220E-2
8.746777100E-2,-1.328659058E-2,3.859949112E-2,-1.123452187E-1
9.549231000E-2,-1.637496948E-1,5.149030685E-2,-9.153127670E-2
1.034880790E-1,-2.201173306E-1,6.254291534E-2,-6.191682816E-2
1.114843100E-1,-2.695815563E-1,5.065870285E-2,-5.672311783E-2
1.194790790E-1,-2.662584782E-1,1.674556732E-2,-5.902624130E-2
1.274760800E-1,-2.354316711E-1,1.475429535E-2,-9.030914307E-2
1.354707720E-1,-2.034299374E-1,1.083278656E-2,-1.068840027E-1
1.434655420E-1,-1.312868595E-1,4.933357239E-2,-1.269545555E-1
1.514923880E-1,-3.375840187E-2,4.032039642E-2,-1.538729668E-1
1.594876960E-1,3.181958199E-2,5.429267883E-2,-1.882405281E-1
1.674834660E-1,7.993292809E-2,8.916950226E-2,-1.643638611E-1
1.754794660E-1,6.867766380E-2,1.023044586E-1,-1.305236816E-1
1.834747740E-1,3.643274307E-3,1.339054108E-1,-1.483397484E-1
1.914708510E-1,-7.295966148E-2,1.299099922E-1,-1.447882652E-1
1.994655430E-1,-1.601195335E-1,1.408157349E-1,-1.362199783E-1
2.074923900E-1,-2.604029179E-1,1.776185036E-1,-1.484069824E-1
2.154876980E-1,-3.457484245E-1,2.126946449E-1,-1.634955406E-1
2.234831590E-1,-3.640377522E-1,2.087035179E-1,-1.410975456E-1
2.314800820E-1,-3.194065094E-1,1.938977242E-1,-2.074980736E-1
2.394748520E-1,-3.174784184E-1,1.791858673E-1,-2.764577866E-1
2.474701590E-1,-2.384858131E-1,1.739482880E-1,-3.088092804E-1
2.554658530E-1,-1.870634556E-1,1.580648422E-1,-2.992339134E-1
2.634920070E-1,-1.429193020E-1,1.636228561E-1,-2.478537560E-1
2.714877760E-1,-3.884124756E-2,1.317892075E-1,-2.198653221E-1
2.794828530E-1,-3.445148468E-4,1.086645126E-1,-1.838932037E-1
2.874797760E-1,4.237127304E-2,5.263519287E-2,-1.518149376E-1
2.954745460E-1,2.327847481E-2,-8.355140686E-3,-9.846401215E-2
3.034699310E-1,4.178071022E-2,-1.134376526E-1,-1.885366440E-2
3.114656230E-1,6.956410408E-2,-1.625270844E-1,3.909158707E-2
3.194911620E-1,9.736180305E-2,-1.666736603E-1,6.753158569E-2
3.274886230E-1,1.489529610E-1,-1.813449860E-1,1.017236710E-1
3.354831630E-1,1.856281757E-1,-1.493110657E-1,8.156967163E-2
3.434787780E-1,1.835725307E-1,-1.206970215E-1,1.442956924E-2
3.514748550E-1,1.436166763E-1,-1.143646240E-1,-2.775955200E-2
3.594696240E-1,7.856059074E-2,-1.035213470E-1,-5.173873901E-2
3.674667780E-1,-4.011154175E-3,-8.780479431E-2,-7.859373093E-2
3.754910870E-1,-6.359314919E-2,-6.229305267E-2,-5.051755905E-2
3.834870870E-1,-1.173498631E-1,-3.654384613E-2,-3.670215607E-2
3.914822410E-1,-1.281323433E-1,-1.789093018E-2,1.577758789E-2
3.994784710E-1,-8.980178833E-2,-3.299427032E-2,1.331310272E-1
4.074747790E-1,6.064701080E-2,-6.123161316E-2,2.449307442E-1
4.154701650E-1,2.616741657E-1,-7.200336456E-2,1.904931068E-1
4.234652420E-1,3.143440485E-1,-4.847812653E-2,1.304011345E-1
4.314911650E-1,3.682297468E-1,-4.067230225E-2,7.180023193E-2
4.394861650E-1,3.579469919E-1,-1.917934418E-2,-8.747100830E-3
4.474833960E-1,3.139320612E-1,-2.182865143E-2,-2.011919022E-2
4.554776270E-1,2.379243374E-1,-3.140163422E-2,-6.038951874E-2
4.634736270E-1,2.021455765E-1,-3.583049774E-2,-6.251096725E-2
4.714695500E-1,1.323281527E-1,-5.646228790E-2,-3.804922104E-2
4.794953970E-1,9.453976154E-2,-7.200145721E-2,2.971506119E-2
4.874920120E-1,9.710156918E-2,-9.468746185E-2,6.182241440E-2
4.954868590E-1,1.481623650E-1,-1.198883057E-1,3.704881668E-2
5.034818590E-1,1.944226027E-1,-1.285552979E-1,2.011060715E-2
5.114787820E-1,2.503452301E-1,-1.231069565E-1,-3.452301025E-3
5.194736290E-1,3.016035557E-1,-1.275815964E-1,4.474639893E-3
5.274698590E-1,3.082578182E-1,-1.179504395E-1,-2.092170715E-2
5.354954760E-1,2.976820469E-1,-1.349430084E-1,-8.322238922E-3
5.434902450E-1,2.823057175E-1,-9.953594208E-2,-1.775932312E-2
5.514865530E-1,2.361273766E-1,-5.719089508E-2,-2.299642563E-2
5.594813220E-1,1.712291241E-1,-1.266193390E-2,-1.443958282E-2
5.674782450E-1,1.541877985E-1,-2.110290527E-2,-1.121187210E-2
5.754730150E-1,1.388193369E-1,-5.366134644E-2,-7.262849808E-2
5.834677850E-1,9.896767139E-2,-6.704902649E-2,-1.552948952E-1
5.914951690E-1,1.471260786E-1,-5.880451202E-2,-1.513228416E-1
5.994898610E-1,1.736369133E-1,-4.333114624E-2,-9.690999985E-2
6.074868610E-1,1.267971992E-1,-2.514839172E-2,-9.492683411E-2
6.154816320E-1,1.051950455E-2,-3.742218018E-3,-1.450533867E-1
6.234775550E-1,-2.595686913E-2,1.781463623E-3,-1.374306679E-1
6.314726320E-1,-1.901447773E-2,-1.599788666E-2,-1.201753616E-1
6.394674010E-1,-3.917491436E-2,-2.617645264E-2,-9.802150726E-2
6.474950930E-1,-4.921674728E-2,1.165199280E-2,-1.165232658E-1
6.554908640E-1,-9.498953819E-2,3.750801086E-2,-4.408979416E-2
6.634858640E-1,-1.147494316E-1,2.740192413E-2,-3.859281540E-2
6.714827870E-1,-1.588863134E-1,1.018142700E-2,1.516008377E-2
6.794772480E-1,-1.818085909E-1,1.811981201E-4,3.088331223E-2
6.874739410E-1,-1.759009361E-1,4.056167603E-2,2.287435532E-2
6.954686340E-1,-1.431397200E-1,6.778717041E-3,3.394460678E-2
7.034944800E-1,-1.477922201E-1,1.606655121E-2,3.024196625E-2
7.114914030E-1,-1.774208546E-1,-1.541042328E-2,4.260635376E-2
7.194852490E-1,-1.931836605E-1,-2.286720276E-2,3.995800018E-2
7.274818650E-1,-1.905213594E-1,-2.056121826E-2,1.306200027E-2
7.354770200E-1,-1.555612087E-1,-1.348304749E-2,4.073333740E-2
7.434720200E-1,-8.909070492E-2,-8.759498596E-3,-3.216457367E-2
7.514683270E-1,-1.064155102E-1,6.080150604E-2,-1.189532280E-1
7.594935580E-1,-2.018822432E-1,1.090669632E-1,-1.025738716E-1
7.674911740E-1,-2.736514807E-1,8.305168152E-2,2.535104752E-2
7.754856360E-1,-2.397507429E-1,4.037475586E-2,3.030014038E-2
7.834812520E-1,-1.659908295E-1,7.420539856E-3,6.372976303E-2
7.914772520E-1,-1.273699999E-1,6.303787231E-4,7.266092300E-2
7.994714820E-1,-1.244000196E-1,5.489349365E-3,6.658554077E-2
8.074686360E-1,-1.547170877E-1,5.378723145E-4,9.596967697E-2
8.154942530E-1,-1.254763603E-1,-7.268905640E-3,9.830427170E-2
8.234896370E-1,-1.493763924E-1,-4.644584656E-2,4.059076309E-2
8.314858680E-1,-1.284700632E-1,-1.337251663E-1,2.830839157E-2
8.394806370E-1,-1.320296526E-1,-1.661529541E-1,1.589059830E-2
8.474764070E-1,-1.191761494E-1,-1.748399734E-1,5.695343018E-3
8.554724080E-1,-9.465384483E-2,-1.789588928E-1,4.313611984E-2
8.634674840E-1,-7.941842079E-2,-1.209154129E-1,2.771759033E-2
8.714938690E-1,-2.789831161E-2,-6.316184998E-2,8.107948303E-2
8.794887150E-1,2.619922161E-2,-9.439277649E-2,1.120786667E-1
8.874856380E-1,7.510483265E-2,-6.145381927E-2,7.528829575E-2
8.954809470E-1,5.414855480E-2,-5.279541016E-2,6.197118759E-2
9.034757160E-1,7.588267326E-2,-5.167579651E-2,6.250667572E-2
9.114724090E-1,5.655717850E-2,-7.484626770E-2,8.406496048E-2
9.194674860E-1,1.080358028E-2,-1.102247238E-1,9.086847305E-2
9.274948700E-1,-1.355075836E-2,-1.074657440E-1,1.070265770E-1
9.354895640E-1,-2.870190144E-2,-1.193399429E-1,1.443734169E-1
9.434841020E-1,-1.861262321E-2,-1.627397537E-1,1.382193565E-1
9.514807170E-1,1.121902466E-2,-1.755714417E-1,1.339387894E-1
9.594754870E-1,7.027101517E-2,-2.009458542E-1,9.559774399E-2
9.674717180E-1,1.105930805E-1,-2.317161560E-1,6.143569946E-2
9.754674880E-1,1.800627708E-1,-2.104320526E-1,3.620147705E-2
9.834933340E-1,2.380889654E-1,-1.850776672E-1,5.794239044E-2
9.914889490E-1,2.751412392E-1,-1.914253235E-1,1.920032501E-2
9.994841030E-1,2.129418850E-1,-1.238956451E-1,-4.385852814E-2
1.007480642E0,1.652227640E-1,-1.331939697E-1,-2.837848663E-2
1.015475797E0,1.275105476E-1,-1.138677597E-1,-8.460521698E-3
1.023471489E0,9.964120388E-2,-9.697341919E-2,-5.442619324E-3
1.031467412E0,5.069148540E-2,-8.982467651E-2,3.539609909E-2
1.039492412E0,5.918443203E-2,-1.259584427E-1,4.953622818E-2
1.047489566E0,5.540740490E-2,-1.001138687E-1,7.758712769E-2
1.055484644E0,3.927409649E-2,-6.027126312E-2,6.669855118E-2
1.063479721E0,1.820087433E-2,-5.188655853E-2,8.870840073E-2
1.071476028E0,4.085779190E-3,3.975868225E-3,9.798908234E-2
1.079470567E0,-2.266061306E-2,4.275989532E-2,5.177402496E-2
1.087467182E0,-5.972528458E-2,8.370780945E-2,-6.640911102E-3
1.095492722E0,-8.102262020E-2,8.145523071E-2,-5.536603928E-2
1.103488645E0,-6.054735184E-2,4.563236237E-2,-1.013774872E-1
1.111484645E0,-3.660774231E-2,6.018352509E-2,-1.802973747E-1
1.119480030E0,-1.632833481E-2,4.394531250E-2,-2.509465218E-1
1.127475414E0,1.288950443E-2,3.071784973E-2,-3.081531525E-1
1.135470877E0,4.199755192E-2,2.092838287E-2,-3.871164322E-1
1.143466261E0,4.064881802E-2,3.365612030E-2,-3.613409996E-1
1.151492415E0,4.949653149E-2,6.165122986E-2,-3.937530518E-1
1.159487800E0,5.175888538E-2,5.941104889E-2,-4.077653885E-1
1.167484338E0,2.348530293E-2,5.519866943E-3,-4.126791954E-1
1.175479186E0,-1.629507542E-2,-9.206771851E-3,-4.016065598E-1
1.183474493E0,-5.818021297E-2,-3.292465210E-2,-3.726577759E-1
1.191470570E0,-7.854628563E-2,-1.549434662E-2,-3.834748268E-1
1.199465647E0,-9.480035305E-2,-6.008148193E-5,-4.195966721E-1
1.207493032E0,-1.425689459E-1,-8.069038391E-3,-4.234395027E-1
1.215488033E0,-1.502662897E-1,5.953788757E-3,-4.571950436E-1
1.223483417E0,-1.560541391E-1,1.590251923E-2,-5.180351734E-1
1.231480341E0,-1.548982859E-1,2.427196503E-2,-5.579130650E-1
1.239474802E0,-1.491978168E-1,4.751682281E-2,-6.061832905E-1
1.247470879E0,-1.313922405E-1,5.223274231E-2,-6.243884563E-1
1.255465649E0,-1.134817600E-1,5.502319336E-2,-6.080553532E-1
1.263491803E0,-9.052324295E-2,5.344676971E-2,-5.788528919E-1
1.271488111E0,-8.643364906E-2,5.450534821E-2,-5.443513393E-1
1.279479111E0,-1.080883741E-1,7.008266449E-2,-5.191791058E-1
1.287479726E0,-1.386313438E-1,6.413459778E-2,-4.390118122E-1
1.295474804E0,-1.516112089E-1,4.606342316E-2,-3.329961300E-1
1.303470497E0,-1.716836691E-1,2.705955505E-2,-2.433047295E-1
1.311466189E0,-1.516454220E-1,-5.040168762E-3,-1.845479012E-1
1.319491112E0,-1.684116125E-1,-3.090190887E-2,-1.275362968E-1
1.327488420E0,-2.266635895E-1,-6.039237976E-2,1.802778244E-2
1.335482805E0,-2.473530769E-1,-1.223182678E-1,1.657485962E-1
1.343478267E0,-2.453764677E-1,-1.809806824E-1,3.296694756E-1
1.351474498E0,-3.064310551E-1,-2.146520615E-1,3.998999596E-1
1.359469959E0,-3.844147921E-1,-2.544031143E-1,4.697341919E-1
1.367466267E0,-4.244450331E-1,-2.690067291E-1,4.365029335E-1
1.375492114E0,-4.265372753E-1,-2.198925018E-1,3.846101761E-1
1.383486499E0,-3.651650548E-1,-1.975212097E-1,2.795505524E-1
1.391482883E0,-2.889761925E-1,-1.823787689E-1,2.348856926E-1
1.399478576E0,-1.716002226E-1,-1.599369049E-1,1.575970650E-1
1.407474883E0,-6.076979637E-2,-1.730365753E-1,1.104545593E-1
1.415468654E0,9.137451649E-2,-1.451807022E-1,9.082221985E-2
1.423495115E0,2.469166517E-1,-7.895851135E-2,1.484336853E-1
1.431491500E0,3.527845144E-1,-7.822036743E-3,2.037858963E-1
1.439486192E0,3.916410208E-1,6.587982178E-2,2.874708176E-1
1.447483500E0,3.675101995E-1,1.467285156E-1,3.649611473E-1
1.455478192E0,2.967903614E-1,1.789684296E-1,4.444360733E-1
1.463472424E0,1.767477989E-1,2.243862152E-1,4.771351814E-1
1.471469270E0,9.508478642E-2,2.350454330E-1,4.704589844E-1
1.479464424E0,-3.974044323E-2,2.709293365E-1,4.632163048E-1
1.487491732E0,-9.924972057E-2,2.865972519E-1,4.438619614E-1
1.495487193E0,-1.582055092E-1,3.042030334E-1,3.731966019E-1
1.503481887E0,-1.954054832E-1,3.433332443E-1,2.929639816E-1
1.511478502E0,-1.634334326E-1,3.379058838E-1,2.220706940E-1
1.519472733E0,-7.490193844E-2,3.240661621E-1,1.635675430E-1
1.527469964E0,3.851139545E-2,2.875671387E-1,1.034660339E-1
1.535464964E0,2.124519348E-1,2.830629349E-1,7.927608490E-2
1.543490195E0,3.203141689E-1,2.697010040E-1,-4.105567932E-4
1.551487119E0,4.200822115E-1,2.472467422E-1,-4.767084122E-2
1.559481888E0,4.782255888E-1,2.083873749E-1,-1.010804176E-1
1.567478580E0,4.854532480E-1,1.699991226E-1,-1.628828049E-1
1.575473272E0,4.091347456E-1,1.324558258E-1,-2.158484459E-1
1.583468735E0,3.552200794E-1,1.053819656E-1,-2.289400101E-1
1.591495120E0,2.882690430E-1,6.252479553E-2,-2.332639694E-1
1.599490273E0,2.696671486E-1,-1.546096802E-2,-2.313385010E-1
1.607487197E0,1.772854328E-1,-3.755474091E-2,-2.685599327E-1
1.615481889E0,1.376969814E-1,-3.277397156E-2,-2.161207199E-1
1.623477275E0,1.713005304E-1,-3.241634369E-2,-1.985058784E-1
1.631473582E0,2.010824680E-1,-5.830478668E-2,-1.443333626E-1
1.639468121E0,2.387039661E-1,-1.084156036E-1,-3.510427475E-2
1.647495736E0,3.261672258E-1,-1.374244690E-1,2.623271942E-2
1.655489967E0,3.232686520E-1,-1.288070679E-1,8.674812317E-2
1.663485660E0,2.817922831E-1,-1.281614304E-1,1.337666512E-1
1.671481660E0,2.261856794E-1,-1.185102463E-1,1.388316154E-1
1.679477353E0,1.895005703E-1,-1.019535065E-1,8.117437363E-2
1.687473583E0,1.361111403E-1,-4.690456390E-2,-6.708812714E-2
1.695468353E0,7.145035267E-2,-2.004051208E-2,-1.785211563E-1
1.703494277E0,9.786248207E-3,1.585502625E-1,-4.846007824E-1
1.711490584E0,5.748164654E-2,4.997730255E-2,-4.392433167E-2
1.719485354E0,6.576454639E-2,-6.817245483E-2,-1.830701828E-1
1.727481969E0,4.718637466E-2,-3.298568726E-2,-1.071352959E-1
1.735476661E0,5.977571011E-2,8.591270447E-2,-5.872726440E-3
1.743472355E0,7.454872131E-2,1.520128250E-1,-1.573801041E-2
1.751468662E0,1.215564013E-1,1.891479492E-1,1.902008057E-2
1.759494201E0,8.727324009E-2,1.900463104E-1,4.349327087E-2
1.767490509E0,-4.028272629E-2,2.002735138E-1,3.149986267E-2
1.775486201E0,-1.081964970E-1,2.080631256E-1,3.864049911E-2
1.783480433E0,-1.241269112E-1,1.726608276E-1,4.342412949E-2
1.791477279E0,-1.455590725E-1,1.133241653E-1,-3.054571152E-2
1.799472048E0,-1.436184645E-1,1.067304611E-1,-2.756357193E-2
1.807468433E0,-9.174346924E-2,1.001729965E-1,-1.960325241E-2
1.815493664E0,-1.386332512E-2,6.001663208E-2,6.971073151E-2
1.823489588E0,4.189491272E-2,3.630256653E-2,1.058688164E-1
1.831485357E0,9.935235977E-2,-4.633903503E-3,1.364998817E-1
1.839480742E0,1.009628773E-1,-3.648853302E-2,1.448044777E-1
1.847477280E0,5.889821053E-2,-3.772735596E-2,1.474514008E-1
1.855472434E0,1.664507389E-2,-4.413509369E-2,1.589336395E-1
1.863467127E0,1.739490032E-2,-3.897857666E-2,1.528415680E-1
1.871494204E0,-3.517389297E-2,-3.657913208E-2,1.126928329E-1
1.879488743E0,-1.024494171E-1,-2.481937408E-2,9.854745865E-2
1.887485589E0,-1.656529903E-1,2.026367188E-2,7.945489883E-2
1.895480743E0,-1.911365986E-1,3.886795044E-2,6.984567642E-2
1.903475744E0,-1.951674223E-1,4.292106628E-2,8.622884750E-2
1.911472128E0,-1.658300161E-1,4.201984406E-2,5.684804916E-2
1.919467205E0,-1.411668062E-1,5.775928497E-2,7.028722763E-2
1.927493667E0,-1.139118671E-1,1.114883423E-1,1.141409874E-1
1.935489975E0,-1.226654053E-1,1.098461151E-1,9.276866913E-2
1.943484976E0,-1.192559004E-1,1.079702377E-1,9.481906891E-2
1.951480745E0,-1.589707136E-1,1.082944870E-1,5.819034576E-2
1.959475514E0,-1.649081707E-1,1.348171234E-1,2.599906921E-2
1.967472745E0,-1.754273176E-1,1.397638321E-1,-3.262376785E-2
1.975467130E0,-2.212339640E-1,1.328945160E-1,-8.633375168E-2
1.983492977E0,-2.419195175E-1,1.527633667E-1,-1.108722687E-1
1.991488746E0,-2.681787014E-1,1.801710129E-1,-1.352114677E-1
1.999484438E0,-2.878624201E-1,2.175502777E-1,-1.162390709E-1
2.007480669E0,-3.176143169E-1,2.360343933E-1,-6.623935699E-2
2.015476361E0,-3.597542048E-1,2.499055862E-1,-1.027135849E-1
2.023471439E0,-4.024456739E-1,2.638397217E-1,-2.951955795E-2
2.031467516E0,-4.342608452E-1,3.040561676E-1,-3.822374344E-2
2.039492747E0,-4.843173623E-1,3.561410904E-1,-3.782320023E-2
2.047489055E0,-5.053464770E-1,4.151172638E-1,-4.284000397E-2
2.055484132E0,-5.002664328E-1,4.473943710E-1,-6.521654129E-2
2.063479748E0,-4.862146974E-1,4.386892319E-1,-9.988451004E-2
2.071475825E0,-4.702122808E-1,4.154920578E-1,-1.298265457E-1
2.079471210E0,-4.212754369E-1,3.732948303E-1,-1.807832718E-1
2.087467210E0,-3.634773493E-1,3.287754059E-1,-2.026062012E-1
2.095492364E0,-3.440250158E-1,2.701025009E-1,-2.167782784E-1
2.103488057E0,-3.383400440E-1,1.852207184E-1,-1.638116837E-1
2.111484749E0,-3.243854046E-1,1.267843246E-1,-1.013426781E-1
2.119478903E0,-3.403726816E-1,1.162004471E-1,-3.924703598E-2
2.127475749E0,-3.339875937E-1,9.121227264E-2,-1.093816757E-2
2.135470288E0,-4.052857161E-1,9.028911591E-2,2.924680710E-2
2.143466212E0,-3.732330203E-1,7.021522522E-2,6.459379196E-2
2.151493289E0,-3.678576350E-1,5.013751984E-2,7.615280151E-2
2.159488366E0,-3.537657857E-1,-2.021980286E-2,1.047649384E-1
2.167484366E0,-3.170284629E-1,-7.626056671E-2,1.073656082E-1
2.175480058E0,-2.249934673E-1,-1.754865646E-1,1.104364395E-1
2.183474905E0,-1.499438286E-1,-2.386484146E-1,5.708169937E-2
2.191471136E0,-1.198111773E-1,-2.703485489E-1,3.840255737E-2
2.199466521E0,-8.629536629E-2,-2.898874283E-1,4.203653336E-2
2.207493367E0,-4.203844070E-2,-2.590923309E-1,2.696323395E-2
2.215487828E0,-2.249085903E-2,-2.857809067E-1,3.600454330E-2
2.223483522E0,-4.396891594E-2,-2.597494125E-1,5.720281601E-2
2.231480368E0,-1.179345846E-1,-2.456169128E-1,7.130622864E-2
2.239473676E0,-1.558656693E-1,-2.267036438E-1,9.735012054E-2
2.247470906E0,-1.746810675E-1,-1.957464218E-1,1.067824364E-1
2.255466214E0,-1.893218756E-1,-1.170663834E-1,1.256623268E-1
2.263491831E0,-1.831182241E-1,-7.458591461E-2,1.729311943E-1
2.271487831E0,-1.019345522E-1,-2.058219910E-2,1.503725052E-1
2.279483215E0,-6.812262535E-2,1.782417297E-3,1.896123886E-1
2.287479138E0,-1.066547632E-1,1.657104492E-2,2.043342590E-1
2.295474215E0,-1.301695108E-1,2.866458893E-2,2.087564468E-1
2.303469985E0,-1.617555618E-1,4.043197632E-2,2.361316681E-1
2.311466601E0,-1.961015463E-1,4.720115662E-2,2.075219154E-1
2.319491832E0,-2.614842653E-1,8.727741241E-2,2.377305031E-1
2.327487755E0,-3.288785815E-1,9.587669373E-2,2.713632584E-1
2.335483832E0,-3.340960145E-1,1.279792786E-1,2.892522812E-1
2.343477910E0,-3.069731593E-1,1.355876923E-1,3.106527328E-1
2.351474525E0,-2.228295803E-1,1.163501740E-1,3.049702644E-1
2.359469602E0,-1.567776203E-1,1.110515594E-1,2.989277840E-1
2.367466525E0,-1.191914082E-2,1.246147156E-1,2.859101295E-1
2.375491217E0,8.742284775E-2,1.378774643E-1,2.921905518E-1
2.383486526E0,1.638045311E-1,1.509113312E-1,3.008785248E-1
2.391483526E0,1.923218966E-1,1.469984055E-1,2.925305367E-1
2.399478603E0,1.734328270E-1,1.787452698E-1,2.812809944E-1
2.407474526E0,7.875895500E-2,1.955938339E-1,3.168339729E-1
2.415469680E0,8.620619774E-3,1.854772568E-1,3.655762672E-1
2.423465066E0,-1.179373264E-2,1.529836655E-1,3.987321854E-1
2.431491835E0,-4.707574844E-4,9.784221649E-2,4.520568848E-1
2.439487220E0,1.339782476E-1,-1.594161987E-2,5.235447884E-1
2.447483758E0,2.895088196E-1,-1.142845154E-1,5.702648163E-1
2.455477681E0,4.035655260E-1,-1.830615997E-1,6.398177147E-1
2.463473298E0,5.915657282E-1,-2.371015549E-1,7.864432335E-1
2.471469682E0,7.882972956E-1,-3.155679703E-1,9.634704590E-1
2.479495451E0,1.037595987E0,-4.994640350E-1,1.171549320E0
2.487491759E0,1.140441298E0,-2.380781174E-1,8.363995552E-1
2.495486836E0,1.363415956E0,-7.177534103E-1,1.673508644E0
2.503482222E0,1.347251058E0,-9.212446213E-1,1.616330624E0
2.511477991E0,1.243197680E0,-1.010650635E0,1.803226471E0
2.519473068E0,1.315644622E0,-1.051179886E0,1.881114483E0
2.527469606E0,1.331316233E0,-1.026656151E0,1.952650070E0
2.535494914E0,1.353172302E0,-1.063777924E0,2.027881145E0
2.543490838E0,1.326453686E0,-9.878416061E-1,1.996849537E0
2.551486838E0,1.450717568E0,-1.038332939E0,2.316875935E0
2.559482223E0,1.652505875E0,-1.108110905E0,2.496414185E0
2.567479146E0,1.710574508E0,-1.150477409E0,2.635086536E0
2.575473992E0,1.850452065E0,-1.237323284E0,2.831365108E0
2.583468685E0,1.972464561E0,-1.324144840E0,2.869556427E0
2.591495224E0,2.003387451E0,-1.360812664E0,2.975790024E0
2.599491224E0,2.094359398E0,-1.486808300E0,2.925848007E0
2.607487762E0,2.125722408E0,-1.592637539E0,2.811846733E0
2.615481609E0,2.228470087E0,-1.618624687E0,2.685321331E0
2.623476994E0,2.315129280E0,-1.628993511E0,2.516450405E0
2.631473302E0,2.303874254E0,-1.444117546E0,2.042260170E0
2.639468379E0,2.537269115E0,-1.657670975E0,2.045638084E0
2.647494917E0,2.596029758E0,-1.824978828E0,1.797966480E0
2.655489994E0,2.581080675E0,-1.816343307E0,1.588873863E0
2.663485380E0,2.471131563E0,-1.762803078E0,1.473368645E0
2.671482226E0,2.289479256E0,-1.695121288E0,1.329225063E0
2.679477380E0,2.069807529E0,-1.707282543E0,1.302187443E0
2.687473303E0,1.870702744E0,-1.812518597E0,1.256586552E0
2.695468149E0,1.659864902E0,-1.846343517E0,1.161664009E0
2.703494226E0,1.481877327E0,-1.948290825E0,1.166285515E0
2.711490843E0,1.366913319E0,-2.028026104E0,1.055617809E0
2.719485381E0,1.297068596E0,-2.184273720E0,9.527611732E-1
2.727482612E0,1.300931931E0,-2.361874580E0,7.533335686E-1
2.735477381E0,1.210559845E0,-2.520983219E0,5.344200134E-1
2.743472073E0,1.040781021E0,-2.579683781E0,3.327322006E-1
2.751468151E0,8.052868843E-1,-2.494256020E0,1.790328026E-1
2.759494536E0,5.705356598E-1,-2.382979870E0,3.006315231E-2
2.767490305E0,2.725772858E-1,-2.248945713E0,-6.577682495E-2
2.775485690E0,1.048946381E-1,-2.234530926E0,-6.927680969E-2
2.783481075E0,2.052054405E-1,-2.400336504E0,-1.284685135E-1
2.791476460E0,3.394355774E-1,-2.530144215E0,-2.712988853E-1
2.799471768E0,3.471999168E-1,-2.612469912E0,-3.531131744E-1
2.807468768E0,3.100891113E-1,-2.490013361E0,-3.717827797E-1
2.815494537E0,2.361989021E-1,-2.394660711E0,-2.271671295E-1
2.823489383E0,2.919445038E-1,-2.455441236E0,-2.264933586E-1
2.831486230E0,2.912306786E-1,-2.463489532E0,-3.293576241E-1
2.839481000E0,1.031541824E-1,-2.443987370E0,-4.355940819E-1
2.847477000E0,-1.926012039E-1,-2.309830189E0,-3.894028664E-1
2.855471846E0,-2.214717865E-1,-2.268410206E0,-1.255884171E-1
2.863467231E0,-9.267091751E-2,-2.251704931E0,-2.278313637E-1
2.871494309E0,-1.362686157E-1,-2.135293722E0,-1.862568855E-1
2.879489385E0,-5.342578888E-2,-2.037079811E0,-2.321281433E-1
2.887486539E0,3.323554993E-3,-1.817772388E0,-4.393281937E-1
2.895480770E0,-3.183317184E-2,-1.656129599E0,-6.646032333E-1
2.903476078E0,2.634239197E-2,-1.447094321E0,-9.512467384E-1
2.911471540E0,1.949715614E-1,-1.194560170E0,-1.112096786E0
2.919467233E0,3.699522018E-1,-1.006188869E0,-1.285464287E0
2.927495156E0,2.737288475E-1,-6.876868010E-1,-1.217040539E0
2.935488464E0,1.897716522E-2,-4.855749309E-1,-1.095377922E0
2.943484387E0,-2.731418610E-1,-3.090449572E-1,-8.925962448E-1
2.951481080E0,-3.471660614E-1,-2.827349901E-1,-6.009130478E-1
2.959475541E0,-2.299280167E-1,-2.547585964E-1,-3.613905907E-1
2.967472388E0,3.074836731E-2,-1.707457304E-1,-7.733440399E-1
2.975467157E0,-8.523559570E-2,-1.305137873E-1,-9.750480652E-1
2.983493618E0,-5.052671432E-1,2.043461800E-2,-1.328113556E0
2.991489927E0,-1.060267925E0,1.411681175E-1,-1.470228672E0
2.999484389E0,-1.856463432E0,3.012328148E-1,-1.521239758E0
3.007481389E0,-2.677911758E0,4.014930725E-1,-1.605030537E0
3.015475543E0,-3.047483921E0,2.812981606E-1,-1.672785282E0
3.023471543E0,-2.982409954E0,9.153079987E-2,-1.609811783E0
3.031467467E0,-2.675232410E0,-8.704566956E-2,-1.462073803E0
3.039492159E0,-2.601531506E0,-1.399395466E-1,-1.073689461E0
3.047490005E0,-2.624253273E0,-1.097245216E-1,-7.389721870E-1
3.055484774E0,-2.722012758E0,1.106235981E-1,-6.013193130E-1
3.063479544E0,-2.837742805E0,3.713765144E-1,-5.512409210E-1
3.071475852E0,-2.774188042E0,4.570469856E-1,-4.536638260E-1
3.079471468E0,-2.665059805E0,5.742878914E-1,-9.252347946E-1
3.087467468E0,-2.798174858E0,5.940666199E-1,-1.267018795E0
3.095492468E0,-3.096023560E0,5.463929176E-1,-1.586762905E0
3.103488391E0,-3.442555189E0,4.692940712E-1,-1.682037354E0
3.111484700E0,-3.611410141E0,3.113508224E-1,-1.596652985E0
3.119479546E0,-3.692665815E0,1.268057823E-1,-1.547047138E0
3.127476161E0,-3.724845171E0,3.318929672E-2,-1.509967327E0
3.135471777E0,-3.354461193E0,-9.186601639E-2,-9.440774918E-1
3.143466315E0,-2.743658066E0,-4.314374924E-2,-1.336725712E0
3.151493008E0,-2.117458820E0,9.660434723E-2,-1.317339420E0
3.159487547E0,-2.063014030E0,3.050827980E-1,-1.555042744E0
3.167484778E0,-2.313660383E0,4.428181648E-1,-1.506777763E0
3.175479778E0,-2.850560188E0,6.604685783E-1,-1.854757071E0
3.183475162E0,-3.149810553E0,7.111783028E-1,-1.794781446E0
3.191470625E0,-3.335201263E0,6.382827759E-1,-1.826534033E0
3.199465625E0,-3.405752420E0,5.250425339E-1,-1.699671507E0
3.207493317E0,-3.321373701E0,3.720879555E-1,-1.416914463E0
3.215488163E0,-3.070724010E0,2.413563728E-1,-1.029998779E0
3.223483548E0,-2.943385601E0,1.930842400E-1,-5.994267464E-1
3.231479780E0,-2.796781301E0,1.166682243E-1,-3.772587776E-1
3.239474934E0,-2.649060011E0,2.501826286E-1,-8.752913475E-1
3.247470857E0,-2.525228262E0,2.976131439E-1,-1.039736271E0
3.255465934E0,-2.551791430E0,3.918557167E-1,-1.236134052E0
3.263491549E0,-2.700464725E0,3.721923828E-1,-1.322855473E0
3.271488089E0,-2.963433981E0,3.620810509E-1,-1.271166325E0
3.279483166E0,-3.167228699E0,2.837500572E-1,-1.368934155E0
3.287479781E0,-3.291224241E0,2.620692253E-1,-1.316702366E0
3.295474550E0,-3.182337523E0,2.299184799E-1,-1.224845886E0
3.303469704E0,-3.085164070E0,2.314219475E-1,-1.015196323E0
3.311465936E0,-3.052170277E0,2.313213348E-1,-8.035912514E-1
3.319491859E0,-3.112537622E0,2.789516449E-1,-5.172762871E-1
3.327488167E0,-3.054020643E0,3.064179420E-1,-3.677568436E-1
3.335482936E0,-2.852075100E0,3.345184326E-1,-4.480443001E-1
3.343478013E0,-2.683817387E0,3.274788857E-1,-3.796710968E-1
3.351474629E0,-2.707178593E0,3.263430595E-1,-4.236660004E-1
3.359470014E0,-2.736966610E0,3.221158981E-1,-5.187816620E-1
3.367465706E0,-2.647912502E0,3.584628105E-1,-5.606403351E-1
3.375491860E0,-2.550573111E0,4.141640663E-1,-4.866871834E-1
3.383487168E0,-2.598494053E0,4.363431931E-1,-3.682446480E-1
3.391483169E0,-2.867545128E0,4.215326309E-1,-3.145813942E-1
3.399478246E0,-3.065468788E0,3.253054619E-1,-1.204948425E-1
3.407475784E0,-3.055604935E0,3.132224083E-1,-2.065176964E-1
3.415469631E0,-2.882593632E0,2.938718796E-1,-1.255264282E-1
3.423465092E0,-2.571061611E0,2.759914398E-1,-2.158441544E-1
3.431491785E0,-2.114232063E0,3.008475304E-1,-2.730770111E-1
3.439486632E0,-1.686109066E0,3.396754265E-1,-5.371942520E-1
3.447483555E0,-1.272598743E0,4.106526375E-1,-6.249208450E-1
3.455478555E0,-1.029271841E0,5.399398804E-1,-6.216511726E-1
3.463473093E0,-7.931001186E-1,6.599688530E-1,-5.453186035E-1
3.471469325E0,-6.476578712E-1,7.281670570E-1,-4.827742577E-1
3.479465017E0,-5.198855400E-1,7.644100189E-1,-4.290504456E-1
3.487492710E0,-4.710049629E-1,7.268147469E-1,-3.557767868E-1
3.495486633E0,-4.773421288E-1,6.718568802E-1,-2.315535545E-1
3.503481940E0,-5.654344559E-1,5.884404182E-1,-1.249852180E-1
3.511478941E0,-6.939554214E-1,5.440812111E-1,-2.583122253E-2
3.519473403E0,-7.968540192E-1,5.150542259E-1,8.783102036E-2
3.527470326E0,-8.080692291E-1,5.015840530E-1,1.660351753E-1
3.535465018E0,-7.310173512E-1,5.133562088E-1,2.044458389E-1
3.543490326E0,-6.451156139E-1,4.880852699E-1,1.673631668E-1
3.551487250E0,-5.660457611E-1,4.519090652E-1,1.066064835E-1
3.559482558E0,-5.443253517E-1,3.802571297E-1,7.890605927E-2
3.567478635E0,-5.679676533E-1,3.174443245E-1,-1.869153976E-2
3.575473096E0,-5.524468422E-1,2.801179886E-1,-4.530143738E-2
3.583468481E0,-5.904331207E-1,2.707152367E-1,-1.344871521E-2
3.591496405E0,-6.285462379E-1,2.602477074E-1,2.556800842E-3
3.599490559E0,-6.572170258E-1,2.083549500E-1,7.642316818E-2
3.607486559E0,-6.099824905E-1,1.606078148E-1,1.197867393E-1
3.615482021E0,-5.925161839E-1,1.142325401E-1,1.142177582E-1
3.623477021E0,-5.576570034E-1,5.229711533E-2,4.121017456E-2
3.631473945E0,-5.064370632E-1,5.596971512E-2,-2.651357651E-2
3.639468175E0,-4.396331310E-1,8.221530914E-2,-7.908916473E-2
3.647495483E0,-3.002886772E-1,6.408691406E-2,-9.966850281E-2
3.655490560E0,-2.413365841E-1,5.905199051E-2,-1.124429703E-1
3.663485637E0,-1.797802448E-1,7.228183746E-2,-1.487016678E-1
3.671481946E0,-1.359632015E-1,1.368832588E-1,-1.271600723E-1
3.679477100E0,-2.825975418E-2,1.740612984E-1,-8.419752121E-2
3.687473715E0,7.858037949E-3,1.954250336E-1,-2.942705154E-2
3.695469023E0,2.510094643E-2,1.627998352E-1,-1.096010208E-2
3.703494561E0,-2.309226990E-2,1.235871315E-1,1.427507401E-2
3.711491178E0,-4.771947861E-2,4.655313492E-2,2.944803238E-2
3.719485947E0,-1.223943233E-1,-3.971576691E-2,2.486801147E-2
3.727482562E0,-2.085094452E-1,-7.299375534E-2,6.265592575E-2
3.735476716E0,-2.582647800E-1,-9.177303314E-2,8.567237854E-2
3.743471793E0,-2.574725151E-1,-1.055855751E-1,1.035223007E-1
3.751469102E0,-3.277831078E-1,-4.555273056E-2,9.522199631E-2
3.759494333E0,-3.942959309E-1,3.279638290E-2,8.740568161E-2
3.767490256E0,-3.877482414E-1,9.356021881E-2,6.339359283E-2
3.775486333E0,-2.997355461E-1,9.418773651E-2,8.288240433E-2
3.783480717E0,-2.154614925E-1,7.085037231E-2,6.721782684E-2
3.791477103E0,-8.104276657E-2,7.112026215E-3,3.330421448E-2
3.799471564E0,-8.829355240E-3,-3.472137451E-2,-2.285003662E-3
3.807468488E0,6.390762329E-2,-6.673097610E-2,-3.965139389E-2
3.815493949E0,1.215107441E-1,-6.509971619E-2,-2.651119232E-2
3.823489334E0,1.118385792E-1,-1.796579361E-2,1.785945892E-2
3.831486027E0,1.097402573E-1,-1.170539856E-2,6.227970123E-2
3.839479796E0,1.296396255E-1,-1.767826080E-2,8.050727844E-2
3.847477104E0,7.363843918E-2,-1.204586029E-2,8.213472366E-2
3.855472181E0,3.515601158E-2,-2.353096008E-2,7.430934906E-2
3.863467258E0,-7.245254517E-2,-3.034591675E-2,5.453014374E-2
3.871494644E0,-1.538991928E-1,-6.601238251E-2,2.783346176E-2
3.879489951E0,-2.285385132E-1,-4.426574707E-2,1.816082001E-2
3.887485413E0,-1.815102100E-1,-4.633617401E-2,3.247785568E-2
3.895480490E0,-1.210248470E-1,-2.425765991E-2,3.499174118E-2
3.903475490E0,-3.997468948E-2,-2.130556107E-2,3.078413010E-2
3.911471567E0,-7.236003876E-4,-2.556085587E-2,3.220558167E-3
3.919466875E0,-2.681255341E-2,3.746509552E-3,-2.405214310E-2
3.927494645E0,-5.316519737E-2,1.879501343E-2,-2.740144730E-2
3.935489337E0,-2.450776100E-2,4.121923447E-2,-7.051944733E-3
3.943484491E0,-5.426168442E-3,4.461574554E-2,3.706312180E-2
3.951481414E0,-5.516171455E-2,3.113651276E-2,4.512262344E-2
3.959475877E0,-8.533787727E-2,2.955579758E-2,4.350137711E-2
3.967471261E0,-5.986380577E-2,4.936933517E-2,3.222560883E-2
3.975467184E0,-6.746816635E-2,5.232667923E-2,3.044700623E-2
3.983493723E0,-1.202025414E-1,7.898759842E-2,-2.301216125E-3
3.991489338E0,-7.457351685E-2,4.567003250E-2,-1.582193375E-2
3.999484416E0,-7.696723938E-2,1.948738098E-2,-2.441596985E-2
4.007480493E0,-3.194785118E-2,-4.338741302E-3,-7.821035385E-2
4.015476108E0,-3.547000885E-2,6.160736084E-4,-1.078066826E-1
4.023471185E0,-4.666638374E-2,1.274251938E-2,-1.084113121E-1
4.031467801E0,-5.816125870E-2,1.766681671E-2,-9.207868576E-2
4.039492802E0,-3.399896622E-2,1.552391052E-2,-6.141567230E-2
4.047489648E0,-2.703499794E-2,-3.314018250E-3,-3.541469574E-2
4.055484494E0,-7.264900208E-2,1.607799530E-2,-4.765844345E-2
4.063479802E0,-1.394524574E-1,1.803874969E-3,-4.550790787E-2
4.071475494E0,-1.744883060E-1,-7.739067078E-3,-6.754016876E-2
4.079470649E0,-2.017388344E-1,-2.925872803E-2,-3.958654404E-2
4.087467188E0,-2.024409771E-1,-2.922630310E-2,-4.559993744E-3
4.095493034E0,-1.101956367E-1,-1.954507828E-2,-3.885459900E-2
4.103488188E0,-4.486322403E-3,-1.449346542E-2,-1.067209244E-2
4.111484495E0,7.378721237E-2,1.213788986E-2,-2.508735657E-2
4.119479496E0,1.582975388E-1,6.747770309E-2,-5.336666107E-2
4.127475804E0,1.846115589E-1,1.011867523E-1,-5.482482910E-2
4.135470650E0,2.179393768E-1,1.083111763E-1,-6.303310394E-2
4.143466343E0,2.033004761E-1,1.366953850E-1,-5.403375626E-2
4.151492804E0,1.434915066E-1,1.384272575E-1,-3.517293930E-2
4.159487805E0,8.199143410E-2,1.350874901E-1,1.007127762E-2
4.167484421E0,2.139163017E-2,6.702899933E-2,2.384853363E-2
4.175479805E0,-2.572298050E-3,2.988195419E-2,1.841115952E-2
4.183474651E0,-8.097386360E-2,1.421785355E-2,6.303024292E-2
4.191471190E0,-1.445508003E-1,3.194475174E-2,5.971384048E-2
4.199466037E0,-1.144092083E-1,6.152343750E-2,2.766609192E-2
4.207492806E0,-8.175444603E-2,9.099245071E-2,4.359626770E-2
4.215488114E0,-9.218287468E-2,1.083354950E-1,-4.901885986E-3
4.223483268E0,-1.240775585E-1,5.610942841E-2,-4.367160797E-2
4.231479499E0,-1.488778591E-1,2.780151367E-2,-8.475351334E-2
4.239474884E0,-1.620786190E-1,-1.955461502E-2,-1.329793930E-1
4.247470961E0,-1.734724045E-1,-4.764699936E-2,-1.403641701E-1
4.255465654E0,-1.829683781E-1,-9.237670898E-2,-1.428852081E-1
4.263491192E0,-1.788198948E-1,-9.140968323E-2,-1.022381783E-1
4.271488192E0,-1.800608635E-1,-5.920934677E-2,-8.778047562E-2
4.279483193E0,-1.530091763E-1,-1.253557205E-2,-1.019849777E-1
4.287478655E0,-1.501746178E-1,4.136514664E-2,-9.216976166E-2
4.295474347E0,-1.400496960E-1,1.238203049E-1,-1.084961891E-1
4.303470039E0,-8.449435234E-2,1.368227005E-1,-1.175746918E-1
4.311466347E0,-5.069184303E-2,1.307573318E-1,-1.194872856E-1
4.319492117E0,-1.504325867E-2,9.139251709E-2,-1.238274574E-1
4.327488502E0,3.643608093E-2,4.527711868E-2,-1.091542244E-1
4.335483579E0,6.776738167E-2,1.633739471E-2,-9.696149826E-2
4.343478963E0,8.854293823E-2,6.896495819E-3,-8.236265182E-2
4.351474656E0,8.469653130E-2,-1.187038422E-2,-5.579805374E-2
4.359470272E0,7.076740265E-2,-2.323436737E-2,-4.125070572E-2
4.367466349E0,5.890011787E-2,-5.828952789E-2,-5.455017090E-4
4.375491503E0,4.182004929E-2,-1.194672585E-1,4.171848297E-3
4.383486580E0,5.997562408E-2,-1.183485985E-1,9.182453156E-3
4.391483503E0,5.837416649E-2,-1.053276062E-1,-2.140045166E-3
4.399478350E0,6.347441673E-2,-7.558536530E-2,-4.426908493E-2
4.407475812E0,9.466457367E-2,-3.612089157E-2,-6.969881058E-2
4.415469735E0,9.470367432E-2,1.307344437E-2,-1.144685745E-1
4.423465119E0,1.283285618E-1,5.290508270E-2,-1.236472130E-1
4.431492196E0,1.477253437E-1,2.101039886E-2,-1.378092766E-1
4.439486890E0,1.074965000E-1,2.751493454E-2,-1.665735245E-1
4.447483582E0,1.010513306E-1,3.402519226E-2,-1.763157845E-1
4.455478351E0,8.747458458E-2,1.894521713E-2,-1.668519974E-1
4.463473736E0,1.140537262E-1,6.597089767E-2,-9.702444077E-2
4.471469967E0,1.304559708E-1,6.020212173E-2,-9.132432938E-2
4.479495814E0,1.059374809E-1,8.538007736E-2,-6.607437134E-2
4.495486891E0,4.329967499E-2,1.090469360E-1,-3.217792511E-2
4.503482275E0,5.058217049E-2,7.890892029E-2,-2.363729477E-2
4.511478583E0,5.577468872E-2,7.258176804E-2,-3.181362152E-2
4.519473123E0,3.753757477E-2,4.927253723E-2,-6.626844406E-2
4.527469661E0,2.931380272E-2,1.626968384E-2,-7.683897018E-2
4.535495892E0,-6.942749023E-3,2.388000488E-3,-4.224491119E-2
4.543490969E0,-6.926083565E-2,-1.846790314E-3,-5.496978760E-3
4.551486354E0,-5.250024796E-2,-2.988195419E-2,-1.029968262E-4
4.559482047E0,9.255886078E-3,-4.347848892E-2,2.223062515E-2
4.567478278E0,3.933238983E-2,-2.832174301E-2,6.640481949E-2
4.575473431E0,6.657552719E-2,1.550626755E-2,8.219432831E-2
4.583468739E0,1.127922535E-1,5.445861816E-2,8.625984192E-2
4.591495585E0,1.205966473E-1,8.863353729E-2,9.278059006E-2
4.599490048E0,1.380822659E-1,1.155600548E-1,7.062435150E-2
4.607486586E0,1.584763527E-1,1.591653824E-1,6.506776810E-2
4.615482279E0,1.555421352E-1,1.500291824E-1,8.082437515E-2
4.623477356E0,1.317238808E-1,1.550922394E-1,7.969236374E-2
4.631473356E0,7.981538773E-2,1.287918091E-1,7.855033875E-2
4.639469049E0,2.153420448E-2,1.120529175E-1,9.133863449E-2
4.647495895E0,-1.220440865E-2,1.145653725E-1,1.036429405E-1
4.655489741E0,-3.806447983E-2,1.195945740E-1,1.249485016E-1
4.663486280E0,-1.543927193E-2,1.534218788E-1,1.482043266E-1
4.671482280E0,1.478481293E-2,1.562252045E-1,1.471347809E-1
4.679477050E0,-1.455116272E-2,1.471366882E-1,1.290197372E-1
4.687473127E0,4.163265228E-3,1.668610573E-1,9.153509140E-2
4.695468512E0,-1.538848877E-2,1.485071182E-1,7.524490356E-2
4.703494589E0,-3.494167328E-2,1.064820290E-1,8.011293411E-2
4.711490589E0,-1.161789894E-2,7.190322876E-2,7.036304474E-2
4.719485974E0,9.027767181E-2,1.610279083E-2,3.884840012E-2
4.727481436E0,1.584823132E-1,-1.801729202E-2,3.358078003E-2
4.735476820E0,1.645781994E-1,-3.299617767E-2,1.149511337E-2
4.743472821E0,1.280572414E-1,-2.408790588E-2,2.991008759E-2
4.751469436E0,1.208195686E-1,-2.950191498E-2,3.836345673E-2
4.759494052E0,1.209821701E-1,-3.733634949E-3,2.266597748E-2
4.767490591E0,1.164176464E-1,2.441215515E-2,3.089904785E-2
4.775485129E0,7.857728004E-2,6.829738617E-3,-1.364707947E-3
4.783481360E0,5.111932755E-3,2.016830444E-2,2.409934998E-3
4.791477052E0,-1.241207123E-3,1.658773422E-2,2.073955536E-2
4.799471823E0,-5.145072937E-4,1.757955551E-2,3.465366364E-2
4.807468746E0,-1.427507401E-2,2.313184738E-2,4.897022247E-2
4.815494592E0,-4.489517212E-2,1.883602142E-2,3.022098541E-2
4.823489746E0,-4.214811325E-2,1.436233521E-2,-1.452064514E-2
4.831486053E0,-1.794815063E-2,-1.647377014E-2,-5.198144913E-2
4.839480208E0,1.342105865E-2,-2.814674377E-2,-6.790208817E-2
4.847477131E0,1.736640930E-3,-7.811450958E-2,-8.146953583E-2
4.855471593E0,1.168608665E-2,-8.489227295E-2,-7.128047943E-2
4.863467901E0,2.444505692E-3,-8.923196793E-2,-4.676532745E-2
4.871494285E0,-3.334522247E-2,-7.925558090E-2,-5.295753479E-3
4.879489440E0,-6.218886375E-2,-1.901054382E-2,2.196502686E-2
4.887485748E0,-7.206010818E-2,2.690935135E-2,4.688358307E-2
4.895480440E0,-6.991481781E-2,7.507038116E-2,6.002712250E-2
4.903475210E0,-6.031155586E-2,8.718729019E-2,3.010177612E-2
4.911471517E0,-2.419686317E-2,9.211254120E-2,8.535385132E-5
4.919467211E0,4.897832870E-3,7.789802551E-2,-2.046966553E-2
4.927494980E0,1.751399040E-2,4.927492142E-2,-3.394412994E-2
4.935489441E0,3.781390190E-2,8.674621582E-3,-2.376890182E-2
4.943484749E0,3.948712349E-2,-2.957773209E-2,4.601478577E-2
4.951480211E0,-4.196166992E-3,-3.926849365E-2,4.892444611E-2
4.959474981E0,-2.399682999E-2,-4.179811478E-2,3.753709793E-2
4.967472827E0,-4.145193100E-2,-3.725004196E-2,3.111934662E-2
4.975467212E0,-3.032541275E-2,3.098964691E-3,2.016305923E-2
4.983493442E0,-2.659749985E-2,3.859043121E-2,2.141046524E-2
4.991490366E0,-3.967261314E-2,2.605915070E-2,2.527713776E-2
4.999484520E0,2.364635468E-2,-2.481412888E-2,-8.978843689E-3
5.007482059E0,5.573940277E-2,-6.123495102E-2,1.655387878E-2
5.015475828E0,5.919194221E-2,-8.099746704E-2,1.482486725E-3
5.023471213E0,2.936339378E-2,-1.103310585E-1,6.241798401E-4
5.031467828E0,-7.625102997E-3,-8.216428757E-2,3.321123123E-2
5.039493060E0,-3.990006447E-2,-3.253889084E-2,2.049016953E-2
5.047489983E0,-2.212262154E-2,1.216268539E-2,8.099079132E-3
5.055484522E0,-9.387016296E-3,3.041172028E-2,3.433704376E-2
5.063478983E0,8.487701416E-4,3.414535522E-2,1.776599884E-2
5.071476445E0,3.747057915E-2,2.106237411E-2,2.279949188E-2
5.079471292E0,-1.764297485E-4,3.423595428E-2,5.191946030E-2
5.087466984E0,2.677607536E-2,4.330158234E-3,9.062194824E-2
5.095492753E0,7.988071442E-2,2.235221863E-2,8.149051666E-2
5.103488753E0,1.400673389E-1,-2.419567108E-2,6.992244720E-2
5.111484753E0,1.191477776E-1,-2.776527405E-2,1.764440536E-2
5.119479293E0,3.903365135E-2,-3.141784668E-2,-2.772712708E-2
5.127475601E0,-2.150797844E-2,-6.228446960E-3,-4.717826843E-2
5.135470601E0,-5.075836182E-2,2.635908127E-2,4.779815674E-3
5.143466293E0,-1.304547787E-1,1.358890533E-2,5.664634705E-2
5.151493062E0,-1.814522743E-1,5.795001984E-3,5.319023132E-2
5.159488216E0,-1.726882458E-1,-4.279613495E-3,3.765678406E-2
5.167484833E0,-1.831388474E-1,-4.678249359E-3,3.159141541E-2
5.175479602E0,-2.578799725E-1,-2.903127670E-2,3.729963303E-2
5.183474679E0,-3.435771465E-1,-4.146337509E-2,3.767490387E-2
5.191471217E0,-4.203503132E-1,-4.437065125E-2,2.988147736E-2
5.199465986E0,-5.254371166E-1,-6.647682190E-2,7.072162628E-2
5.207492834E0,-6.080734730E-1,-6.963539124E-2,4.761981964E-2
5.215487834E0,-7.059521675E-1,-1.186552048E-1,3.468894958E-2
5.223483526E0,-8.289670944E-1,-1.299953461E-1,-1.775312424E-2
5.231480141E0,-9.440193176E-1,-2.605104446E-1,6.029605865E-2
5.239474988E0,-1.201395035E0,-1.905217171E-1,-1.272439957E-1
5.247470296E0,-1.376369238E0,-1.773862839E-1,-3.366136551E-2
5.255465681E0,-1.634833813E0,-1.833367348E-1,-1.365981102E-1
5.263492450E0,-1.860401392E0,-2.339644432E-1,-1.397099495E-1
5.271488450E0,-2.066124201E0,-2.952761650E-1,-1.795363426E-1
5.279483604E0,-2.210870266E0,-3.902230263E-1,-1.797862053E-1
5.287480220E0,-2.267808676E0,-4.606146812E-1,-1.667890549E-1
5.295474682E0,-2.304377079E0,-5.873394012E-1,-2.163233757E-1
5.303470297E0,-2.280685425E0,-7.002072334E-1,-2.941164970E-1
5.311466605E0,-2.242041588E0,-8.463716507E-1,-2.753381729E-1
5.319491528E0,-2.192822456E0,-9.846210480E-1,-2.311482430E-1
5.327488452E0,-2.349575758E0,-1.057177067E0,-2.136039734E-1
5.335483298E0,-2.733631134E0,-1.141458511E0,-1.952090263E-1
5.343478914E0,-3.095222235E0,-1.222990513E0,-1.200370789E-1
5.351475299E0,-3.433938026E0,-1.261061192E0,-2.009425163E-1
5.359469375E0,-3.647628307E0,-1.264143467E0,-2.396688461E-1
5.367465761E0,-3.826334476E0,-1.207847118E0,-4.019722939E-1
5.375491530E0,-3.909993887E0,-1.143505096E0,-5.047345161E-1
5.383486915E0,-3.857166529E0,-1.139926434E0,-5.221533775E-1
5.391483915E0,-3.639960051E0,-1.240679264E0,-4.706392288E-1
5.399478069E0,-3.416105509E0,-1.445918083E0,-4.164557457E-1
5.407474608E0,-3.073688507E0,-1.737845898E0,-3.895888329E-1
5.415469762E0,-2.601026297E0,-2.018301487E0,-3.365125656E-1
5.423465070E0,-2.130347252E0,-2.242248058E0,-1.957249641E-1
5.431491916E0,-1.517971277E0,-2.451257706E0,-9.003639221E-2
5.439486685E0,-1.119652987E0,-2.540776253E0,-1.292123795E-1
5.447483533E0,-7.273974419E-1,-2.642747641E0,-2.616858482E-1
5.455477763E0,-4.994893074E-1,-2.675413132E0,-4.772553444E-1
5.463473686E0,-3.176317215E-1,-2.745113373E0,-6.167140007E-1
5.471470071E0,-2.963399887E-2,-2.798808813E0,-9.613399506E-1
5.479495840E0,1.198830605E-1,-2.831474304E0,-1.172916412E0
5.487491534E0,4.064655304E-2,-2.811358452E0,-1.297974586E0
5.495486072E0,-1.136603355E-1,-2.735358000E0,-1.409215927E0
5.503482380E0,-2.754950523E-1,-2.660216570E0,-1.438117027E0
5.511477764E0,-3.897013664E-1,-2.613229752E0,-1.424058914E0
5.519473149E0,-3.747453690E-1,-2.545508862E0,-1.294017792E0
5.527469458E0,-1.461586952E-1,-2.581816435E0,-1.115419865E0
5.535465150E0,2.016482353E-1,-2.584615231E0,-1.070644379E0
5.543490996E0,7.820348740E-1,-2.709115744E0,-9.269571304E-1
5.551486919E0,1.274685860E0,-2.840079784E0,-1.002106190E0
5.559482304E0,1.780447006E0,-2.953224182E0,-8.716626167E-1
5.567478920E0,2.008771896E0,-3.023119450E0,-9.918208122E-1
5.575472536E0,1.872311592E0,-2.966943741E0,-1.208688259E0
5.583468536E0,1.230038166E0,-2.783529043E0,-1.315104008E0
5.591495844E0,5.262432098E-1,-2.541521788E0,-1.411249638E0
5.599490690E0,-2.326059341E-2,-2.407800198E0,-1.336774349E0
5.607486691E0,-5.042076111E-2,-2.407804251E0,-1.289631844E0
5.615481998E0,1.128149033E-1,-2.437781096E0,-1.079455376E0
5.623477460E0,3.829884529E-1,-2.469048977E0,-1.000908375E0
5.631473460E0,4.379382133E-1,-2.407185078E0,-9.735898972E-1
5.639468537E0,4.837861061E-1,-2.342774630E0,-7.104649544E-1
5.647496230E0,5.499496460E-1,-2.222934484E0,-7.805142403E-1
5.655490307E0,6.646056175E-1,-2.117460012E0,-5.074157715E-1
5.663485692E0,8.052330017E-1,-2.028330803E0,-6.694669724E-1
5.671482384E0,7.382020950E-1,-1.895607233E0,-6.810579300E-1
5.679476846E0,4.868850708E-1,-1.741626620E0,-8.368821144E-1
5.687473462E0,2.158899307E-1,-1.640480280E0,-5.826106071E-1
5.695468462E0,3.558406830E-1,-1.664420247E0,-3.682770729E-1
5.703494078E0,6.080884933E-1,-1.729426861E0,-3.347258568E-1
5.711490693E0,5.898256302E-1,-1.699893475E0,-1.925206184E-1
5.719485462E0,5.139560699E-1,-1.630741596E0,-2.649755478E-1
5.727482309E0,3.641481400E-1,-1.525376320E0,-2.182326317E-1
5.735476848E0,1.428537369E-1,-1.417381525E0,-3.020424843E-1
5.743472540E0,-2.997875214E-2,-1.335699320E0,-2.445473671E-1
5.751468771E0,8.525371552E-2,-1.313176274E0,-1.374931335E-1
5.759493694E0,4.013051987E-1,-1.362561226E0,-9.484004974E-2
5.767490695E0,5.135316849E-1,-1.381904721E0,1.387252808E-1
5.775485464E0,6.458196640E-1,-1.438553452E0,5.460882187E-1
5.783480541E0,8.369197845E-1,-1.527139902E0,4.155588150E-1
5.791476772E0,6.118564606E-1,-1.560022831E0,3.304939270E-1
5.799471618E0,3.252592087E-1,-1.535145044E0,3.329606056E-1
5.807468850E0,4.882164001E-1,-1.546252012E0,4.170455933E-1
5.815494389E0,6.617398262E-1,-1.488956451E0,4.469490051E-2
5.823489696E0,8.247413635E-1,-1.580975294E0,9.367513657E-2
5.831486312E0,6.491699219E-1,-1.547594547E0,2.951717377E-2
5.839480773E0,4.973521233E-1,-1.531094313E0,1.197781563E-1
5.847477159E0,5.583992004E-1,-1.530512333E0,1.616048813E-1
5.855471851E0,7.571587563E-1,-1.629263639E0,2.913808823E-1
5.863467543E0,9.209918976E-1,-1.602870703E0,2.957172394E-1
5.871494620E0,1.079851151E0,-1.583682537E0,5.274972916E-1
5.879488774E0,1.230628014E0,-1.620503426E0,3.305850029E-1
5.887485468E0,9.155888557E-1,-1.511733532E0,2.323112488E-1
5.895480775E0,5.283536911E-1,-1.360884190E0,1.511435509E-1
5.903476160E0,4.773292542E-1,-1.268552303E0,2.643189430E-1
5.911472237E0,6.297330856E-1,-1.276867390E0,2.201266289E-1
5.919466929E0,6.329121590E-1,-1.235230446E0,1.748609543E-1
5.927494392E0,5.202884674E-1,-1.129566193E0,2.933993340E-1
5.935488853E0,5.313696861E-1,-1.051468849E0,2.371749878E-1
5.943484469E0,6.733646393E-1,-1.058664799E0,3.120808601E-1
5.951481469E0,8.046956062E-1,-1.125091553E0,2.474422455E-1
5.959475623E0,8.417882919E-1,-1.111370564E0,2.156944275E-1
5.967472778E0,8.654341698E-1,-1.072978020E0,1.882076263E-1
5.975467547E0,7.775211334E-1,-8.966288567E-1,4.350948334E-2
5.983492854E0,6.812248230E-1,-9.069290161E-1,2.038173676E-1
5.991490008E0,7.416563034E-1,-8.791971207E-1,1.539049149E-1
5.999485085E0,7.427220345E-1,-8.304591179E-1,1.191167831E-1
6.007481086E0,6.437110901E-1,-7.559213638E-1,9.211874008E-2
6.015475548E0,5.553503036E-1,-6.502118111E-1,7.524299622E-2
6.023471625E0,3.426003456E-1,-5.642914772E-1,1.589918137E-2
6.031467317E0,1.619410515E-1,-4.740085602E-1,-1.014132500E-1
6.039493086E0,7.831001282E-2,-4.050493240E-1,-1.545324326E-1
6.047489395E0,9.799623489E-2,-4.040999413E-1,-1.558213234E-1
6.055484549E0,1.910505295E-1,-3.964114189E-1,-8.217811584E-2
6.063480164E0,2.582888603E-1,-4.219713211E-1,1.549720764E-2
6.071475549E0,3.575186729E-1,-4.962592125E-1,2.678189278E-1
6.079471011E0,4.652771950E-1,-5.694985390E-1,5.227508545E-1
6.087467012E0,4.634084702E-1,-6.388564110E-1,8.681044579E-1
6.095493089E0,4.879493713E-1,-6.854562759E-1,1.098264217E0
6.103488242E0,4.048399925E-1,-6.932816505E-1,1.123709679E0
6.111484858E0,2.489333153E-1,-6.086587906E-1,1.000625134E0
6.119479935E0,7.195186615E-2,-6.181707382E-1,1.026870728E0
6.127477090E0,-1.006464958E-1,-6.547756195E-1,9.659600258E-1
6.135471243E0,-1.218891144E-1,-6.614885330E-1,9.425525665E-1
6.143466397E0,-1.353938580E-1,-6.929216385E-1,8.731846809E-1
6.151493167E0,-5.099439621E-2,-7.155413628E-1,7.677712440E-1
6.159487859E0,9.789562225E-2,-7.244615555E-1,6.427159309E-1
6.167485168E0,2.176544666E-1,-7.340412140E-1,4.810605049E-1
6.175479014E0,2.542693615E-1,-6.602230072E-1,3.562016487E-1
6.183474706E0,2.392418385E-1,-5.822439194E-1,2.646412849E-1
6.191471014E0,2.915985584E-1,-5.233888626E-1,2.753591537E-1
6.199467014E0,3.212850094E-1,-5.215721130E-1,2.565093040E-1
6.207492553E0,3.505067825E-1,-6.004228592E-1,2.200231552E-1
6.215488553E0,3.699686527E-1,-6.567115784E-1,2.379846573E-1
6.223483861E0,3.579370975E-1,-7.095365524E-1,3.465085030E-1
6.231480169E0,4.021024704E-1,-7.017230988E-1,4.761595726E-1
6.239474707E0,4.565589428E-1,-7.288684845E-1,5.796153545E-1
6.247470708E0,4.791939259E-1,-7.888174057E-1,6.381015778E-1
6.255466093E0,4.623463154E-1,-8.167238235E-1,7.288208008E-1
6.263491939E0,4.411141872E-1,-8.080177307E-1,7.654786110E-1
6.271488785E0,4.774169922E-1,-7.893152237E-1,7.378635406E-1
6.279483247E0,4.728648663E-1,-7.678194046E-1,6.147105694E-1
6.287479863E0,4.577848911E-1,-7.292547226E-1,5.134239197E-1
6.295474094E0,4.275004864E-1,-7.191009521E-1,4.696197510E-1
6.303469709E0,4.232721329E-1,-6.941900253E-1,4.948246479E-1
6.311465786E0,4.292836189E-1,-7.046375275E-1,5.311341286E-1
6.319491248E0,4.190392494E-1,-7.026948929E-1,5.829660892E-1
6.327488480E0,3.785965443E-1,-6.643743515E-1,6.140737534E-1
6.335483634E0,2.983467579E-1,-6.136016846E-1,6.339559555E-1
6.343478326E0,2.451233864E-1,-5.741624832E-1,6.358387470E-1
6.351474403E0,1.873440742E-1,-4.982147217E-1,6.629140377E-1
6.359470403E0,1.248915195E-1,-4.335813522E-1,6.315360069E-1
6.367466095E0,1.342382431E-1,-3.753547668E-1,5.899255276E-1
6.375491635E0,1.867468357E-1,-2.565946579E-1,4.922513962E-1
6.383486635E0,1.721384525E-1,-1.682224274E-1,3.746657372E-1
6.391483635E0,1.732234955E-1,-1.170396805E-1,3.161773682E-1
6.399478096E0,1.390328407E-1,-6.201839447E-2,2.374489307E-1
6.407474942E0,1.008045673E-1,-5.777835846E-2,2.671585083E-1
6.415469482E0,1.511781216E-1,-4.669380188E-2,3.255302906E-1
6.423496174E0,2.181725502E-1,-5.048656464E-2,4.001989365E-1
6.431491559E0,2.196531296E-1,-4.061698914E-2,5.103311539E-1
6.439486636E0,1.758973598E-1,8.852958679E-3,5.935280323E-1
6.447483636E0,6.972837448E-2,-9.687423706E-3,5.426776409E-1
6.455478637E0,-9.875297546E-4,-4.792881012E-2,5.147104263E-1
6.463473714E0,-5.039882660E-2,-7.204437256E-2,4.551904202E-1
6.471469483E0,-6.630873680E-2,-8.891201019E-2,3.838894367E-1
6.479464791E0,-4.898786545E-2,-5.070114136E-2,3.272094727E-1
6.487491945E0,1.006126404E-3,1.117229462E-2,2.776231766E-1
6.495486715E0,1.958370209E-3,8.722114563E-2,1.613719463E-1
6.503482715E0,-5.003809929E-2,1.273288727E-1,1.027269363E-1
6.511478638E0,-3.768920898E-2,1.559877396E-1,9.354615211E-2
6.519473484E0,-1.140117645E-3,1.182241440E-1,7.858276367E-2
6.527470100E0,9.517192841E-3,9.535312653E-2,4.790854454E-2
6.535495639E0,4.392623901E-3,5.620765686E-2,3.932499886E-2
6.543490331E0,-1.619505882E-2,7.591247559E-4,6.209087372E-2
6.551487639E0,-4.487061501E-2,-3.055095673E-2,8.188009262E-2
6.559481485E0,-9.627509117E-2,-7.588863373E-2,2.981281281E-2
6.567478947E0,-1.255447865E-1,-1.160717010E-1,1.416444778E-2
6.575473102E0,-1.761012077E-1,-1.608505249E-1,2.516269684E-2
6.583468871E0,-2.432565689E-1,-2.245922089E-1,2.695870399E-2
6.591495256E0,-2.883536816E-1,-3.000497818E-1,1.467442513E-2
6.599490409E0,-3.136053085E-1,-3.176927567E-1,-4.397869110E-3
6.607487563E0,-3.639922142E-1,-3.108358383E-1,-3.489208221E-2
6.615482334E0,-3.745834827E-1,-2.983198166E-1,-9.775948524E-2
6.623477410E0,-3.597209454E-1,-2.848749161E-1,-1.306166649E-1
6.631473410E0,-3.290390968E-1,-2.849588394E-1,-1.599752903E-1
6.639468564E0,-2.689371109E-1,-3.157815933E-1,-1.337394714E-1
6.647495564E0,-2.275640965E-1,-3.130931854E-1,-1.030149460E-1
6.655490950E0,-2.524507046E-1,-3.128490448E-1,-7.296776772E-2
6.663486104E0,-3.020479679E-1,-3.005132675E-1,-6.055402756E-2
6.671482950E0,-3.309271336E-1,-2.640256882E-1,-5.590152740E-2
6.679476565E0,-3.772416115E-1,-2.319431305E-1,-4.668378830E-2
6.687474335E0,-3.980982304E-1,-2.233190536E-1,-6.359720230E-2
6.695468259E0,-4.365866184E-1,-2.262334824E-1,-2.056097984E-2
6.703494336E0,-4.143185616E-1,-2.195272446E-1,2.440214157E-2
6.711490413E0,-4.062166214E-1,-2.131004333E-1,4.462099075E-2
6.719485182E0,-4.006145000E-1,-1.973600388E-1,4.276084900E-2
6.727482105E0,-3.552954197E-1,-1.748952866E-1,1.414084435E-2
6.735477414E0,-3.257706165E-1,-1.456584930E-1,-7.276773453E-3
6.743471952E0,-3.213069439E-1,-7.580280304E-2,-9.508180618E-2
6.751468875E0,-2.821702957E-1,-5.623912811E-2,-1.388680935E-1
6.759494106E0,-2.274956703E-1,-5.568504333E-2,-2.148385048E-1
6.767491260E0,-1.931326389E-1,-9.099960327E-2,-2.131772041E-1
6.775485492E0,-1.405093670E-1,-1.525869370E-1,-2.417697906E-1
6.783480799E0,-1.194231510E-1,-1.782855988E-1,-2.174077034E-1
6.791477184E0,-1.336784363E-1,-2.230310440E-1,-1.859214306E-1
6.799472261E0,-1.141984463E-1,-2.153015137E-1,-1.287496090E-1
6.807468261E0,-1.087203026E-1,-2.005710602E-1,-1.369397640E-1
6.815493493E0,-1.245739460E-1,-1.886129379E-1,-7.924056053E-2
6.823489493E0,-2.070186138E-1,-1.721096039E-1,-3.927016258E-2
6.831485493E0,-2.697157860E-1,-1.031026840E-1,-2.169919014E-2
6.839481185E0,-3.461122513E-1,-1.106939316E-1,-4.524707794E-3
6.847477724E0,-3.627984524E-1,-7.289409637E-2,2.947092056E-3
6.855471879E0,-3.771898746E-1,-6.597518921E-2,-9.651637077E-2
6.863467648E0,-3.631975651E-1,5.911827087E-3,-1.636493206E-1
6.871494109E0,-3.066170216E-1,1.346874237E-2,-1.935756207E-1
6.879489417E0,-2.560288906E-1,5.925655365E-2,-2.227966785E-1
6.887485186E0,-1.941018105E-1,5.949497223E-2,-2.157747746E-1
6.895480187E0,-1.113817692E-1,1.264314651E-1,-2.115259171E-1
6.903476264E0,-7.878684998E-2,1.524143219E-1,-1.841328144E-1
6.911472187E0,-5.552053452E-3,1.611814499E-1,-1.340198517E-1
6.919467034E0,-8.661985397E-3,1.121120453E-1,-8.515119553E-2
6.927494341E0,-3.565430641E-2,6.984615326E-2,-3.260040283E-2
6.935489188E0,-7.694125175E-2,1.532363892E-2,-2.161312103E-2
6.943484804E0,-1.163165569E-1,-3.547668457E-3,5.742788315E-3
6.951481804E0,-1.848673820E-1,-1.769828796E-2,-2.677440643E-3
6.959475573E0,-2.111358643E-1,-7.958412170E-3,-1.081228256E-3
6.967472189E0,-2.286298275E-1,2.105808258E-2,-2.487754822E-2
6.975466959E0,-2.089281082E-1,7.655525208E-2,-8.336234093E-2
6.983492882E0,-1.358747482E-1,1.248235703E-1,-1.000506878E-1
6.991489113E0,-2.878475189E-2,1.346263885E-1,-1.589455605E-1
6.999484497E0,7.441139221E-2,1.442756653E-1,-2.315700054E-1
7.007480882E0,1.244752407E-1,1.371374130E-1,-2.584214211E-1
7.015475575E0,1.872451305E-1,1.134452820E-1,-2.899591923E-1
7.023471268E0,2.630887032E-1,5.409240723E-2,-2.975633144E-1
7.031467345E0,2.921264172E-1,-3.844261169E-2,-2.666089535E-1
7.039492883E0,3.409829140E-1,-9.251689911E-2,-2.308483124E-1
7.047489191E0,3.421533108E-1,-1.562414169E-1,-1.834566593E-1
7.055484499E0,2.910251617E-1,-1.675930023E-1,-1.036851406E-1
7.063479884E0,1.956241131E-1,-1.625976562E-1,5.098342896E-3
7.071475653E0,7.050228119E-2,-1.125583649E-1,7.322049141E-2
7.079470730E0,-3.231239319E-2,-4.616832733E-2,1.251943111E-1
7.087467346E0,-1.494460106E-1,-7.824230194E-2,1.499035358E-1
7.095492501E0,-2.055304050E-1,-9.635543823E-2,1.766538620E-1
7.103488808E0,-2.400546074E-1,-1.077394485E-1,1.774222851E-1
7.111484885E0,-2.415359020E-1,-1.220502853E-1,9.486556053E-2
7.119479885E0,-2.187192440E-1,-1.175403595E-1,5.587291718E-2
7.127476885E0,-1.591331959E-1,-1.372137070E-1,3.882479668E-2
7.135470425E0,-1.290616989E-1,-1.187210083E-1,1.235914230E-2
7.143466348E0,-4.227495193E-2,-8.124160767E-2,3.861451149E-2
7.151492886E0,5.112290382E-2,-7.290267944E-2,9.518885612E-2
7.159487963E0,1.510615349E-1,-2.676010132E-2,1.425051689E-2
7.167485117E0,1.407942772E-1,1.420116425E-2,-1.991796494E-2
7.175479349E0,1.122770309E-1,3.819370270E-2,-2.185201645E-2
7.183475349E0,5.888223648E-2,7.409954071E-2,-5.876541138E-3
7.191471041E0,9.314298630E-3,8.135700226E-2,4.504203796E-3
7.199466964E0,-8.935785294E-2,8.643436432E-2,-6.194877625E-2
7.207492503E0,-1.798768044E-1,1.230640411E-1,-1.517648697E-1
7.215487888E0,-2.760219574E-1,1.462430954E-1,-3.405315876E-1
7.223483350E0,-3.671349287E-1,1.925411224E-1,-4.427325726E-1
7.231479042E0,-3.709131479E-1,1.592569351E-1,-4.247424603E-1
7.239474965E0,-3.263105154E-1,1.199960709E-1,-3.645334244E-1
7.247470965E0,-2.304697037E-1,6.176567078E-2,-1.943025589E-1
7.255465736E0,-1.123330593E-1,5.283546448E-2,2.209949493E-2
7.263491966E0,-3.792834282E-2,5.942249298E-2,7.418203354E-2
7.271487966E0,-2.202057838E-2,8.653640747E-2,5.146622658E-2
7.279484197E0,-3.756093979E-2,6.520938873E-2,4.342937469E-2
7.287479582E0,1.889944077E-3,8.419418335E-2,1.687312126E-2
7.295474737E0,6.285786629E-2,6.937503815E-2,4.631900787E-2
7.303470044E0,7.099413872E-2,4.945755005E-2,4.322004318E-2
7.311466737E0,7.485651970E-2,4.855346680E-2,1.719665527E-2
7.319491583E0,8.503484726E-2,5.004882812E-2,-8.116722107E-3
7.327487891E0,1.383771896E-1,2.053260803E-2,-3.786802292E-2
7.335482969E0,1.898362637E-1,-1.650810242E-3,-1.481318474E-2
7.343478738E0,1.867933273E-1,4.086589813E-2,2.718281746E-2
7.351475969E0,2.891252041E-1,-4.133605957E-2,1.331646442E-1
7.359469738E0,3.546042442E-1,-6.671905518E-2,1.469650269E-1
7.367496276E0,2.607100010E-1,-3.756713867E-2,3.574061394E-2
7.375491893E0,7.102274895E-2,7.550525665E-2,-1.013665199E-1
7.383486739E0,7.362127304E-3,1.101245880E-1,-1.948082447E-1
7.391482739E0,1.148455143E-1,1.067667007E-1,-2.162742615E-1
7.399478739E0,2.558150291E-1,4.109191895E-2,-2.378818989E-1
7.407474739E0,4.042778015E-1,3.962421417E-2,-2.279982567E-1
7.415469740E0,4.963793755E-1,5.660629272E-2,-2.339832783E-1
7.423496202E0,4.653706551E-1,1.279573441E-1,-2.129123211E-1
7.431491355E0,3.795096874E-1,2.084589005E-1,-2.606470585E-1
7.439486740E0,1.796164513E-1,3.251342773E-1,-2.770037651E-1
7.447483586E0,-1.038694382E-2,3.754415512E-1,-2.718586922E-1
7.455478357E0,-1.708605289E-1,4.359598160E-1,-2.266230583E-1
7.463473741E0,-2.457954884E-1,4.657869339E-1,-2.436926365E-1
7.471470049E0,-2.777173519E-1,5.388479233E-1,-2.529976368E-1
7.479464818E0,-2.634925842E-1,5.471639633E-1,-2.322862148E-1
7.487491664E0,-2.276289463E-1,5.719776154E-1,-1.623613834E-1
7.495487050E0,8.296108246E-2,4.716520309E-1,3.512756824E-1
7.503481742E0,3.773155212E-1,4.531679153E-1,7.979893684E-2
7.511478358E0,5.497107506E-1,4.420099258E-1,3.784561157E-2
7.519472588E0,6.521086693E-1,4.427642822E-1,1.227850914E-1
7.527469742E0,6.597154140E-1,4.889335632E-1,1.727905273E-1
7.535495589E0,4.879357815E-1,5.911378860E-1,2.066526413E-1
7.543490436E0,3.677189350E-1,5.925807953E-1,2.296903133E-1
7.551486974E0,2.888245583E-1,5.254173279E-1,1.620206833E-1
7.559481743E0,3.144471645E-1,4.068031311E-1,1.818895340E-2
7.567478666E0,6.004080772E-1,2.598342896E-1,-2.169792652E-1
7.575474052E0,9.360373020E-1,1.049213409E-1,-2.385621071E-1
7.583468206E0,1.164078712E0,-1.408128738E-1,-2.507393360E-1
7.591495283E0,1.043777227E0,-3.698778152E-1,-2.046358585E-1
7.599490052E0,7.681813240E-1,-4.897851944E-1,-2.691841125E-2
7.607486668E0,4.686579704E-1,-6.571578979E-1,2.082357407E-1
7.615482052E0,3.621244431E-1,-7.778959274E-1,1.565756798E-1
7.623477130E0,3.046617508E-1,-8.159332275E-1,-5.261485577E-1
7.631473515E0,3.169171810E-1,-7.150630951E-1,-8.684532642E-1
7.639468207E0,4.020414352E-1,-6.931991577E-1,-8.787391186E-1
7.647495669E0,5.857155323E-1,-7.301549911E-1,-6.707789898E-1
7.655490130E0,6.643056870E-1,-7.767887115E-1,-3.821473122E-1
7.663486362E0,6.446030140E-1,-8.359489441E-1,-2.588629723E-2
7.671482362E0,5.836861134E-1,-8.741483688E-1,1.899778843E-1
7.679476901E0,5.523369312E-1,-8.722047806E-1,3.289420605E-1
7.687473208E0,5.771462917E-1,-8.615150452E-1,4.620277882E-1
7.695468824E0,5.126070976E-1,-7.947511673E-1,6.663088799E-1
7.703494748E0,2.901155949E-1,-6.815748215E-1,8.427774906E-1
7.711490055E0,1.456189156E-2,-5.312891006E-1,7.174654007E-1
7.719485209E0,-2.269906998E-1,-3.765974045E-1,4.953451157E-1
7.727482979E0,-1.167578697E-1,-2.549161911E-1,2.919609547E-1
7.735605464E0,1.650555134E-1,-2.409858704E-1,2.741024494E-1
7.743601260E0,3.030261993E-1,-2.305860519E-1,4.070334435E-1
7.751597825E0,2.133090496E-1,-2.288198471E-1,5.319964886E-1
7.759623390E0,1.716082096E-1,-2.166681290E-1,6.004421711E-1
7.767619725E0,1.092653275E-1,-1.843795776E-1,5.570566654E-1
7.775614521E0,5.799031258E-2,-1.459417343E-1,4.549875259E-1
7.783610010E0,2.588534355E-2,-1.535663605E-1,3.615806103E-1
7.791606037E0,-8.538246155E-3,-1.039552689E-1,2.585523129E-1
7.799601064E0,-3.502035141E-2,-9.471607208E-2,9.633517265E-2
7.807598091E0,-8.381152153E-2,-1.446142197E-1,-2.451300621E-2
7.815623579E0,-1.914324760E-1,-2.409362793E-1,-9.932446480E-2
7.823618376E0,-2.007129192E-1,-3.183317184E-1,-1.759810448E-1
7.831615325E0,-3.460073471E-2,-3.871335983E-1,-1.562240124E-1
7.839609813E0,5.521559715E-2,-3.810768127E-1,-1.875958443E-1
7.847607071E0,-1.362442970E-2,-3.123283386E-1,-1.259334087E-1
7.855601637E0,-5.467081070E-2,-2.697257996E-1,-4.818439484E-2
7.863597279E0,-2.301502228E-2,-3.090305328E-1,6.278514862E-3
7.871623537E0,-2.952957153E-2,-3.443880081E-1,-2.719306946E-2
7.879619179E0,-2.114105225E-2,-3.728704453E-1,-1.237633228E-1
7.887614975E0,-2.592968941E-2,-4.135818481E-1,-1.211957932E-1
7.895610079E0,1.134855747E-1,-4.889717102E-1,-1.133418083E-2
7.903605105E0,2.022185326E-1,-5.374822617E-1,1.047382355E-1
7.911602671E0,2.247974873E-1,-6.027154922E-1,2.080049515E-1
7.919597236E0,2.257978916E-1,-5.891275406E-1,1.722214222E-1
7.927623417E0,2.029321194E-1,-5.414190292E-1,4.477381706E-2
7.935619060E0,1.670627594E-1,-4.536991119E-1,-2.281312943E-1
7.943614164E0,1.557922363E-1,-3.486423492E-1,-4.825987816E-1
7.951610806E0,2.038283348E-1,-2.780818939E-1,-6.677727699E-1
7.959605679E0,2.182855606E-1,-1.751880646E-1,-6.745710373E-1
7.967601937E0,1.433982849E-1,-1.137409210E-1,-6.452517509E-1
7.975596809E0,1.637730598E-1,-8.524608612E-2,-4.533405304E-1
7.983622990E0,2.431788445E-1,-6.700325012E-2,-3.215856552E-1
7.991619940E0,2.828636169E-1,-7.721519470E-2,-6.818699837E-2
7.999614352E0,2.731146812E-1,-5.412864685E-2,9.764981270E-2
8.007611609E0,2.827281952E-1,-3.628063202E-2,2.864236832E-1
8.015605252E0,1.366219521E-1,2.514171600E-2,2.253165245E-1
8.023600663E0,-8.942747116E-2,1.493816376E-1,5.915737152E-2
8.031598537E0,-3.768334389E-1,3.344883919E-1,-2.011132240E-1
8.039623179E0,-4.845194817E-1,4.319429398E-1,-3.849976063E-1
8.047619514E0,-4.252967834E-1,4.654197693E-1,-5.110700130E-1
8.055614617E0,-3.336615562E-1,4.490852356E-1,-4.882469177E-1
8.063610567E0,-2.788815498E-1,4.565405846E-1,-4.018254280E-1
8.071606363E0,-3.241066933E-1,5.113339424E-1,-2.664551735E-1
8.079601390E0,-4.018659592E-1,5.376710892E-1,-1.701862812E-1
8.087597802E0,-3.932485580E-1,5.454325676E-1,-2.351117134E-2
8.095622752E0,-3.407330513E-1,5.203557014E-1,1.058981419E-1
8.103619010E0,-2.960228920E-1,4.759035110E-1,2.084105015E-1
8.111615114E0,-3.188233376E-1,3.787503242E-1,3.848187923E-1
8.119610217E0,-2.478089333E-1,2.861890793E-1,3.542084694E-1
8.127605859E0,-2.935328484E-1,2.818899155E-1,2.245316505E-1
8.135600655E0,-3.857779503E-1,3.618364334E-1,2.083420753E-2
8.143596759E0,-4.769806862E-1,4.645256996E-1,-1.880874634E-1
8.151623478E0,-5.098042488E-1,5.261821747E-1,-4.460206032E-1
8.159618967E0,-5.604610443E-1,6.265349388E-1,-7.138960361E-1
8.167615225E0,-6.725783348E-1,6.944470406E-1,-9.353356361E-1
8.175610098E0,-7.423248291E-1,7.798676491E-1,-1.205485106E0
8.183605510E0,-8.041691780E-1,7.529892921E-1,-1.316464186E0
8.191601152E0,-7.226738930E-1,6.207222939E-1,-1.308788538E0
8.199596640E0,-5.650424957E-1,4.640135765E-1,-1.209465742E0
8.207624051E0,-4.157681465E-1,3.308043480E-1,-8.260052204E-1
8.215618847E0,-2.119011879E-1,2.253646851E-1,-5.236120224E-1
8.223613951E0,-1.131534576E-3,7.042789459E-2,-5.181360245E-2
8.231609901E0,1.516370773E-1,-3.274011612E-2,2.111878395E-1
8.239605313E0,2.324495316E-1,-2.670335770E-2,3.710541725E-1
8.247602340E0,2.381973267E-1,5.416965485E-2,3.552694321E-1
8.255596752E0,1.911945343E-1,1.801414490E-1,2.421436310E-1
8.263622702E0,1.674022675E-1,3.048491478E-1,1.353654861E-1
8.271619575E0,7.693719864E-2,3.934206963E-1,4.430294037E-3
8.279614139E0,-1.218104362E-1,5.354337692E-1,-3.810787201E-2
8.287610782E0,-3.721394539E-1,6.717677116E-1,-9.826612473E-2
8.295605886E0,-4.953589439E-1,7.381000519E-1,3.333282471E-2
8.303600913E0,-4.240078926E-1,6.448388100E-1,4.691839218E-1
8.311596940E0,-4.771790504E-1,5.504102707E-1,5.528225899E-1
8.319623121E0,-3.531446457E-1,4.040970802E-1,5.778627396E-1
8.327619225E0,1.199235916E-1,2.407865524E-1,5.796632767E-1
8.335614021E0,4.227423668E-1,2.893128395E-1,2.771840096E-1
8.343608817E0,3.560924530E-2,6.796293259E-1,-6.115341187E-1
8.351605766E0,-5.255856514E-1,1.013575077E0,-1.234852314E0
8.359600486E0,-7.708392143E-1,1.147943497E0,-1.616787910E0
8.367597743E0,-6.328291893E-1,1.011098862E0,-1.513814449E0
8.375623001E0,-4.087500572E-1,7.086014748E-1,-8.330318928E-1
8.383618182E0,-3.689880371E-1,4.387469292E-1,-4.289722443E-2
8.391614517E0,-3.752746582E-1,3.358502388E-1,4.260997772E-1
8.399610159E0,-2.264232635E-1,2.383122444E-1,6.685771942E-1
8.407606494E0,-1.746006012E-1,2.474565506E-1,7.045712471E-1
8.415600982E0,-2.451057434E-1,3.772983551E-1,6.230964661E-1
8.423596470E0,-2.752985954E-1,5.209054947E-1,4.755487442E-1
8.431622959E0,-3.508486748E-1,6.519827843E-1,2.268424034E-1
8.439618062E0,-5.090522766E-1,6.310214996E-1,3.452181816E-1
8.447614397E0,-5.531606674E-1,5.526537895E-1,1.662554741E-1
8.455609193E0,-2.932691574E-1,4.005289078E-1,-7.562971115E-2
8.463604836E0,2.527036667E-1,1.575155258E-1,3.834724426E-3
8.471601478E0,6.472358704E-1,9.701490402E-2,-8.209037781E-2
8.479627044E0,2.302227020E-1,4.064497948E-1,-7.835934162E-1
8.487623686E0,-4.796495438E-1,6.819624901E-1,-1.171404362E0
8.495617944E0,-8.441743851E-1,7.087678909E-1,-1.153030872E0
8.503613662E0,-7.799921036E-1,5.320601463E-1,-8.240363598E-1
8.511611151E0,-6.966862679E-1,3.508086205E-1,-4.238445759E-1
8.519605024E0,-6.213254929E-1,2.103648186E-1,-1.250796318E-1
8.527601359E0,-5.938053131E-1,1.929097176E-1,8.838796616E-2
8.535626386E0,-7.316570282E-1,2.240076065E-1,1.353335381E-1
8.543622951E0,-8.705172539E-1,3.694248199E-1,3.739690781E-2
8.551619363E0,-8.543066978E-1,4.147477150E-1,-6.081390381E-2
8.559613467E0,-6.956105232E-1,4.250054359E-1,-1.008167267E-1
8.567610725E0,-5.444202423E-1,4.024782181E-1,-9.577751160E-2
8.575604674E0,-4.904475212E-1,3.256006241E-1,-8.788657188E-2
8.583600624E0,-4.009404182E-1,2.809996605E-1,-1.111075878E-1
8.591627728E0,-3.668217659E-1,2.447896004E-1,-1.605589390E-1
8.599622909E0,-3.805694580E-1,2.913875580E-1,-1.859414577E-1
8.607618936E0,-4.203624725E-1,3.467535973E-1,-2.422325611E-1
8.615614040E0,-3.835163116E-1,3.844671249E-1,-3.004732132E-1
8.623609451E0,-4.090518951E-1,4.044704437E-1,-3.269827366E-1
8.631605478E0,-4.683008194E-1,4.067006111E-1,-3.744008541E-1
8.639600890E0,-4.888248444E-1,3.673796654E-1,-3.352944851E-1
8.647627686E0,-4.922108650E-1,2.862777710E-1,-3.201041222E-1
8.655621866E0,-4.641208649E-1,2.687869072E-1,-2.926886082E-1
8.663618201E0,-3.788423538E-1,2.403407097E-1,-2.528960705E-1
8.671614151E0,-2.798094749E-1,2.056322098E-1,-2.004289627E-1
8.679609947E0,-1.986308098E-1,1.834893227E-1,-1.400971413E-1
8.687605666E0,-1.603231430E-1,2.018971443E-1,-6.978201866E-2
8.695600693E0,-1.029233932E-1,1.960544586E-1,-1.582121849E-2
8.703626028E0,-2.721071243E-2,1.821241379E-1,-9.744167328E-3
8.711623286E0,2.310800552E-2,1.457638741E-1,-8.914208412E-2
8.719618005E0,5.706071854E-2,2.114691734E-1,-1.289532185E-1
8.727614416E0,1.576905251E-1,2.475523949E-1,-2.576522827E-1
8.735609212E0,1.941614151E-1,2.618341446E-1,-3.167848587E-1
8.743605470E0,1.349153519E-1,2.402210236E-1,-3.008162975E-1
8.751600651E0,1.825795174E-1,1.609563828E-1,-3.029651642E-1
8.759627139E0,2.697424889E-1,3.324413300E-2,-3.691787720E-1
8.767623166E0,2.647681236E-1,-5.895042419E-2,-4.081432819E-1
8.775617963E0,2.654018402E-1,-1.154193878E-1,-4.021048546E-1
8.783613682E0,2.803955078E-1,-1.555986404E-1,-3.460071087E-1
8.791610017E0,2.496252060E-1,-1.988410950E-1,-2.161254883E-1
8.799605043E0,1.368598938E-1,-2.556161880E-1,3.826951981E-2
8.807601454E0,4.073834419E-2,-2.975368500E-1,2.408454418E-1
8.815627020E0,-5.567860603E-2,-3.211393356E-1,3.629951477E-1
8.823622354E0,-2.154979706E-1,-3.003559113E-1,5.366728306E-1
8.831618766E0,-4.125585556E-1,-2.588443756E-1,6.742177010E-1
8.839613485E0,-5.900416374E-1,-2.229633331E-1,6.853110790E-1
8.847610820E0,-5.772647858E-1,-2.095479965E-1,6.266741753E-1
8.855604693E0,-5.142068863E-1,-2.279844284E-1,6.029427052E-1
8.863600413E0,-4.739537239E-1,-2.086629868E-1,5.081322193E-1
8.871626593E0,-3.603751659E-1,-2.183618546E-1,4.501955509E-1
8.879622312E0,-2.067115307E-1,-2.045202255E-1,4.356551170E-1
8.887618954E0,1.109051704E-2,-1.604547501E-1,4.845216274E-1
8.895613750E0,2.449934483E-1,-1.371650696E-1,6.379911900E-1
8.903609085E0,4.307279587E-1,-1.350202560E-1,7.915573120E-1
8.911604881E0,4.928691387E-1,-1.063537598E-1,9.168725014E-1
8.919600216E0,5.567021370E-1,-1.178007126E-1,9.542558193E-1
8.927627320E0,5.560507774E-1,-1.570472717E-1,9.515790939E-1
8.935622193E0,4.771151543E-1,-2.209215164E-1,9.056286812E-1
8.943617913E0,3.660588264E-1,-3.207778931E-1,8.820791245E-1
8.951613939E0,2.634596825E-1,-3.819437027E-1,8.177242279E-1
8.959608658E0,1.807661057E-1,-4.258451462E-1,7.542026043E-1
8.967605300E0,1.239068508E-1,-4.240283966E-1,6.681015491E-1
8.975600481E0,5.634140968E-2,-3.886775970E-1,6.217126846E-1
8.983626585E0,4.667019844E-2,-3.655452728E-1,5.744161606E-1
8.991622689E0,7.785749435E-2,-3.355360031E-1,5.095438957E-1
8.999617485E0,1.447675228E-1,-2.988643646E-1,4.363741875E-1
9.007614128E0,1.953005791E-1,-2.889585495E-1,4.192013741E-1
9.015609539E0,3.306794167E-1,-2.723159790E-1,4.860022068E-1
9.023604565E0,4.340741634E-1,-2.515659332E-1,5.039029121E-1
9.031600900E0,4.798636436E-1,-2.362813950E-1,4.553918839E-1
9.047623108E0,4.990622997E-1,-2.790060043E-1,3.618888855E-1
9.055618212E0,5.258362293E-1,-2.982587814E-1,2.935874462E-1
9.063613316E0,5.154085159E-1,-3.056936264E-1,1.926782131E-1
9.071609958E0,4.072840214E-1,-2.964935303E-1,1.437056065E-1
9.079604216E0,3.202221394E-1,-2.945966721E-1,6.623291969E-2
9.087600551E0,1.772887707E-1,-2.545089722E-1,7.309865952E-2
9.095626732E0,4.076385498E-2,-2.288141251E-1,4.242444038E-2
9.103621758E0,-4.503011703E-2,-1.951808929E-1,6.387495995E-2
9.111618400E0,-1.183297634E-1,-1.392564774E-1,4.876494408E-2
9.119613196E0,-1.247036457E-1,-9.974193573E-2,8.994460106E-2
9.127610146E0,-9.118914604E-2,-9.368515015E-2,6.993317604E-2
9.135604327E0,-9.234762192E-2,-7.812690735E-2,7.243871689E-2
9.143600123E0,-1.114158630E-1,-8.661270142E-2,1.045594215E-1
9.151626535E0,-1.172111034E-1,-8.571624756E-2,1.372098923E-1
9.159621716E0,-1.168859005E-1,-9.944152832E-2,1.582157612E-1
9.167618897E0,-7.246708870E-2,-1.183948517E-1,1.529629230E-1
9.175613461E0,-8.078813553E-3,-1.523256302E-1,1.689867973E-1
9.183608873E0,4.514026642E-2,-1.963577271E-1,1.011991501E-1
9.191605746E0,4.902625084E-2,-2.360706329E-1,4.059314728E-2
9.199600235E0,6.156039238E-2,-2.329940796E-1,-1.762247086E-2
9.207627108E0,6.626605988E-2,-2.324800491E-1,-9.246921539E-2
9.215621904E0,9.460496902E-2,-2.274351120E-1,-1.174991131E-1
9.223617854E0,1.106166840E-1,-2.179985046E-1,-1.481626034E-1
9.231613574E0,7.147121429E-2,-2.041616440E-1,-1.942768097E-1
9.239608677E0,3.456258774E-2,-2.169809341E-1,-1.837360859E-1
9.247605011E0,1.883125305E-2,-2.276906967E-1,-1.832823753E-1
9.255599884E0,-9.386301041E-3,-2.552881241E-1,-1.994810104E-1
9.263625758E0,-1.074895859E-1,-2.995719910E-1,-2.221887112E-1
9.271622708E0,-1.887090206E-1,-3.290271759E-1,-2.531781197E-1
9.279617504E0,-2.238132954E-1,-3.337802887E-1,-2.584915161E-1
9.287614377E0,-2.202086449E-1,-3.091325760E-1,-2.429642677E-1
9.295608866E0,-2.257137299E-1,-2.430830002E-1,-2.592136860E-1
9.303604354E0,-1.929445267E-1,-2.029504776E-1,-2.669098377E-1
9.311600920E0,-1.794800758E-1,-1.673336029E-1,-2.783362865E-1
9.319626485E0,-1.588253975E-1,-1.769056320E-1,-3.007411957E-1
9.327623127E0,-1.546573639E-1,-1.622219086E-1,-3.391153812E-1
9.335617615E0,-1.758058071E-1,-1.517019272E-1,-3.644688129E-1
9.343612796E0,-1.979310513E-1,-1.309375763E-1,-3.650708199E-1
9.351609131E0,-2.139897346E-1,-6.651115417E-2,-3.650078773E-1
9.359604465E0,-2.573227882E-1,-6.616783142E-2,-3.405327797E-1
9.367600877E0,-2.376148701E-1,-7.278251648E-2,-3.255538940E-1
9.375625827E0,-2.339570522E-1,-7.199287415E-2,-3.463330269E-1
9.383620931E0,-2.344686985E-1,-1.186532974E-1,-3.996555805E-1
9.391618112E0,-2.011752129E-1,-1.124601364E-1,-3.830494881E-1
9.399612984E0,-1.612975597E-1,-6.100845337E-2,-3.831741810E-1
9.407609550E0,-1.270165443E-1,-4.605197906E-2,-3.315753937E-1
9.415603500E0,-1.220273972E-1,-2.684307098E-2,-3.169693947E-1
9.423600065E0,-1.098220348E-1,-7.257938385E-2,-2.984967232E-1
9.431626938E0,-1.114475727E-1,-1.065673828E-1,-2.572722435E-1
9.439621735E0,-1.436467171E-1,-1.240625381E-1,-2.078354359E-1
9.447618608E0,-1.820898056E-1,-1.608390808E-1,-1.884567738E-1
9.455612558E0,-2.218949795E-1,-1.712846756E-1,-1.676578522E-1
9.463608816E0,-2.493920326E-1,-1.220607758E-1,-1.334009171E-1
9.471604919E0,-2.909524441E-1,-8.008098602E-2,-1.402664185E-1
9.479599715E0,-2.874245644E-1,-4.898071289E-3,-1.142284870E-1
9.487626742E0,-2.847318649E-1,4.845046997E-2,-1.337370872E-1
9.495621538E0,-2.356774807E-1,9.650135040E-2,-1.390421391E-1
9.503616411E0,-2.050542831E-1,1.152372360E-1,-1.183090210E-1
9.511612746E0,-1.616246700E-1,1.094093323E-1,-9.574055672E-2
9.519608388E0,-1.004893780E-1,9.100341797E-2,-1.073491573E-1
9.527605031E0,-1.045570374E-1,9.607124329E-2,-7.933974266E-2
9.535600135E0,-4.665160179E-2,8.154106140E-2,-3.588008881E-2
9.543625777E0,-2.219223976E-2,1.073303223E-1,-3.697180748E-2
9.551622342E0,-5.006003380E-2,7.538509369E-2,8.469343185E-3
9.559616599E0,-4.399228096E-2,1.688289642E-2,-1.916384697E-2
9.567613549E0,-1.207981110E-1,-2.966213226E-2,-3.822255135E-2
9.575608038E0,-1.654303074E-1,-5.452537537E-2,-5.548191071E-2
9.583603988E0,-1.971030235E-1,-4.323387146E-2,-6.089806557E-2
9.591631477E0,-2.088599205E-1,-1.496410370E-2,-6.389260292E-2
9.599625888E0,-2.225832939E-1,1.481056213E-3,-3.804445267E-2
9.607621915E0,-2.265887260E-1,-1.068115234E-3,-5.003595352E-2
9.615617327E0,-2.066850662E-1,-3.456020355E-2,-7.566189766E-2
9.623612815E0,-1.871273518E-1,-5.115795135E-2,-8.604431152E-2
9.631608765E0,-1.488931179E-1,-7.962131500E-2,-9.074139595E-2
9.639603638E0,-1.063344479E-1,-1.007556915E-1,-1.638295650E-1
9.647600280E0,-5.208873749E-2,-1.456212997E-1,-1.831474304E-1
9.655625538E0,1.169991493E-2,-1.351909637E-1,-2.087435722E-1
9.663621180E0,2.540421486E-2,-1.102514267E-1,-1.597466469E-1
9.671617592E0,2.071499825E-2,-6.366825104E-2,-8.958745003E-2
9.679612696E0,2.412343025E-2,9.215354919E-3,-4.199838638E-2
9.687609646E0,6.575345993E-3,9.397315979E-2,-3.125357628E-2
9.695604057E0,2.495527267E-2,1.498498917E-1,-1.882791519E-3
9.703630007E0,-2.199435234E-2,1.911582947E-1,-2.042913437E-2
9.711626265E0,1.757144928E-3,1.532468796E-1,-3.859734535E-2
9.719621061E0,1.667833328E-2,1.293973923E-1,-4.184150696E-2
9.727618396E0,2.044796944E-2,1.004762650E-1,-3.497505188E-2
9.735612269E0,2.989888191E-2,7.366943359E-2,-4.197907448E-2
9.743608527E0,4.748773575E-2,5.380058289E-2,-6.760287285E-2
9.751604554E0,3.536796570E-2,3.372478485E-2,-4.990649223E-2
9.759630196E0,7.265400887E-2,1.101303101E-2,-2.265048027E-2
9.767626838E0,8.514261246E-2,4.757881165E-3,-3.156566620E-2
9.775621249E0,1.158630848E-1,-6.607055664E-3,-7.235765457E-3
9.783616661E0,1.195318699E-1,5.621910095E-3,-9.818792343E-3
9.791613072E0,1.079151630E-1,5.455017090E-3,6.082057953E-3
9.799608407E0,5.983948708E-2,7.371902466E-3,9.400844574E-3
9.807604511E0,8.986949921E-3,1.860618591E-2,9.740114212E-3
9.815630923E0,-5.620217323E-2,5.744934082E-3,3.820586205E-2
9.823625488E0,-8.787322044E-2,2.330780029E-3,1.112222672E-2
9.831621746E0,-1.337511539E-1,3.630638123E-3,3.387665749E-2
9.839616542E0,-2.127521038E-1,9.762763977E-3,3.724908829E-2
9.847613876E0,-2.431797981E-1,3.280544281E-2,4.287481308E-2
9.855607980E0,-2.512471676E-1,2.244281769E-2,5.048847198E-2
9.863603391E0,-2.654123306E-1,7.544517517E-3,4.595780373E-2
9.871630880E0,-2.738380432E-1,6.961822510E-5,2.459168434E-2
9.879625368E0,-2.789039612E-1,-7.102966309E-3,5.775213242E-3
9.887622011E0,-2.660300732E-1,-3.068161011E-2,1.100778580E-2
9.895616422E0,-2.403194904E-1,-6.115436554E-2,2.122807503E-2
9.903611834E0,-2.329499722E-1,-8.420944214E-2,-4.412174225E-3
9.911608169E0,-2.104725838E-1,-9.984493256E-2,-2.273535728E-2
9.919603272E0,-2.370038033E-1,-1.199350357E-1,-1.715087891E-2
9.927631299E0,-2.264297009E-1,-1.134023666E-1,-6.925821304E-3
9.935625249E0,-2.220113277E-1,-8.034229279E-2,2.692723274E-2
9.943621199E0,-1.765265465E-1,-8.077144623E-2,2.700614929E-2
9.951616995E0,-2.306990623E-1,-6.434917450E-2,3.851056099E-2
9.959611791E0,-2.671461105E-1,-3.823947906E-2,6.622958183E-2
9.967608357E0,-2.810218334E-1,-3.831863403E-2,7.433676720E-2
9.975604076E0,-3.225119114E-1,-3.103160858E-2,7.248210907E-2
9.983629026E0,-3.273322582E-1,-1.161670685E-2,5.854368210E-2
9.991626669E0,-3.293297291E-1,-6.485939026E-3,6.130647659E-2
9.999621079E0,-3.050718307E-1,-3.488159180E-2,5.222082138E-2
1.000761811E1,-2.716889381E-1,-4.894161224E-2,4.114866257E-2
1.001561221E1,-2.318816185E-1,-4.873657227E-2,5.205082893E-2
1.002360739E1,-1.691374779E-1,-5.596160889E-2,6.784796715E-2
1.003160373E1,-1.361916065E-1,-3.238773346E-2,7.630372047E-2
1.003963022E1,-6.379485130E-2,-4.029941559E-2,1.014022827E-1
1.004762655E1,-1.187610626E-2,-3.423976898E-2,9.518003464E-2
1.005562158E1,1.282858849E-2,2.655029297E-3,6.239223480E-2
1.006361699E1,-2.977323532E-2,4.412174225E-2,6.975245476E-2
1.007161240E1,-2.704238892E-2,6.628131866E-2,6.710362434E-2
1.007960820E1,-3.416109085E-2,6.193828583E-2,5.213403702E-2
1.008760515E1,-5.817675591E-2,2.876663208E-2,4.650855064E-2
1.009562979E1,-7.273674011E-2,-2.061843872E-3,3.602981567E-2
1.010362520E1,-7.322287560E-2,-2.100086212E-2,6.144785881E-2
1.011162184E1,-9.308552742E-2,2.700138092E-2,4.601788521E-2
1.011961656E1,-8.916378021E-2,7.905960083E-3,6.164383888E-2
1.012761290E1,-6.163930893E-2,4.856872559E-2,7.005929947E-2
1.013560808E1,-5.601215363E-2,6.046009064E-2,2.359604836E-2
1.014360287E1,-1.949262619E-2,5.551910400E-2,5.806446075E-3
1.015163051E1,-4.641532898E-3,7.211971283E-2,-3.103518486E-2
1.015962531E1,-1.830506325E-2,7.682514191E-2,-3.187036514E-2
1.016762234E1,-1.712441444E-2,1.151733398E-1,-4.464840889E-2
1.017561652E1,-6.074070930E-2,1.106128693E-1,-7.651448250E-2
1.018361216E1,-5.332803726E-2,1.230630875E-1,-5.305504799E-2
1.019160850E1,-5.960607529E-2,1.333627701E-1,-2.450013161E-2
1.019960360E1,-8.133411407E-3,9.591197968E-2,9.089946747E-3
1.020763017E1,-6.958484650E-3,7.764244080E-2,-2.668142319E-3
1.021562527E1,-1.336073875E-2,8.561420441E-2,-4.833698273E-3
1.022362037E1,-1.298880577E-2,8.392524719E-2,-2.846288681E-2
1.023161701E1,3.265333176E-2,9.899997711E-2,-3.989768028E-2
1.023961212E1,6.590318680E-2,1.139831543E-1,-6.564807892E-2
1.024760907E1,1.105852127E-1,1.145238876E-1,-9.358000755E-2
1.025560348E1,1.522567272E-1,7.427597046E-2,-1.188764572E-1
1.026362904E1,1.574664116E-1,7.466983795E-2,-1.223509312E-1
1.027162546E1,1.527526379E-1,5.829048157E-2,-1.159670353E-1
1.027962056E1,1.714370251E-1,5.144882202E-2,-1.212317944E-1
1.028761682E1,1.610703468E-1,2.543067932E-2,-1.023302078E-1
1.029561161E1,1.619119644E-1,1.366901398E-2,-1.238524914E-1
1.030360772E1,1.691560745E-1,1.858234406E-2,-1.186575890E-1
1.031160367E1,1.633877754E-1,2.335929871E-2,-1.369740963E-1
1.031962931E1,1.495428085E-1,-6.132125854E-4,-1.808841228E-1
1.032762626E1,1.328225136E-1,-5.386352539E-3,-1.667201519E-1
1.033562036E1,1.467270851E-1,-7.727622986E-3,-1.782989502E-1
1.034361670E1,1.649827957E-1,6.677627563E-3,-1.512136459E-1
1.035161242E1,1.401226521E-1,2.347850800E-2,-1.552224159E-1
1.035960783E1,1.297016144E-1,3.785896301E-2,-1.378419399E-1
1.036760424E1,1.381795406E-1,4.973697662E-2,-1.278014183E-1
1.037563004E1,7.735371590E-2,4.484558105E-2,-1.322858334E-1
1.038362491E1,8.364129066E-2,2.319240570E-2,-1.440167427E-1
1.039162148E1,7.069420815E-2,3.500652313E-2,-1.223485470E-1
1.039961627E1,6.253194809E-2,3.004455566E-2,-1.294553280E-1
1.040761268E1,7.095766068E-2,8.248329163E-3,-1.031587124E-1
1.041560810E1,7.465386391E-2,-2.315807343E-2,-1.081688404E-1
1.042363420E1,8.057522774E-2,-4.745769501E-2,-9.893202782E-2
1.043162876E1,5.815410614E-2,-4.065322876E-2,-9.012842178E-2
1.043962479E1,5.276274681E-2,-3.624820709E-2,-9.835481644E-2
1.044762166E1,5.497574806E-2,-7.066726685E-4,-8.058595657E-2
1.045561615E1,5.059838295E-2,-1.014709473E-3,-7.989430428E-2
1.046361187E1,4.185485840E-2,1.781940460E-2,-4.851555824E-2
1.047160828E1,4.878997803E-3,1.275157928E-2,-4.857754707E-2
1.047963346E1,-8.585453033E-4,2.678966522E-2,-2.977609634E-2
1.048762988E1,-3.527832031E-2,3.844165802E-2,-4.211330414E-2
1.049562529E1,-4.829502106E-2,1.890182495E-2,-1.386690140E-2
1.050362062E1,-2.570605278E-2,1.362419128E-2,-1.444983482E-2
1.051161696E1,-3.641843796E-3,8.212089539E-3,-2.222728729E-2
1.051961244E1,1.570081711E-2,1.466369629E-2,-4.446792603E-2
1.052760809E1,2.984547615E-2,1.142978668E-2,-7.391977310E-2
1.053563342E1,3.914380074E-2,2.013969421E-2,-6.510519981E-2
1.054362883E1,3.903627396E-2,1.207828522E-2,-4.452157021E-2
1.055162632E1,2.006649971E-2,2.798748016E-2,-5.762958527E-2
1.055962050E1,-1.559305191E-2,2.471542358E-2,-4.695630074E-2
1.056761661E1,-2.261996269E-2,2.135276794E-2,-6.184577942E-4
1.057561171E1,-4.430079460E-2,3.462219238E-2,7.210969925E-3
1.058360712E1,-5.188226700E-2,5.255126953E-2,1.001977921E-2
1.059163422E1,-6.692242622E-2,5.843067169E-2,-8.752346039E-3
1.059962902E1,-5.119538307E-2,3.309154510E-2,8.388757706E-3
1.060762589E1,-4.067587852E-2,3.634452820E-2,3.019428253E-2
1.061562038E1,-5.662322044E-2,2.041053772E-2,2.328205109E-2
1.062361579E1,-4.642462730E-2,-3.805160522E-4,3.784608841E-2
1.063161244E1,-5.528950691E-2,-9.265899658E-3,3.532934189E-2
1.063960731E1,3.464221954E-4,-4.223346710E-2,4.440426826E-2
1.064763441E1,3.649926186E-2,-4.416751862E-2,4.628396034E-2
1.065562882E1,9.832453728E-2,-4.868888855E-2,8.879041672E-2
1.066362462E1,2.262067795E-1,-7.742309570E-2,1.144783497E-1
1.067162149E1,4.144439697E-1,-1.042261124E-1,1.498560905E-1
1.067961629E1,6.105251312E-1,-1.009397507E-1,2.188920975E-1
1.068761324E1,8.660778999E-1,-4.477787018E-2,3.614077568E-1
1.069560750E1,1.169216394E0,-9.581756592E-2,6.463842392E-1
1.070363360E1,1.544951439E0,-1.727066040E-1,9.151360989E-1
1.071162932E1,1.970042467E0,-3.293819427E-1,1.176551342E0
1.071962419E1,2.199080229E0,-4.504289627E-1,1.443767309E0
1.072762114E1,2.356500149E0,-6.089305878E-1,1.781251192E0
1.073561586E1,2.284231901E0,-7.420587540E-1,1.978401423E0
1.074361197E1,2.240656853E0,-8.986644745E-1,2.137909889E0
1.075160822E1,2.364611626E0,-1.106474876E0,2.123501301E0
1.076762928E1,2.826423407E0,-1.175992012E0,1.564579725E0
1.077562400E1,3.428269386E0,-1.447223663E0,1.568329334E0
1.078362041E1,3.908210039E0,-1.563093185E0,1.281967402E0
1.079161605E1,4.306748390E0,-1.641818047E0,1.382711649E0
1.079961208E1,4.508529186E0,-1.671922684E0,1.275174618E0
1.080760872E1,4.663392067E0,-1.804519653E0,1.327822447E0
1.081563367E1,4.592451572E0,-1.959156036E0,1.103523016E0
1.082362908E1,4.421986103E0,-2.063700676E0,9.575953484E-1
1.083162519E1,4.186955929E0,-2.101178169E0,8.526396751E-1
1.083962029E1,3.862377167E0,-2.085429192E0,7.639098167E-1
1.084761624E1,3.601584911E0,-1.985500336E0,6.208765507E-1
1.085561165E1,3.434660435E0,-1.975553989E0,5.014710426E-1
1.086360714E1,3.231355190E0,-1.953538418E0,3.443655968E-1
1.087163394E1,2.965647221E0,-1.981855392E0,2.798333168E-1
1.087962842E1,2.707777977E0,-1.959808350E0,2.296590805E-1
1.088762591E1,2.501648903E0,-2.011597157E0,1.780507565E-1
1.089562009E1,2.312169552E0,-2.072539330E0,1.394848824E-1
1.090361558E1,2.249679089E0,-2.193450928E0,1.043288708E-1
1.091161184E1,2.143289566E0,-2.354208469E0,1.067738533E-1
1.091960671E1,2.064666748E0,-2.483717918E0,1.565074921E-1
1.092763374E1,1.963893414E0,-2.611449242E0,1.450994015E-1
1.093562946E1,1.851902962E0,-2.765983582E0,1.338527203E-1
1.094362487E1,1.693944931E0,-2.923359394E0,1.145892143E-1
1.095162090E1,1.448169231E0,-2.992105007E0,7.479786873E-2
1.095961569E1,1.063054562E0,-2.950157166E0,-7.230138779E-2
1.096761241E1,7.067136765E-1,-2.870220184E0,-1.614158154E-1
1.097560721E1,3.986263275E-1,-2.732368946E0,-1.446089745E-1
1.098363339E1,2.085828781E-1,-2.659911156E0,-6.467270851E-2
1.099162942E1,-2.714824677E-2,-2.676408768E0,1.825642586E-2
1.099962452E1,-3.981146812E-1,-2.652318239E0,1.925041676E-1
1.100762139E1,-6.702365875E-1,-2.697433233E0,4.498453140E-1
1.101561565E1,-5.719871521E-1,-2.779769659E0,7.776799202E-1
1.102361191E1,-2.974729538E-1,-2.872862101E0,5.376555920E-1
1.103160794E1,-2.006330490E-1,-2.882827044E0,2.543237209E-1
1.103963296E1,-2.791357040E-1,-2.859250307E0,7.846689224E-2
1.104762930E1,-5.473318100E-1,-2.789927959E0,-7.808327675E-2
1.105562463E1,-7.430858612E-1,-2.587478876E0,-9.243798256E-2
1.106361981E1,-8.449392319E-1,-2.467382908E0,-1.345365047E-1
1.107161607E1,-8.767795563E-1,-2.241789103E0,-1.100606918E-1
1.107961064E1,-8.594198227E-1,-1.984312415E0,-1.202511787E-1
1.108760813E1,-6.117820740E-1,-1.906505585E0,2.260639668E-1
1.109563315E1,-1.169004440E-1,-1.830277681E0,2.531080246E-1
1.110362826E1,3.786764145E-1,-1.827155828E0,1.805365086E-1
1.111162490E1,7.796745300E-1,-1.875693083E0,8.736848831E-3
1.111962023E1,8.635015488E-1,-1.923833370E0,-3.536844254E-2
1.112761687E1,7.286691666E-1,-1.888662100E0,-2.762579918E-2
1.113561106E1,5.127162933E-1,-1.736432076E0,-5.318164825E-2
1.114360677E1,3.805141449E-1,-1.656348705E0,-1.014332771E-1
1.115163357E1,3.329505920E-1,-1.560123801E0,-2.470586300E-1
1.115962898E1,3.422403336E-1,-1.556518316E0,-3.576905727E-1
1.116762532E1,1.808052063E-1,-1.499054074E0,-4.735352993E-1
1.117562019E1,-2.571496964E-1,-1.380569339E0,-3.581705093E-1
1.118361522E1,-3.959064484E-1,-1.306347132E0,7.587671280E-2
1.119161247E1,-3.991241455E-1,-1.032237768E0,-4.034810066E-1
1.119960673E1,-3.604974747E-1,-7.762926221E-1,-5.543534756E-1
1.120763384E1,-1.522111893E-1,-5.475574732E-1,-6.323902607E-1
1.121562886E1,-1.218318939E-2,-3.879259825E-1,-6.305694580E-1
1.122362458E1,-4.370307922E-2,-3.031256199E-1,-6.395943165E-1
1.123162038E1,-2.704162598E-1,-2.207213640E-1,-5.564100742E-1
1.123961602E1,-6.683712006E-1,-1.817986965E-1,-6.520681381E-1
1.124761243E1,-1.332750320E0,-1.343874931E-1,-8.163843155E-1
1.125560715E1,-1.865198612E0,-5.228376389E-2,-9.713217020E-1
1.126363272E1,-2.429629803E0,-1.153998375E-1,-9.321259260E-1
1.127162882E1,-2.666319370E0,-1.863772869E-1,-8.294558525E-1
1.127962392E1,-2.746221066E0,-3.002502918E-1,-7.344291210E-1
1.128762049E1,-2.988438129E0,-3.804955482E-1,-5.855646133E-1
1.129561529E1,-3.217976570E0,-4.182345867E-1,-5.134756565E-1
1.130361131E1,-3.471104145E0,-3.689060211E-1,-4.763364792E-1
1.131160734E1,-3.667591572E0,-2.222089767E-1,-5.733780861E-1
1.131963298E1,-3.791455269E0,-8.963298798E-2,-5.299286842E-1
1.132762986E1,-3.928595543E0,2.411270142E-2,-6.022012234E-1
1.133562442E1,-4.055780411E0,7.755327225E-2,-5.387980938E-1
1.134361952E1,-4.110081673E0,8.434581757E-2,-4.092636108E-1
1.135161524E1,-4.071240425E0,1.310014725E-2,-3.835439682E-1
1.135961119E1,-4.036668777E0,-8.721303940E-2,-3.556184769E-1
1.136760822E1,-4.020657063E0,-1.503257751E-1,-3.019740582E-1
1.137563286E1,-4.009149075E0,-1.885657310E-1,-3.662602901E-1
1.138362797E1,-4.187191010E0,-2.497248650E-1,-1.844027042E-1
1.139162453E1,-4.441165924E0,-3.115615845E-1,-1.271715164E-1
1.139961971E1,-4.644306183E0,-3.481626511E-1,-8.006429672E-2
1.140761635E1,-4.632957458E0,-3.629045486E-1,-2.022790909E-1
1.141561015E1,-4.548177719E0,-3.685288429E-1,-1.304337978E-1
1.142363664E1,-4.470781326E0,-3.375806808E-1,-1.110024452E-1
1.143163267E1,-4.352877617E0,-3.326458931E-1,-1.780161858E-1
1.143962900E1,-4.287802696E0,-2.559661865E-1,-2.838292122E-1
1.144762595E1,-4.129591942E0,-2.726020813E-1,-1.209287643E-1
1.145561898E1,-3.964089870E0,-3.236684799E-1,5.542612076E-2
1.146361524E1,-3.830611229E0,-3.180384636E-1,2.873153687E-1
1.147161103E1,-3.693508625E0,-3.663287163E-1,4.227650166E-1
1.147963683E1,-3.548303604E0,-3.469324112E-1,6.260278225E-1
1.148763355E1,-3.455391884E0,-3.106293678E-1,7.818477154E-1
1.149562834E1,-3.395339966E0,-2.823371887E-1,8.342444897E-1
1.150362406E1,-3.322911739E0,-1.641917229E-1,7.744529247E-1
1.151162001E1,-3.213633537E0,-1.052808762E-1,7.605769634E-1
1.151961519E1,-3.108282328E0,-2.664089203E-3,7.252547741E-1
1.152761091E1,-3.066227913E0,7.661342621E-2,6.334528923E-1
1.153560632E1,-3.070196629E0,1.519098282E-1,5.692238808E-1
1.154363274E1,-3.019489765E0,1.660294533E-1,5.957992077E-1
1.155162938E1,-2.971364975E0,1.643962860E-1,6.839420795E-1
1.155962417E1,-2.935243607E0,2.113938332E-1,8.338906765E-1
1.156762082E1,-2.856338024E0,2.422800064E-1,9.170737267E-1
1.157561538E1,-2.679787397E0,3.284554482E-1,1.018762112E0
1.158361079E1,-2.500880480E0,3.949089050E-1,9.940958023E-1
1.159163782E1,-2.122557878E0,4.026308060E-1,1.063781261E0
1.159963262E1,-1.697451115E0,3.535699844E-1,1.192245722E0
1.160762957E1,-1.548381090E0,2.852978706E-1,1.288894653E0
1.161562352E1,-1.776669741E0,2.229928970E-1,1.357612133E0
1.162361947E1,-2.019380569E0,1.622624397E-1,1.462427616E0
1.163161526E1,-2.132270098E0,1.263813972E-1,1.557140589E0
1.163961037E1,-2.063812017E0,1.043300629E-1,1.524616003E0
1.164763870E1,-1.951049089E0,1.057634354E-1,1.349568129E0
1.165563280E1,-1.878752947E0,1.640176773E-1,1.108824253E0
1.166362829E1,-1.808239698E0,2.519626617E-1,9.168453217E-1
1.167162432E1,-1.832273006E0,4.402036667E-1,6.852414608E-1
1.167961935E1,-1.936224937E0,5.963830948E-1,5.736510754E-1
1.168761607E1,-2.166123390E0,6.366815567E-1,5.806231499E-1
1.169561086E1,-2.370408773E0,5.381345749E-1,7.131123543E-1
1.170363666E1,-2.396717072E0,3.261871338E-1,8.107914925E-1
1.171163338E1,-2.315230370E0,1.003551483E-2,8.864986897E-1
1.171962817E1,-2.097334862E0,-2.158002853E-1,8.854768276E-1
1.172762451E1,-1.780482650E0,-3.870000839E-1,8.675315380E-1
1.173561984E1,-1.460569382E0,-4.466776848E-1,7.205250263E-1
1.174361472E1,-1.119949341E0,-4.526429176E-1,5.775871277E-1
1.175161097E1,-7.598512173E-1,-4.102306366E-1,4.166357517E-1
1.175963654E1,-4.680833817E-1,-3.203544617E-1,1.522727013E-1
1.176763357E1,-2.128825188E-1,-2.171640396E-1,-9.539818764E-2
1.177562806E1,-1.028783321E-1,-1.134376526E-1,-3.142864704E-1
1.178362377E1,-1.550238132E-1,-2.679824829E-4,-3.973059654E-1
1.179162003E1,-2.956278324E-1,1.072769165E-1,-3.949258327E-1
1.179961521E1,-4.066581726E-1,1.895542145E-1,-4.360656738E-1
1.180761147E1,-4.575650692E-1,1.846847534E-1,-4.971404076E-1
1.181563611E1,-3.109352589E-1,1.100282669E-1,-5.304324627E-1
1.182363275E1,1.165413857E-2,-4.550743103E-2,-5.574572086E-1
1.183162909E1,2.864243984E-1,-1.326475143E-1,-5.241045952E-1
1.183962296E1,3.621554375E-1,-1.512346268E-1,-5.305383205E-1
1.184762091E1,3.701014519E-1,-3.824520111E-2,-5.193557739E-1
1.185561448E1,3.750448227E-1,9.799385071E-2,-4.338765144E-1
1.186361012E1,3.156642914E-1,2.289161682E-1,-2.752208710E-1
1.187163661E1,5.720138550E-2,2.378244400E-1,-7.486438751E-2
1.187963210E1,-2.654721737E-1,1.327009201E-1,1.552290916E-1
1.188762812E1,-6.297633648E-1,-4.833698273E-2,2.586128712E-1
1.189562354E1,-8.901338577E-1,-2.056694031E-1,2.306439877E-1
1.190361918E1,-1.007136106E0,-2.848443985E-1,1.508333683E-1
1.191161551E1,-9.392437935E-1,-3.044109344E-1,1.556768417E-1
1.191961000E1,-7.513637543E-1,-2.612543106E-1,1.667294502E-1
1.192763780E1,-5.670166016E-1,-1.098737717E-1,1.132292747E-1
1.193563221E1,-4.369044304E-1,-1.038551331E-2,1.504552364E-1
1.194362762E1,-4.153809547E-1,4.415988922E-2,2.256741524E-1
1.195162426E1,-3.434624672E-1,5.148887634E-2,1.936097145E-1
1.195961852E1,-2.372672558E-1,-3.570270538E-2,2.481870651E-1
1.196761601E1,-1.219797134E-1,-9.759235382E-2,2.630929947E-1
1.197561027E1,4.961252213E-3,-1.559076309E-1,2.696523666E-1
1.198363668E1,7.784891129E-2,-2.323169708E-1,3.078327179E-1
1.199163340E1,1.674361229E-1,-2.479448318E-1,3.482203484E-1
1.199962781E1,3.055839539E-1,-2.317428589E-1,3.189363480E-1
1.200762453E1,4.066264629E-1,-1.816854477E-1,2.060203552E-1
1.201561902E1,5.139918327E-1,-7.864665985E-2,1.266126633E-1
1.202361496E1,5.037500858E-1,2.692699432E-2,5.672025681E-2
1.203161038E1,4.777209759E-1,1.057281494E-1,-1.051807404E-2
1.203963564E1,4.191577435E-1,1.243019104E-1,-3.455066681E-2
1.204763351E1,3.366272449E-1,1.496105194E-1,5.812644958E-4
1.205562800E1,1.217556000E-1,1.548938751E-1,9.692716599E-2
1.206362341E1,-1.026914120E-1,1.758241653E-1,9.415674210E-2
1.207161920E1,-2.403645515E-1,1.625308990E-1,1.148166656E-1
1.207961454E1,-3.269913197E-1,1.561422348E-1,1.930856705E-1
1.208761157E1,-4.167215824E-1,1.183795929E-1,1.910395622E-1
1.209563590E1,-4.743609428E-1,3.749179840E-2,1.972732544E-1
1.210363131E1,-4.582579136E-1,-3.635215759E-2,2.017903328E-1
1.211162880E1,-4.132094383E-1,-6.737232208E-2,2.043890953E-1
1.211962360E1,-3.392117023E-1,-7.945728302E-2,1.834135056E-1
1.212762024E1,-2.699480057E-1,-9.399509430E-2,1.601920128E-1
1.213561450E1,-2.079732418E-1,-1.013879776E-1,1.300010681E-1
1.214361022E1,-2.200093269E-1,-8.745098114E-2,5.468845367E-2
1.215163694E1,-1.907534599E-1,-1.876163483E-2,1.800680161E-2
1.215963181E1,-2.370731831E-1,4.463768005E-2,-3.502035141E-2
1.216762899E1,-2.985520363E-1,6.685352325E-2,-5.687761307E-2
1.217562317E1,-3.395357132E-1,4.309844971E-2,-1.407604218E-1
1.218361866E1,-4.459578991E-1,2.834606171E-2,-1.788902283E-1
1.219161553E1,-5.431625843E-1,3.888893127E-2,-2.232499123E-1
1.219961033E1,-5.784516335E-1,1.056241989E-1,-2.422432899E-1
1.220763743E1,-5.879859924E-1,1.805791855E-1,-2.163596153E-1
1.221563223E1,-5.724349022E-1,2.375087738E-1,-1.884446144E-1
1.222362710E1,-5.090677738E-1,2.504100800E-1,-1.967525482E-1
1.223162366E1,-4.161782265E-1,2.036151886E-1,-1.539831161E-1
1.223961908E1,-3.499960899E-1,9.073352814E-2,-1.592574120E-1
1.224761457E1,-2.659025192E-1,-1.813125610E-2,-1.440472603E-1
1.225561021E1,-2.665100098E-1,-1.442632675E-1,-9.476566315E-2
1.226363608E1,-2.886869907E-1,-2.399415970E-1,-5.470705032E-2
1.227163242E1,-3.433208466E-1,-2.697277069E-1,-3.791570663E-2
1.227962690E1,-2.940499783E-1,-2.457571030E-1,-2.963876724E-2
1.228762424E1,-2.035598755E-1,-1.538915634E-1,-2.440214157E-2
1.229561834E1,-1.456460953E-1,-3.285408020E-2,7.109165192E-3
1.230361445E1,-9.831452370E-2,6.907653809E-2,-2.794313431E-2
1.231161109E1,-5.879974365E-2,1.304874420E-1,1.601076126E-2
1.231963604E1,-2.689623833E-2,1.227226257E-1,5.492305756E-2
1.232763299E1,6.899595261E-3,4.829788208E-2,1.053414345E-1
1.233562771E1,-9.809494019E-3,-4.015541077E-2,1.408715248E-1
1.234362220E1,-8.139991760E-2,-1.356287003E-1,2.071290016E-1
1.235161953E1,-1.550972462E-1,-1.976766586E-1,2.590723038E-1
1.235961433E1,-2.286651134E-1,-2.238578796E-1,2.440261841E-1
1.236761005E1,-2.806532383E-1,-1.997365952E-1,2.409071922E-1
1.237563646E1,-2.969329357E-1,-1.277313232E-1,2.570743561E-1
1.238363102E1,-2.564392090E-1,-4.874134064E-2,2.069654465E-1
1.239162797E1,-1.509363651E-1,3.440856934E-3,8.940792084E-2
1.239962308E1,-7.629871368E-3,5.054473877E-5,-3.044605255E-2
1.240761964E1,1.709938049E-1,3.547668457E-3,-1.242341995E-1
1.241561536E1,2.403471470E-1,9.233474731E-3,-1.785206795E-1
1.242361016E1,2.214686871E-1,5.553817749E-2,-1.825413704E-1
1.243163672E1,1.681070328E-1,3.951263428E-2,-1.392660141E-1
1.243963175E1,8.977508545E-2,1.389408112E-2,-8.709096909E-2
1.244762816E1,-5.215859413E-2,-4.515457153E-2,-3.084278107E-2
1.245562296E1,-1.481673717E-1,-1.089124680E-1,5.854129791E-2
1.246361891E1,-1.963126659E-1,-1.750812531E-1,1.024813652E-1
1.247161470E1,-2.326786518E-1,-1.645708084E-1,1.032981873E-1
1.247964027E1,-2.764759064E-1,-7.977390289E-2,7.299661636E-2
1.248763806E1,-2.891960144E-1,3.374576569E-2,2.358341217E-2
1.249563194E1,-2.495431900E-1,1.163234711E-1,5.096435547E-3
1.250362766E1,-2.005009651E-1,1.798992157E-1,-1.618862152E-3
1.251162284E1,-1.208136082E-1,2.270326614E-1,1.525115967E-2
1.251961825E1,-3.965520859E-2,1.813945770E-1,8.890199661E-2
1.252761489E1,-1.427769661E-2,1.100454330E-1,1.497492790E-1
1.253564038E1,7.732892036E-2,3.225612640E-2,2.143898010E-1
1.254363556E1,1.467006207E-1,-2.603149414E-2,2.356338501E-1
1.255163220E1,1.751437187E-1,-5.072212219E-2,2.520732880E-1
1.255962754E1,1.870329380E-1,3.450489044E-2,2.496805191E-1
1.256762418E1,1.612470150E-1,1.409654617E-1,2.356014252E-1
1.257561844E1,2.054305077E-1,2.087240219E-1,1.956696510E-1
1.258361439E1,2.621467113E-1,1.851987839E-1,1.536374092E-1
1.259164057E1,2.668595314E-1,1.613140106E-1,1.239209175E-1
1.259963606E1,2.195620537E-1,1.156187057E-1,8.717489243E-2
1.260763231E1,1.731762886E-1,5.771827698E-2,8.392190933E-2
1.261562750E1,9.652805328E-2,-2.184581757E-2,8.522748947E-2
1.262362198E1,4.207348824E-2,-1.254949570E-1,8.646965027E-2
1.263161893E1,-4.548311234E-2,-1.647815704E-1,6.887960434E-2
1.263961404E1,-6.595301628E-2,-2.306127548E-1,5.405426025E-2
1.264764176E1,-7.231187820E-2,-2.009544373E-1,1.355648041E-2
1.265563594E1,-7.384228706E-2,-1.502113342E-1,-5.720615387E-2
1.266363135E1,-6.114244461E-2,-9.025764465E-2,-9.608173370E-2
1.267162738E1,-1.758718491E-2,-2.807331085E-2,-1.033806801E-1
1.267962279E1,3.515195847E-2,2.920150757E-3,-9.359216690E-2
1.268761974E1,7.081747055E-2,-3.314971924E-2,-9.316444397E-2
1.269561415E1,1.182727814E-1,-5.485153198E-2,-6.152391434E-2
1.270364041E1,1.036005020E-1,-1.030063629E-1,-4.409027100E-2
1.271163697E1,8.212614059E-2,-1.297769547E-1,-2.654647827E-2
1.271963115E1,2.522015572E-2,-1.494884491E-1,5.346298218E-3
1.272762787E1,-2.182388306E-2,-1.190528870E-1,1.818466187E-2
1.273562267E1,-7.821559906E-2,-8.886909485E-2,1.941299438E-2
1.274361839E1,-1.512794495E-1,-4.457473755E-2,-2.201652527E-2
1.275161464E1,-2.150969505E-1,1.880455017E-2,-3.201675415E-2
1.275963998E1,-2.075581551E-1,2.007770538E-2,-3.486013412E-2
1.276763654E1,-1.766498089E-1,2.393817902E-2,-7.607746124E-2
1.277563196E1,-8.436417580E-2,3.049182892E-2,-4.797554016E-2
1.278362714E1,-5.026054382E-2,3.247737885E-2,-5.582904816E-2
1.279162378E1,1.459121704E-4,3.543853760E-3,-1.355171204E-2
1.279961819E1,4.557347298E-2,5.881309509E-3,3.573083878E-2
1.280761460E1,4.050970078E-2,1.078701019E-2,8.000421524E-2
1.281564040E1,4.448890686E-3,1.326274872E-2,1.266746521E-1
1.282363581E1,-1.963233948E-2,8.631706238E-3,1.348929405E-1
1.283163122E1,-2.446532249E-2,1.362037659E-2,1.286158562E-1
1.283962694E1,-6.061291695E-2,1.139354706E-2,1.248965263E-1
1.284762358E1,-7.281041145E-2,3.075981140E-2,1.139059067E-1
1.285561900E1,-8.260107040E-2,6.454944611E-2,7.407045364E-2
1.286361356E1,-4.051208496E-3,8.171749115E-2,4.367876053E-2
1.287164066E1,8.376598358E-2,7.497024536E-2,2.058601379E-2
1.287963515E1,1.669287682E-1,4.429626465E-2,4.575729370E-3
1.288763203E1,2.007133961E-1,-2.228355408E-2,-4.740238190E-3
1.289562721E1,1.803731918E-1,-5.773067474E-2,-7.389068604E-3
1.290362139E1,1.655323505E-1,-4.282379150E-2,2.534914017E-2
1.291161826E1,5.572795868E-2,-1.597595215E-2,5.292558670E-2
1.291961336E1,-3.906631470E-2,1.793956757E-2,8.277416229E-2
1.292764108E1,-1.287539005E-1,7.562637329E-2,7.686758041E-2
1.293563596E1,-1.658060551E-1,1.140604019E-1,9.511184692E-2
1.294363106E1,-1.576614380E-1,1.453351974E-1,7.994937897E-2
1.295162770E1,-1.782779694E-1,1.381597519E-1,8.422994614E-2
1.295962273E1,-1.868145466E-1,1.356716156E-1,6.949090958E-2
1.296761853E1,-1.403264999E-1,9.966564178E-2,6.674289703E-2
1.297561355E1,-1.226534843E-1,6.847667694E-2,3.525876999E-2
1.298364004E1,-6.226801872E-2,3.843307495E-3,-9.560585022E-4
1.299163615E1,-2.455711365E-5,-1.285362244E-2,-1.304340363E-2
1.299963086E1,2.382946014E-2,-2.237701416E-2,-1.788425446E-2
1.300762697E1,5.030274391E-2,-2.007865906E-2,-5.608463287E-2
1.301562269E1,4.342079163E-2,-3.475189209E-3,-4.876470566E-2
1.302361810E1,-3.503084183E-2,-1.077938080E-2,-2.967548370E-2
1.303161474E1,-1.012818813E-1,-2.769756317E-2,-2.739524841E-2
1.303963961E1,-1.842594147E-1,-4.927635193E-2,8.141994476E-3
1.304763695E1,-1.883335114E-1,-3.003597260E-2,1.957225800E-2
1.305563174E1,-1.901102066E-1,2.039241791E-2,8.360385895E-2
1.306362677E1,-1.562008858E-1,-9.765625000E-4,7.347869873E-2
1.307162288E1,-9.409880638E-2,1.601791382E-2,3.480148315E-2
1.307961821E1,5.606889725E-3,3.779125214E-2,2.045536041E-2
1.308761455E1,7.099342346E-2,5.245780945E-2,1.603126526E-3
1.309564019E1,1.072387695E-1,5.511569977E-2,-7.382869720E-3
1.310363552E1,1.005814075E-1,6.005668640E-2,2.444314957E-2
1.311163132E1,8.482551575E-2,3.857421875E-2,1.787328720E-2
1.311962642E1,6.950950623E-2,1.214790344E-2,-1.018047333E-2
1.312762360E1,4.250073433E-2,4.838943481E-3,-2.155256271E-2
1.313561817E1,-3.479266167E-2,2.329826355E-3,-1.857805252E-2
1.314361381E1,-7.844233513E-2,3.812026978E-2,-2.762985229E-2
1.315163999E1,-5.534720421E-2,2.373123169E-2,-3.431653976E-2
1.315963540E1,1.057624817E-2,2.375221252E-2,-4.812622070E-2
1.316763181E1,2.355623245E-2,5.016517639E-2,-1.880311966E-2
1.317562661E1,2.974748611E-3,5.974864960E-2,-3.690719604E-3
1.318362202E1,-2.968311310E-2,5.259323120E-2,1.623058319E-2
1.319161766E1,1.643133163E-2,1.921272278E-2,6.240034103E-2
1.319961338E1,7.404088974E-2,-1.888275146E-2,7.756328583E-2
1.320764087E1,9.826397896E-2,-4.023933411E-2,5.917453766E-2
1.321563528E1,1.349539757E-1,-4.007244110E-2,5.253839493E-2
1.322363131E1,1.195738316E-1,-2.550029755E-2,4.071760178E-2
1.323162741E1,7.105326653E-2,3.429412842E-3,7.180356979E-2
1.323962221E1,1.222133636E-3,-1.117706299E-3,7.873916626E-2
1.324761847E1,-5.643987656E-2,-9.031295776E-4,8.322811127E-2
1.325561357E1,-4.956793785E-2,-2.689552307E-2,7.315969467E-2
1.326363975E1,-5.976510048E-2,-4.939079285E-3,5.834770203E-2
1.327163555E1,-6.552314758E-2,6.248855591E-2,3.897190094E-2
1.327963119E1,-3.095960617E-2,9.639739990E-2,4.613208771E-2
1.328762753E1,3.301143646E-3,1.446609497E-1,5.826807022E-2
1.329562209E1,8.861303329E-3,1.808862686E-1,8.967065811E-2
1.330361712E1,-7.127285004E-3,1.859560013E-1,8.761024475E-2
1.331161468E1,-3.912687302E-3,1.313076019E-1,5.174922943E-2
1.331964002E1,9.034156799E-3,8.394050598E-2,2.758455276E-2
1.332763658E1,7.938098907E-2,3.430271149E-2,1.758193970E-2
1.333563046E1,1.519665718E-1,-3.225326538E-3,5.006790161E-3
1.334362625E1,2.006297112E-1,-2.624893188E-2,-1.263093948E-2
1.335162320E1,2.084145546E-1,2.269649506E-2,-3.762817383E-2
1.335961769E1,1.991543770E-1,5.751419067E-2,-3.897714615E-2
1.336761426E1,1.513750553E-1,9.730243683E-2,-1.182937622E-2
1.337564013E1,9.389257431E-2,7.981109619E-2,3.419780731E-2
1.338363492E1,4.848647118E-2,3.613471985E-2,3.439617157E-2
1.339163134E1,3.660559654E-2,-5.005836487E-3,5.347776413E-2
1.339962636E1,6.798219681E-2,-4.131507874E-2,6.281280518E-2
1.340762362E1,1.046090126E-1,-4.659366608E-2,7.448053360E-2
1.341561750E1,7.476711273E-2,-3.287029266E-2,1.052784920E-1
1.342361329E1,2.659511566E-2,-1.216125488E-2,8.333826065E-2
1.343164032E1,-3.741693497E-2,-1.567935944E-2,6.622791290E-2
1.343963542E1,-6.750464439E-2,-2.426052094E-2,4.942035675E-2
1.344763122E1,-1.333203316E-1,-7.606792450E-2,9.740066528E-2
1.345562686E1,-1.727926731E-1,-1.207780838E-1,1.431522369E-1
1.346362227E1,-1.904883385E-1,-1.823291779E-1,1.649899483E-1
1.347161868E1,-1.934709549E-1,-2.222576141E-1,2.295994759E-1
1.347964386E1,-2.200081348E-1,-1.784276962E-1,2.102789879E-1
1.348764058E1,-2.985670567E-1,-7.967185974E-2,2.076330185E-1
1.349563476E1,-3.096544743E-1,-4.578590393E-2,1.716680527E-1
1.350363079E1,-4.130079746E-1,4.499626160E-2,6.195688248E-2
1.351162674E1,-4.387121201E-1,8.524036407E-2,5.514097214E-2
1.351962223E1,-5.578504801E-1,1.276712418E-1,8.578824997E-2
1.352761849E1,-7.341412306E-1,8.602237701E-2,2.076697350E-1
1.353564374E1,-8.485653400E-1,2.292156219E-2,3.594865799E-1
1.354363893E1,-9.532595873E-1,-1.141166687E-1,4.221644402E-1
1.355163557E1,-1.022574067E0,-2.122526169E-1,4.960370064E-1
1.355963067E1,-1.006585002E0,-2.595148087E-1,5.094566345E-1
1.356762662E1,-9.118052721E-1,-3.370532990E-1,4.556369781E-1
1.357562265E1,-8.486785889E-1,-3.591251373E-1,3.427376747E-1
1.358361721E1,-7.395759821E-1,-4.169964790E-1,2.270288467E-1
1.359164432E1,-6.357446909E-1,-4.723801613E-1,1.090159416E-1
1.359963911E1,-5.428607464E-1,-5.343999863E-1,6.492328644E-2
1.360763606E1,-5.397882462E-1,-6.050372124E-1,8.197498322E-2
1.361563024E1,-6.005675793E-1,-7.082548141E-1,1.101770401E-1
1.362362619E1,-6.887111664E-1,-8.561959267E-1,5.032825470E-2
1.363162191E1,-7.186672688E-1,-9.009599686E-1,-1.247944832E-1
1.363961763E1,-5.175540447E-1,-9.362339973E-1,-4.636187553E-1
1.364764443E1,-1.956346035E-1,-8.562936783E-1,-6.575169563E-1
1.365563892E1,1.540625095E-1,-5.818133354E-1,-7.488405704E-1
1.366363494E1,3.619914055E-1,-3.903903961E-1,-5.571169853E-1
1.367163128E1,2.610316277E-1,-2.802352905E-1,-3.292465210E-1
1.367962584E1,-1.147556305E-1,-2.422342300E-1,-1.306772232E-1
1.368762241E1,-4.882340431E-1,-3.384270668E-1,1.094818115E-3
1.369561751E1,-7.619960308E-1,-4.726467133E-1,5.852603912E-2
1.370364369E1,-8.153975010E-1,-5.869088173E-1,8.463001251E-2
1.371163918E1,-7.092680931E-1,-6.401591301E-1,9.377908707E-2
1.371963482E1,-6.093299389E-1,-7.135567665E-1,6.677818298E-2
1.372763154E1,-5.272850990E-1,-8.070416451E-1,4.168319702E-2
1.373562572E1,-4.520754814E-1,-9.179701805E-1,-5.303812027E-2
1.374362175E1,-4.222645760E-1,-1.038902283E0,-5.955886841E-2
1.375161770E1,-4.640274048E-1,-1.257869720E0,-6.314706802E-2
1.375964296E1,-5.553450584E-1,-1.449881077E0,-7.237434387E-2
1.376763999E1,-6.930437088E-1,-1.602662086E0,-8.108949661E-2
1.377563478E1,-8.152384758E-1,-1.730217457E0,-1.892461777E-1
1.378362989E1,-9.086377621E-1,-1.779390812E0,-2.504227161E-1
1.379162676E1,-9.719612598E-1,-1.807406425E0,-2.922496796E-1
1.379962156E1,-9.309098721E-1,-1.845424175E0,-3.332517147E-1
1.380761850E1,-8.331451416E-1,-1.836135864E0,-4.468798637E-1
1.381564438E1,-7.046706676E-1,-1.937677383E0,-5.200042725E-1
1.382363948E1,-4.887681007E-1,-2.030696869E0,-5.219378471E-1
1.383163589E1,-2.899169922E-1,-2.237538815E0,-5.651729107E-1
1.383962969E1,-8.604717255E-2,-2.380959988E0,-6.069242954E-1
1.384762672E1,2.221493721E-1,-2.489601135E0,-6.987268925E-1
1.385562151E1,5.022916794E-1,-2.508668900E0,-7.774066925E-1
1.386361723E1,6.003637314E-1,-2.459033489E0,-7.474417686E-1
1.387164434E1,6.916880608E-1,-2.367126942E0,-7.433125973E-1
1.387963852E1,5.946907997E-1,-2.235451221E0,-7.796206474E-1
1.388763670E1,4.462575912E-1,-2.131511688E0,-8.056492805E-1
1.389563088E1,2.080793381E-1,-2.064965248E0,-9.121546745E-1
1.390362629E1,-4.878759384E-2,-1.980289936E0,-1.062815189E0
1.391162201E1,-3.743486404E-1,-1.891848087E0,-1.253110886E0
1.391961711E1,-6.834907532E-1,-1.767256260E0,-1.392556787E0
1.392764453E1,-9.240937233E-1,-1.660552979E0,-1.510567665E0
1.393563955E1,-9.982213974E-1,-1.599650383E0,-1.543145418E0
1.394363435E1,-1.121139050E0,-1.620523453E0,-1.384455323E0
1.395163076E1,-1.307758331E0,-1.725300312E0,-1.224623680E0
1.395962640E1,-1.374218941E0,-1.827659607E0,-1.145663500E0
1.396762251E1,-1.302683353E0,-2.027107716E0,-9.042553902E-1
1.397561730E1,-1.184568882E0,-2.144396782E0,-7.540104389E-1
1.398364348E1,-9.405746460E-1,-2.232968569E0,-6.044516563E-1
1.399163943E1,-6.924328804E-1,-2.293523788E0,-5.689883232E-1
1.399963423E1,-4.174933434E-1,-2.305091381E0,-6.123034954E-1
1.400763126E1,-1.557478905E-1,-2.246152163E0,-8.550164700E-1
1.401562659E1,-1.125826836E-1,-2.211362123E0,-1.012503028E0
1.402362115E1,-9.163665771E-2,-2.136874676E0,-1.197059989E0
1.403161811E1,-1.641130447E-1,-2.018798828E0,-1.382068038E0
1.403964244E1,-1.373853683E-1,-1.997746229E0,-1.739543676E0
1.404763962E1,1.600236893E-1,-2.014010668E0,-1.802262187E0
1.405563442E1,1.984710693E-1,-2.019810200E0,-1.676391363E0
1.406362929E1,2.094306946E-1,-2.176126957E0,-1.502122998E0
1.407162562E1,3.046646118E-1,-2.281793356E0,-1.350931883E0
1.407962127E1,4.509277344E-1,-2.485360146E0,-1.039955735E0
1.408761799E1,5.686111450E-1,-2.605623007E0,-8.438731432E-1
1.409564324E1,5.162954330E-1,-2.557378292E0,-7.249906063E-1
1.410363865E1,4.568843842E-1,-2.455769062E0,-7.793852091E-1
1.411163468E1,4.378452301E-1,-2.270351410E0,-8.785774708E-1
1.411962940E1,5.326871872E-1,-2.188580513E0,-1.104745150E0
1.412762643E1,6.125068665E-1,-2.132608414E0,-1.209282994E0
1.413562122E1,6.087522507E-1,-2.193511009E0,-1.245555282E0
1.414361664E1,4.789915085E-1,-2.281729460E0,-1.231910348E0
1.415164366E1,2.484636307E-1,-2.318318367E0,-1.258182764E0
1.415963854E1,2.357387543E-2,-2.381366491E0,-1.271383762E0
1.416763549E1,-1.233510971E-1,-2.349115372E0,-1.217679501E0
1.417563051E1,-3.592205048E-1,-2.281678677E0,-1.128044248E0
1.418362531E1,-4.514665604E-1,-2.177793264E0,-9.529407024E-1
1.419162195E1,-3.502025604E-1,-2.025830269E0,-7.944289446E-1
1.419961736E1,-9.658050537E-2,-1.977922678E0,-5.711591244E-1
1.420764354E1,8.910560608E-2,-1.917530060E0,-4.206787348E-1
1.421563903E1,4.080486298E-1,-1.985816717E0,-3.062825203E-1
1.422363352E1,6.664285660E-1,-2.082471848E0,-3.516846895E-1
1.423163109E1,7.665739059E-1,-2.120495796E0,-4.361205101E-1
1.423962527E1,6.907329559E-1,-2.221496582E0,-4.847685099E-1
1.424762160E1,5.872755051E-1,-2.240505457E0,-4.922480583E-1
1.425561694E1,4.628419876E-1,-2.231810093E0,-5.578922033E-1
1.426364227E1,2.764024734E-1,-2.107423306E0,-5.012379885E-1
1.427163922E1,7.316875458E-2,-1.968824267E0,-4.812327623E-1
1.427963402E1,-8.722209930E-2,-1.821790934E0,-4.862607718E-1
1.428763127E1,-2.095689774E-1,-1.701369762E0,-3.954448700E-1
1.429562576E1,-1.986465454E-1,-1.717839003E0,-2.140781879E-1
1.430362179E1,1.195335388E-2,-1.738354683E0,-1.689530611E-1
1.431161805E1,2.844476700E-1,-1.873111486E0,-9.356093407E-2
1.431964246E1,5.431890488E-1,-2.035398960E0,-1.500356197E-2
1.432763964E1,5.717611313E-1,-2.067889929E0,-6.882190704E-3
1.433563420E1,4.969263077E-1,-2.137365103E0,-3.376662731E-2
1.434362923E1,3.816213608E-1,-2.090937138E0,4.910981655E-2
1.435162710E1,3.313121796E-1,-2.062569618E0,1.487760544E-1
1.435962098E1,4.282283783E-1,-1.959647655E0,1.918569803E-1
1.436761770E1,8.139419556E-1,-1.905918121E0,2.784292698E-1
1.437564226E1,1.196040154E0,-1.896949291E0,1.762918234E-1
1.438363806E1,1.382428169E0,-1.883161068E0,1.584720612E-1
1.439163470E1,1.217165947E0,-1.830718994E0,1.043581963E-1
1.439962980E1,1.033904076E0,-1.738095760E0,2.005418539E-1
1.440762706E1,1.081393719E0,-1.773452282E0,2.954951525E-1
1.441562094E1,1.428739071E0,-1.884700298E0,2.928601503E-1
1.442361658E1,1.724442482E0,-1.911131382E0,2.681587934E-1
1.443164314E1,1.765491962E0,-1.885487080E0,3.545784950E-1
1.443963794E1,1.735397816E0,-1.798392773E0,3.159340620E-1
1.444763551E1,1.684847832E0,-1.720497131E0,2.601624727E-1
1.445562999E1,1.681566238E0,-1.621896267E0,1.701180935E-1
1.446362510E1,1.550816059E0,-1.490216255E0,9.852242470E-2
1.447162143E1,1.327074528E0,-1.288279533E0,6.660532951E-2
1.447964661E1,1.095044613E0,-1.129683018E0,1.084797382E-1
1.448764333E1,8.913145065E-1,-9.943156242E-1,1.864969730E-1
1.449563844E1,8.401193619E-1,-8.773536682E-1,2.394015789E-1
1.450363408E1,8.209619522E-1,-8.437266350E-1,2.567372322E-1
1.451163080E1,8.067765236E-1,-8.337383270E-1,2.447657585E-1
1.451962521E1,7.336440086E-1,-7.791771889E-1,2.375767231E-1
1.452762224E1,6.044101715E-1,-6.960802078E-1,3.000993729E-1
1.453564718E1,5.320496559E-1,-6.201009750E-1,4.050340652E-1
1.454364283E1,5.579662323E-1,-5.798211098E-1,6.103425026E-1
1.455163947E1,7.084584236E-1,-6.092338562E-1,8.160779476E-1
1.455963373E1,9.039182663E-1,-6.683583260E-1,9.013142586E-1
1.456763091E1,1.004737854E0,-6.811704636E-1,8.343598843E-1
1.457562509E1,9.640302658E-1,-6.484732628E-1,7.996931076E-1
1.458362142E1,8.637223244E-1,-6.006708145E-1,6.851117611E-1
1.459164737E1,7.687859535E-1,-5.468616486E-1,5.866124630E-1
1.459964278E1,6.462898254E-1,-4.648871422E-1,4.947628975E-1
1.460763935E1,5.495257378E-1,-4.091534615E-1,4.076833725E-1
1.461563322E1,4.502477646E-1,-3.528852463E-1,3.806111813E-1
1.462362956E1,4.171113968E-1,-3.397102356E-1,4.658522606E-1
1.463162558E1,4.691114426E-1,-3.808135986E-1,4.880790710E-1
1.463962046E1,5.072703362E-1,-4.678649902E-1,5.694386959E-1
1.464764725E1,5.343613625E-1,-5.071935654E-1,6.188178062E-1
1.465564267E1,5.869393349E-1,-5.318698883E-1,6.769173145E-1
1.466363862E1,6.389241219E-1,-5.393390656E-1,7.124588490E-1
1.467163534E1,7.237324715E-1,-5.392494202E-1,7.108211517E-1
1.467962944E1,7.793383598E-1,-5.577411652E-1,6.817109585E-1
1.468762616E1,7.705292702E-1,-5.189962387E-1,6.180028915E-1
1.469562065E1,7.015576363E-1,-4.998245239E-1,5.291597843E-1
1.470364706E1,5.911664963E-1,-4.883117676E-1,4.799284935E-1
1.471164401E1,4.968781471E-1,-4.722290039E-1,4.228086472E-1
1.471963819E1,4.285352230E-1,-4.583940506E-1,3.894083500E-1
1.472763514E1,3.935527802E-1,-4.679937363E-1,3.922750950E-1
1.473562994E1,3.664734364E-1,-5.339899063E-1,4.652266502E-1
1.474362473E1,3.418064117E-1,-5.607147217E-1,4.698939323E-1
1.475162076E1,3.486356735E-1,-5.599441528E-1,4.995539188E-1
1.475964763E1,4.606688023E-1,-5.677404404E-1,4.943470955E-1
1.476764327E1,6.173534393E-1,-5.436954498E-1,5.042297840E-1
1.477563815E1,8.010418415E-1,-5.336599350E-1,3.924005032E-1
1.478363348E1,9.633870125E-1,-4.970903397E-1,3.549087048E-1
1.479162951E1,1.099773884E0,-4.699583054E-1,2.353703976E-1
1.479962492E1,1.089945793E0,-4.500360489E-1,1.269893646E-1
1.480762156E1,1.018799543E0,-4.583883286E-1,5.849456787E-2
1.481564774E1,8.653361797E-1,-4.468345642E-1,-3.507137299E-3
1.482364254E1,7.329695225E-1,-4.102792740E-1,1.074242592E-2
1.483163803E1,5.600097179E-1,-4.345970154E-1,6.082105637E-2
1.483963428E1,4.450213909E-1,-4.525451660E-1,2.019083500E-1
1.484762977E1,3.620026112E-1,-4.641342163E-1,3.616952896E-1
1.485562457E1,3.216891289E-1,-4.244174957E-1,5.565059185E-1
1.486361998E1,2.534177303E-1,-4.200124741E-1,5.971083641E-1
1.487164739E1,1.916050911E-1,-3.961029053E-1,5.465264320E-1
1.487964304E1,9.239864349E-2,-3.287839890E-1,5.011484623E-1
1.488763906E1,3.281784058E-2,-2.895450592E-1,2.867565155E-1
1.489563363E1,-1.987314224E-2,-2.731428146E-1,2.007999420E-1
1.490362896E1,-6.773829460E-2,-2.736606598E-1,1.169900894E-1
1.491162568E1,-7.700848579E-2,-2.495222092E-1,1.261997223E-1
1.491962048E1,-1.072781086E-1,-1.912508011E-1,1.368231773E-1
1.492764727E1,-9.344339371E-2,-1.084804535E-1,1.481618881E-1
1.493564268E1,-5.225133896E-2,-9.238147736E-2,2.074820995E-1
1.494363833E1,9.071350098E-3,-1.335754395E-1,2.160389423E-1
1.495163405E1,2.108526230E-2,-2.130565643E-1,2.547981739E-1
1.495962892E1,1.260972023E-2,-2.591476440E-1,3.806853294E-1
1.496762672E1,3.811240196E-2,-2.482290268E-1,3.874473572E-1
1.497562067E1,3.229212761E-2,-1.925201416E-1,4.330661297E-1
1.498364585E1,6.588459015E-3,-6.812286377E-2,3.408200741E-1
1.499164287E1,-6.077694893E-2,1.733016968E-2,2.285988331E-1
1.499963790E1,-1.146986485E-1,9.282302856E-2,8.997535706E-2
1.500763485E1,-1.716499329E-1,9.405517578E-2,-2.166557312E-2
1.501562872E1,-2.265996933E-1,2.595329285E-2,-8.221745491E-2
1.502362444E1,-2.886292934E-1,-4.190158844E-2,-8.456659317E-2
1.503162047E1,-3.301715851E-1,-1.617240906E-1,-6.932997704E-2
1.503964611E1,-3.787972927E-1,-2.109394073E-1,-4.348826408E-2
1.504764337E1,-4.264364243E-1,-2.418975830E-1,-1.895260811E-2
1.505563786E1,-4.607205391E-1,-2.233428955E-1,-3.163886070E-2
1.506363319E1,-4.045596123E-1,-1.872920990E-1,8.297944069E-2
1.507162953E1,-3.295302391E-1,-1.513738632E-1,7.786965370E-2
1.507962463E1,-3.062353134E-1,-1.279296875E-1,1.015510559E-1
1.508762104E1,-3.272702694E-1,-1.310129166E-1,-8.121490479E-3
1.509564715E1,-3.793671131E-1,-1.239719391E-1,-9.469008446E-2
1.510364225E1,-4.135930538E-1,-9.677505493E-2,-1.602540016E-1
1.511163835E1,-4.241206646E-1,-1.207923889E-1,-1.973125935E-1
1.511963377E1,-4.019572735E-1,-1.559934616E-1,-9.228205681E-2
1.512762979E1,-3.995306492E-1,-1.690092087E-1,-1.019506454E-1
1.513562459E1,-3.364038467E-1,-1.722927094E-1,-1.166443825E-1
1.514362085E1,-2.692964077E-1,-1.332406998E-1,-5.600190163E-2
1.515164703E1,-2.345130444E-1,-1.240730286E-1,2.174401283E-2
1.515964213E1,-2.394857407E-1,-6.574726105E-2,2.114129066E-2
1.516763908E1,-2.596380711E-1,-2.247428894E-2,-9.285926819E-3
1.517563234E1,-3.561906815E-1,4.220104218E-2,-9.082078934E-3
1.518362867E1,-4.426136017E-1,7.818126678E-2,1.239085197E-2
1.519162624E1,-4.521698952E-1,6.622409821E-2,4.558157921E-2
1.519962011E1,-5.041038990E-1,6.164836884E-2,5.726909637E-2
1.520764752E1,-5.217804909E-1,8.125209808E-2,5.712890625E-2
1.521564263E1,-5.273017883E-1,9.866046906E-2,-2.353906631E-3
1.522363750E1,-5.493123531E-1,1.284523010E-1,-6.322669983E-2
1.523163322E1,-5.499546528E-1,1.443490982E-1,-1.034145355E-1
1.523962863E1,-5.320892334E-1,1.726655960E-1,-1.704981327E-1
1.524762497E1,-5.142519474E-1,1.753206253E-1,-1.614420414E-1
1.525561999E1,-4.269800186E-1,1.830835342E-1,-8.441281319E-2
1.526364679E1,-3.193109035E-1,1.832752228E-1,1.412439346E-2
1.527164312E1,-2.424242496E-1,1.968355179E-1,9.730315208E-2
1.527963761E1,-1.746792793E-1,2.069873810E-1,1.961207390E-1
1.528763464E1,-1.091041565E-1,2.064046860E-1,2.504863739E-1
1.529562851E1,-6.289267540E-2,2.072124481E-1,1.581981182E-1
1.530362446E1,-7.411336899E-2,2.384653091E-1,1.114473343E-1
1.531162080E1,-8.966898918E-2,2.596979141E-1,-1.992225647E-3
1.531964613E1,-7.573008537E-2,2.711467743E-1,-6.921577454E-2
1.532764270E1,-9.362697601E-2,2.753734589E-1,-9.528493881E-2
1.533563818E1,-1.138470173E-1,2.486667633E-1,-1.184837818E-1
1.534363298E1,-1.286361217E-1,2.295207977E-1,-1.723012924E-1
1.535163016E1,-1.566445827E-1,2.204971313E-1,-1.752781868E-1
1.535962473E1,-1.454193592E-1,1.784391403E-1,-1.489429474E-1
1.536762068E1,-1.433813572E-1,1.726350784E-1,-1.004717350E-1
1.537564593E1,-1.750023365E-1,1.694173813E-1,-9.448194504E-2
1.538364196E1,-2.191996574E-1,1.543827057E-1,-9.959411621E-2
1.539163837E1,-2.257866859E-1,1.301040649E-1,-9.852790833E-2
1.539963309E1,-1.903841496E-1,1.035957336E-1,-4.831027985E-2
1.540762981E1,-1.609482765E-1,8.669757843E-2,-4.020881653E-2
1.541562422E1,-1.303925514E-1,9.852313995E-2,-9.341073036E-2
1.542365102E1,-7.433700562E-2,1.056156158E-1,-9.075903893E-2
1.543164674E1,-1.405739784E-2,1.534528732E-1,-9.474253654E-2
1.543964223E1,1.982951164E-2,1.870279312E-1,-9.600901604E-2
1.544763794E1,5.397820473E-2,1.943798065E-1,-1.306967735E-1
1.545563328E1,8.893513680E-2,2.067203522E-1,-1.104001999E-1
1.546362846E1,8.468127251E-2,1.834840775E-1,-9.275817871E-2
1.547162510E1,1.272346973E-1,1.748905182E-1,-5.145907402E-2
1.547965005E1,1.159327030E-1,1.570100784E-1,-1.033020020E-2
1.548764723E1,1.291351318E-1,1.415910721E-1,1.139116287E-2
1.549564180E1,1.089823246E-1,1.500930786E-1,5.208921432E-2
1.550363752E1,7.426238060E-2,2.039003372E-1,6.851410866E-2
1.551163324E1,3.459095955E-2,2.049188614E-1,1.158895493E-1
1.551962857E1,5.180573463E-2,2.032175064E-1,1.365146637E-1
1.552762529E1,3.948783875E-2,2.298688889E-1,1.184644699E-1
1.553565078E1,4.122352600E-2,1.868038177E-1,1.214435101E-1
1.554364558E1,8.387970924E-2,1.339607239E-1,1.404874325E-1
1.555164222E1,1.389591694E-1,1.359739304E-1,1.514422894E-1
1.555963732E1,1.729340553E-1,1.352548599E-1,1.875112057E-1
1.556763404E1,2.258296013E-1,1.265850067E-1,2.504620552E-1
1.557562815E1,2.422666550E-1,1.530389786E-1,2.303721905E-1
1.558362386E1,2.196183205E-1,1.738777161E-1,2.542147636E-1
1.559165074E1,1.820635796E-1,1.675691605E-1,2.811694145E-1
1.559964553E1,1.628861427E-1,1.582641602E-1,2.497146130E-1
1.560764271E1,1.307945251E-1,1.606273651E-1,2.062618732E-1
1.561563720E1,8.609533310E-2,1.556749344E-1,2.180597782E-1
1.562363292E1,2.723312378E-2,1.413650513E-1,1.943950653E-1
1.563162903E1,-1.434659958E-2,1.370916367E-1,1.691508293E-1
1.563962375E1,-1.209640503E-2,9.501361847E-2,1.614274979E-1
1.564765154E1,-2.606749535E-2,5.582904816E-2,1.450114250E-1
1.565564595E1,-4.682350159E-2,1.237201691E-2,1.487784386E-1
1.566364144E1,-5.552792549E-2,-9.161949158E-3,1.462640762E-1
1.567163801E1,-4.336118698E-2,-1.617336273E-2,1.279187202E-1
1.567963250E1,-3.684926033E-2,-2.310562134E-2,1.295864582E-1
1.568762921E1,-7.303714752E-3,3.937816620E-2,1.031854153E-1
1.569562393E1,1.441502571E-2,5.156040192E-2,1.035492420E-1
1.570365050E1,2.513170242E-3,6.857395172E-2,9.693193436E-2
1.571164622E1,-1.839637756E-3,6.649589539E-2,1.285049915E-1
1.571964163E1,-1.761865616E-2,5.236148834E-2,1.738214493E-1
1.572763766E1,-2.085614204E-2,2.846336365E-2,1.871182919E-1
1.573563276E1,-3.584480286E-2,-2.698898315E-3,1.282196045E-1
1.574362840E1,-1.173613071E-1,-3.070831299E-4,1.097335815E-1
1.575162504E1,-1.597664356E-1,-7.282257080E-3,1.055343151E-1
1.575965092E1,-1.940300465E-1,5.198478699E-3,9.179568291E-2
1.576764641E1,-2.177486420E-1,-1.783943176E-2,9.507775307E-2
1.577564120E1,-2.331216335E-1,-1.415252686E-2,1.415429115E-1
1.578363715E1,-1.621840000E-1,6.395339966E-3,1.067771912E-1
1.579163349E1,-1.654694080E-1,1.498031616E-2,1.390805244E-1
1.579962836E1,-1.568222046E-1,2.124023438E-2,7.102990150E-2
1.580762523E1,-1.669378281E-1,3.621101379E-3,8.185529709E-2
1.581565057E1,-1.787419319E-1,-6.610870361E-3,5.435490608E-2
1.582364559E1,-1.733789444E-1,-9.490013123E-3,5.810213089E-2
1.583164139E1,-1.985454559E-1,-2.411746979E-2,4.999780655E-2
1.583963711E1,-2.443809509E-1,-5.512619019E-2,4.217720032E-2
1.584763368E1,-2.484102249E-1,-3.061008453E-2,4.904150963E-2
1.585562793E1,-2.493004799E-1,-2.011775970E-2,7.057523727E-2
1.586362388E1,-2.687501907E-1,-2.373695374E-2,9.710264206E-2
1.587165045E1,-2.639150620E-1,-3.679656982E-2,1.093590260E-1
1.587964555E1,-2.450578213E-1,-1.880645752E-2,9.536838531E-2
1.588764219E1,-2.220718861E-1,-1.295852661E-2,9.820580482E-2
1.589563699E1,-1.975612640E-1,-7.152557373E-5,3.430414200E-2
1.590363302E1,-1.478915215E-1,3.900909424E-2,-3.561973572E-4
1.591162812E1,-1.039569378E-1,7.317161560E-2,-3.224301338E-2
1.591962376E1,-1.008400917E-1,4.024696350E-2,-3.543901443E-2
