"Time (s)","Acceleration x (m/s^2)","Acceleration y (m/s^2)","Acceleration z (m/s^2)"
5.941828000E-3,-2.322375625E-1,-3.464409828E0,9.157821655E0
8.007692000E-3,-2.394201756E-1,-3.469198227E0,9.131484985E0
1.007938800E-2,-2.346317619E-1,-3.459621429E0,9.117119789E0
1.209331600E-2,-2.322375625E-1,-3.438073635E0,9.093177795E0
1.410686000E-2,-2.274491638E-1,-3.442862034E0,9.090784073E0
1.609055700E-2,-2.274491638E-1,-3.435679436E0,9.100360870E0
1.810502300E-2,-2.322375625E-1,-3.450044632E0,9.126696587E0
2.008833500E-2,-2.226607651E-1,-3.452438831E0,9.117119789E0
2.210257100E-2,-2.322375625E-1,-3.442862034E0,9.131484985E0
2.408596000E-2,-2.226607651E-1,-3.466804028E0,9.131484985E0
2.610158000E-2,-2.178723514E-1,-3.481169224E0,9.145850182E0
2.808443100E-2,-2.322375625E-1,-3.495534420E0,9.188945770E0
3.009828200E-2,-2.298433632E-1,-3.509899616E0,9.215282440E0
3.208159400E-2,-2.394201756E-1,-3.507505417E0,9.220070839E0
3.409613800E-2,-2.585737705E-1,-3.512293816E0,9.227252960E0
3.611029600E-2,-2.729389966E-1,-3.509899616E0,9.220070839E0
3.809391600E-2,-2.825157940E-1,-3.512293816E0,9.224859238E0
4.010845900E-2,-3.064578176E-1,-3.502717018E0,9.224859238E0
4.209154100E-2,-3.136404157E-1,-3.481169224E0,9.222464561E0
4.410654600E-2,-3.184288144E-1,-3.488351822E0,9.222464561E0
4.609185800E-2,-3.351882398E-1,-3.473986626E0,9.246406555E0
4.810378600E-2,-3.447650373E-1,-3.478775024E0,9.265560150E0
5.008694500E-2,-3.567360640E-1,-3.466804028E0,9.267954826E0
5.210133400E-2,-3.878606856E-1,-3.464409828E0,9.287108421E0
5.408472300E-2,-4.046200812E-1,-3.457227230E0,9.294290543E0
5.609949700E-2,-4.094084799E-1,-3.447650433E0,9.301473618E0
5.808265600E-2,-4.165911078E-1,-3.435679436E0,9.318233490E0
6.009681400E-2,-4.213795066E-1,-3.435679436E0,9.327810287E0
6.211212700E-2,-4.405331016E-1,-3.435679436E0,9.323021889E0
6.409497800E-2,-4.477157295E-1,-3.430891037E0,9.342175484E0
6.611029000E-2,-4.525041282E-1,-3.426102638E0,9.358934402E0
6.809275600E-2,-4.620809257E-1,-3.426102638E0,9.378087997E0
7.010722300E-2,-4.668693244E-1,-3.438073635E0,9.402029991E0
7.209007400E-2,-4.548983276E-1,-3.435679436E0,9.414001465E0
7.410384700E-2,-4.716577232E-1,-3.442862034E0,9.416395187E0
7.608854400E-2,-4.836287498E-1,-3.459621429E0,9.392453194E0
7.810239600E-2,-4.979939461E-1,-3.459621429E0,9.385271072E0
8.008570700E-2,-4.812345505E-1,-3.457227230E0,9.378087997E0
8.209902000E-2,-4.812345505E-1,-3.462015629E0,9.373299599E0
8.408394800E-2,-5.147533417E-1,-3.462015629E0,9.356540680E0
8.609987600E-2,-5.003881454E-1,-3.466804028E0,9.354146004E0
8.808149600E-2,-5.027823448E-1,-3.445256233E0,9.349357605E0
9.009650100E-2,-5.339069963E-1,-3.440467834E0,9.363722801E0
9.211035200E-2,-5.171475410E-1,-3.442862034E0,9.370905876E0
9.409404800E-2,-5.075707436E-1,-3.430891037E0,9.373299599E0
9.610828400E-2,-5.027823448E-1,-3.416525841E0,9.361329079E0
9.809190400E-2,-5.219359994E-1,-3.392583847E0,9.356540680E0
1.001057550E-1,-5.315127969E-1,-3.387795448E0,9.351752281E0
1.020904520E-1,-5.315127969E-1,-3.375824451E0,9.349357605E0
1.041039180E-1,-5.602431893E-1,-3.359065056E0,9.337387085E0
1.060885390E-1,-5.698199868E-1,-3.347094059E0,9.332598686E0
1.081014660E-1,-5.841852427E-1,-3.320757866E0,9.318233490E0
1.100846250E-1,-5.961562395E-1,-3.311181068E0,9.315838814E0
1.120990910E-1,-6.248866320E-1,-3.306392431E0,9.306262016E0
1.140827880E-1,-6.464344859E-1,-3.313575268E0,9.303867340E0
1.160971770E-1,-6.368576288E-1,-3.303998232E0,9.315838814E0
1.181104900E-1,-6.296750307E-1,-3.277662039E0,9.303867340E0
1.200948020E-1,-6.536170840E-1,-3.280056238E0,9.296685219E0
1.221080370E-1,-6.775590777E-1,-3.275267839E0,9.287108421E0
1.240923500E-1,-6.919242740E-1,-3.229778051E0,9.287108421E0
1.261065090E-1,-6.943184733E-1,-3.234566450E0,9.289502144E0
1.280898210E-1,-6.823474765E-1,-3.236960649E0,9.294290543E0
1.301052100E-1,-6.607996821E-1,-3.232172251E0,9.287108421E0
1.320883690E-1,-6.871358752E-1,-3.224989653E0,9.291896820E0
1.341022200E-1,-6.991068721E-1,-3.224989653E0,9.291896820E0
1.360861470E-1,-6.919242740E-1,-3.217807055E0,9.291896820E0
1.380996910E-1,-6.895300746E-1,-3.208230257E0,9.299078941E0
1.400837720E-1,-6.871358752E-1,-3.208230257E0,9.296685219E0
1.420993930E-1,-6.775590777E-1,-3.220201254E0,9.282320023E0
1.440818580E-1,-6.631938815E-1,-3.213018656E0,9.279925346E0
1.460967100E-1,-6.344634295E-1,-3.196259260E0,9.275136948E0
1.481098680E-1,-6.129156351E-1,-3.191470861E0,9.270348549E0
1.500935650E-1,-6.033388376E-1,-3.198653460E0,9.265560150E0
1.521077240E-1,-5.650315881E-1,-3.184288263E0,9.265560150E0
1.540921130E-1,-5.171475410E-1,-3.196259260E0,9.267954826E0
1.561052720E-1,-5.027823448E-1,-3.213018656E0,9.267954826E0
1.580889680E-1,-4.788403511E-1,-3.222595453E0,9.246406555E0
1.601034350E-1,-4.620809257E-1,-3.217807055E0,9.232041359E0
1.620874400E-1,-4.453215301E-1,-3.208230257E0,9.234436035E0
1.641019050E-1,-4.094084799E-1,-3.213018656E0,9.217676163E0
1.660865260E-1,-3.902548850E-1,-3.213018656E0,9.205705643E0
1.680985310E-1,-3.830722570E-1,-3.227383852E0,9.196128845E0
1.700831500E-1,-3.615244627E-1,-3.217807055E0,9.167398453E0
1.720966940E-1,-3.399766386E-1,-3.193865061E0,9.153033257E0
1.741111600E-1,-3.280056417E-1,-3.184288263E0,9.148244858E0
1.760945500E-1,-3.327940404E-1,-3.181894064E0,9.141061783E0
1.781087080E-1,-3.184288144E-1,-3.186682463E0,9.133879662E0
1.800924050E-1,-2.873041928E-1,-3.174711466E0,9.138668060E0
1.821072560E-1,-2.705447972E-1,-3.172317266E0,9.145850182E0
1.840897220E-1,-2.633621991E-1,-3.181894064E0,9.145850182E0
1.861053420E-1,-2.681505978E-1,-3.174711466E0,9.131484985E0
1.880887320E-1,-2.777273953E-1,-3.181894064E0,9.138668060E0
1.901031980E-1,-2.705447972E-1,-3.181894064E0,9.136273384E0
1.920853560E-1,-2.705447972E-1,-3.174711466E0,9.129091263E0
1.941001300E-1,-2.777273953E-1,-3.169923067E0,9.126696587E0
1.960839050E-1,-2.849099934E-1,-3.162740469E0,9.126696587E0
1.980980620E-1,-2.825157940E-1,-3.157952070E0,9.153033257E0
2.000822980E-1,-2.944868207E-1,-3.155557871E0,9.153033257E0
2.020952260E-1,-3.016694188E-1,-3.157952070E0,9.145850182E0
2.041103850E-1,-3.184288144E-1,-3.167528868E0,9.136273384E0
2.060931580E-1,-3.256114423E-1,-3.169923067E0,9.145850182E0
2.081079330E-1,-3.471592367E-1,-3.174711466E0,9.150638580E0
2.100910150E-1,-3.711012602E-1,-3.186682463E0,9.160215378E0
2.121054810E-1,-3.902548850E-1,-3.184288263E0,9.160215378E0
2.140894080E-1,-4.285621047E-1,-3.174711466E0,9.165003777E0
2.161039520E-1,-4.572925270E-1,-3.203441858E0,9.184157372E0
2.180869570E-1,-4.764461517E-1,-3.213018656E0,9.181763649E0
2.201008070E-1,-5.099649429E-1,-3.213018656E0,9.172186852E0
2.220854270E-1,-5.458779931E-1,-3.222595453E0,9.191340446E0
2.240989710E-1,-5.482721925E-1,-3.208230257E0,9.191340446E0
2.260836670E-1,-5.506663918E-1,-3.193865061E0,9.222464561E0
2.280972100E-1,-5.746083856E-1,-3.213018656E0,9.236829758E0
2.301109850E-1,-5.746083856E-1,-3.217807055E0,9.236829758E0
2.320941440E-1,-5.865794420E-1,-3.203441858E0,9.232041359E0
2.341091480E-1,-5.865794420E-1,-3.198653460E0,9.241618156E0
2.360922290E-1,-5.793967843E-1,-3.205836058E0,9.244012833E0
2.381066960E-1,-5.889736414E-1,-3.193865061E0,9.248801231E0
2.400901620E-1,-5.889736414E-1,-3.196259260E0,9.210494041E0
2.421046280E-1,-6.009446383E-1,-3.193865061E0,9.205705643E0
2.440883250E-1,-5.913678408E-1,-3.184288263E0,9.210494041E0
2.461037150E-1,-5.865794420E-1,-3.174711466E0,9.198522568E0
2.480849500E-1,-5.841852427E-1,-3.145981073E0,9.165003777E0
2.500997240E-1,-5.698199868E-1,-3.169923067E0,9.165003777E0
2.520839600E-1,-5.650315881E-1,-3.162740469E0,9.179368973E0
2.540981180E-1,-5.386953950E-1,-3.162740469E0,9.198522568E0
2.560821230E-1,-5.267243981E-1,-3.150769472E0,9.198522568E0
2.580956660E-1,-5.267243981E-1,-3.160346270E0,9.210494041E0
2.601101330E-1,-5.123591423E-1,-3.145981073E0,9.224859238E0
2.620939060E-1,-4.764461517E-1,-3.134010077E0,9.244012833E0
2.641079880E-1,-4.596867263E-1,-3.131615877E0,9.246406555E0
2.660923010E-1,-4.429273009E-1,-3.124433279E0,9.244012833E0
2.681055350E-1,-4.189853072E-1,-3.124433279E0,9.210494041E0
2.700889250E-1,-4.213795066E-1,-3.134010077E0,9.208099365E0
2.721033920E-1,-3.998316824E-1,-3.143586874E0,9.198522568E0
2.740867810E-1,-3.998316824E-1,-3.131615877E0,9.196128845E0
2.761018620E-1,-4.189853072E-1,-3.134010077E0,9.186552048E0
2.780849440E-1,-4.118026793E-1,-3.157952070E0,9.184157372E0
2.800979490E-1,-4.070142806E-1,-3.153163671E0,9.174580574E0
2.820821840E-1,-4.046200812E-1,-3.143586874E0,9.150638580E0
2.840973430E-1,-4.165911078E-1,-3.153163671E0,9.136273384E0
2.861108090E-1,-4.237737060E-1,-3.150769472E0,9.138668060E0
2.880945060E-1,-4.381389022E-1,-3.134010077E0,9.153033257E0
2.901089720E-1,-4.261679053E-1,-3.148375273E0,9.155426979E0
2.920923620E-1,-4.261679053E-1,-3.145981073E0,9.155426979E0
2.941062900E-1,-4.357447028E-1,-3.145981073E0,9.157821655E0
2.960899090E-1,-4.309563041E-1,-3.143586874E0,9.165003777E0
2.981044530E-1,-4.309563041E-1,-3.157952070E0,9.172186852E0
3.000877650E-1,-4.070142806E-1,-3.136404276E0,9.174580574E0
3.021028470E-1,-4.165911078E-1,-3.160346270E0,9.181763649E0
3.040860050E-1,-4.070142806E-1,-3.167528868E0,9.184157372E0
3.061001640E-1,-3.902548850E-1,-3.148375273E0,9.198522568E0
3.080837840E-1,-3.998316824E-1,-3.150769472E0,9.203310966E0
3.100983270E-1,-4.070142806E-1,-3.136404276E0,9.198522568E0
3.120811010E-1,-3.974374831E-1,-3.122039080E0,9.236829758E0
3.140955680E-1,-3.950432837E-1,-3.134010077E0,9.241618156E0
3.161091110E-1,-3.926490843E-1,-3.167528868E0,9.258378029E0
3.180937300E-1,-3.878606856E-1,-3.165134668E0,9.289502144E0
3.201075050E-1,-3.950432837E-1,-3.155557871E0,9.291896820E0
3.220908940E-1,-4.141969085E-1,-3.141192675E0,9.303867340E0
3.241057440E-1,-4.213795066E-1,-3.167528868E0,9.306262016E0
3.260902880E-1,-4.189853072E-1,-3.181894064E0,9.306262016E0
3.281026770E-1,-4.477157295E-1,-3.186682463E0,9.296685219E0
3.300869900E-1,-4.740519226E-1,-3.196259260E0,9.279925346E0
3.321004560E-1,-4.716577232E-1,-3.201047659E0,9.284713745E0
3.340842300E-1,-4.836287498E-1,-3.208230257E0,9.287108421E0
3.360989270E-1,-4.692635238E-1,-3.198653460E0,9.287108421E0
3.380830080E-1,-4.692635238E-1,-3.208230257E0,9.284713745E0
3.400962440E-1,-4.788403511E-1,-3.232172251E0,9.265560150E0
3.421109410E-1,-4.884171486E-1,-3.234566450E0,9.258378029E0
3.440946390E-1,-4.955997467E-1,-3.227383852E0,9.239224434E0
3.461091810E-1,-5.075707436E-1,-3.215412855E0,9.212887764E0
3.480925710E-1,-5.123591423E-1,-3.220201254E0,9.205705643E0
3.501058060E-1,-5.171475410E-1,-3.213018656E0,9.205705643E0
3.520898100E-1,-5.386953950E-1,-3.215412855E0,9.200917244E0
3.541036620E-1,-5.363011956E-1,-3.198653460E0,9.200917244E0
3.560873590E-1,-5.267243981E-1,-3.201047659E0,9.210494041E0
3.581015180E-1,-5.003881454E-1,-3.184288263E0,9.198522568E0
3.600858290E-1,-4.884171486E-1,-3.186682463E0,9.200917244E0
3.620996810E-1,-4.860229492E-1,-3.186682463E0,9.222464561E0
3.640826860E-1,-4.884171486E-1,-3.172317266E0,9.227252960E0
3.660953050E-1,-4.884171486E-1,-3.172317266E0,9.227252960E0
3.681107720E-1,-4.764461517E-1,-3.181894064E0,9.224859238E0
3.700953920E-1,-4.788403511E-1,-3.189076662E0,9.215282440E0
3.721097820E-1,-4.644751251E-1,-3.201047659E0,9.217676163E0
3.740934780E-1,-4.501099288E-1,-3.215412855E0,9.212887764E0
3.761074060E-1,-4.405331016E-1,-3.208230257E0,9.208099365E0
3.780910260E-1,-4.405331016E-1,-3.220201254E0,9.200917244E0
3.801052610E-1,-4.333505034E-1,-3.224989653E0,9.205705643E0
3.820891890E-1,-4.333505034E-1,-3.222595453E0,9.205705643E0
3.841033480E-1,-4.333505034E-1,-3.227383852E0,9.181763649E0
3.860877370E-1,-4.429273009E-1,-3.217807055E0,9.160215378E0
3.881006650E-1,-4.285621047E-1,-3.213018656E0,9.145850182E0
3.900846700E-1,-4.285621047E-1,-3.208230257E0,9.141061783E0
3.920987520E-1,-4.213795066E-1,-3.205836058E0,9.136273384E0
3.940818330E-1,-4.261679053E-1,-3.208230257E0,9.138668060E0
3.960966070E-1,-4.309563041E-1,-3.201047659E0,9.143456459E0
3.981104580E-1,-4.165911078E-1,-3.203441858E0,9.155426979E0
4.000932310E-1,-4.094084799E-1,-3.198653460E0,9.150638580E0
4.021077750E-1,-4.141969085E-1,-3.198653460E0,9.145850182E0
4.040920870E-1,-4.237737060E-1,-3.191470861E0,9.138668060E0
4.061077080E-1,-4.141969085E-1,-3.201047659E0,9.150638580E0
4.080895580E-1,-4.213795066E-1,-3.198653460E0,9.150638580E0
4.101037170E-1,-4.237737060E-1,-3.184288263E0,9.143456459E0
4.120877220E-1,-4.213795066E-1,-3.189076662E0,9.155426979E0
4.141018800E-1,-4.285621047E-1,-3.191470861E0,9.160215378E0
4.160859620E-1,-4.261679053E-1,-3.193865061E0,9.167398453E0
4.180997360E-1,-4.237737060E-1,-3.203441858E0,9.174580574E0
4.200831250E-1,-4.046200812E-1,-3.215412855E0,9.169792175E0
4.220972830E-1,-4.189853072E-1,-3.205836058E0,9.169792175E0
4.241121340E-1,-4.357447028E-1,-3.205836058E0,9.176975250E0
4.260966780E-1,-4.405331016E-1,-3.196259260E0,9.167398453E0
4.281102980E-1,-4.429273009E-1,-3.193865061E0,9.157821655E0
4.300930720E-1,-4.501099288E-1,-3.193865061E0,9.155426979E0
4.321074610E-1,-4.381389022E-1,-3.201047659E0,9.157821655E0
4.340915430E-1,-4.381389022E-1,-3.196259260E0,9.165003777E0
4.361053160E-1,-4.501099288E-1,-3.203441858E0,9.162610054E0
4.380893980E-1,-4.477157295E-1,-3.191470861E0,9.167398453E0
4.401032490E-1,-4.381389022E-1,-3.184288263E0,9.172186852E0
4.420860230E-1,-4.477157295E-1,-3.169923067E0,9.174580574E0
4.441010280E-1,-4.453215301E-1,-3.165134668E0,9.172186852E0
4.460838020E-1,-4.453215301E-1,-3.165134668E0,9.169792175E0
4.480989610E-1,-4.357447028E-1,-3.172317266E0,9.181763649E0
4.500823490E-1,-4.309563041E-1,-3.181894064E0,9.186552048E0
4.520958930E-1,-4.237737060E-1,-3.179499865E0,9.188945770E0
4.541105900E-1,-4.141969085E-1,-3.174711466E0,9.191340446E0
4.560940560E-1,-4.070142806E-1,-3.162740469E0,9.184157372E0
4.581079070E-1,-3.854664862E-1,-3.145981073E0,9.162610054E0
4.600921430E-1,-3.663128614E-1,-3.141192675E0,9.153033257E0
4.621063010E-1,-3.639186621E-1,-3.138798475E0,9.145850182E0
4.640903050E-1,-3.663128614E-1,-3.138798475E0,9.136273384E0
4.661050800E-1,-3.854664862E-1,-3.136404276E0,9.112331390E0
4.680875460E-1,-3.830722570E-1,-3.134010077E0,9.102754593E0
4.701017040E-1,-3.758896589E-1,-3.138798475E0,9.109937668E0
4.720854780E-1,-3.806780577E-1,-3.141192675E0,9.107542992E0
4.740998680E-1,-3.854664862E-1,-3.157952070E0,9.085995674E0
4.760827190E-1,-3.806780577E-1,-3.143586874E0,9.045293808E0
4.780978000E-1,-3.711012602E-1,-3.153163671E0,9.030928612E0
4.801110360E-1,-3.567360640E-1,-3.169923067E0,9.042900085E0
4.820949640E-1,-3.902548850E-1,-3.179499865E0,9.081207275E0
4.841100450E-1,-3.806780577E-1,-3.181894064E0,9.093177795E0
4.860947420E-1,-3.926490843E-1,-3.165134668E0,9.088389397E0
4.881066700E-1,-3.902548850E-1,-3.181894064E0,9.107542992E0
4.900909830E-1,-4.046200812E-1,-3.191470861E0,9.129091263E0
4.921052180E-1,-4.094084799E-1,-3.201047659E0,9.153033257E0
4.940883000E-1,-4.070142806E-1,-3.224989653E0,9.133879662E0
4.961023820E-1,-4.285621047E-1,-3.227383852E0,9.126696587E0
4.980860780E-1,-4.596867263E-1,-3.236960649E0,9.145850182E0
5.001008520E-1,-4.596867263E-1,-3.253720045E0,9.172186852E0
5.020848570E-1,-4.932055473E-1,-3.256114244E0,9.172186852E0
5.040984010E-1,-4.979939461E-1,-3.282450438E0,9.186552048E0
5.061138660E-1,-5.075707436E-1,-3.280056238E0,9.198522568E0
5.080962560E-1,-5.171475410E-1,-3.294421434E0,9.212887764E0
5.101101840E-1,-5.075707436E-1,-3.311181068E0,9.188945770E0
5.120941110E-1,-5.171475410E-1,-3.308786631E0,9.179368973E0
5.141082700E-1,-5.267243981E-1,-3.306392431E0,9.184157372E0
5.160919670E-1,-5.410895944E-1,-3.323152065E0,9.162610054E0
5.181062030E-1,-5.458779931E-1,-3.327940464E0,9.155426979E0
5.200898990E-1,-5.674257874E-1,-3.325546265E0,9.169792175E0
5.221034430E-1,-5.530605912E-1,-3.330334663E0,9.165003777E0
5.240883710E-1,-5.386953950E-1,-3.339911461E0,9.172186852E0
5.261009900E-1,-5.386953950E-1,-3.380612850E0,9.181763649E0
5.280855340E-1,-5.339069963E-1,-3.375824451E0,9.172186852E0
5.300994620E-1,-5.339069963E-1,-3.375824451E0,9.169792175E0
5.320834670E-1,-5.339069963E-1,-3.387795448E0,9.186552048E0
5.340975480E-1,-5.315127969E-1,-3.390189648E0,9.193734169E0
5.361113990E-1,-5.195417404E-1,-3.404554844E0,9.160215378E0
5.380948650E-1,-5.219359994E-1,-3.418920040E0,9.124302864E0
5.401098690E-1,-5.195417404E-1,-3.428496838E0,9.121908188E0
5.420942590E-1,-5.027823448E-1,-3.435679436E0,9.109937668E0
5.441068020E-1,-5.051765442E-1,-3.411737442E0,9.062053680E0
5.460911150E-1,-5.051765442E-1,-3.418920040E0,9.030928612E0
5.481058880E-1,-5.195417404E-1,-3.421314240E0,9.011775017E0
5.500887390E-1,-5.123591423E-1,-3.418920040E0,9.006986618E0
5.521025910E-1,-5.075707436E-1,-3.406949043E0,8.995016098E0
5.540862870E-1,-5.123591423E-1,-3.406949043E0,8.971074104E0
5.561012920E-1,-5.051765442E-1,-3.397372246E0,8.954314232E0
5.580841430E-1,-5.027823448E-1,-3.392583847E0,8.951920509E0
5.600982250E-1,-4.955997467E-1,-3.385401249E0,8.923190117E0
5.621123830E-1,-4.955997467E-1,-3.368641853E0,8.896853447E0
5.640964650E-1,-4.979939461E-1,-3.366247654E0,8.889671326E0
5.661117780E-1,-4.812345505E-1,-3.349488258E0,8.884882927E0
5.680939350E-1,-4.788403511E-1,-3.342305660E0,8.884882927E0
5.701087100E-1,-4.764461517E-1,-3.325546265E0,8.884882927E0
5.720918680E-1,-4.764461517E-1,-3.311181068E0,8.894459724E0
5.741053350E-1,-4.836287498E-1,-3.311181068E0,8.908824921E0
5.760894160E-1,-4.764461517E-1,-3.308786631E0,8.925583839E0
5.781038060E-1,-4.668693244E-1,-3.311181068E0,8.896853447E0
5.800875030E-1,-4.620809257E-1,-3.308786631E0,8.894459724E0
5.821017380E-1,-4.692635238E-1,-3.301604033E0,8.906430244E0
5.840850500E-1,-4.788403511E-1,-3.294421434E0,8.942343712E0
5.861005170E-1,-4.836287498E-1,-3.282450438E0,8.942343712E0
5.880829050E-1,-4.932055473E-1,-3.294421434E0,8.951920509E0
5.900973720E-1,-4.955997467E-1,-3.303998232E0,8.985439301E0
5.921109920E-1,-5.123591423E-1,-3.299209833E0,8.997409821E0
5.940953050E-1,-5.339069963E-1,-3.287238836E0,8.987833023E0
5.961088480E-1,-5.386953950E-1,-3.280056238E0,8.999804497E0
5.980930830E-1,-5.506663918E-1,-3.289633036E0,9.011775017E0
6.001066270E-1,-5.650315881E-1,-3.301604033E0,9.042900085E0
6.020900150E-1,-5.746083856E-1,-3.308786631E0,9.045293808E0
6.041048670E-1,-6.129156351E-1,-3.320757866E0,9.093177795E0
6.060854100E-1,-6.200982332E-1,-3.337517262E0,9.107542992E0
6.081027230E-1,-6.368576288E-1,-3.356670856E0,9.119514465E0
6.100867270E-1,-6.440402865E-1,-3.368641853E0,9.095572472E0
6.121005010E-1,-6.512228847E-1,-3.378218651E0,9.112331390E0
6.140836600E-1,-6.655880809E-1,-3.387795448E0,9.124302864E0
6.160981250E-1,-6.512228847E-1,-3.397372246E0,9.150638580E0
6.181119770E-1,-6.536170840E-1,-3.414131641E0,9.150638580E0
6.200962890E-1,-6.536170840E-1,-3.433285236E0,9.165003777E0
6.221109870E-1,-6.488286853E-1,-3.438073635E0,9.188945770E0
6.240935290E-1,-6.272808313E-1,-3.473986626E0,9.191340446E0
6.261091490E-1,-6.200982332E-1,-3.485957623E0,9.179368973E0
6.280919240E-1,-6.129156351E-1,-3.507505417E0,9.162610054E0
6.301057750E-1,-6.057330370E-1,-3.500322819E0,9.172186852E0
6.320891630E-1,-5.985504389E-1,-3.505111217E0,9.176975250E0
6.341033990E-1,-5.913678408E-1,-3.524264812E0,9.179368973E0
6.360870200E-1,-5.985504389E-1,-3.524264812E0,9.176975250E0
6.381009470E-1,-5.865794420E-1,-3.514688015E0,9.155426979E0
6.400851820E-1,-5.961562395E-1,-3.512293816E0,9.167398453E0
6.420981870E-1,-6.081272364E-1,-3.512293816E0,9.169792175E0
6.441135000E-1,-6.033388376E-1,-3.517082214E0,9.181763649E0
6.460978890E-1,-6.009446383E-1,-3.524264812E0,9.186552048E0
6.481105090E-1,-6.153098345E-1,-3.519476414E0,9.181763649E0
6.500953600E-1,-6.224924326E-1,-3.531447411E0,9.136273384E0
6.521092100E-1,-6.057330370E-1,-3.514688015E0,9.102754593E0
6.540926000E-1,-5.985504389E-1,-3.505111217E0,9.114726067E0
6.561070670E-1,-5.937620401E-1,-3.509899616E0,9.107542992E0
6.580908400E-1,-6.177040339E-1,-3.505111217E0,9.105149269E0
6.601049220E-1,-6.177040339E-1,-3.490746021E0,9.093177795E0
6.620883880E-1,-6.033388376E-1,-3.495534420E0,9.059659004E0
6.641027780E-1,-6.033388376E-1,-3.512293816E0,9.026140213E0
6.660870900E-1,-5.913678408E-1,-3.514688015E0,9.021351814E0
6.681000180E-1,-5.650315881E-1,-3.521870613E0,9.016563416E0
6.700843300E-1,-5.554547906E-1,-3.531447411E0,9.014169693E0
6.720978730E-1,-5.506663918E-1,-3.533841610E0,8.995016098E0
6.741118010E-1,-5.315127969E-1,-3.560178041E0,8.995016098E0
6.760961140E-1,-5.219359994E-1,-3.569754839E0,8.995016098E0
6.781096570E-1,-5.099649429E-1,-3.574543238E0,8.992621422E0
6.800939690E-1,-4.955997467E-1,-3.588908434E0,9.004592896E0
6.821071280E-1,-4.908113480E-1,-3.596091032E0,8.997409821E0
6.840921330E-1,-4.908113480E-1,-3.605667830E0,9.002198219E0
6.861050600E-1,-5.003881454E-1,-3.608062029E0,8.987833023E0
6.880892960E-1,-4.884171486E-1,-3.610456228E0,8.985439301E0
6.901041470E-1,-4.908113480E-1,-3.627215624E0,8.987833023E0
6.920866130E-1,-5.003881454E-1,-3.620033026E0,8.980650902E0
6.941010790E-1,-4.955997467E-1,-3.629609823E0,8.983044624E0
6.960850070E-1,-4.932055473E-1,-3.643975019E0,8.980650902E0
6.980991660E-1,-4.932055473E-1,-3.641580820E0,8.975862503E0
7.001137080E-1,-4.788403511E-1,-3.646369219E0,8.963891029E0
7.020970980E-1,-4.548983276E-1,-3.624821424E0,8.939949036E0
7.041105640E-1,-4.453215301E-1,-3.632004023E0,8.930372238E0
7.060952620E-1,-4.285621047E-1,-3.643975019E0,8.932766914E0
7.081084200E-1,-4.141969085E-1,-3.651157618E0,8.896853447E0
7.100928090E-1,-3.998316824E-1,-3.655946016E0,8.884882927E0
7.121060450E-1,-3.615244627E-1,-3.643975019E0,8.851364136E0
7.140905870E-1,-3.471592367E-1,-3.648763418E0,8.827422142E0
7.161039000E-1,-3.256114423E-1,-3.636792421E0,8.820239067E0
7.180881360E-1,-2.801215947E-1,-3.634398222E0,8.793902397E0
7.201026790E-1,-2.561795712E-1,-3.648763418E0,8.762778282E0
7.220854530E-1,-2.418143749E-1,-3.653551817E0,8.757989883E0
7.241008420E-1,-2.130839527E-1,-3.646369219E0,8.738836288E0
7.260851550E-1,-2.011129409E-1,-3.636792421E0,8.722076416E0
7.280971590E-1,-1.771709323E-1,-3.648763418E0,8.717288017E0
7.301128560E-1,-1.508347094E-1,-3.655946016E0,8.688557625E0
7.320958610E-1,-1.340752989E-1,-3.663128614E0,8.669404030E0
7.341097890E-1,-1.101332754E-1,-3.646369219E0,8.652645111E0
7.360931780E-1,-9.337386489E-2,-3.646369219E0,8.621520042E0
7.381070290E-1,-7.661445439E-2,-3.639186621E0,8.599972725E0
7.400915730E-1,-4.788403213E-2,-3.629609823E0,8.580819130E0
7.421066530E-1,-4.070143029E-2,-3.627215624E0,8.564059258E0
7.440891970E-1,-2.873042040E-2,-3.617638826E0,8.542511940E0
7.461039710E-1,2.394201700E-3,-3.593696833E0,8.530540466E0
7.480867450E-1,2.154781483E-2,-3.557783842E0,8.516175270E0
7.501009030E-1,2.154781483E-2,-3.550601006E0,8.508993149E0
7.520855240E-1,2.394201607E-2,-3.514688015E0,8.487444878E0
7.540989900E-1,2.394201607E-2,-3.483563423E0,8.489839554E0
7.561132250E-1,1.436521020E-2,-3.462015629E0,8.489839554E0
7.580975380E-1,1.436521020E-2,-3.457227230E0,8.499416351E0
7.601106970E-1,-1.675941236E-2,-3.418920040E0,8.506598473E0
7.620947780E-1,-2.633621916E-2,-3.392583847E0,8.511386871E0
7.641092440E-1,-3.830722719E-2,-3.371036053E0,8.532935143E0
7.660926340E-1,-4.548983276E-2,-3.371036053E0,8.554482460E0
7.681064850E-1,-4.070143029E-2,-3.371036053E0,8.590395927E0
7.700904120E-1,-5.027823523E-2,-3.359065056E0,8.628703117E0
7.721042630E-1,-5.746084079E-2,-3.371036053E0,8.652645111E0
7.740879600E-1,-6.943184882E-2,-3.373430252E0,8.690952301E0
7.761024270E-1,-9.097966552E-2,-3.387795448E0,8.734047890E0
7.780862000E-1,-1.029506698E-1,-3.383007050E0,8.755595207E0
7.801006670E-1,-1.292868853E-1,-3.394978046E0,8.798690796E0
7.820843640E-1,-1.580173075E-1,-3.426102638E0,8.832210541E0
7.840984450E-1,-1.699883193E-1,-3.440467834E0,8.860940933E0
7.861126810E-1,-2.202665508E-1,-3.447650433E0,8.868123055E0
7.880959930E-1,-2.657563984E-1,-3.478775024E0,8.880094528E0
7.901102290E-1,-2.801215947E-1,-3.493140221E0,8.892065048E0
7.920929250E-1,-3.375824392E-1,-3.514688015E0,8.913613319E0
7.941074690E-1,-3.567360640E-1,-3.514688015E0,8.918401718E0
7.960914740E-1,-4.094084799E-1,-3.531447411E0,8.920795441E0
7.981053240E-1,-4.333505034E-1,-3.574543238E0,8.923190117E0
8.000890210E-1,-4.429273009E-1,-3.586514235E0,8.923190117E0
8.021028730E-1,-4.716577232E-1,-3.612850428E0,8.904036522E0
8.040878000E-1,-4.955997467E-1,-3.634398222E0,8.882488251E0
8.061028050E-1,-4.955997467E-1,-3.643975019E0,8.882488251E0
8.080841170E-1,-5.075707436E-1,-3.651157618E0,8.851364136E0
8.100991990E-1,-5.147533417E-1,-3.696647406E0,8.834604263E0
8.121129720E-1,-5.195417404E-1,-3.711012602E0,8.827422142E0
8.140972850E-1,-5.147533417E-1,-3.730166197E0,8.817844391E0
8.161105980E-1,-4.860229492E-1,-3.739742994E0,8.781931877E0
8.180946020E-1,-4.740519226E-1,-3.744531393E0,8.757989883E0
8.201086840E-1,-4.237737060E-1,-3.725377798E0,8.738836288E0
8.220921500E-1,-3.806780577E-1,-3.720589399E0,8.724471092E0
8.241068480E-1,-3.687070608E-1,-3.722983599E0,8.717288017E0
8.260912360E-1,-3.447650373E-1,-3.701435804E0,8.717288017E0
8.281041640E-1,-3.399766386E-1,-3.684676409E0,8.729259491E0
8.300887080E-1,-3.184288144E-1,-3.672705412E0,8.746018410E0
8.321023270E-1,-2.896983922E-1,-3.660734415E0,8.774748802E0
8.340856400E-1,-2.825157940E-1,-3.648763418E0,8.779537201E0
8.361001060E-1,-2.944868207E-1,-3.605667830E0,8.791508675E0
8.380838810E-1,-3.040636182E-1,-3.572149038E0,8.815450668E0
8.400976540E-1,-3.064578176E-1,-3.560178041E0,8.827422142E0
8.421115050E-1,-3.112462163E-1,-3.531447411E0,8.834604263E0
8.440952020E-1,-3.878606856E-1,-3.476380825E0,8.858546257E0
8.461081300E-1,-4.118026793E-1,-3.483563423E0,8.865729332E0
8.480909040E-1,-4.118026793E-1,-3.483563423E0,8.865729332E0
8.501079090E-1,-4.405331016E-1,-3.500322819E0,8.904036522E0
8.520919140E-1,-4.620809257E-1,-3.505111217E0,8.918401718E0
8.541050720E-1,-5.147533417E-1,-3.514688015E0,8.932766914E0
8.560891540E-1,-5.602431893E-1,-3.502717018E0,8.956708908E0
8.581030050E-1,-5.889736414E-1,-3.514688015E0,8.975862503E0
8.600870090E-1,-6.560112834E-1,-3.529053211E0,9.016563416E0
8.621014750E-1,-6.823474765E-1,-3.536235809E0,9.040505409E0
8.640844800E-1,-7.350199223E-1,-3.564966440E0,9.097966194E0
8.660993310E-1,-7.948749661E-1,-3.600879431E0,9.167398453E0
8.681121820E-1,-8.188169599E-1,-3.620033026E0,9.203310966E0
8.700962630E-1,-8.786720037E-1,-3.660734415E0,9.248801231E0
8.721110380E-1,-9.337386489E-1,-3.691859007E0,9.294290543E0
8.740938110E-1,-9.672574997E-1,-3.708618402E0,9.311050415E0
8.761085080E-1,-1.010353088E0,-3.734954596E0,9.327810287E0
8.780916670E-1,-1.046266198E0,-3.766079187E0,9.334992409E0
8.801063640E-1,-1.074996591E0,-3.790021181E0,9.351752281E0
8.820895220E-1,-1.106121182E0,-3.842693806E0,9.373299599E0
8.841051430E-1,-1.142034173E0,-3.857059002E0,9.361329079E0
8.860901480E-1,-1.151610970E0,-3.881000996E0,9.356540680E0
8.881017670E-1,-1.154005170E0,-3.890577793E0,9.390059471E0
8.900857720E-1,-1.163581967E0,-3.928884983E0,9.449913979E0
8.920999310E-1,-1.177947283E0,-3.955221176E0,9.471462250E0
8.940830900E-1,-1.182735682E0,-3.969586372E0,9.461885452E0
8.960972480E-1,-1.175553083E0,-3.979163170E0,9.449913979E0
8.981119450E-1,-1.192312479E0,-4.010287762E0,9.478644371E0
9.000950270E-1,-1.192312479E0,-4.043806553E0,9.504981041E0
9.021104150E-1,-1.189918280E0,-4.046200752E0,9.526528358E0
9.040928820E-1,-1.185129881E0,-4.065354347E0,9.564835548E0
9.061082720E-1,-1.225831270E0,-4.062960148E0,9.572018623E0
9.080919690E-1,-1.242590666E0,-4.043806553E0,9.555258751E0
9.101052810E-1,-1.259350061E0,-4.022258759E0,9.519346237E0
9.120889010E-1,-1.273715258E0,-4.007893562E0,9.485827446E0
9.141033680E-1,-1.288080573E0,-3.993528366E0,9.476250648E0
9.160864480E-1,-1.283292055E0,-3.950432777E0,9.476250648E0
9.181009150E-1,-1.295263171E0,-3.907337189E0,9.500192642E0
9.200846890E-1,-1.292868972E0,-3.892971992E0,9.512163162E0
9.220982330E-1,-1.295263171E0,-3.871424198E0,9.543288231E0
9.241136210E-1,-1.288080573E0,-3.840299606E0,9.564835548E0
9.260960110E-1,-1.273715258E0,-3.818751812E0,9.574412346E0
9.281108620E-1,-1.304839969E0,-3.763684988E0,9.588777542E0
9.300944820E-1,-1.323993564E0,-3.734954596E0,9.595960617E0
9.321086400E-1,-1.350329757E0,-3.699041605E0,9.593565941E0
9.340921070E-1,-1.369483352E0,-3.651157618E0,9.593565941E0
9.361068040E-1,-1.376665950E0,-3.622427225E0,9.603142738E0
9.380896540E-1,-1.395819545E0,-3.593696833E0,9.617507935E0
9.401035060E-1,-1.446097851E0,-3.576937437E0,9.624691010E0
9.420881260E-1,-1.460463047E0,-3.567360640E0,9.634267807E0
9.441013610E-1,-1.498770237E0,-3.562572241E0,9.655815125E0
9.460862890E-1,-1.544260144E0,-3.560178041E0,9.674968719E0
9.480995250E-1,-1.572990537E0,-3.564966440E0,9.682151794E0
9.501139140E-1,-1.625662923E0,-3.550601006E0,9.691728592E0
9.520969950E-1,-1.671152830E0,-3.560178041E0,9.696516991E0
9.541118460E-1,-1.695094824E0,-3.560178041E0,9.689333916E0
9.560957740E-1,-1.757344007E0,-3.574543238E0,9.674968719E0
9.581097010E-1,-1.790862918E0,-3.579331636E0,9.684545517E0
9.600930140E-1,-1.833958507E0,-3.579331636E0,9.694122314E0
9.621066350E-1,-1.879448295E0,-3.572149038E0,9.703699112E0
9.640915630E-1,-1.893813491E0,-3.574543238E0,9.696516991E0
9.661065670E-1,-1.936909199E0,-3.562572241E0,9.679757118E0
9.680881100E-1,-1.989581585E0,-3.586514235E0,9.672574997E0
9.701032690E-1,-2.013523579E0,-3.591302633E0,9.677363396E0
9.720868880E-1,-2.042253971E0,-3.598485231E0,9.691728592E0
9.741010470E-1,-2.068590164E0,-3.608062029E0,9.713275909E0
9.760845140E-1,-2.082955360E0,-3.627215624E0,9.727641106E0
9.780982880E-1,-2.126051188E0,-3.643975019E0,9.761159897E0
9.801133690E-1,-2.130839586E0,-3.663128614E0,9.782708168E0
9.820971430E-1,-2.130839586E0,-3.667917013E0,9.792284966E0
9.841106100E-1,-2.154781580E0,-3.675099611E0,9.816226959E0
9.860949980E-1,-2.154781580E0,-3.665522814E0,9.832986832E0
9.881090800E-1,-2.152387381E0,-3.667917013E0,9.847352028E0
9.900922390E-1,-2.142810583E0,-3.684676409E0,9.873687744E0
9.921057830E-1,-2.138022184E0,-3.665522814E0,9.890447617E0
9.940903250E-1,-2.116474390E0,-3.665522814E0,9.923966408E0
9.961039450E-1,-2.087743998E0,-3.634398222E0,9.935936928E0
9.980878730E-1,-2.078166962E0,-3.627215624E0,9.938331604E0
1.000101493E0,-2.063801765E0,-3.629609823E0,9.926360130E0
1.002085113E0,-2.047042370E0,-3.634398222E0,9.928754807E0
1.004100195E0,-2.049436569E0,-3.629609823E0,9.921571732E0
1.006083045E0,-2.047042370E0,-3.610456228E0,9.904812813E0
1.008097204E0,-2.035071373E0,-3.600879431E0,9.864110947E0
1.010111901E0,-2.035071373E0,-3.598485231E0,9.852140427E0
1.012095060E0,-2.025494576E0,-3.593696833E0,9.854534149E0
1.014109449E0,-2.013523579E0,-3.596091032E0,9.859322548E0
1.016092608E0,-2.008735180E0,-3.600879431E0,9.871294022E0
1.018107613E0,-2.003946781E0,-3.584120035E0,9.859322548E0
1.020091001E0,-2.006340981E0,-3.560178041E0,9.818621635E0
1.022105237E0,-2.023100376E0,-3.536235809E0,9.799467087E0
1.024089242E0,-2.032677174E0,-3.512293816E0,9.739612579E0
1.026103324E0,-2.037465572E0,-3.507505417E0,9.708487511E0
1.028086482E0,-2.075772762E0,-3.505111217E0,9.665391922E0
1.030101179E0,-2.097320795E0,-3.485957623E0,9.641449928E0
1.032084030E0,-2.109291792E0,-3.485957623E0,9.631873131E0
1.034098804E0,-2.140416384E0,-3.469198227E0,9.603142738E0
1.036112347E0,-2.152387381E0,-3.471592426E0,9.605537415E0
1.038096275E0,-2.164358377E0,-3.490746021E0,9.603142738E0
1.040109896E0,-2.212242365E0,-3.512293816E0,9.615114212E0
1.042093592E0,-2.214636564E0,-3.538630009E0,9.634267807E0
1.044109289E0,-2.217030764E0,-3.541024208E0,9.639056206E0
1.046094140E0,-2.221819162E0,-3.564966440E0,9.641449928E0
1.048105298E0,-2.212242365E0,-3.615244627E0,9.641449928E0
1.050090457E0,-2.205059767E0,-3.617638826E0,9.646238327E0
1.052104001E0,-2.195482969E0,-3.658340216E0,9.670180321E0
1.054087698E0,-2.205059767E0,-3.665522814E0,9.679757118E0
1.056101317E0,-2.217030764E0,-3.670311213E0,9.691728592E0
1.058085553E0,-2.207453966E0,-3.684676409E0,9.703699112E0
1.060099481E0,-2.207453966E0,-3.684676409E0,9.696516991E0
1.062114486E0,-2.209848166E0,-3.689464808E0,9.665391922E0
1.064097336E0,-2.193088770E0,-3.694253206E0,9.655815125E0
1.066112341E0,-2.195482969E0,-3.696647406E0,9.639056206E0
1.068095116E0,-2.214636564E0,-3.679888010E0,9.605537415E0
1.070108966E0,-2.195482969E0,-3.641580820E0,9.560047150E0
1.072093048E0,-2.195482969E0,-3.632004023E0,9.540893555E0
1.074107130E0,-2.169146776E0,-3.615244627E0,9.485827446E0
1.076090210E0,-2.152387381E0,-3.586514235E0,9.445125580E0
1.078104446E0,-2.133233786E0,-3.562572241E0,9.423578262E0
1.080088451E0,-2.104503393E0,-3.533841610E0,9.373299599E0
1.082102226E0,-2.070984364E0,-3.485957623E0,9.346963882E0
1.084085922E0,-2.032677174E0,-3.433285236E0,9.351752281E0
1.086099773E0,-2.006340981E0,-3.409343243E0,9.356540680E0
1.088115240E0,-1.984793186E0,-3.373430252E0,9.366117477E0
1.090098628E0,-1.908178806E0,-3.356670856E0,9.387664795E0
1.092112787E0,-1.845929503E0,-3.320757866E0,9.447520256E0
1.094096484E0,-1.817199111E0,-3.294421434E0,9.464279175E0
1.096110335E0,-1.762132406E0,-3.263296843E0,9.507374763E0
1.098093955E0,-1.723825216E0,-3.246537447E0,9.521739960E0
1.100108421E0,-1.707065821E0,-3.232172251E0,9.536105156E0
1.102092119E0,-1.673547029E0,-3.203441858E0,9.593565941E0
1.104106046E0,-1.656787634E0,-3.184288263E0,9.658209801E0
1.106089743E0,-1.635239720E0,-3.169923067E0,9.684545517E0
1.108103825E0,-1.594538331E0,-3.145981073E0,9.756371498E0
1.110087830E0,-1.606509328E0,-3.165134668E0,9.821015358E0
1.112101757E0,-1.606509328E0,-3.162740469E0,9.844957352E0
1.114085378E0,-1.611297727E0,-3.148375273E0,9.888052940E0
1.116098921E0,-1.620874524E0,-3.150769472E0,9.914389610E0
1.118113079E0,-1.635239720E0,-3.145981073E0,9.919178009E0
1.120097161E0,-1.663970232E0,-3.165134668E0,9.938331604E0
1.122111320E0,-1.673547029E0,-3.184288263E0,9.945513725E0
1.124095248E0,-1.695094824E0,-3.193865061E0,9.952696800E0
1.126110713E0,-1.735796213E0,-3.208230257E0,9.940725327E0
1.128092487E0,-1.747767210E0,-3.208230257E0,9.940725327E0
1.130107339E0,-1.759738207E0,-3.239354849E0,9.940725327E0
1.132090112E0,-1.781286120E0,-3.248931646E0,9.945513725E0
1.134105117E0,-1.771709204E0,-3.265691042E0,9.957485199E0
1.136088199E0,-1.742978811E0,-3.296815634E0,9.957485199E0
1.138102127E0,-1.728613615E0,-3.323152065E0,9.957485199E0
1.140085746E0,-1.709460020E0,-3.339911461E0,9.959878922E0
1.142100828E0,-1.675941229E0,-3.356670856E0,9.971850395E0
1.144084295E0,-1.644816518E0,-3.361459255E0,9.940725327E0
1.146099299E0,-1.620874524E0,-3.356670856E0,9.933543205E0
1.148112304E0,-1.580173135E0,-3.368641853E0,9.911994934E0
1.150095924E0,-1.537077546E0,-3.363853455E0,9.895236015E0
1.152110083E0,-1.520318031E0,-3.366247654E0,9.888052940E0
1.154093856E0,-1.472434044E0,-3.375824451E0,9.883264542E0
1.156108630E0,-1.460463047E0,-3.368641853E0,9.876082420E0
1.158091943E0,-1.405396342E0,-3.347094059E0,9.859322548E0
1.160105870E0,-1.359906554E0,-3.332728863E0,9.840168953E0
1.162088644E0,-1.350329757E0,-3.315969467E0,9.837775230E0
1.164103419E0,-1.307234168E0,-3.275267839E0,9.816226959E0
1.166087116E0,-1.268926859E0,-3.241749048E0,9.813833237E0
1.168101274E0,-1.261744261E0,-3.227383852E0,9.804255486E0
1.170084971E0,-1.240196466E0,-3.184288263E0,9.818621635E0
1.172099130E0,-1.240196466E0,-3.157952070E0,9.837775230E0
1.174112980E0,-1.240196466E0,-3.145981073E0,9.852140427E0
1.176096908E0,-1.235408068E0,-3.126827478E0,9.871294022E0
1.178111144E0,-1.242590666E0,-3.119644880E0,9.897629738E0
1.180095072E0,-1.233013868E0,-3.105279684E0,9.895236015E0
1.182110461E0,-1.249773264E0,-3.100491285E0,9.911994934E0
1.184093235E0,-1.247379065E0,-3.107673883E0,9.931148529E0
1.186107394E0,-1.259350061E0,-3.110068083E0,9.943120003E0
1.188090552E0,-1.242590666E0,-3.141192675E0,9.976638794E0
1.190104403E0,-1.240196466E0,-3.160346270E0,1.002212811E1
1.192088408E0,-1.228225470E0,-3.189076662E0,1.010113716E1
1.194102797E0,-1.206677675E0,-3.234566450E0,1.014183807E1
1.196086263E0,-1.192312479E0,-3.268085241E0,1.015141487E1
1.198100114E0,-1.177947283E0,-3.349488258E0,1.016099167E1
1.200114504E0,-1.146822572E0,-3.416525841E0,1.018732834E1
1.202097662E0,-1.139639974E0,-3.445256233E0,1.020887566E1
1.204112128E0,-1.110909581E0,-3.514688015E0,1.027351952E1
1.206096979E0,-1.070208192E0,-3.591302633E0,1.031661510E1
1.208109061E0,-1.058237195E0,-3.617638826E0,1.034295177E1
1.210093681E0,-1.027112484E0,-3.655946016E0,1.036928749E1
1.212107763E0,-9.864110947E-1,-3.694253206E0,1.040520096E1
1.214090614E0,-9.768342972E-1,-3.722983599E0,1.042195988E1
1.216105079E0,-9.457096457E-1,-3.773261786E0,1.043632507E1
1.218089392E0,-9.265560508E-1,-3.797203779E0,1.044350815E1
1.220102859E0,-8.786720037E-1,-3.811569214E0,1.046266174E1
1.222087786E0,-8.714894056E-1,-3.845088005E0,1.049378586E1
1.224100714E0,-8.475474119E-1,-3.852270603E0,1.051293945E1
1.226085949E0,-8.140285611E-1,-3.866635799E0,1.052730465E1
1.228098878E0,-7.924807668E-1,-3.869029999E0,1.053448772E1
1.230113035E0,-7.709329724E-1,-3.869029999E0,1.053209305E1
1.232096425E0,-7.374141216E-1,-3.878606796E0,1.048899746E1
1.234110968E0,-6.991068721E-1,-3.869029999E0,1.045308495E1
1.236094588E0,-6.751648784E-1,-3.876212597E0,1.043871975E1
1.238109362E0,-6.272808313E-1,-3.895366192E0,1.041717148E1
1.240092444E0,-5.865794420E-1,-3.888183594E0,1.038365269E1
1.242105757E0,-5.722141862E-1,-3.881000996E0,1.036928749E1
1.244090376E0,-5.339069963E-1,-3.885789394E0,1.034774017E1
1.246104150E0,-5.027823448E-1,-3.897760391E0,1.032140350E1
1.248088463E0,-4.860229492E-1,-3.897760391E0,1.031182671E1
1.250102390E0,-4.572925270E-1,-3.933673382E0,1.029027843E1
1.252085780E0,-4.333505034E-1,-3.945644379E0,1.028549004E1
1.254099939E0,-3.806780577E-1,-3.986345768E0,1.031661510E1
1.256114636E0,-3.423708379E-1,-4.027047157E0,1.034534550E1
1.258098101E0,-3.160346150E-1,-4.048594952E0,1.034055710E1
1.260112260E0,-2.657563984E-1,-4.115632534E0,1.032379818E1
1.262096881E0,-2.298433632E-1,-4.163516521E0,1.031661510E1
1.264110347E0,-2.226607651E-1,-4.180276394E0,1.032379818E1
1.266094659E0,-1.843535304E-1,-4.256890774E0,1.036689377E1
1.268108279E0,-1.484405100E-1,-4.321534157E0,1.040041256E1
1.270091361E0,-1.316810995E-1,-4.364629745E0,1.041717148E1
1.272105519E0,-1.077390760E-1,-4.458003521E0,1.045308495E1
1.274089447E0,-7.900865376E-2,-4.548983097E0,1.046266174E1
1.276103298E0,-5.506663769E-2,-4.587290287E0,1.045308495E1
1.278087302E0,-3.830722719E-2,-4.642356873E0,1.043632507E1
1.280101154E0,0.000000000E0,-4.714183331E0,1.041717148E1
1.282083697E0,1.436521020E-2,-4.747702122E0,1.040041256E1
1.284099625E0,6.224924326E-2,-4.814739704E0,1.035013390E1
1.286113475E0,6.943184882E-2,-4.860229492E0,1.032379818E1
1.288096249E0,1.005564705E-1,-4.879383087E0,1.028788471E1
1.290111024E0,1.460463107E-1,-4.920084476E0,1.020408726E1
1.292095105E0,1.699883193E-1,-4.948814869E0,1.016099167E1
1.294108571E0,2.154781520E-1,-4.994304657E0,1.006522369E1
1.296091961E0,2.537853718E-1,-5.008669853E0,9.998186111E0
1.298106812E0,2.825157940E-1,-5.025429249E0,9.962273598E0
1.300089893E0,3.256114423E-1,-5.049371243E0,9.914389610E0
1.302104898E0,3.591302633E-1,-5.082890034E0,9.861717224E0
1.304087672E0,3.711012602E-1,-5.094861031E0,9.832986832E0
1.306102830E0,3.926490843E-1,-5.130774021E0,9.765948296E0
1.308086527E0,4.501099288E-1,-5.169081688E0,9.737217903E0
1.310100071E0,4.692635238E-1,-5.188235283E0,9.720458984E0
1.312114460E0,5.219359994E-1,-5.228936672E0,9.722852707E0
1.314097541E0,5.410895944E-1,-5.272032261E0,9.780313492E0
1.316112085E0,5.937620401E-1,-5.298368454E0,9.823410034E0
1.318095090E0,6.177040339E-1,-5.365406036E0,9.933543205E0
1.320110478E0,6.392518282E-1,-5.394136429E0,9.988609314E0
1.322092945E0,6.607996821E-1,-5.453991413E0,1.004846478E1
1.324107104E0,6.727706790E-1,-5.549759388E0,1.001255131E1
1.326091186E0,6.727706790E-1,-5.549759388E0,1.001255131E1
1.328105344E0,6.823474765E-1,-5.590460777E0,1.002691650E1
1.330089579E0,6.775590777E-1,-5.655104637E0,1.000536919E1
1.332102892E0,6.799532771E-1,-5.688623428E0,9.969455719E0
1.334086588E0,6.991068721E-1,-5.734113216E0,9.835380554E0
1.336101055E0,7.182605267E-1,-5.731719017E0,9.634267807E0
1.338084983E0,7.254431248E-1,-5.731719017E0,9.519346237E0
1.340099142E0,7.589619160E-1,-5.729324818E0,9.251194954E0
1.342113377E0,8.164227605E-1,-5.710171223E0,9.033323288E0
1.344096766E0,8.523358107E-1,-5.693411827E0,8.942343712E0
1.346112156E0,9.169792533E-1,-5.669469833E0,8.793902397E0
1.348094929E0,9.433154464E-1,-5.671864033E0,8.738836288E0
1.350108473E0,1.003170490E0,-5.671864033E0,8.669404030E0
1.352092401E0,1.043871999E0,-5.659893036E0,8.595184326E0
1.354105944E0,1.074996591E0,-5.667075634E0,8.578424454E0
1.356090256E0,1.110909581E0,-5.674258232E0,8.559270859E0
1.358103876E0,1.134851575E0,-5.698200226E0,8.643068314E0
1.360087804E0,1.149216771E0,-5.724536419E0,8.702922821E0
1.362102270E0,1.163581967E0,-5.779603004E0,8.813055992E0
1.364086352E0,1.139639974E0,-5.834669590E0,8.872911453E0
1.366101126E0,1.118092179E0,-5.856217384E0,8.880094528E0
1.368082977E0,1.058237195E0,-5.887341976E0,8.851364136E0
1.370098058E0,9.840168953E-1,-5.916072369E0,8.820239067E0
1.372112217E0,9.313444495E-1,-5.935225964E0,8.796297073E0
1.374096222E0,8.451532125E-1,-5.968744755E0,8.736441612E0
1.376109149E0,7.445967197E-1,-5.997475147E0,8.664615631E0
1.378093154E0,6.895300746E-1,-5.999869347E0,8.607154846E0
1.380107544E0,5.985504389E-1,-5.990292549E0,8.468291283E0
1.382091549E0,5.434837937E-1,-5.971138954E0,8.384494781E0
1.384105476E0,4.237737060E-1,-5.959167957E0,8.200140953E0
1.386089481E0,3.136404157E-1,-5.920860767E0,7.977479935E0
1.388102947E0,2.609679997E-1,-5.880159378E0,7.848193169E0
1.390087259E0,1.651999205E-1,-5.789179802E0,7.623138428E0
1.392100879E0,5.985504389E-2,-5.707777023E0,7.390900612E0
1.394085192E0,7.182605099E-3,-5.655104637E0,7.278373241E0
1.396098659E0,-1.292868853E-1,-5.535394192E0,7.067683220E0
1.398113124E0,-2.849099934E-1,-5.413290024E0,6.895300865E0
1.400096821E0,-3.687070608E-1,-5.346252441E0,6.835445881E0
1.402110442E0,-5.410895944E-1,-5.240907669E0,6.746860504E0
1.404094984E0,-7.422025204E-1,-5.140350819E0,6.665457726E0
1.406107989E0,-8.451532125E-1,-5.094861031E0,6.622362137E0
1.408092225E0,-1.058237195E0,-4.999093056E0,6.514622688E0
1.410106384E0,-1.247379065E0,-4.908113480E0,6.378153324E0
1.412089465E0,-1.345541358E0,-4.857835293E0,6.301538944E0
1.414103931E0,-1.529894829E0,-4.776432514E0,6.129156113E0
1.416088013E0,-1.608903527E0,-4.740519524E0,6.040570736E0
1.418101863E0,-1.762132406E0,-4.656722069E0,5.868188381E0
1.420084945E0,-1.920149803E0,-4.551377296E0,5.729324818E0
1.422100566E0,-1.996764183E0,-4.496310711E0,5.691017628E0
1.424114494E0,-2.140416384E0,-4.426878929E0,5.691017628E0
1.426098421E0,-2.276885748E0,-4.390965939E0,5.846640587E0
1.428111657E0,-2.341529369E0,-4.376600742E0,5.963956356E0
1.430095354E0,-2.458845139E0,-4.352658749E0,6.210559368E0
1.432109820E0,-2.530671120E0,-4.350264549E0,6.406883717E0
1.434093825E0,-2.554613113E0,-4.345476151E0,6.466738701E0
1.436107368E0,-2.592920542E0,-4.343081951E0,6.576871872E0
1.438091064E0,-2.616862535E0,-4.340687752E0,6.658275127E0
1.440105839E0,-2.624045134E0,-4.335899353E0,6.706159115E0
1.442088613E0,-2.604891539E0,-4.290409565E0,6.830657482E0
1.444103387E0,-2.568978310E0,-4.240131378E0,6.981492043E0
1.446087776E0,-2.561795712E0,-4.225766182E0,7.077260017E0
1.448100319E0,-2.549824715E0,-4.189853191E0,7.268796444E0
1.450114863E0,-2.547430515E0,-4.156333923E0,7.371747017E0
1.452098559E0,-2.530671120E0,-4.089296341E0,7.589619160E0
1.454113025E0,-2.528276920E0,-3.995922565E0,7.788338184E0
1.456096338E0,-2.533065319E0,-3.933673382E0,7.874529362E0
1.458110497E0,-2.540247917E0,-3.833117008E0,8.025363922E0
1.460094501E0,-2.576161146E0,-3.713406801E0,8.161833763E0
1.462109044E0,-2.600103140E0,-3.651157618E0,8.236053467E0
1.464091742E0,-2.626439333E0,-3.512293816E0,8.384494781E0
1.466107207E0,-2.647987127E0,-3.368641853E0,8.518569946E0
1.468089982E0,-2.655169725E0,-3.287238836E0,8.590395927E0
1.470103525E0,-2.698265314E0,-3.167528868E0,8.724471092E0
1.472087453E0,-2.717418909E0,-3.045424461E0,8.846575737E0
1.474102226E0,-2.734178305E0,-2.978386879E0,8.884882927E0
1.476085693E0,-2.722207308E0,-2.834734917E0,8.963891029E0
1.478099159E0,-2.722207308E0,-2.712630510E0,9.021351814E0
1.480113395E0,-2.703053713E0,-2.647987127E0,9.038111687E0
1.482097092E0,-2.659958124E0,-2.516305923E0,9.038111687E0
1.484112173E0,-2.645592928E0,-2.454056740E0,9.038111687E0
1.486095178E0,-2.595314741E0,-2.360682964E0,9.040505409E0
1.488109413E0,-2.552218914E0,-2.274491549E0,8.997409821E0
1.490092495E0,-2.528276920E0,-2.245761156E0,8.963891029E0
1.492107500E0,-2.473210335E0,-2.171540976E0,8.868123055E0
1.494091504E0,-2.403778553E0,-2.094926596E0,8.781931877E0
1.496104201E0,-2.382230759E0,-2.066195965E0,8.738836288E0
1.498088514E0,-2.331952572E0,-2.013523579E0,8.690952301E0
1.500103212E0,-2.296039343E0,-1.970427990E0,8.674192429E0
1.502086600E0,-2.276885748E0,-1.951274395E0,8.667010307E0
1.504100528E0,-2.233790159E0,-1.924938202E0,8.688557625E0
1.506114918E0,-2.195482969E0,-1.917755604E0,8.676587105E0
1.508098922E0,-2.166752577E0,-1.920149803E0,8.688557625E0
1.510112542E0,-2.128445387E0,-1.920149803E0,8.717288017E0
1.512096163E0,-2.114080191E0,-1.920149803E0,8.736441612E0
1.514110091E0,-2.059013367E0,-1.917755604E0,8.777143478E0
1.516094325E0,-1.996764183E0,-1.936909199E0,8.820239067E0
1.518108869E0,-1.948880196E0,-1.939303398E0,8.841787338E0
1.520092182E0,-1.845929503E0,-1.963245392E0,8.892065048E0
1.522105416E0,-1.728613615E0,-1.994369984E0,8.932766914E0
1.524090344E0,-1.671152830E0,-2.006340981E0,8.978256226E0
1.526105196E0,-1.553836942E0,-2.035071373E0,9.117119789E0
1.528087047E0,-1.422155857E0,-2.080561161E0,9.263166428E0
1.530102435E0,-1.350329757E0,-2.094926596E0,9.313444138E0
1.532084902E0,-1.201889277E0,-2.104503393E0,9.380482674E0
1.534099907E0,-1.034295082E0,-2.133233786E0,9.435548782E0
1.536113526E0,-9.385270476E-1,-2.145204782E0,9.454702377E0
1.538097454E0,-7.709329724E-1,-2.161964178E0,9.469067574E0
1.540111613E0,-5.770025849E-1,-2.173935175E0,9.466673851E0
1.542095695E0,-4.788403511E-1,-2.200271368E0,9.461885452E0
1.544109161E0,-2.489969730E-1,-2.229001760E0,9.471462250E0
1.546093473E0,-1.436520964E-1,-2.243366957E0,9.490615845E0
1.548107325E0,5.746084079E-2,-2.286462545E0,9.540893555E0
1.550090713E0,2.849099934E-1,-2.334346771E0,9.610325813E0
1.552105180E0,3.998316824E-1,-2.363077164E0,9.648633003E0
1.554087954E0,6.129156351E-1,-2.437297344E0,9.706093788E0
1.556102728E0,8.403648138E-1,-2.516305923E0,9.753977776E0
1.558086732E0,9.624691010E-1,-2.549824715E0,9.780313492E0
1.560100891E0,1.180341482E0,-2.638410330E0,9.792284966E0
1.562113588E0,1.419761658E0,-2.738966703E0,9.804255486E0
1.564098131E0,1.738190413E0,-2.894589901E0,9.844957352E0
1.566111674E0,1.738190413E0,-2.894589901E0,9.844957352E0
1.568095449E0,1.956062794E0,-3.028665066E0,9.883264542E0
1.570110454E0,2.068590164E0,-3.098097086E0,9.900024414E0
1.572094150E0,2.281674147E0,-3.232172251E0,9.928754807E0
1.574109232E0,2.475604534E0,-3.371036053E0,9.933543205E0
1.576092083E0,2.573766708E0,-3.430891037E0,9.952696800E0
1.578105241E0,2.796427488E0,-3.543418407E0,1.000297451E1
1.580089630E0,2.908955097E0,-3.620033026E0,1.001733971E1
1.582104097E0,3.134010077E0,-3.773261786E0,9.998186111E0
1.584087794E0,3.375824451E0,-3.892971992E0,9.933543205E0
1.586102183E0,3.493140221E0,-3.960009575E0,9.856928825E0
1.588084957E0,3.727771997E0,-4.060565948E0,9.674968719E0
1.590099424E0,3.952826977E0,-4.161122322E0,9.473855972E0
1.592114505E0,4.082113743E0,-4.201824188E0,9.378087997E0
1.594097048E0,4.309563160E0,-4.292803764E0,9.227252960E0
1.596111515E0,4.544194698E0,-4.376600742E0,9.109937668E0
1.598095135E0,4.659116745E0,-4.410119534E0,9.035717010E0
1.600109678E0,4.879383087E0,-4.481945515E0,8.858546257E0
1.602092452E0,5.058948040E0,-4.560954094E0,8.662221909E0
1.604107149E0,5.147533417E0,-4.592078686E0,8.554482460E0
1.606093076E0,5.312733650E0,-4.671087742E0,8.372523308E0
1.608104773E0,5.403713226E0,-4.730942726E0,8.190564156E0
1.610088778E0,5.552153587E0,-4.762067318E0,8.094796181E0
1.612102860E0,5.698200226E0,-4.807557106E0,7.920019150E0
1.614086326E0,5.753266811E0,-4.831499100E0,7.864952564E0
1.616100485E0,5.872976780E0,-4.879383087E0,7.752425194E0
1.618114567E0,5.963956356E0,-4.946420670E0,7.651868820E0
1.620098032E0,6.007051945E0,-4.970362663E0,7.620744228E0
1.622113037E0,6.054935932E0,-5.030217648E0,7.546523571E0
1.624096504E0,6.081272125E0,-5.097255230E0,7.405265808E0
1.626111201E0,6.088454723E0,-5.135562420E0,7.345410824E0
1.628094359E0,6.110002518E0,-5.183446884E0,7.223306656E0
1.630107826E0,6.095637321E0,-5.248090267E0,7.153874874E0
1.632091523E0,6.098031521E0,-5.286397457E0,7.137115479E0
1.634105988E0,6.090848923E0,-5.363011837E0,7.158663273E0
1.636089455E0,6.110002518E0,-5.420472622E0,7.182605267E0
1.638103845E0,6.098031521E0,-5.458779812E0,7.180211067E0
1.640087002E0,6.069301128E0,-5.521028996E0,7.153874874E0
1.642100777E0,6.064512730E0,-5.576095581E0,7.132327080E0
1.644117166E0,6.052541733E0,-5.607220173E0,7.084442616E0
1.646099248E0,6.069301128E0,-5.645527840E0,7.034164429E0
1.648113483E0,6.081272125E0,-5.669469833E0,7.010222435E0
1.650097180E0,6.098031521E0,-5.702988625E0,6.971915245E0
1.652110647E0,6.121973515E0,-5.724536419E0,6.950367451E0
1.654095035E0,6.143521786E0,-5.758055210E0,6.938396454E0
1.656109194E0,6.189011574E0,-5.817910194E0,6.916848660E0
1.658093122E0,6.265625954E0,-5.841852188E0,6.904877663E0
1.660106666E0,6.296750546E0,-5.853823185E0,6.900089264E0
1.662091054E0,6.366182327E0,-5.865794182E0,6.878541470E0
1.664104906E0,6.449979305E0,-5.892130375E0,6.842628479E0
1.666088526E0,6.481103897E0,-5.918466568E0,6.825869083E0
1.668102068E0,6.548141479E0,-5.947196960E0,6.792350292E0
1.670086381E0,6.607996464E0,-5.987898350E0,6.763619900E0
1.672100002E0,6.636727333E0,-6.002263546E0,6.749254704E0
1.674115007E0,6.665457726E0,-6.023811340E0,6.708553314E0
1.676098164E0,6.670246124E0,-6.038176537E0,6.660669327E0
1.678112631E0,6.675034523E0,-6.076483727E0,6.531382084E0
1.680096328E0,6.648698330E0,-6.110002518E0,6.368576527E0
1.682109563E0,6.631938934E0,-6.124367714E0,6.282385349E0
1.684095106E0,6.586448669E0,-6.172252178E0,6.117185116E0
1.686108881E0,6.483498096E0,-6.220136166E0,5.992686749E0
1.688091347E0,6.430825710E0,-6.234501362E0,5.928043365E0
1.690106120E0,6.313509941E0,-6.265625954E0,5.808333397E0
1.692088972E0,6.179434776E0,-6.294356346E0,5.695806026E0
1.694103977E0,6.110002518E0,-6.306327343E0,5.647922039E0
1.696087135E0,5.947196960E0,-6.330269337E0,5.568912983E0
1.698101524E0,5.777208805E0,-6.392518520E0,5.535394192E0
1.700084375E0,5.688623428E0,-6.411672115E0,5.544970989E0
1.702099457E0,5.513846397E0,-6.476315498E0,5.614402771E0
1.704113000E0,5.334281445E0,-6.528987885E0,5.729324818E0
1.706097620E0,5.243301868E0,-6.560112476E0,5.801150799E0
1.708111164E0,5.054159641E0,-6.636727333E0,5.975927353E0
1.710095091E0,4.958391666E0,-6.687005520E0,6.066906929E0
1.712108403E0,4.747702122E0,-6.780379295E0,6.239289761E0
1.714092331E0,4.565742493E0,-6.873753071E0,6.358999729E0
1.716106567E0,4.455609322E0,-6.916848660E0,6.397306919E0
1.718090571E0,4.247313976E0,-7.007828236E0,6.481103897E0
1.720104422E0,4.086902142E0,-7.055712223E0,6.555324078E0
1.722087504E0,3.993528366E0,-7.086836815E0,6.593631268E0
1.724103124E0,3.837905407E0,-7.163451672E0,6.636727333E0
1.726085359E0,3.720589399E0,-7.230489254E0,6.658275127E0
1.728100672E0,3.672705412E0,-7.266402245E0,6.663063526E0
1.730114600E0,3.569754839E0,-7.333439827E0,6.703764915E0
1.732098297E0,3.476380825E0,-7.412448406E0,6.744466305E0
1.734111840E0,3.428496838E0,-7.462726593E0,6.766014099E0
1.736095845E0,3.313575268E0,-7.548917770E0,6.818686485E0
1.738110541E0,3.270479441E0,-7.623138428E0,6.856993675E0
1.740093392E0,3.174711466E0,-7.654263020E0,6.868964672E0
1.742107551E0,3.098097086E0,-7.754819393E0,6.883329868E0
1.744091556E0,3.052607059E0,-7.793126583E0,6.890512466E0
1.746106560E0,2.980781078E0,-7.855375767E0,6.914454460E0
1.748089642E0,2.908955097E0,-7.927201748E0,6.962338448E0
1.750103570E0,2.868253708E0,-7.963114738E0,6.993463039E0
1.752086959E0,2.813186884E0,-8.025363922E0,7.050923824E0
1.754101118E0,2.762908697E0,-8.063671112E0,7.094019413E0
1.756115507E0,2.753331900E0,-8.070854187E0,7.101202011E0
1.758099282E0,2.700659513E0,-8.070854187E0,7.120356083E0
1.760113440E0,2.628833532E0,-8.078036308E0,7.113173485E0
1.762096521E0,2.602497339E0,-8.078036308E0,7.115567684E0
1.764111603E0,2.559401512E0,-8.032546997E0,7.110779285E0
1.766096454E0,2.535459518E0,-7.960720539E0,7.084442616E0
1.768108151E0,2.509123325E0,-7.927201748E0,7.084442616E0
1.770092771E0,2.473210335E0,-7.852981567E0,7.096413612E0
1.772106930E0,2.466027737E0,-7.757213593E0,7.101202011E0
1.774090626E0,2.473210335E0,-7.714118004E0,7.091625214E0
1.776104785E0,2.489969730E0,-7.618350029E0,7.079654217E0
1.778088483E0,2.497152328E0,-7.568071365E0,7.065289021E0
1.780102102E0,2.516305923E0,-7.453149796E0,7.034164429E0
1.782086953E0,2.542642117E0,-7.357381821E0,6.979097843E0
1.784100266E0,2.561795712E0,-7.304709435E0,6.950367451E0
1.786115040E0,2.604891539E0,-7.201758862E0,6.880935669E0
1.788098121E0,2.655169725E0,-7.096413612E0,6.816292286E0
1.790111895E0,2.676717520E0,-7.043741226E0,6.775590897E0
1.792096285E0,2.693476915E0,-6.957550049E0,6.732495308E0
1.794110366E0,2.703053713E0,-6.852205276E0,6.739677906E0
1.796093525E0,2.695871115E0,-6.813898087E0,6.742072105E0
1.798107607E0,2.688688517E0,-6.744466305E0,6.742072105E0
1.800091304E0,2.686294317E0,-6.701370716E0,6.746860504E0
1.802105462E0,2.676717520E0,-6.677428722E0,6.749254704E0
1.804088544E0,2.616862535E0,-6.627150536E0,6.770802498E0
1.806105241E0,2.616862535E0,-6.617573261E0,6.773196697E0
1.808087322E0,2.540247917E0,-6.584054470E0,6.766014099E0
1.810101481E0,2.437297344E0,-6.555324078E0,6.725312710E0
1.812115332E0,2.384624958E0,-6.552929878E0,6.708553314E0
1.814098798E0,2.257732153E0,-6.550535679E0,6.672640324E0
1.816113187E0,2.109291792E0,-6.536170483E0,6.689399719E0
1.818096654E0,2.032677174E0,-6.533776283E0,6.706159115E0
1.820111120E0,1.881842494E0,-6.521805286E0,6.763619900E0
1.822095432E0,1.740584612E0,-6.493074894E0,6.876147270E0
1.824108591E0,1.671152830E0,-6.488286495E0,6.950367451E0
1.826092980E0,1.541865945E0,-6.502651691E0,7.139509678E0
1.828106216E0,1.403002143E0,-6.505045891E0,7.340622425E0
1.830090451E0,1.345541358E0,-6.502651691E0,7.429207802E0
1.832103994E0,1.230619669E0,-6.464344501E0,7.556100368E0
1.834088076E0,1.180341482E0,-6.423643112E0,7.668628216E0
1.836101849E0,1.065419793E0,-6.411672115E0,7.718906403E0
1.838085624E0,9.624691010E-1,-6.375759125E0,7.797914982E0
1.840100090E0,9.217676520E-1,-6.356605530E0,7.824251175E0
1.842113864E0,8.547300100E-1,-6.311115742E0,7.893682957E0
1.844098868E0,7.829039693E-1,-6.236895561E0,7.958326340E0
1.846114181E0,7.541735172E-1,-6.198588371E0,7.977479935E0
1.848095186E0,7.110779285E-1,-6.112396717E0,8.027758598E0
1.850109652E0,6.823474765E-1,-6.035782337E0,8.118738174E0
1.852093272E0,6.560112834E-1,-5.999869347E0,8.161833763E0
1.854107739E0,6.224924326E-1,-5.928043365E0,8.228871346E0
1.856090589E0,5.626373887E-1,-5.839457989E0,8.288725853E0
1.858105671E0,5.219359994E-1,-5.791574001E0,8.322244644E0
1.860089060E0,4.501099288E-1,-5.712565422E0,8.384494781E0
1.862103835E0,3.711012602E-1,-5.612008572E0,8.453926086E0
1.864087223E0,3.232172430E-1,-5.566518784E0,8.489839554E0
1.866102228E0,2.322375625E-1,-5.468356609E0,8.537723541E0
1.868085310E0,1.891419291E-1,-5.386953831E0,8.554482460E0
1.870098545E0,9.816227108E-2,-5.336675644E0,8.568847656E0
1.872113011E0,4.788403399E-3,-5.260061264E0,8.568847656E0
1.874097016E0,-3.830722719E-2,-5.219359875E0,8.561665535E0
1.876110945E0,-1.388636976E-1,-5.130774021E0,8.556877136E0
1.878094641E0,-2.394201756E-1,-5.042188644E0,8.506598473E0
1.880108800E0,-2.825157940E-1,-4.991910458E0,8.434772491E0
1.882091574E0,-3.423708379E-1,-4.908113480E0,8.370129585E0
1.884107886E0,-4.357447028E-1,-4.850652695E0,8.406042099E0
1.886089660E0,-4.740519226E-1,-4.807557106E0,8.410830498E0
1.888104819E0,-5.530605912E-1,-4.730942726E0,8.353369713E0
1.890088439E0,-6.272808313E-1,-4.637568474E0,8.207323074E0
1.892102289E0,-6.655880809E-1,-4.611232281E0,8.142680168E0
1.894085679E0,-7.158663273E-1,-4.580107689E0,8.013393402E0
1.896100453E0,-7.589619160E-1,-4.539406300E0,7.893682957E0
1.898113688E0,-7.900865674E-1,-4.522646904E0,7.852981567E0
1.900097693E0,-8.188169599E-1,-4.513070107E0,7.776367188E0
1.902112544E0,-8.212111592E-1,-4.510675907E0,7.714118004E0
1.904095318E0,-8.212111592E-1,-4.515464306E0,7.692570210E0
1.906109707E0,-8.044517636E-1,-4.527435303E0,7.651868820E0
1.908093097E0,-7.948749661E-1,-4.529829502E0,7.642292023E0
1.910108255E0,-7.493851185E-1,-4.553771496E0,7.642292023E0
1.912091875E0,-6.560112834E-1,-4.587290287E0,7.687781811E0
1.914105418E0,-6.153098345E-1,-4.604049683E0,7.702147007E0
1.916089423E0,-5.219359994E-1,-4.642356873E0,7.750030994E0
1.918102736E0,-3.830722570E-1,-4.668693542E0,7.812280178E0
1.920086432E0,-3.184288144E-1,-4.675876141E0,7.841010571E0
1.922100591E0,-1.699883193E-1,-4.699818134E0,7.931990147E0
1.924115904E0,7.182605099E-3,-4.723760128E0,8.051700592E0
1.926099985E0,1.029506698E-1,-4.728548527E0,8.118738174E0
1.928112221E0,2.729389966E-1,-4.738125324E0,8.271966934E0
1.930097533E0,4.812345505E-1,-4.726154327E0,8.425195694E0
1.932110692E0,5.746083856E-1,-4.711789131E0,8.487444878E0
1.934094696E0,7.829039693E-1,-4.690241337E0,8.633491516E0
1.936108009E0,8.810662031E-1,-4.663905144E0,8.702922821E0
1.938091937E0,1.094150186E0,-4.647145271E0,8.829815865E0
1.940105864E0,1.266532660E0,-4.592078686E0,8.978256226E0
1.942089869E0,1.355118155E0,-4.568136692E0,9.059659004E0
1.944103951E0,1.529894829E0,-4.510675907E0,9.208099365E0
1.946088879E0,1.680729628E0,-4.448426723E0,9.346963882E0
1.948102191E0,1.728613615E0,-4.419696331E0,9.406818390E0
1.950085503E0,1.824381709E0,-4.367023945E0,9.490615845E0
1.952099739E0,1.908178806E0,-4.295197964E0,9.531316757E0
1.954113897E0,1.941697598E0,-4.240131378E0,9.524134636E0
1.956097210E0,2.015917778E0,-4.168305397E0,9.497797966E0
1.958111984E0,2.066195965E0,-4.122815132E0,9.485827446E0
1.960095681E0,2.073378563E0,-4.094084740E0,9.478644371E0
1.962108993E0,2.082955360E0,-4.062960148E0,9.445125580E0
1.964094459E0,2.104503393E0,-4.022258759E0,9.402029991E0
1.966106464E0,2.106897593E0,-3.993528366E0,9.385271072E0
1.968090853E0,2.106897593E0,-3.962403774E0,9.330204010E0
1.970105320E0,2.097320795E0,-3.952826977E0,9.291896820E0
1.972088632E0,2.078166962E0,-3.952826977E0,9.227252960E0
1.974102253E0,2.051830769E0,-3.933673382E0,9.188945770E0
1.976087180E0,2.037465572E0,-3.931279182E0,9.169792175E0
1.978101262E0,2.013523579E0,-3.948038578E0,9.097966194E0
1.980115190E0,2.003946781E0,-3.948038578E0,9.038111687E0
1.982098271E0,2.006340981E0,-3.952826977E0,9.004592896E0
1.984112737E0,2.003946781E0,-3.967192173E0,8.911218643E0
1.986097281E0,2.032677174E0,-4.005499363E0,8.832210541E0
1.988110901E0,2.025494576E0,-4.005499363E0,8.796297073E0
1.990094213E0,2.023100376E0,-4.000710964E0,8.731653214E0
1.992108679E0,2.080561161E0,-4.003105164E0,8.652645111E0
1.994091838E0,2.104503393E0,-4.010287762E0,8.628703117E0
1.996106227E0,2.181117773E0,-4.024652958E0,8.564059258E0
1.998089924E0,2.214636564E0,-4.055777550E0,8.537723541E0
2.000104160E0,2.286462545E0,-4.072536945E0,8.530540466E0
2.002087550E0,2.377442360E0,-4.101267338E0,8.528146744E0
2.004102938E0,2.430114746E0,-4.115632534E0,8.520963669E0
2.006086635E0,2.518700123E0,-4.153939724E0,8.492233276E0
2.008099487E0,2.612074137E0,-4.204218388E0,8.477868080E0
2.010113952E0,2.659958124E0,-4.213795185E0,8.449137688E0
2.012097649E0,2.753331900E0,-4.240131378E0,8.394071579E0
2.014112193E0,2.858676910E0,-4.278438568E0,8.267178535E0
2.016095890E0,2.928108692E0,-4.290409565E0,8.192957878E0
2.018109125E0,3.064578056E0,-4.299986362E0,8.051700592E0
2.020093130E0,3.241749048E0,-4.347870350E0,7.965508938E0
2.022107520E0,3.327940464E0,-4.357447147E0,7.929595947E0
2.024090601E0,3.493140221E0,-4.367023945E0,7.826645374E0
2.026105990E0,3.651157618E0,-4.381389141E0,7.671022415E0
2.028089149E0,3.734954596E0,-4.395754337E0,7.587224960E0
2.030102693E0,3.926490784E0,-4.412513733E0,7.400477409E0
2.032086620E0,4.015076160E0,-4.417302132E0,7.314286232E0
2.034101163E0,4.185064793E0,-4.436455727E0,7.134721279E0
2.036114399E0,4.347870350E0,-4.453215122E0,7.019799232E0
2.038098941E0,4.419696331E0,-4.458003521E0,6.974309444E0
2.040112562E0,4.541800499E0,-4.479551315E0,6.943184853E0
2.042095951E0,4.666299343E0,-4.493916512E0,6.945579052E0
2.044110033E0,4.781220913E0,-4.539406300E0,6.995857239E0
2.046091268E0,4.781220913E0,-4.539406300E0,6.995857239E0
2.048108504E0,4.826710701E0,-4.580107689E0,7.017405033E0
2.050092201E0,4.853046894E0,-4.582501888E0,7.058106422E0
2.052106359E0,4.869806290E0,-4.616020679E0,7.156269073E0
2.054089441E0,4.845864296E0,-4.637568474E0,7.280767441E0
2.056104292E0,4.812345505E0,-4.663905144E0,7.347805023E0
2.058087373E0,4.754884720E0,-4.699818134E0,7.479485989E0
2.060101763E0,4.656722069E0,-4.742913723E0,7.611167431E0
2.062117152E0,4.592078686E0,-4.757278919E0,7.680599213E0
2.064100003E0,4.424484730E0,-4.795586109E0,7.852981567E0
2.066114084E0,4.347870350E0,-4.865017891E0,8.025363922E0
2.068097551E0,4.144362926E0,-4.898536682E0,8.101978302E0
2.070111710E0,3.883395195E0,-4.934449673E0,8.219294548E0
2.072095637E0,3.746925592E0,-4.963180065E0,8.262390137E0
2.074109180E0,3.473986626E0,-5.027823448E0,8.336610794E0
2.076093262E0,3.138798475E0,-5.092466831E0,8.365341187E0
2.078107421E0,2.980781078E0,-5.111620426E0,8.384494781E0
2.080090733E0,2.643198729E0,-5.154716492E0,8.415618896E0
2.082104584E0,2.334346771E0,-5.188235283E0,8.446743965E0
2.084089281E0,2.188300371E0,-5.216965675E0,8.463502884E0
2.086104670E0,1.917755604E0,-5.267243862E0,8.535328865E0
2.088086136E0,1.683123827E0,-5.295974255E0,8.678980827E0
2.090100911E0,1.587355733E0,-5.312733650E0,8.769960403E0
2.092114223E0,1.419761658E0,-5.365406036E0,8.951920509E0
2.094098766E0,1.285686255E0,-5.437232018E0,9.100360870E0
2.096112078E0,1.221042871E0,-5.461174011E0,9.167398453E0
2.098096391E0,1.120486379E0,-5.506663799E0,9.279925346E0
2.100110164E0,1.089361787E0,-5.549759388E0,9.337387085E0
2.102095169E0,1.048660398E0,-5.559336185E0,9.449913979E0
2.104108405E0,9.888052940E-1,-5.588066578E0,9.581595421E0
2.106092026E0,9.840168953E-1,-5.600037575E0,9.648633003E0
2.108106568E0,9.840168953E-1,-5.600037575E0,9.612719536E0
2.110089650E0,1.022324085E0,-5.597643375E0,9.500192642E0
2.112103501E0,1.065419793E0,-5.602431774E0,9.485827446E0
2.114088044E0,1.144428372E0,-5.580883980E0,9.514557838E0
2.116101049E0,1.247379065E0,-5.568912983E0,9.524134636E0
2.118115823E0,1.309628367E0,-5.556941986E0,9.507374763E0
2.120099443E0,1.455674648E0,-5.513846397E0,9.452308655E0
2.122113293E0,1.642422318E0,-5.489904404E0,9.409213066E0
2.124097991E0,1.742978811E0,-5.468356609E0,9.380482674E0
2.126110611E0,1.944091797E0,-5.398924828E0,9.299078941E0
2.128095154E0,2.039859772E0,-5.343858242E0,9.208099365E0
2.130109697E0,2.226607561E0,-5.312733650E0,9.157821655E0
2.132093010E0,2.406172752E0,-5.269638062E0,9.057265282E0
2.134107169E0,2.489969730E0,-5.240907669E0,9.006986618E0
2.136090865E0,2.636016130E0,-5.171475887E0,8.925583839E0
2.138105024E0,2.741360903E0,-5.133168221E0,8.834604263E0
2.140088490E0,2.801215887E0,-5.114014626E0,8.781931877E0
2.142103571E0,2.887407303E0,-5.068524837E0,8.659827232E0
2.144086345E0,2.973598480E0,-5.039794445E0,8.523358345E0
2.146101735E0,3.011905670E0,-5.030217648E0,8.446743965E0
2.148114894E0,3.071760893E0,-5.013458252E0,8.291120529E0
2.150098283E0,3.143586874E0,-5.011064053E0,8.109161377E0
2.152112518E0,3.165134668E0,-5.015852451E0,8.013393402E0
2.154095908E0,3.191470861E0,-5.039794445E0,7.850587368E0
2.156110912E0,3.234566450E0,-5.068524837E0,7.692570210E0
2.158093994E0,3.253720045E0,-5.087678432E0,7.618350029E0
2.160107845E0,3.284844637E0,-5.123591423E0,7.501033783E0
2.162091235E0,3.301604033E0,-5.190629482E0,7.405265808E0
2.164106623E0,3.337517262E0,-5.226542473E0,7.359776020E0
2.166090936E0,3.344699860E0,-5.293580055E0,7.247248650E0
2.168103249E0,3.349488258E0,-5.324704647E0,7.180211067E0
2.170087868E0,3.330334663E0,-5.408501625E0,7.058106422E0
2.172101719E0,3.308786631E0,-5.509057999E0,6.945579052E0
2.174115263E0,3.299209833E0,-5.554547787E0,6.907271862E0
2.176099268E0,3.258508444E0,-5.621585369E0,6.878541470E0
2.178113195E0,3.236960649E0,-5.686229229E0,6.856993675E0
2.180097123E0,3.229778051E0,-5.724536419E0,6.856993675E0
2.182111666E0,3.191470861E0,-5.815515995E0,6.854599476E0
2.184095055E0,3.145981073E0,-5.877765179E0,6.873753071E0
2.186110675E0,3.119644880E0,-5.904101372E0,6.885724068E0
2.188093142E0,3.078943491E0,-5.954379559E0,6.933608055E0
2.190106993E0,3.009511471E0,-6.002263546E0,7.010222435E0
2.192090766E0,2.968810081E0,-6.021417141E0,7.046135426E0
2.194104925E0,2.880224705E0,-6.035782337E0,7.101202011E0
2.196088545E0,2.839523315E0,-6.062118530E0,7.120356083E0
2.198103088E0,2.777273893E0,-6.066906929E0,7.151480675E0
2.200086401E0,2.707842112E0,-6.052541733E0,7.156269073E0
2.202100252E0,2.671929121E0,-6.054935932E0,7.156269073E0
2.204114795E0,2.626439333E0,-6.045359135E0,7.137115479E0
2.206098184E0,2.600103140E0,-6.028599739E0,7.122750282E0
2.208112343E0,2.600103140E0,-6.009446144E0,7.103596210E0
2.210096040E0,2.602497339E0,-5.963956356E0,7.055712223E0
2.212110198E0,2.612074137E0,-5.923254967E0,7.005434036E0
2.214094126E0,2.636016130E0,-5.904101372E0,6.986280441E0
2.216108593E0,2.676717520E0,-5.863399982E0,6.940790653E0
2.218091674E0,2.738966703E0,-5.820304394E0,6.883329868E0
2.220105832E0,2.786850691E0,-5.805939198E0,6.852205276E0
2.222090222E0,2.894589901E0,-5.777208805E0,6.768408298E0
2.224103381E0,2.992752075E0,-5.736507416E0,6.641515732E0
2.226088385E0,3.040636063E0,-5.710171223E0,6.560112476E0
2.228101621E0,3.174711466E0,-5.650316238E0,6.404489517E0
2.230115472E0,3.246537447E0,-5.597643375E0,6.342240334E0
2.232098861E0,3.387795448E0,-5.580883980E0,6.236895561E0
2.234113250E0,3.526659012E0,-5.566518784E0,6.105214119E0
2.236097024E0,3.603273630E0,-5.568912983E0,6.045359135E0
2.238111414E0,3.758896589E0,-5.566518784E0,5.932831764E0
2.240095110E0,3.919308186E0,-5.573701382E0,5.834669590E0
2.242109654E0,3.995922565E0,-5.571307182E0,5.798756599E0
2.244092736E0,4.125209332E0,-5.595249176E0,5.753266811E0
2.246109356E0,4.264073372E0,-5.633556366E0,5.731719017E0
2.248089898E0,4.319139957E0,-5.667075634E0,5.741295815E0
2.250105596E0,4.414907932E0,-5.734113216E0,5.760449409E0
2.252087755E0,4.493916512E0,-5.798756599E0,5.765237808E0
2.254102528E0,4.513070107E0,-5.820304394E0,5.746084213E0
2.256116764E0,4.534617901E0,-5.889736176E0,5.712565422E0
2.258100692E0,4.537012100E0,-5.973533154E0,5.731719017E0
2.260114543E0,4.520252705E0,-6.014234543E0,5.753266811E0
2.262099162E0,4.479551315E0,-6.086060524E0,5.837063789E0
2.264111783E0,4.450820923E0,-6.114790916E0,5.906495571E0
2.266097403E0,4.355052948E0,-6.184223175E0,6.105214119E0
2.268109715E0,4.252102375E0,-6.248866558E0,6.315904140E0
2.270093643E0,4.177882195E0,-6.272808552E0,6.414066315E0
2.272107571E0,4.031835556E0,-6.337451935E0,6.533776283E0
2.274091806E0,3.857059002E0,-6.373364925E0,6.619967937E0
2.276105734E0,3.749319792E0,-6.375759125E0,6.677428722E0
2.278089739E0,3.521870613E0,-6.375759125E0,6.830657482E0
2.280103590E0,3.303998232E0,-6.358999729E0,6.991068840E0
2.282086671E0,3.196259260E0,-6.349422932E0,7.067683220E0
2.284101060E0,2.837129116E0,-6.306327343E0,7.211335659E0
2.286114988E0,2.715024710E0,-6.301538944E0,7.247248650E0
2.288098377E0,2.590526342E0,-6.294356346E0,7.290344238E0
2.290114305E0,2.360682964E0,-6.279991150E0,7.376535416E0
2.292096772E0,2.252943754E0,-6.241683960E0,7.462726593E0
2.294111007E0,2.047042370E0,-6.220136166E0,7.503427982E0
2.296095242E0,1.843535304E0,-6.181828976E0,7.599195957E0
2.298108555E0,1.738190413E0,-6.172252178E0,7.647080421E0
2.300092868E0,1.565807939E0,-6.131550789E0,7.747636795E0
2.302107564E0,1.398213744E0,-6.098031521E0,7.855375767E0
2.304090954E0,1.326387763E0,-6.071695328E0,7.910442352E0
2.306104882E0,1.180341482E0,-6.050147533E0,8.013393402E0
2.308088502E0,1.065419793E0,-6.016628742E0,8.099584579E0
2.310102429E0,1.015141487E0,-5.999869347E0,8.121131897E0
2.312116819E0,8.810662031E-1,-5.966350555E0,8.149862289E0
2.314100285E0,7.709329724E-1,-5.901707172E0,8.195352554E0
2.316114059E0,7.254431248E-1,-5.865794182E0,8.212111473E0
2.318097756E0,6.560112834E-1,-5.765237808E0,8.209717751E0
2.320112530E0,5.865794420E-1,-5.681440830E0,8.180987358E0
2.322095304E0,5.698199868E-1,-5.655104637E0,8.169015884E0
2.324111001E0,5.195417404E-1,-5.580883980E0,8.157045364E0
2.326095929E0,5.123591423E-1,-5.501875401E0,8.157045364E0
2.328107626E0,4.979939461E-1,-5.468356609E0,8.152256966E0
2.330091707E0,4.716577232E-1,-5.391742229E0,8.111555099E0
2.332105250E0,4.596867263E-1,-5.360617638E0,8.061277390E0
2.334089486E0,4.548983276E-1,-5.248090267E0,7.951143742E0
2.336103414E0,4.405331016E-1,-5.149928093E0,7.848193169E0
2.338087111E0,4.285621047E-1,-5.087678432E0,7.793126583E0
2.340101193E0,4.165911078E-1,-4.996698856E0,7.685387611E0
2.342116044E0,3.950432837E-1,-4.924872875E0,7.548917770E0
2.344099432E0,3.854664862E-1,-4.881777287E0,7.477091789E0
2.346113899E0,3.471592367E-1,-4.821922302E0,7.352593422E0
2.348097288E0,3.160346150E-1,-4.771644115E0,7.252037048E0
2.350111370E0,3.016694188E-1,-4.742913723E0,7.211335659E0
2.352094759E0,2.513911724E-1,-4.680664539E0,7.156269073E0
2.354109302E0,2.082955539E-1,-4.659116745E0,7.108384609E0
2.356092384E0,1.963245422E-1,-4.668693542E0,7.089231014E0
2.358106235E0,1.484405100E-1,-4.663905144E0,7.072471619E0
2.360090470E0,1.460463107E-1,-4.654327869E0,7.072471619E0
2.362104321E0,1.244984865E-1,-4.637568474E0,7.070077419E0
2.364089326E0,1.268926859E-1,-4.656722069E0,7.053318024E0
2.366101561E0,1.268926859E-1,-4.668693542E0,7.060500622E0
2.368116720E0,1.388636976E-1,-4.673481941E0,7.117961884E0
2.370100341E0,1.604115069E-1,-4.685452938E0,7.232883453E0
2.372114268E0,1.843535304E-1,-4.695029736E0,7.302315235E0
2.374097657E0,2.394201756E-1,-4.687847137E0,7.455543995E0
2.376112662E0,2.896983922E-1,-4.685452938E0,7.603984833E0
2.378095436E0,3.088520169E-1,-4.685452938E0,7.666234016E0
2.380110210E0,3.615244627E-1,-4.685452938E0,7.752425194E0
2.382093676E0,3.998316824E-1,-4.659116745E0,7.802703381E0
2.384107835E0,4.189853072E-1,-4.647145271E0,7.831433773E0
2.386092685E0,4.884171486E-1,-4.604049683E0,7.884106159E0
2.388105921E0,5.698199868E-1,-4.553771496E0,7.963114738E0
2.390089388E0,6.081272364E-1,-4.517858505E0,8.010998726E0
2.392103777E0,6.751648784E-1,-4.479551315E0,8.087613106E0
2.394086320E0,7.086837292E-1,-4.455609322E0,8.130708694E0
2.396100786E0,7.733271718E-1,-4.402936935E0,8.195352554E0
2.398115176E0,8.044517636E-1,-4.340687752E0,8.252813339E0
2.400098257E0,8.307880163E-1,-4.297592163E0,8.291120529E0
2.402112493E0,8.954314590E-1,-4.235342979E0,8.341399193E0
2.404097113E0,9.481038451E-1,-4.170699596E0,8.389283180E0
2.406112810E0,9.744400978E-1,-4.146757126E0,8.406042099E0
2.408093737E0,1.034295082E0,-4.101267338E0,8.401253700E0
2.410109050E0,1.103726983E0,-4.031835556E0,8.386888504E0
2.412092440E0,1.127668977E0,-4.003105164E0,8.374917984E0
2.414106905E0,1.199495077E0,-3.957615376E0,8.358158112E0
2.416090295E0,1.285686255E0,-3.900154591E0,8.360552788E0
2.418104454E0,1.316810966E0,-3.881000996E0,8.362946510E0
2.420088536E0,1.398213744E0,-3.854664803E0,8.370129585E0
2.422102924E0,1.450886250E0,-3.847482204E0,8.374917984E0
2.424115852E0,1.544260144E0,-3.847482204E0,8.382100105E0
2.426100242E0,1.663970232E0,-3.866635799E0,8.382100105E0
2.428114400E0,1.733402014E0,-3.869029999E0,8.377311707E0
2.430098020E0,1.865083098E0,-3.866635799E0,8.358158112E0
2.432111333E0,2.008735180E0,-3.904942989E0,8.360552788E0
2.434095569E0,2.078166962E0,-3.909731388E0,8.346187592E0
2.436110034E0,2.224213362E0,-3.955221176E0,8.331821442E0
2.438093731E0,2.372653961E0,-3.983951569E0,8.317456245E0
2.440107660E0,2.444479942E0,-3.993528366E0,8.300697327E0
2.442090971E0,2.595314741E0,-4.000710964E0,8.262390137E0
2.444105822E0,2.738966703E0,-4.029441357E0,8.183381081E0
2.446088904E0,2.810792685E0,-4.031835556E0,8.140285492E0
2.448103602E0,2.949656487E0,-4.034229755E0,8.030152321E0
2.450086683E0,3.074155092E0,-4.043806553E0,7.927201748E0
2.452100918E0,3.141192675E0,-4.043806553E0,7.869740963E0
2.454114769E0,3.284844637E0,-4.058171749E0,7.759607792E0
2.456099004E0,3.344699860E0,-4.058171749E0,7.608773232E0
2.458112855E0,3.445256233E0,-4.058171749E0,7.524975777E0
2.460096014E0,3.529053211E0,-4.079719543E0,7.340622425E0
2.462111019E0,3.564966440E0,-4.084507942E0,7.244854450E0
2.464094177E0,3.646369219E0,-4.084507942E0,7.034164429E0
2.466109259E0,3.708618402E0,-4.103661537E0,6.885724068E0
2.468093264E0,3.746925592E0,-4.110844135E0,6.842628479E0
2.470106499E0,3.797203779E0,-4.144362926E0,6.789956093E0
2.472090427E0,3.849876404E0,-4.180276394E0,6.766014099E0
2.474104663E0,3.861847401E0,-4.201824188E0,6.746860504E0
2.476088282E0,3.878606796E0,-4.235342979E0,6.720524311E0
2.478102441E0,3.895366192E0,-4.256890774E0,6.691793919E0
2.480116600E0,3.907337189E0,-4.278438568E0,6.682217121E0
2.482099374E0,3.933673382E0,-4.292803764E0,6.696582317E0
2.484113840E0,3.940855980E0,-4.311957359E0,6.773196697E0
2.486098845E0,3.950432777E0,-4.316745758E0,6.833051682E0
2.488111465E0,3.916913986E0,-4.331110954E0,7.003039837E0
2.490095161E0,3.897760391E0,-4.369418144E0,7.115567684E0
2.492109935E0,3.861847401E0,-4.412513733E0,7.326257229E0
2.494092940E0,3.778050184E0,-4.460397720E0,7.505822182E0
2.496107715E0,3.725377798E0,-4.481945515E0,7.584830761E0
2.498091103E0,3.603273630E0,-4.527435303E0,7.773972988E0
2.500105031E0,3.440467834E0,-4.608838081E0,7.965508938E0
2.502089652E0,3.344699860E0,-4.635174274E0,8.082824707E0
2.504103117E0,3.122039080E0,-4.692635536E0,8.298302650E0
2.506117661E0,2.851494312E0,-4.778826714E0,8.487444878E0
2.508100435E0,2.703053713E0,-4.812345505E0,8.552088737E0
2.510115209E0,2.401384354E0,-4.857835293E0,8.662221909E0
2.512098521E0,2.094926596E0,-4.932055473E0,8.757989883E0
2.514112757E0,1.927332401E0,-4.979939461E0,8.796297073E0
2.516096377E0,1.599326730E0,-5.082890034E0,8.877699852E0
2.518110920E0,1.233013868E0,-5.171475887E0,8.935160637E0
2.520093694E0,1.041477680E0,-5.214571476E0,8.956708908E0
2.522108083E0,6.943184733E-1,-5.293580055E0,8.987833023E0
2.524091781E0,2.226607651E-1,-5.406107426E0,9.009381294E0
2.526103169E0,6.943184882E-2,-5.442020416E0,8.997409821E0
2.528121713E0,-7.422025502E-2,-5.487510204E0,8.983044624E0
2.530104410E0,-2.059013397E-1,-5.530605793E0,8.980650902E0
2.532088107E0,-4.620809257E-1,-5.607220173E0,8.978256226E0
2.534102035E0,-6.607996821E-1,-5.679046631E0,9.018958092E0
2.536116424E0,-7.398083210E-1,-5.714959621E0,9.040505409E0
2.538099506E0,-9.074024558E-1,-5.781997204E0,9.114726067E0
2.540113433E0,-1.039083481E0,-5.844246387E0,9.162610054E0
2.542098900E0,-1.089361787E0,-5.863399982E0,9.203310966E0
2.544111905E0,-1.161187768E0,-5.896918774E0,9.277531624E0
2.546096755E0,-1.213860273E0,-5.928043365E0,9.380482674E0
2.548109760E0,-1.223437071E0,-5.928043365E0,9.430760384E0
2.550093380E0,-1.218648672E0,-5.920860767E0,9.543288231E0
2.552108539E0,-1.201889277E0,-5.920860767E0,9.677363396E0
2.554090620E0,-1.187524080E0,-5.906495571E0,9.744400978E0
2.556105394E0,-1.134851575E0,-5.880159378E0,9.878476143E0
2.558088861E0,-1.089361787E0,-5.851428986E0,9.943120003E0
2.560102711E0,-9.816226959E-1,-5.789179802E0,1.008677197E1
2.562116562E0,-8.762778044E-1,-5.726930618E0,1.020169353E1
2.564101106E0,-8.212111592E-1,-5.691017628E0,1.024718285E1
2.566116188E0,-6.871358752E-1,-5.600037575E0,1.032619190E1
2.568097730E0,-5.147533417E-1,-5.511452198E0,1.037168217E1
2.570112889E0,-4.189853072E-1,-5.475539207E0,1.039801788E1
2.572096509E0,-2.274491638E-1,-5.401319027E0,1.044590187E1
2.574110052E0,-4.070143029E-2,-5.312733650E0,1.050575733E1
2.576094364E0,5.746084079E-2,-5.260061264E0,1.052730465E1
2.578107677E0,2.729389966E-1,-5.152322292E0,1.053688145E1
2.580091682E0,4.740519226E-1,-5.080495834E0,1.049378586E1
2.582106455E0,5.961562395E-1,-5.049371243E0,1.043632507E1
2.584090153E0,8.140285611E-1,-5.018246651E0,1.030703831E1
2.586104927E0,9.121908545E-1,-4.994304657E0,1.020648193E1
2.588088008E0,1.113303781E0,-4.994304657E0,1.015141487E1
2.590101551E0,1.302445769E0,-4.984727859E0,9.979032516E0
2.592115633E0,1.386242747E0,-4.987122059E0,9.890447617E0
2.594099407E0,1.534683347E0,-5.025429249E0,9.713275909E0
2.596114412E0,1.692700624E0,-5.070919037E0,9.564835548E0
2.598097186E0,1.759738207E0,-5.104437828E0,9.485827446E0
2.600112268E0,1.874659896E0,-5.173870087E0,9.346963882E0
2.602094733E0,1.970427990E0,-5.243301868E0,9.196128845E0
2.604109584E0,2.025494576E0,-5.284003258E0,9.107542992E0
2.606092051E0,2.097320795E0,-5.372588634E0,8.911218643E0
2.608107748E0,2.166752577E0,-5.465962410E0,8.734047890E0
2.610091137E0,2.197877169E0,-5.513846397E0,8.655038834E0
2.612105219E0,2.221819162E0,-5.616796970E0,8.487444878E0
2.614088608E0,2.233790159E0,-5.702988625E0,8.329427719E0
2.616102228E0,2.229001760E0,-5.746084213E0,8.255207062E0
2.618117540E0,2.207453966E0,-5.810727596E0,8.133103371E0
2.620100699E0,2.190694571E0,-5.870582581E0,8.070854187E0
2.622115474E0,2.161964178E0,-5.899312973E0,7.955932140E0
2.624099170E0,2.142810583E0,-5.930437565E0,7.841010571E0
2.626113021E0,2.128445387E0,-5.942408562E0,7.783549786E0
2.628096949E0,2.111685991E0,-5.978321552E0,7.690176010E0
2.630109953E0,2.126051188E0,-5.975927353E0,7.599195957E0
2.632093650E0,2.128445387E0,-5.966350555E0,7.558494568E0
2.634108348E0,2.142810583E0,-5.935225964E0,7.515398979E0
2.636092353E0,2.159569979E0,-5.896918774E0,7.467514992E0
2.638106588E0,2.145204782E0,-5.872976780E0,7.462726593E0
2.640089900E0,2.166752577E0,-5.829881191E0,7.479485989E0
2.642104059E0,2.181117773E0,-5.760449409E0,7.553706169E0
2.644088986E0,2.188300371E0,-5.743690014E0,7.592013359E0
2.646103530E0,2.243366957E0,-5.710171223E0,7.659051418E0
2.648115458E0,2.296039343E0,-5.640739441E0,7.711723804E0
2.650099463E0,2.310404539E0,-5.614402771E0,7.735665798E0
2.652113697E0,2.355894566E0,-5.554547787E0,7.764396191E0
2.654097702E0,2.396595955E0,-5.537788391E0,7.754819393E0
2.656111784E0,2.489969730E0,-5.485116005E0,7.752425194E0
2.658095173E0,2.578555346E0,-5.451597214E0,7.762001991E0
2.660109409E0,2.626439333E0,-5.427655220E0,7.769184589E0
2.662093722E0,2.724601507E0,-5.408501625E0,7.773972988E0
2.664107265E0,2.829946518E0,-5.398924828E0,7.752425194E0
2.666090961E0,2.892195702E0,-5.377377033E0,7.745242596E0
2.668105120E0,3.026270866E0,-5.365406036E0,7.692570210E0
2.670089048E0,3.203441858E0,-5.360617638E0,7.611167431E0
2.672102360E0,3.308786631E0,-5.353435040E0,7.568071365E0
2.674117057E0,3.497928619E0,-5.336675644E0,7.496245384E0
2.676100831E0,3.701435804E0,-5.336675644E0,7.431602001E0
2.678114990E0,3.797203779E0,-5.343858242E0,7.400477409E0
2.680098687E0,3.955221176E0,-5.329493046E0,7.359776020E0
2.682112153E0,4.101267338E0,-5.329493046E0,7.345410824E0
2.684096774E0,4.173093796E0,-5.324704647E0,7.347805023E0
2.686110008E0,4.283226967E0,-5.329493046E0,7.331045628E0
2.688094013E0,4.338293552E0,-5.331887245E0,7.314286232E0
2.690108557E0,4.424484730E0,-5.346252441E0,7.268796444E0
2.692092176E0,4.474762917E0,-5.367800236E0,7.244854450E0
2.694105797E0,4.472368717E0,-5.391742229E0,7.240066051E0
2.696089417E0,4.429273129E0,-5.410895824E0,7.266402245E0
2.698104268E0,4.364629745E0,-5.434837818E0,7.311892033E0
2.700087580E0,4.338293552E0,-5.451597214E0,7.331045628E0
2.702102123E0,4.235342979E0,-5.501875401E0,7.345410824E0
2.704115974E0,4.101267338E0,-5.537788391E0,7.343016624E0
2.706099978E0,4.017470360E0,-5.566518784E0,7.316680431E0
2.708114368E0,3.828328609E0,-5.607220173E0,7.287950039E0
2.710096912E0,3.653551817E0,-5.614402771E0,7.268796444E0
2.712111609E0,3.562572241E0,-5.631162167E0,7.280767441E0
2.714094767E0,3.332728863E0,-5.657498837E0,7.328651428E0
2.716109156E0,3.222595453E0,-5.667075634E0,7.369352818E0
2.718092854E0,3.002328873E0,-5.683835030E0,7.376535416E0
2.720107396E0,2.767697096E0,-5.700594425E0,7.424419403E0
2.722089863E0,2.655169725E0,-5.691017628E0,7.462726593E0
2.724104637E0,2.437297344E0,-5.695806026E0,7.572859764E0
2.726090796E0,2.224213362E0,-5.688623428E0,7.704541206E0
2.728102184E0,2.099714994E0,-5.691017628E0,7.776367188E0
2.730117574E0,1.865083098E0,-5.691017628E0,7.900865555E0
2.732100656E0,1.637633920E0,-5.650316238E0,8.018181801E0
2.734114814E0,1.527500629E0,-5.640739441E0,8.068459511E0
2.736098434E0,1.307234168E0,-5.621585369E0,8.188169479E0
2.738112362E0,1.113303781E0,-5.561730385E0,8.307879448E0
2.740095444E0,1.022324085E0,-5.535394192E0,8.358158112E0
2.742110448E0,8.403648138E-1,-5.485116005E0,8.453926086E0
2.744094222E0,6.560112834E-1,-5.422866821E0,8.492233276E0
2.746108920E0,5.674257874E-1,-5.386953831E0,8.499416351E0
2.748092078E0,3.974374831E-1,-5.300762653E0,8.499416351E0
2.750106236E0,3.184288144E-1,-5.214571476E0,8.485051155E0
2.752090241E0,1.747767180E-1,-5.173870087E0,8.453926086E0
2.754103785E0,4.070143029E-2,-5.092466831E0,8.415618896E0
2.756118174E0,-3.112462163E-2,-5.054159641E0,8.386888504E0
2.758101025E0,-1.675941199E-1,-4.941632271E0,8.327033043E0
2.760115414E0,-2.849099934E-1,-4.829104900E0,8.238448143E0
2.762099111E0,-3.423708379E-1,-4.757278919E0,8.183381081E0
2.764113269E0,-4.548983276E-1,-4.604049683E0,8.025363922E0
2.766093967E0,-4.955997467E-1,-4.537012100E0,7.975085735E0
2.768112126E0,-5.243301988E-1,-4.479551315E0,7.934384346E0
2.770095207E0,-5.626373887E-1,-4.371812344E0,7.893682957E0
2.772109288E0,-5.698199868E-1,-4.278438568E0,7.829039574E0
2.774092370E0,-5.770025849E-1,-4.240131378E0,7.800309181E0
2.776106836E0,-5.746083856E-1,-4.137180328E0,7.759607792E0
2.778091149E0,-5.530605912E-1,-4.074931145E0,7.740454197E0
2.780105000E0,-5.506663918E-1,-4.062960148E0,7.726089001E0
2.782089082E0,-5.410895944E-1,-4.024652958E0,7.735665798E0
2.784102547E0,-5.339069963E-1,-4.017470360E0,7.769184589E0
2.786117398E0,-5.147533417E-1,-3.998316765E0,7.814674377E0
2.788100403E0,-4.764461517E-1,-4.003105164E0,7.872135162E0
2.790114638E0,-4.548983276E-1,-4.012681961E0,7.903259754E0
2.792098259E0,-4.453215301E-1,-4.062960148E0,7.965508938E0
2.794113033E0,-4.477157295E-1,-4.077325344E0,8.013393402E0
2.796095499E0,-4.429273009E-1,-4.098873138E0,8.039729118E0
2.798110273E0,-4.141969085E-1,-4.132391930E0,8.106766701E0
2.800093970E0,-3.974374831E-1,-4.146757126E0,8.202534676E0
2.802107513E0,-3.878606856E-1,-4.156333923E0,8.248024940E0
2.804092210E0,-3.902548850E-1,-4.225766182E0,8.358158112E0
2.806106907E0,-3.830722570E-1,-4.271255970E0,8.429984093E0
2.808088527E0,-3.830722570E-1,-4.283226967E0,8.451532364E0
2.810104455E0,-3.711012602E-1,-4.285621166E0,8.437167168E0
2.812087229E0,-3.615244627E-1,-4.292803764E0,8.394071579E0
2.814101388E0,-3.423708379E-1,-4.295197964E0,8.362946510E0
2.816114931E0,-3.232172430E-1,-4.304774761E0,8.324639320E0
2.818098935E0,-3.040636182E-1,-4.307168961E0,8.327033043E0
2.820113479E0,-2.849099934E-1,-4.297592163E0,8.353369713E0
2.822098099E0,-2.609679997E-1,-4.285621166E0,8.401253700E0
2.824110950E0,-2.489969730E-1,-4.307168961E0,8.425195694E0
2.826095646E0,-2.106897533E-1,-4.304774761E0,8.446743965E0
2.828109498E0,-1.580173075E-1,-4.319139957E0,8.480262756E0
2.830093118E0,-1.364694983E-1,-4.321534157E0,8.482656479E0
2.832106968E0,-7.900865376E-2,-4.314351559E0,8.499416351E0
2.834091050E0,2.873042040E-2,-4.288015366E0,8.554482460E0
2.836105132E0,7.661445439E-2,-4.273650169E0,8.578424454E0
2.838088291E0,1.699883193E-1,-4.254496574E0,8.619126320E0
2.840102756E0,2.729389966E-1,-4.240131378E0,8.640673637E0
2.842115915E0,3.208230138E-1,-4.220977783E0,8.635885239E0
2.844100612E0,4.501099288E-1,-4.185064793E0,8.621520042E0
2.846113540E0,5.506663918E-1,-4.161122322E0,8.607154846E0
2.848098468E0,6.129156351E-1,-4.141968727E0,8.604761124E0
2.850112319E0,7.158663273E-1,-4.103661537E0,8.609549522E0
2.852095939E0,7.661445141E-1,-4.079719543E0,8.619126320E0
2.854110097E0,8.427590132E-1,-4.036623955E0,8.616731644E0
2.856093871E0,8.930372596E-1,-4.015076160E0,8.607154846E0
2.858107953E0,9.193734527E-1,-3.986345768E0,8.604761124E0
2.860091419E0,9.792284966E-1,-3.931279182E0,8.583212852E0
2.862106193E0,1.012747288E0,-3.885789394E0,8.564059258E0
2.864089506E0,1.029506683E0,-3.866635799E0,8.559270859E0
2.866104280E0,1.046266198E0,-3.835511208E0,8.554482460E0
2.868117592E0,1.053448796E0,-3.804386616E0,8.523358345E0
2.870101520E0,1.046266198E0,-3.792415380E0,8.504204750E0
2.872115755E0,1.036689281E0,-3.756502390E0,8.489839554E0
2.874099759E0,9.983820915E-1,-3.775655985E0,8.508993149E0
2.876112995E0,9.864110947E-1,-3.770867586E0,8.544905663E0
2.878096923E0,9.552865028E-1,-3.773261786E0,8.623914719E0
2.880110544E0,9.337386489E-1,-3.797203779E0,8.643068314E0
2.882093932E0,8.882488012E-1,-3.801992416E0,8.635885239E0
2.884110168E0,8.547300100E-1,-3.804386616E0,8.623914719E0
2.886093635E0,8.451532125E-1,-3.809175014E0,8.640673637E0
2.888106562E0,8.068459630E-1,-3.816357613E0,8.698134422E0
2.890090182E0,7.757213712E-1,-3.830722809E0,8.774748802E0
2.892104649E0,7.445967197E-1,-3.837905407E0,8.803479195E0
2.894088114E0,7.350199223E-1,-3.852270603E0,8.825027466E0
2.896102273E0,7.685387731E-1,-3.849876404E0,8.848969460E0
2.898116355E0,7.852981687E-1,-3.849876404E0,8.851364136E0
2.900100668E0,8.188169599E-1,-3.849876404E0,8.870517731E0
2.902114287E0,8.619126081E-1,-3.869029999E0,8.880094528E0
2.904097984E0,8.930372596E-1,-3.869029999E0,8.868123055E0
2.906112759E0,9.552865028E-1,-3.873818398E0,8.846575737E0
2.908095840E0,1.051054597E0,-3.900154591E0,8.822632790E0
2.910109614E0,1.096544385E0,-3.916913986E0,8.820239067E0
2.912094003E0,1.204283476E0,-3.938461781E0,8.813055992E0
2.914107778E0,1.266532660E0,-3.976768970E0,8.793902397E0
2.916091243E0,1.386242747E0,-3.995922565E0,8.777143478E0
2.918105325E0,1.496376038E0,-4.036623955E0,8.748413086E0
2.920088792E0,1.549048543E0,-4.060565948E0,8.750806808E0
2.922102950E0,1.632845521E0,-4.120420933E0,8.774748802E0
2.924118647E0,1.697489023E0,-4.182670593E0,8.793902397E0
2.926100729E0,1.728613615E0,-4.201824188E0,8.789113998E0
2.928115272E0,1.747767210E0,-4.242525578E0,8.765172005E0
2.930098969E0,1.759738207E0,-4.261679173E0,8.741230011E0
2.932113358E0,1.750161409E0,-4.271255970E0,8.722076416E0
2.934096517E0,1.738190413E0,-4.295197964E0,8.695740700E0
2.936111521E0,1.719036818E0,-4.309563160E0,8.702922821E0
2.938094603E0,1.699883223E0,-4.323928356E0,8.722076416E0
2.940109454E0,1.668758631E0,-4.331110954E0,8.719682693E0
2.942092767E0,1.625662923E0,-4.347870350E0,8.683769226E0
2.944106309E0,1.594538331E0,-4.355052948E0,8.662221909E0
2.946091007E0,1.529894829E0,-4.359841347E0,8.621520042E0
2.948104473E0,1.491587639E0,-4.371812344E0,8.602366447E0
2.950119016E0,1.398213744E0,-4.402936935E0,8.542511940E0
2.952102713E0,1.278503656E0,-4.426878929E0,8.485051155E0
2.954116487E0,1.218648672E0,-4.448426723E0,8.468291283E0
2.956099877E0,1.063025594E0,-4.477157116E0,8.432378769E0
2.958114112E0,9.074024558E-1,-4.513070107E0,8.398859978E0
2.960097809E0,8.236053586E-1,-4.525041103E0,8.384494781E0
2.962111891E0,6.536170840E-1,-4.587290287E0,8.372523308E0
2.964096202E0,5.171475410E-1,-4.654327869E0,8.365341187E0
2.966111284E0,4.525041282E-1,-4.685452938E0,8.365341187E0
2.968093212E0,3.208230138E-1,-4.747702122E0,8.350975990E0
2.970107679E0,2.202665508E-1,-4.821922302E0,8.355764389E0
2.972091375E0,1.771709323E-1,-4.848258495E0,8.355764389E0
2.974105534E0,1.197100878E-1,-4.915296078E0,8.374917984E0
2.976089155E0,1.029506698E-1,-4.984727859E0,8.444349289E0
2.978103620E0,6.943184882E-2,-5.011064053E0,8.489839554E0
2.980117240E0,7.182604820E-2,-5.058948040E0,8.623914719E0
2.982100861E0,8.379705995E-2,-5.087678432E0,8.695740700E0
2.984115404E0,1.268926859E-1,-5.159504890E0,8.875306129E0
2.986099408E0,1.915361285E-1,-5.219359875E0,9.064447403E0
2.988113490E0,2.226607651E-1,-5.226542473E0,9.157821655E0
2.990096880E0,2.968810201E-1,-5.252878666E0,9.363722801E0
2.992111038E0,3.591302633E-1,-5.272032261E0,9.548076630E0
2.994094812E0,4.022258818E-1,-5.303156853E0,9.634267807E0
2.996109202E0,5.171475410E-1,-5.324704647E0,9.835380554E0
2.998092284E0,6.224924326E-1,-5.341464043E0,1.002691650E1
3.000106749E0,6.751648784E-1,-5.351040840E0,1.010592556E1
3.002089908E0,8.116343617E-1,-5.360617638E0,1.025675964E1
3.004103990E0,9.481038451E-1,-5.403713226E0,1.037407589E1
3.006117302E0,1.029506683E0,-5.422866821E0,1.041238308E1
3.008103383E0,1.194706678E0,-5.444414616E0,1.045308495E1
3.010116388E0,1.292868972E0,-5.458779812E0,1.048899746E1
3.012100317E0,1.496376038E0,-5.470750809E0,1.050096893E1
3.014114167E0,1.678335428E0,-5.494692802E0,1.047463226E1
3.016097326E0,1.781286120E0,-5.516240597E0,1.044590187E1
3.018112023E0,1.989581585E0,-5.544970989E0,1.037647057E1
3.020095719E0,2.207453966E0,-5.571307182E0,1.030464458E1
3.022109340E0,2.310404539E0,-5.585672379E0,1.025915432E1
3.024093960E0,2.537853718E0,-5.616796970E0,1.017775154E1
3.026108042E0,2.746149302E0,-5.664681435E0,1.010353088E1
3.028091431E0,2.849100113E0,-5.674258232E0,1.004846478E1
3.030105282E0,3.059789658E0,-5.702988625E0,9.931148529E0
3.032089287E0,3.268085241E0,-5.736507416E0,9.821015358E0
3.034103214E0,3.356670856E0,-5.753266811E0,9.780313492E0
3.036116988E0,3.550601006E0,-5.801150799E0,9.694122314E0
3.038101301E0,3.761290789E0,-5.829881191E0,9.593565941E0
3.040115536E0,3.869029999E0,-5.851428986E0,9.552865028E0
3.042097925E0,4.046200752E0,-5.889736176E0,9.454702377E0
3.044113699E0,4.139574528E0,-5.947196960E0,9.406818390E0
3.046097704E0,4.316745758E0,-5.956773758E0,9.275136948E0
3.048110247E0,4.491522312E0,-5.983109951E0,9.160215378E0
3.050094021E0,4.575319290E0,-6.007051945E0,9.112331390E0
3.052109026E0,4.695029736E0,-6.054935932E0,9.014169693E0
3.054092108E0,4.783615112E0,-6.081272125E0,8.927978516E0
3.056106343E0,4.817133904E0,-6.098031521E0,8.892065048E0
3.058090271E0,4.865017891E0,-6.107608318E0,8.832210541E0
3.060104430E0,4.867412090E0,-6.112396717E0,8.755595207E0
3.062119280E0,4.881777287E0,-6.117185116E0,8.712499619E0
3.064101669E0,4.874594688E0,-6.143521786E0,8.633491516E0
3.066117059E0,4.865017891E0,-6.143521786E0,8.540117264E0
3.068100141E0,4.838681698E0,-6.150704384E0,8.513781548E0
3.070113760E0,4.778826714E0,-6.148310184E0,8.444349289E0
3.072097688E0,4.728548527E0,-6.162675381E0,8.370129585E0
3.074111540E0,4.718971729E0,-6.157886982E0,8.317456245E0
3.076095313E0,4.673481941E0,-6.160281181E0,8.219294548E0
3.078109779E0,4.649539471E0,-6.160281181E0,8.180987358E0
3.080093169E0,4.604049683E0,-6.172252178E0,8.097189903E0
3.082107559E0,4.532223701E0,-6.184223175E0,8.008605003E0
3.084091640E0,4.503493309E0,-6.184223175E0,7.972691536E0
3.086104568E0,4.438849926E0,-6.200982571E0,7.922413349E0
3.088119573E0,4.364629745E0,-6.246472359E0,7.896077156E0
3.090102961E0,4.326322556E0,-6.258443356E0,7.872135162E0
3.092117120E0,4.244919777E0,-6.287173748E0,7.845798969E0
3.094100817E0,4.151545525E0,-6.313509941E0,7.819462776E0
3.096114361E0,4.089296341E0,-6.325480938E0,7.807491779E0
3.098099057E0,3.988739967E0,-6.380547523E0,7.790732384E0
3.100113524E0,3.926490784E0,-6.411672115E0,7.773972988E0
3.102097452E0,3.900154591E0,-6.438008308E0,7.771578789E0
3.104111071E0,3.840299606E0,-6.466738701E0,7.750030994E0
3.106095076E0,3.809175014E0,-6.483498096E0,7.730877399E0
3.108108850E0,3.768473387E0,-6.497863293E0,7.726089001E0
3.110092547E0,3.730166197E0,-6.526593685E0,7.656657219E0
3.112105783E0,3.708618402E0,-6.543353081E0,7.635109425E0
3.114090711E0,3.696647406E0,-6.538564682E0,7.596801758E0
3.116103639E0,3.689464808E0,-6.538564682E0,7.560888767E0
3.118119027E0,3.679888010E0,-6.526593685E0,7.558494568E0
3.120102109E0,3.660734415E0,-6.488286495E0,7.539340973E0
3.122115653E0,3.646369219E0,-6.459556103E0,7.491456985E0
3.124100657E0,3.643975019E0,-6.440402508E0,7.462726593E0
3.126115662E0,3.620033026E0,-6.426037312E0,7.393294811E0
3.128096667E0,3.608062029E0,-6.356605530E0,7.307103634E0
3.130112056E0,3.593696833E0,-6.320692539E0,7.273584843E0
3.132095137E0,3.567360640E0,-6.270414352E0,7.218518257E0
3.134109527E0,3.531447411E0,-6.212953568E0,7.158663273E0
3.136092917E0,3.524264812E0,-6.179434776E0,7.127538681E0
3.138107382E0,3.488351822E0,-6.114790916E0,7.062894821E0
3.140090772E0,3.464409828E0,-6.074089527E0,7.022193432E0
3.142105854E0,3.418920040E0,-6.050147533E0,6.921637058E0
3.144088705E0,3.351882458E0,-5.995080948E0,6.821080685E0
3.146103478E0,3.335123062E0,-5.954379559E0,6.773196697E0
3.148117022E0,3.308786631E0,-5.923254967E0,6.655880928E0
3.150100334E0,3.227383852E0,-5.904101372E0,6.552929878E0
3.152114800E0,3.201047659E0,-5.877765179E0,6.521805286E0
3.154098497E0,3.134010077E0,-5.837063789E0,6.461950302E0
3.156112964E0,3.076549292E0,-5.822698593E0,6.392518520E0
3.158096122E0,3.052607059E0,-5.813121796E0,6.354211330E0
3.160110203E0,3.004723072E0,-5.767632008E0,6.284779549E0
3.162093593E0,2.918531895E0,-5.772420406E0,6.205770969E0
3.164108983E0,2.880224705E0,-5.760449409E0,6.169857979E0
3.166091833E0,2.815581083E0,-5.724536419E0,6.100425720E0
3.168106607E0,2.736572504E0,-5.712565422E0,6.071695328E0
3.170089997E0,2.698265314E0,-5.700594425E0,6.081272125E0
3.172104386E0,2.602497339E0,-5.702988625E0,6.102819920E0
3.174117698E0,2.554613113E0,-5.717353821E0,6.138733387E0
3.176101703E0,2.475604534E0,-5.717353821E0,6.153098583E0
3.178115862E0,2.372653961E0,-5.729324818E0,6.203376770E0
3.180099174E0,2.327163935E0,-5.741295815E0,6.215347767E0
3.182114640E0,2.221819162E0,-5.770026207E0,6.234501362E0
3.184097337E0,2.116474390E0,-5.796362400E0,6.279991150E0
3.186112189E0,2.056619167E0,-5.810727596E0,6.325480938E0
3.188095269E0,1.932120800E0,-5.837063789E0,6.433219910E0
3.190109736E0,1.841141105E0,-5.863399982E0,6.555324078E0
3.192092818E0,1.776497602E0,-5.882553577E0,6.627150536E0
3.194106899E0,1.654393315E0,-5.925649166E0,6.754043102E0
3.196090673E0,1.541865945E0,-5.940014362E0,6.864176273E0
3.198104755E0,1.486799240E0,-5.949591160E0,6.936002254E0
3.200119606E0,1.395819545E0,-5.956773758E0,7.098807812E0
3.202102610E0,1.273715258E0,-5.975927353E0,7.304709435E0
3.204117154E0,1.213860273E0,-5.985504150E0,7.407660007E0
3.206102389E0,1.118092179E0,-6.019022942E0,7.618350029E0
3.208114009E0,1.051054597E0,-6.040570736E0,7.726089001E0
3.210098322E0,9.385270476E-1,-6.030993938E0,7.920019150E0
3.212112480E0,8.403648138E-1,-6.033388138E0,8.094796181E0
3.214095870E0,7.876923680E-1,-6.030993938E0,8.171410561E0
3.216110336E0,6.703764796E-1,-6.030993938E0,8.286332130E0
3.218094110E0,6.033388376E-1,-6.019022942E0,8.384494781E0
3.220107961E0,5.530605912E-1,-6.007051945E0,8.425195694E0
3.222092503E0,4.572925270E-1,-5.992686749E0,8.513781548E0
3.224105431E0,3.902548850E-1,-5.973533154E0,8.552088737E0
3.226090975E0,3.423708379E-1,-5.963956356E0,8.552088737E0
3.228104518E0,2.513911724E-1,-5.916072369E0,8.537723541E0
3.230118138E0,1.651999205E-1,-5.868188381E0,8.501810074E0
3.232101758E0,1.292868853E-1,-5.837063789E0,8.465897560E0
3.234115686E0,6.464344263E-2,-5.777208805E0,8.401253700E0
3.236098998E0,3.112462163E-2,-5.695806026E0,8.341399193E0
3.238113849E0,-4.788403213E-2,-5.657498837E0,8.303091049E0
3.240097777E0,-7.422025502E-2,-5.571307182E0,8.207323074E0
3.242111013E0,-1.005564705E-1,-5.523423195E0,8.152256966E0
3.244094709E0,-1.819593310E-1,-5.358223438E0,7.881711960E0
3.246108560E0,-1.963245422E-1,-5.295974255E0,7.785943985E0
3.248092027E0,-2.082955539E-1,-5.240907669E0,7.692570210E0
3.250107031E0,-2.370259613E-1,-5.106832027E0,7.498639584E0
3.252090498E0,-2.489969730E-1,-4.972756863E0,7.350199223E0
3.254103964E0,-2.513911724E-1,-4.900930882E0,7.292738438E0
3.256119123E0,-2.322375625E-1,-4.788403511E0,7.218518257E0
3.258101896E0,-2.130839527E-1,-4.687847137E0,7.156269073E0
3.260116670E0,-2.059013397E-1,-4.632780075E0,7.137115479E0
3.262101214E0,-1.963245422E-1,-4.546588898E0,7.094019413E0
3.264114833E0,-1.675941199E-1,-4.479551315E0,7.091625214E0
3.266099377E0,-1.675941199E-1,-4.460397720E0,7.098807812E0
3.268112689E0,-1.651999205E-1,-4.446032524E0,7.146692276E0
3.270096079E0,-1.699883193E-1,-4.441244125E0,7.228095055E0
3.272110160E0,-1.699883193E-1,-4.441244125E0,7.275979042E0
3.274094165E0,-1.891419291E-1,-4.443638325E0,7.350199223E0
3.276108632E0,-1.939303428E-1,-4.465186119E0,7.386112213E0
3.278091712E0,-2.202665508E-1,-4.486733913E0,7.477091789E0
3.280105333E0,-2.609679997E-1,-4.510675907E0,7.577648163E0
3.282089030E0,-2.896983922E-1,-4.513070107E0,7.635109425E0
3.284105343E0,-3.447650373E-1,-4.541800499E0,7.778761387E0
3.286089039E0,-4.118026793E-1,-4.577713490E0,7.903259754E0
3.288100967E0,-4.453215301E-1,-4.589684486E0,7.960720539E0
3.290115741E0,-5.051765442E-1,-4.601655483E0,8.066065788E0
3.292099515E0,-5.841852427E-1,-4.630385876E0,8.171410561E0
3.294113981E0,-6.368576288E-1,-4.639962673E0,8.216899872E0
3.296096755E0,-7.565677166E-1,-4.675876141E0,8.288725853E0
3.298110837E0,-8.571242094E-1,-4.675876141E0,8.374917984E0
3.300094534E0,-9.097966552E-1,-4.668693542E0,8.432378769E0
3.302109385E0,-1.027112484E0,-4.680664539E0,8.549694061E0
3.304092698E0,-1.089361787E0,-4.685452938E0,8.611943245E0
3.306108471E0,-1.199495077E0,-4.683058739E0,8.724471092E0
3.308091168E0,-1.290474772E0,-4.647145271E0,8.789113998E0
3.310104789E0,-1.333570361E0,-4.625597477E0,8.805873871E0
3.312118640E0,-1.417367458E0,-4.596867085E0,8.834604263E0
3.314102874E0,-1.479616642E0,-4.541800499E0,8.856152534E0
3.316116803E0,-1.489193439E0,-4.517858505E0,8.868123055E0
3.318100423E0,-1.493981838E0,-4.458003521E0,8.892065048E0
3.320114273E0,-1.482010841E0,-4.402936935E0,8.935160637E0
3.322098278E0,-1.482010841E0,-4.374206543E0,8.942343712E0
3.324112822E0,-1.434126854E0,-4.304774761E0,8.951920509E0
3.326096133E0,-1.367089152E0,-4.225766182E0,8.959102631E0
3.328110600E0,-1.302445769E0,-4.204218388E0,8.959102631E0
3.330093759E0,-1.151610970E0,-4.137180328E0,8.954314232E0
3.332107533E0,-1.003170490E0,-4.070142746E0,8.935160637E0
3.334091537E0,-9.121908545E-1,-4.036623955E0,8.906430244E0
3.336105465E0,-7.110779285E-1,-3.969586372E0,8.827422142E0
3.338088855E0,-6.081272364E-1,-3.926490784E0,8.774748802E0
3.340103551E0,-4.165911078E-1,-3.847482204E0,8.643068314E0
3.342117787E0,-2.322375625E-1,-3.780444384E0,8.506598473E0
3.344101484E0,-1.388636976E-1,-3.739742994E0,8.449137688E0
3.346116797E0,2.154781483E-2,-3.677493811E0,8.391676903E0
3.348099262E0,1.771709323E-1,-3.627215624E0,8.365341187E0
3.350113421E0,2.489969730E-1,-3.610456228E0,8.355764389E0
3.352096503E0,3.687070608E-1,-3.593696833E0,8.324639320E0
3.354111276E0,4.572925270E-1,-3.586514235E0,8.274360657E0
3.356094743E0,4.955997467E-1,-3.600879431E0,8.238448143E0
3.358108594E0,5.698199868E-1,-3.629609823E0,8.178592682E0
3.360092522E0,6.296750307E-1,-3.651157618E0,8.128314972E0
3.362106757E0,6.607996821E-1,-3.670311213E0,8.116343498E0
3.364091685E0,6.799532771E-1,-3.720589399E0,8.111555099E0
3.366106459E0,6.991068721E-1,-3.749319792E0,8.113949776E0
3.368087694E0,7.182605267E-1,-3.758896589E0,8.116343498E0
3.370102699E0,7.110779285E-1,-3.794809580E0,8.080430984E0
3.372116627E0,7.062895298E-1,-3.813963413E0,8.078036308E0
3.374099940E0,6.919242740E-1,-3.837905407E0,8.092401505E0
3.376114405E0,6.895300746E-1,-3.859453201E0,8.123526573E0
3.378098487E0,7.015010715E-1,-3.861847401E0,8.145073891E0
3.380112031E0,6.967126727E-1,-3.890577793E0,8.178592682E0
3.382095958E0,7.086837292E-1,-3.921702385E0,8.233659744E0
3.384111117E0,7.182605267E-1,-3.931279182E0,8.259995461E0
3.386094429E0,7.517793179E-1,-3.943250179E0,8.312667847E0
3.388107742E0,7.733271718E-1,-3.962403774E0,8.386888504E0
3.390091977E0,7.852981687E-1,-3.969586372E0,8.415618896E0
3.392105212E0,8.068459630E-1,-3.976768970E0,8.477868080E0
3.394119756E0,8.379706144E-1,-3.991134167E0,8.542511940E0
3.396103452E0,8.499416113E-1,-3.991134167E0,8.580819130E0
3.398117534E0,8.810662031E-1,-4.000710964E0,8.662221909E0
3.400101231E0,8.930372596E-1,-4.043806553E0,8.753201485E0
3.402115160E0,9.457096457E-1,-4.039018154E0,8.786720276E0
3.404099779E0,1.015141487E0,-4.055777550E0,8.822632790E0
3.406112938E0,1.046266198E0,-4.065354347E0,8.836998940E0
3.408097635E0,1.096544385E0,-4.060565948E0,8.848969460E0
3.410110870E0,1.165976286E0,-4.036623955E0,8.820239067E0
3.412095106E0,1.199495077E0,-4.048594952E0,8.808267593E0
3.414109034E0,1.256955862E0,-4.048594952E0,8.772355080E0
3.416092654E0,1.331176162E0,-4.048594952E0,8.729259491E0
3.418106812E0,1.355118155E0,-4.041412354E0,8.712499619E0
3.420089971E0,1.426944256E0,-4.058171749E0,8.681375504E0
3.422105053E0,1.503558636E0,-4.043806553E0,8.633491516E0
3.424119441E0,1.541865945E0,-4.046200752E0,8.609549522E0
3.426103216E0,1.606509328E0,-4.072536945E0,8.552088737E0
3.428117374E0,1.644816518E0,-4.110844135E0,8.525752068E0
3.430100072E0,1.671152830E0,-4.106055737E0,8.520963669E0
3.432114230E0,1.704671621E0,-4.125209332E0,8.508993149E0
3.434098235E0,1.714248419E0,-4.151545525E0,8.487444878E0
3.436112086E0,1.726219416E0,-4.165910721E0,8.446743965E0
3.438095551E0,1.735796213E0,-4.204218388E0,8.406042099E0
3.440109710E0,1.738190413E0,-4.223371983E0,8.384494781E0
3.442092792E0,1.714248419E0,-4.254496574E0,8.343792915E0
3.444107566E0,1.671152830E0,-4.299986362E0,8.350975990E0
3.446092724E0,1.644816518E0,-4.331110954E0,8.358158112E0
3.448104806E0,1.592144132E0,-4.383783340E0,8.372523308E0
3.450120119E0,1.527500629E0,-4.448426723E0,8.374917984E0
3.452102584E0,1.508347034E0,-4.477157116E0,8.374917984E0
3.454117666E0,1.426944256E0,-4.529829502E0,8.386888504E0
3.456101133E0,1.328781962E0,-4.594472885E0,8.362946510E0
3.458116215E0,1.288080573E0,-4.623203278E0,8.353369713E0
3.460098373E0,1.199495077E0,-4.671087742E0,8.358158112E0
3.462113455E0,1.137245774E0,-4.714183331E0,8.348581314E0
3.464097075E0,1.096544385E0,-4.742913723E0,8.343792915E0
3.466111617E0,1.036689281E0,-4.783615112E0,8.384494781E0
3.468095315E0,1.005564690E0,-4.800374508E0,8.413225174E0
3.470109166E0,9.720458984E-1,-4.833893299E0,8.494627953E0
3.472092556E0,9.241618514E-1,-4.862623692E0,8.599972725E0
3.474106406E0,8.906430602E-1,-4.881777287E0,8.645462036E0
3.476090103E0,8.643068075E-1,-4.924872875E0,8.748413086E0
3.478104262E0,8.307880163E-1,-4.963180065E0,8.851364136E0
3.480117804E0,8.307880163E-1,-4.984727859E0,8.899248123E0
3.482102655E0,8.092401624E-1,-4.996698856E0,8.995016098E0
3.484115276E0,7.924807668E-1,-5.013458252E0,9.172186852E0
3.486097204E0,7.805097699E-1,-5.027823448E0,9.217676163E0
3.488114439E0,7.781155705E-1,-5.037400246E0,9.260771751E0
3.490097751E0,7.637503147E-1,-5.035006046E0,9.339780807E0
3.492112295E0,7.661445141E-1,-5.042188644E0,9.382876396E0
3.494095607E0,7.613561153E-1,-5.063736439E0,9.445125580E0
3.496110150E0,7.422025204E-1,-5.080495834E0,9.483432770E0
3.498093770E0,7.350199223E-1,-5.090072632E0,9.495404243E0
3.500107391E0,7.469909191E-1,-5.125985622E0,9.512163162E0
3.502091395E0,7.661445141E-1,-5.149928093E0,9.509769440E0
3.504105169E0,7.996633649E-1,-5.197812080E0,9.502586365E0
3.506120943E0,8.523358107E-1,-5.248090267E0,9.493009567E0
3.508103332E0,8.834604025E-1,-5.274426460E0,9.495404243E0
3.510117183E0,9.648633003E-1,-5.324704647E0,9.514557838E0
3.512101188E0,1.098938584E0,-5.391742229E0,9.531316757E0
3.514115655E0,1.168370485E0,-5.415684223E0,9.543288231E0
3.516099120E0,1.312022567E0,-5.499481201E0,9.586383820E0
3.518113202E0,1.465251446E0,-5.561730385E0,9.612719536E0
3.520096361E0,1.534683347E0,-5.590460777E0,9.634267807E0
3.522110211E0,1.690306425E0,-5.640739441E0,9.694122314E0
3.524095139E0,1.836352706E0,-5.710171223E0,9.722852707E0
3.526110144E0,1.900996208E0,-5.736507416E0,9.727641106E0
3.528091764E0,2.051830769E0,-5.789179802E0,9.732429504E0
3.530106461E0,2.118868589E0,-5.822698593E0,9.686940193E0
3.532090466E0,2.262520552E0,-5.839457989E0,9.653421402E0
3.534104317E0,2.403778553E0,-5.858611584E0,9.562441826E0
3.536118860E0,2.468421936E0,-5.877765179E0,9.516951561E0
3.538102557E0,2.583343744E0,-5.906495571E0,9.421183586E0
3.540116639E0,2.703053713E0,-5.908889771E0,9.296685219E0
3.542100027E0,2.755726099E0,-5.920860767E0,9.241618156E0
3.544115109E0,2.885013103E0,-5.916072369E0,9.126696587E0
3.546098807E0,3.007117271E0,-5.906495571E0,9.026140213E0
3.548112965E0,3.055001259E0,-5.899312973E0,8.973467827E0
3.550095123E0,3.157952070E0,-5.913678169E0,8.870517731E0
3.552109590E0,3.246537447E0,-5.930437565E0,8.767566681E0
3.554094518E0,3.284844637E0,-5.930437565E0,8.722076416E0
3.556107445E0,3.359065056E0,-5.935225964E0,8.616731644E0
3.558090912E0,3.440467834E0,-5.959167957E0,8.535328865E0
3.560105609E0,3.488351822E0,-5.978321552E0,8.504204750E0
3.562118922E0,3.572149038E0,-6.019022942E0,8.458714485E0
3.564103233E0,3.612850428E0,-6.045359135E0,8.429984093E0
3.566116700E0,3.689464808E0,-6.059724331E0,8.415618896E0
3.568101397E0,3.766079187E0,-6.105214119E0,8.408436775E0
3.570115247E0,3.794809580E0,-6.114790916E0,8.396465302E0
3.572098252E0,3.830722809E0,-6.138733387E0,8.355764389E0
3.574112719E0,3.847482204E0,-6.148310184E0,8.307879448E0
3.576097724E0,3.871424198E0,-6.145915985E0,8.286332130E0
3.578110574E0,3.876212597E0,-6.167463779E0,8.245630264E0
3.580093964E0,3.854664803E0,-6.203376770E0,8.200140953E0
3.582109046E0,3.833117008E0,-6.212953568E0,8.176198959E0
3.584091511E0,3.804386616E0,-6.244078159E0,8.128314972E0
3.586106593E0,3.770867586E0,-6.253654957E0,8.082824707E0
3.588090367E0,3.746925592E0,-6.265625954E0,8.068459511E0
3.590104526E0,3.715801001E0,-6.282385349E0,8.018181801E0
3.592118376E0,3.679888010E0,-6.311115742E0,7.979874134E0
3.594102304E0,3.665522814E0,-6.323086739E0,7.958326340E0
3.596116540E0,3.646369219E0,-6.358999729E0,7.922413349E0
3.598099929E0,3.641580820E0,-6.399701118E0,7.896077156E0
3.600113395E0,3.624821424E0,-6.421248913E0,7.829039574E0
3.602097170E0,3.624821424E0,-6.473921299E0,7.764396191E0
3.604112482E0,3.615244627E0,-6.490680695E0,7.728483200E0
3.606097179E0,3.605667830E0,-6.502651691E0,7.680599213E0
3.608108799E0,3.593696833E0,-6.533776283E0,7.620744228E0
3.610093112E0,3.581725836E0,-6.540958881E0,7.587224960E0
3.612107654E0,3.567360640E0,-6.562506676E0,7.524975777E0
3.614091351E0,3.574543238E0,-6.591237068E0,7.462726593E0
3.616105203E0,3.574543238E0,-6.596025467E0,7.441178799E0
3.618119592E0,3.550601006E0,-6.622362137E0,7.393294811E0
3.620102750E0,3.526659012E0,-6.651092529E0,7.331045628E0
3.622117755E0,3.512293816E0,-6.646304131E0,7.297526836E0
3.624100914E0,3.490746021E0,-6.660669327E0,7.244854450E0
3.626115379E0,3.469198227E0,-6.641515732E0,7.187393665E0
3.628098154E0,3.450044632E0,-6.643909931E0,7.153874874E0
3.630112543E0,3.399766445E0,-6.667851925E0,7.108384609E0
3.632096625E0,3.378218651E0,-6.670246124E0,7.084442616E0
3.634110475E0,3.330334663E0,-6.701370716E0,7.046135426E0
3.636093557E0,3.282450438E0,-6.713341713E0,7.026981831E0
3.638108332E0,3.253720045E0,-6.713341713E0,7.029376030E0
3.640092336E0,3.208230257E0,-6.708553314E0,7.048529625E0
3.642105802E0,3.145981073E0,-6.732495308E0,7.084442616E0
3.644120576E0,3.112462282E0,-6.734889507E0,7.094019413E0
3.646103966E0,3.066972494E0,-6.734889507E0,7.129932880E0
3.648117893E0,3.031059265E0,-6.739677906E0,7.187393665E0
3.650101590E0,3.026270866E0,-6.746860504E0,7.220912457E0
3.652115749E0,2.987963676E0,-6.761225700E0,7.256825447E0
3.654099753E0,2.975992680E0,-6.773196697E0,7.302315235E0
3.656114143E0,2.959233284E0,-6.775590897E0,7.331045628E0
3.658097532E0,2.954444885E0,-6.766014099E0,7.395689011E0
3.660111691E0,2.947262287E0,-6.780379295E0,7.443572998E0
3.662095695E0,2.940079689E0,-6.792350292E0,7.477091789E0
3.664109546E0,2.925714493E0,-6.821080685E0,7.539340973E0
3.666094475E0,2.908955097E0,-6.823474884E0,7.556100368E0
3.668106863E0,2.865859509E0,-6.825869083E0,7.592013359E0
3.670091099E0,2.829946518E0,-6.847416878E0,7.620744228E0
3.672105258E0,2.813186884E0,-6.854599476E0,7.618350029E0
3.674118878E0,2.760514498E0,-6.864176273E0,7.630321026E0
3.676102498E0,2.703053713E0,-6.876147270E0,7.625532627E0
3.678117656E0,2.671929121E0,-6.890512466E0,7.632715225E0
3.680101046E0,2.568978310E0,-6.900089264E0,7.632715225E0
3.682114819E0,2.473210335E0,-6.900089264E0,7.613561630E0
3.684099440E0,2.418143749E0,-6.895300865E0,7.606379032E0
3.686114598E0,2.298433542E0,-6.895300865E0,7.594407558E0
3.688095527E0,2.181117773E0,-6.902483463E0,7.572859764E0
3.690110223E0,2.126051188E0,-6.895300865E0,7.546523571E0
3.692094613E0,1.994369984E0,-6.871358871E0,7.489062786E0
3.694108694E0,1.939303398E0,-6.828263283E0,7.424419403E0
3.696092160E0,1.821987510E0,-6.806715488E0,7.374141216E0
3.698105627E0,1.704671621E0,-6.766014099E0,7.292738438E0
3.700119862E0,1.654393315E0,-6.746860504E0,7.256825447E0
3.702104406E0,1.529894829E0,-6.691793919E0,7.194576263E0
3.704118025E0,1.417367458E0,-6.639121532E0,7.139509678E0
3.706103261E0,1.359906554E0,-6.607996464E0,7.105990410E0
3.708116112E0,1.264138460E0,-6.548141479E0,7.036558628E0
3.710098885E0,1.189918280E0,-6.517016888E0,6.986280441E0
3.712114275E0,1.158793569E0,-6.502651691E0,6.967126846E0
3.714097126E0,1.108515382E0,-6.447585106E0,6.943184853E0
3.716111593E0,1.055842996E0,-6.416460514E0,6.900089264E0
3.718095289E0,1.036689281E0,-6.387730122E0,6.871358871E0
3.720109063E0,1.003170490E0,-6.378153324E0,6.854599476E0
3.722092530E0,1.000776291E0,-6.354211330E0,6.861782074E0
3.724106688E0,9.911994934E-1,-6.358999729E0,6.945579052E0
3.726087923E0,9.959878922E-1,-6.358999729E0,6.945579052E0
3.728105467E0,9.840168953E-1,-6.349422932E0,6.976703644E0
3.730119626E0,9.840168953E-1,-6.344634533E0,7.029376030E0
3.732103553E0,9.840168953E-1,-6.344634533E0,7.058106422E0
3.734117481E0,9.816226959E-1,-6.356605530E0,7.072471619E0
3.736100563E0,9.672574997E-1,-6.356605530E0,7.115567684E0
3.738114721E0,9.481038451E-1,-6.380547523E0,7.175422668E0
3.740098110E0,9.409212470E-1,-6.387730122E0,7.220912457E0
3.742113808E0,9.241618514E-1,-6.366182327E0,7.331045628E0
3.744096504E0,9.121908545E-1,-6.375759125E0,7.453149796E0
3.746111047E0,9.097966552E-1,-6.375759125E0,7.508216381E0
3.748094052E0,8.834604025E-1,-6.363788128E0,7.625532627E0
3.750108519E0,8.331822157E-1,-6.351817131E0,7.721300602E0
3.752091677E0,8.164227605E-1,-6.349422932E0,7.766790390E0
3.754106374E0,7.422025204E-1,-6.339846134E0,7.879317760E0
3.756088918E0,6.464344859E-1,-6.339846134E0,7.989450932E0
3.758104229E0,5.961562395E-1,-6.347028732E0,8.051700592E0
3.760117542E0,4.836287498E-1,-6.330269337E0,8.142680168E0
3.762101239E0,4.237737060E-1,-6.323086739E0,8.188169479E0
3.764116244E0,2.992752194E-1,-6.313509941E0,8.267178535E0
3.766101248E0,1.604115069E-1,-6.291962147E0,8.336610794E0
3.768112946E0,7.661445439E-2,-6.277596951E0,8.365341187E0
3.770097566E0,-5.985504389E-2,-6.246472359E0,8.379706383E0
3.772112262E0,-1.987187415E-1,-6.200982571E0,8.348581314E0
3.774095344E0,-2.609679997E-1,-6.169857979E0,8.312667847E0
3.776109580E0,-3.974374831E-1,-6.100425720E0,8.228871346E0
3.778092662E0,-4.955997467E-1,-5.995080948E0,8.133103371E0
3.780107050E0,-5.482721925E-1,-5.935225964E0,8.082824707E0
3.782091748E0,-6.368576288E-1,-5.832275391E0,8.008605003E0
3.784105291E0,-7.086837292E-1,-5.693411827E0,7.920019150E0
3.786119988E0,-7.398083210E-1,-5.626373768E0,7.872135162E0
3.788102762E0,-7.924807668E-1,-5.482721806E0,7.785943985E0
3.790116921E0,-8.212111592E-1,-5.365406036E0,7.714118004E0
3.792101003E0,-8.259995580E-1,-5.303156853E0,7.663839817E0
3.794114776E0,-8.188169599E-1,-5.185841084E0,7.551311970E0
3.796098165E0,-8.140285611E-1,-5.125985622E0,7.501033783E0
3.798112017E0,-7.876923680E-1,-5.046977043E0,7.417236805E0
3.800096098E0,-7.565677166E-1,-4.977545261E0,7.333439827E0
3.802109872E0,-7.469909191E-1,-4.953603268E0,7.280767441E0
3.804095184E0,-7.278373241E-1,-4.893748283E0,7.184999466E0
3.806108113E0,-7.110779285E-1,-4.874594688E0,7.137115479E0
3.808091809E0,-7.254431248E-1,-4.860229492E0,7.122750282E0
3.810106275E0,-7.493851185E-1,-4.853046894E0,7.120356083E0
3.812119819E0,-7.709329724E-1,-4.867412090E0,7.161057472E0
3.814103746E0,-7.876923680E-1,-4.872200489E0,7.180211067E0
3.816117905E0,-8.571242094E-1,-4.881777287E0,7.228095055E0
3.818102217E0,-9.217676520E-1,-4.898536682E0,7.278373241E0
3.820115530E0,-9.552865028E-1,-4.920084476E0,7.292738438E0
3.822099534E0,-1.034295082E0,-4.960785866E0,7.302315235E0
3.824114232E0,-1.060631394E0,-4.994304657E0,7.311892033E0
3.826097621E0,-1.158793569E0,-5.015852451E0,7.314286232E0
3.828110933E0,-1.285686255E0,-5.027823448E0,7.362170219E0
3.830094630E0,-1.333570361E0,-5.037400246E0,7.395689011E0
3.832108712E0,-1.441309452E0,-5.063736439E0,7.510610580E0
3.834092717E0,-1.553836942E0,-5.082890034E0,7.647080421E0
3.836106644E0,-1.608903527E0,-5.090072632E0,7.716512203E0
3.838089957E0,-1.699883223E0,-5.090072632E0,7.838616371E0
3.840104808E0,-1.805228114E0,-5.070919037E0,7.958326340E0
3.842118581E0,-1.853112102E0,-5.070919037E0,8.006210327E0
3.844103202E0,-1.948880196E0,-5.030217648E0,8.082824707E0
3.846118899E0,-2.035071373E0,-4.975151062E0,8.142680168E0
3.848099904E0,-2.066195965E0,-4.951209068E0,8.166622162E0
3.850114985E0,-2.123656988E0,-4.900930882E0,8.224082947E0
3.852098682E0,-2.145204782E0,-4.848258495E0,8.279149055E0
3.854112149E0,-2.147598982E0,-4.821922302E0,8.329427719E0
3.856096153E0,-2.130839586E0,-4.762067318E0,8.463502884E0
3.858110619E0,-2.118868589E0,-4.675876141E0,8.540117264E0
3.860094009E0,-2.078166962E0,-4.625597477E0,8.693346024E0
3.862108783E0,-1.975216389E0,-4.560954094E0,8.832210541E0
3.864092556E0,-1.905784607E0,-4.532223701E0,8.896853447E0
3.866106100E0,-1.764526606E0,-4.469974518E0,8.980650902E0
3.868120182E0,-1.623268723E0,-4.398148537E0,9.030928612E0
3.870103263E0,-1.532289028E0,-4.367023945E0,9.064447403E0
3.872117806E0,-1.364694953E0,-4.285621166E0,9.109937668E0
3.874101503E0,-1.189918280E0,-4.218583584E0,9.153033257E0
3.876115585E0,-1.082179189E0,-4.189853191E0,9.160215378E0
3.878099897E0,-8.858546019E-1,-4.113238335E0,9.165003777E0
3.880113441E0,-7.038952708E-1,-4.053383350E0,9.179368973E0
3.882096292E0,-6.200982332E-1,-4.027047157E0,9.193734169E0
3.884111988E0,-4.668693244E-1,-3.998316765E0,9.212887764E0
3.886094762E0,-3.064578176E-1,-4.010287762E0,9.246406555E0
3.888109229E0,-2.322375625E-1,-4.017470360E0,9.244012833E0
3.890092848E0,-1.221042871E-1,-4.036623955E0,9.236829758E0
3.892107315E0,-8.379705995E-2,-4.034229755E0,9.224859238E0
3.894090474E0,-2.873042040E-2,-4.010287762E0,9.208099365E0
3.896104863E0,0.000000000E0,-4.010287762E0,9.153033257E0
3.898119021E0,2.394201700E-3,-4.017470360E0,9.133879662E0
3.900102411E0,-9.576806799E-3,-4.050989151E0,9.126696587E0
3.902117800E0,-3.591302410E-2,-4.050989151E0,9.119514465E0
3.904100575E0,-4.309562966E-2,-4.062960148E0,9.097966194E0
3.906114809E0,-6.224924326E-2,-4.079719543E0,9.026140213E0
3.908098122E0,-7.900865376E-2,-4.089296341E0,8.963891029E0
3.910112665E0,-8.619125932E-2,-4.096478939E0,8.939949036E0
3.912095746E0,-9.097966552E-2,-4.125209332E0,8.899248123E0
3.914110751E0,-8.379705995E-2,-4.113238335E0,8.872911453E0
3.916093526E0,-7.661445439E-2,-4.113238335E0,8.863334656E0
3.918107685E0,-4.070143029E-2,-4.129997730E0,8.865729332E0
3.920092304E0,-2.154781483E-2,-4.161122322E0,8.916007042E0
3.922105617E0,4.548983276E-2,-4.170699596E0,8.944737434E0
3.924120929E0,1.197100878E-1,-4.192247391E0,8.978256226E0
3.926104626E0,1.651999205E-1,-4.194641590E0,8.983044624E0
3.928117323E0,2.561795712E-1,-4.211400986E0,8.997409821E0
3.930101943E0,3.567360640E-1,-4.232948780E0,8.999804497E0
3.932114871E0,4.022258818E-1,-4.242525578E0,8.997409821E0
3.934099106E0,5.219359994E-1,-4.256890774E0,8.990227699E0
3.936112957E0,6.248866320E-1,-4.264073372E0,8.968679428E0
3.938097270E0,6.655880809E-1,-4.252102375E0,8.930372238E0
3.940110812E0,7.517793179E-1,-4.249708176E0,8.832210541E0
3.942095817E0,8.427590132E-1,-4.228160381E0,8.676587105E0
3.944109284E0,8.690952063E-1,-4.237737179E0,8.609549522E0
3.946093288E0,8.906430602E-1,-4.182670593E0,8.530540466E0
3.948106601E0,9.145850539E-1,-4.144362926E0,8.530540466E0
3.950120452E0,9.097966552E-1,-4.141968727E0,8.568847656E0
3.952104765E0,8.619126081E-1,-4.170699596E0,8.657433510E0
3.954118230E0,8.427590132E-1,-4.182670593E0,8.710105896E0
3.956102004E0,8.116343617E-1,-4.199429989E0,8.724471092E0
3.958116471E0,7.876923680E-1,-4.278438568E0,8.748413086E0
3.960099783E0,7.924807668E-1,-4.304774761E0,8.746018410E0
3.962113634E0,7.805097699E-1,-4.347870350E0,8.722076416E0
3.964097023E0,7.829039693E-1,-4.460397720E0,8.705317497E0
3.966112490E0,7.829039693E-1,-4.460397720E0,8.705317497E0
3.968094340E0,8.092401624E-1,-4.503493309E0,8.719682693E0
3.970110576E0,8.523358107E-1,-4.560954094E0,8.760383606E0
3.972093427E0,8.643068075E-1,-4.601655483E0,8.796297073E0
3.974108739E0,8.834604025E-1,-4.635174274E0,8.911218643E0
3.976092128E0,9.313444495E-1,-4.678270340E0,9.038111687E0
3.978106595E0,9.481038451E-1,-4.690241337E0,9.095572472E0
3.980119523E0,9.911994934E-1,-4.726154327E0,9.215282440E0
3.982103835E0,1.015141487E0,-4.778826714E0,9.323021889E0
3.984117686E0,1.027112484E0,-4.786009312E0,9.361329079E0
3.986101768E0,1.039083481E0,-4.800374508E0,9.421183586E0
3.988115003E0,1.046266198E0,-4.819528103E0,9.459490776E0
3.990098623E0,1.077390790E0,-4.819528103E0,9.483432770E0
3.992113166E0,1.086967587E0,-4.814739704E0,9.528923035E0
3.994095941E0,1.094150186E0,-4.817133904E0,9.543288231E0
3.996111252E0,1.082179189E0,-4.821922302E0,9.574412346E0
3.998094642E0,1.058237195E0,-4.824316502E0,9.583989143E0
4.000108878E0,1.039083481E0,-4.819528103E0,9.581595421E0
4.002091882E0,1.017535686E0,-4.805162907E0,9.567230225E0
4.004107579E0,9.648633003E-1,-4.814739704E0,9.543288231E0
4.006091969E0,9.337386489E-1,-4.814739704E0,9.531316757E0
4.008103897E0,8.954314590E-1,-4.819528103E0,9.481039047E0
4.010118978E0,8.355764151E-1,-4.821922302E0,9.433155060E0
4.012102367E0,8.140285611E-1,-4.824316502E0,9.404424667E0
4.014116295E0,7.589619160E-1,-4.848258495E0,9.342175484E0
4.016099299E0,7.038952708E-1,-4.848258495E0,9.279925346E0
4.018114151E0,6.703764796E-1,-4.853046894E0,9.236829758E0
4.020097540E0,6.009446383E-1,-4.888959885E0,9.129091263E0
4.022112853E0,5.554547906E-1,-4.929661274E0,9.069235802E0
4.024095703E0,4.955997467E-1,-4.944026470E0,8.949525833E0
4.026110708E0,4.094084799E-1,-4.991910458E0,8.817844391E0
4.028094175E0,3.687070608E-1,-5.013458252E0,8.753201485E0
4.030107717E0,2.896983922E-1,-5.056553841E0,8.643068314E0
4.032091414E0,2.106897533E-1,-5.118803024E0,8.518569946E0
4.034105265E0,1.747767180E-1,-5.140350819E0,8.456320763E0
4.036119963E0,1.029506698E-1,-5.181052685E0,8.348581314E0
4.038103121E0,2.873042040E-2,-5.250484467E0,8.252813339E0
4.040117510E0,-9.576806799E-3,-5.284003258E0,8.219294548E0
4.042100900E0,-7.182604820E-2,-5.365406036E0,8.173804283E0
4.044116365E0,-1.316810995E-1,-5.432443619E0,8.171410561E0
4.046098832E0,-1.484405100E-1,-5.480327606E0,8.185775757E0
4.048112683E0,-1.699883193E-1,-5.547365189E0,8.236053467E0
4.050096611E0,-1.723825186E-1,-5.588066578E0,8.334216118E0
4.052110846E0,-1.699883193E-1,-5.616796970E0,8.401253700E0
4.054094466E0,-1.532289088E-1,-5.659893036E0,8.537723541E0
4.056108010E0,-1.340752989E-1,-5.681440830E0,8.604761124E0
4.058092629E0,-1.005564705E-1,-5.717353821E0,8.774748802E0
4.060106250E0,-5.027823523E-2,-5.746084213E0,8.951920509E0
4.062121255E0,-3.351882473E-2,-5.750872612E0,9.038111687E0
4.064104721E0,2.873042040E-2,-5.784391403E0,9.181763649E0
4.066118187E0,1.197100878E-1,-5.779603004E0,9.308655739E0
4.068102192E0,1.556231081E-1,-5.770026207E0,9.370905876E0
4.070116351E0,2.466027737E-1,-5.741295815E0,9.481039047E0
4.072099508E0,3.064578176E-1,-5.741295815E0,9.500192642E0
4.074114821E0,3.423708379E-1,-5.726930618E0,9.524134636E0
4.076098288E0,4.357447028E-1,-5.710171223E0,9.567230225E0
4.078112370E0,5.243301988E-1,-5.691017628E0,9.627084732E0
4.080096143E0,5.650315881E-1,-5.698200226E0,9.629479408E0
4.082108456E0,6.631938815E-1,-5.681440830E0,9.607931137E0
4.084093614E0,7.206547260E-1,-5.679046631E0,9.567230225E0
4.086109388E0,8.355764151E-1,-5.683835030E0,9.540893555E0
4.088090316E0,9.552865028E-1,-5.693411827E0,9.447520256E0
4.090105936E0,1.005564690E0,-5.707777023E0,9.404424667E0
4.092119787E0,1.110909581E0,-5.753266811E0,9.344569206E0
4.094103253E0,1.223437071E0,-5.798756599E0,9.270348549E0
4.096117335E0,1.266532660E0,-5.817910194E0,9.244012833E0
4.098101032E0,1.355118155E0,-5.851428986E0,9.210494041E0
4.100115574E0,1.429338455E0,-5.884947777E0,9.196128845E0
4.102098579E0,1.474828243E0,-5.904101372E0,9.181763649E0
4.104113046E0,1.575384736E0,-5.961562157E0,9.138668060E0
4.106098051E0,1.685518026E0,-5.995080948E0,9.071630478E0
4.108110670E0,1.726219416E0,-6.007051945E0,9.035717010E0
4.110094906E0,1.810016513E0,-6.040570736E0,8.966285706E0
4.112108219E0,1.910573006E0,-6.059724331E0,8.899248123E0
4.114092531E0,1.958456993E0,-6.069301128E0,8.865729332E0
4.116105151E0,2.066195965E0,-6.105214119E0,8.805873871E0
4.118120464E0,2.123656988E0,-6.114790916E0,8.755595207E0
4.120103930E0,2.236184359E0,-6.129156113E0,8.714894295E0
4.122118011E0,2.329558372E0,-6.129156113E0,8.643068314E0
4.124102401E0,2.358288765E0,-6.126761913E0,8.609549522E0
4.126115329E0,2.437297344E0,-6.126761913E0,8.532935143E0
