"Time (s)","Gyroscope x (rad/s)","Gyroscope y (rad/s)","Gyroscope z (rad/s)"
8.007692000E-3,8.552113175E-2,-2.260201424E-2,4.031710699E-2
1.007938800E-2,8.552113175E-2,-2.260201424E-2,4.031710699E-2
1.209331600E-2,8.552113175E-2,-2.260201424E-2,4.031710699E-2
1.410686000E-2,8.552113175E-2,-2.260201424E-2,4.031710699E-2
1.609055700E-2,8.552113175E-2,-2.260201424E-2,4.031710699E-2
1.810502300E-2,8.552113175E-2,-2.260201424E-2,4.031710699E-2
2.008833500E-2,8.552113175E-2,-2.260201424E-2,4.031710699E-2
2.210257100E-2,8.552113175E-2,-2.260201424E-2,4.031710699E-2
2.408596000E-2,8.552113175E-2,-2.260201424E-2,4.031710699E-2
2.610158000E-2,8.552113175E-2,-2.260201424E-2,4.031710699E-2
2.808443100E-2,8.552113175E-2,-2.260201424E-2,4.031710699E-2
3.009828200E-2,8.552113175E-2,-2.260201424E-2,4.031710699E-2
3.208159400E-2,8.552113175E-2,-2.260201424E-2,4.031710699E-2
3.409613800E-2,8.552113175E-2,-2.260201424E-2,4.031710699E-2
3.611029600E-2,8.552113175E-2,-2.260201424E-2,4.031710699E-2
3.809391600E-2,8.552113175E-2,-2.260201424E-2,4.031710699E-2
4.010845900E-2,8.552113175E-2,-2.260201424E-2,4.031710699E-2
4.209154100E-2,8.552113175E-2,-2.260201424E-2,4.031710699E-2
4.410654600E-2,8.552113175E-2,-2.260201424E-2,4.031710699E-2
4.609185800E-2,8.552113175E-2,-2.260201424E-2,4.031710699E-2
4.810378600E-2,8.552113175E-2,-2.260201424E-2,4.031710699E-2
5.008694500E-2,8.552113175E-2,-2.260201424E-2,4.031710699E-2
5.210133400E-2,8.552113175E-2,-2.260201424E-2,4.031710699E-2
5.408472300E-2,8.552113175E-2,-2.260201424E-2,4.031710699E-2
5.609949700E-2,8.552113175E-2,-2.260201424E-2,4.031710699E-2
5.808265600E-2,8.552113175E-2,-2.260201424E-2,4.031710699E-2
6.009681400E-2,8.552113175E-2,-2.260201424E-2,4.031710699E-2
6.211212700E-2,8.552113175E-2,-2.260201424E-2,4.031710699E-2
6.409497800E-2,8.552113175E-2,-2.260201424E-2,4.031710699E-2
6.611029000E-2,8.552113175E-2,-2.260201424E-2,4.031710699E-2
6.809275600E-2,8.552113175E-2,-2.260201424E-2,4.031710699E-2
7.010722300E-2,8.552113175E-2,-2.260201424E-2,4.031710699E-2
7.209007400E-2,1.148426682E-1,7.941248268E-2,5.986479297E-2
7.410384700E-2,1.178969890E-1,8.429940045E-2,6.108652428E-2
7.608854400E-2,1.209513173E-1,8.796459436E-2,6.414084882E-2
7.810239600E-2,1.209513173E-1,8.674286306E-2,6.475171447E-2
8.008570700E-2,1.233947799E-1,9.346238524E-2,6.963863969E-2
8.209902000E-2,1.240056455E-1,9.407325089E-2,7.269296050E-2
8.408394800E-2,1.264491081E-1,9.957103431E-2,7.452555746E-2
8.609987600E-2,1.276708394E-1,1.032362282E-1,7.635815442E-2
8.808149600E-2,1.258382350E-1,1.056796908E-1,7.880161703E-2
9.009650100E-2,1.313360333E-1,1.099557430E-1,8.124507964E-2
9.211035200E-2,1.331686229E-1,1.099557430E-1,8.307767659E-2
9.409404800E-2,1.325577646E-1,1.111774743E-1,8.491026610E-2
9.610828400E-2,1.362229437E-1,1.130100712E-1,8.918632567E-2
9.809190400E-2,1.392772794E-1,1.136209369E-1,9.101892263E-2
1.001057550E-1,1.411098689E-1,1.123992056E-1,9.224065393E-2
1.020904520E-1,1.429424733E-1,1.093448773E-1,9.346238524E-2
1.041039180E-1,1.435533315E-1,1.075122803E-1,9.529497474E-2
1.060885390E-1,1.478293836E-1,1.056796908E-1,9.712757170E-2
1.081014660E-1,1.459967941E-1,1.007927656E-1,1.007927656E-1
1.100846250E-1,1.478293836E-1,9.957103431E-2,9.957103431E-2
1.120990910E-1,1.496619880E-1,9.529497474E-2,9.896016866E-2
1.140827880E-1,1.490511149E-1,9.101892263E-2,9.957103431E-2
1.160971770E-1,1.521054506E-1,8.491026610E-2,1.001819000E-1
1.181104900E-1,1.490511149E-1,7.574728876E-2,1.001819000E-1
1.200948020E-1,1.490511149E-1,6.780604273E-2,9.957103431E-2
1.221080370E-1,1.478293836E-1,6.108652428E-2,9.896016866E-2
1.240923500E-1,1.435533315E-1,4.764748737E-2,9.529497474E-2
1.261065090E-1,1.453859210E-1,4.031710699E-2,9.712757170E-2
1.280898210E-1,1.447750628E-1,3.543018550E-2,9.896016866E-2
1.301052100E-1,1.441642046E-1,2.260201424E-2,9.590584040E-2
1.320883690E-1,1.423316002E-1,1.282817032E-2,9.590584040E-2
1.341022200E-1,1.411098689E-1,6.719517522E-3,9.346238524E-2
1.360861470E-1,1.368338168E-1,-4.276056774E-3,9.285151958E-2
1.380996910E-1,1.368338168E-1,-1.893682219E-2,9.224065393E-2
1.400837720E-1,1.331686229E-1,-2.321287990E-2,9.040805697E-2
1.420993930E-1,1.331686229E-1,-3.665191308E-2,8.796459436E-2
1.440818580E-1,1.313360333E-1,-4.031710699E-2,8.857546002E-2
1.460967100E-1,1.295034289E-1,-4.948008433E-2,8.857546002E-2
1.481098680E-1,1.295034289E-1,-5.803219974E-2,9.162978828E-2
1.500935650E-1,1.270599663E-1,-6.414084882E-2,8.674286306E-2
1.521077240E-1,1.240056455E-1,-6.902777404E-2,8.918632567E-2
1.540921130E-1,1.240056455E-1,-7.330382615E-2,8.613199741E-2
1.561052720E-1,1.215621829E-1,-7.513642311E-2,8.674286306E-2
1.580889680E-1,1.197295859E-1,-7.635815442E-2,8.735372871E-2
1.601034350E-1,1.197295859E-1,-7.696902007E-2,8.613199741E-2
1.620874400E-1,1.191187203E-1,-7.513642311E-2,8.613199741E-2
1.641019050E-1,1.160643995E-1,-7.269296050E-2,8.613199741E-2
1.660865260E-1,1.154535338E-1,-6.841690838E-2,8.613199741E-2
1.680985310E-1,1.123992056E-1,-6.291911751E-2,8.674286306E-2
1.700831500E-1,1.099557430E-1,-5.742133409E-2,8.613199741E-2
1.720966940E-1,1.099557430E-1,-5.253441259E-2,8.735372871E-2
1.741111600E-1,1.081231460E-1,-5.009094998E-2,8.674286306E-2
1.760945500E-1,1.087340117E-1,-4.031710699E-2,8.979719132E-2
1.781087080E-1,1.056796908E-1,-3.298672289E-2,9.101892263E-2
1.800924050E-1,1.050688252E-1,-2.626720630E-2,9.346238524E-2
1.821072560E-1,1.038470939E-1,-1.588249579E-2,9.224065393E-2
1.840897220E-1,1.050688252E-1,-1.160643995E-2,9.590584040E-2
1.861053420E-1,1.014036313E-1,-2.443460980E-3,9.651670605E-2
1.880887320E-1,1.007927656E-1,7.330383174E-3,9.773843735E-2
1.901031980E-1,1.007927656E-1,1.282817032E-2,9.896016866E-2
1.920853560E-1,1.001819000E-1,2.382374369E-2,1.007927656E-1
1.941001300E-1,1.001819000E-1,3.054326214E-2,1.001819000E-1
1.960839050E-1,1.001819000E-1,3.420845419E-2,1.007927656E-1
1.980980620E-1,1.001819000E-1,4.092797264E-2,1.001819000E-1
2.000822980E-1,9.773843735E-2,4.948008433E-2,1.014036313E-1
2.020952260E-1,9.712757170E-2,4.948008433E-2,1.001819000E-1
2.041103850E-1,9.834930301E-2,5.803219974E-2,9.957103431E-2
2.060931580E-1,9.529497474E-2,6.047565863E-2,1.001819000E-1
2.081079330E-1,9.529497474E-2,6.352998316E-2,9.773843735E-2
2.100910150E-1,9.407325089E-2,6.719517708E-2,9.712757170E-2
2.121054810E-1,9.346238524E-2,6.719517708E-2,9.773843735E-2
2.140894080E-1,9.346238524E-2,6.780604273E-2,9.407325089E-2
2.161039520E-1,9.224065393E-2,6.719517708E-2,9.590584040E-2
2.180869570E-1,9.285151958E-2,6.780604273E-2,9.407325089E-2
2.201008070E-1,8.979719132E-2,6.658431143E-2,9.224065393E-2
2.220854270E-1,8.735372871E-2,6.719517708E-2,8.979719132E-2
2.240989710E-1,8.735372871E-2,6.291911751E-2,8.979719132E-2
2.260836670E-1,8.857546002E-2,6.047565863E-2,8.735372871E-2
2.280972100E-1,8.796459436E-2,5.558873713E-2,8.735372871E-2
2.301109850E-1,8.491026610E-2,5.131268129E-2,8.552113175E-2
2.320941440E-1,8.491026610E-2,4.459316283E-2,8.552113175E-2
2.341091480E-1,8.185594529E-2,3.970624134E-2,8.429940045E-2
2.360922290E-1,8.307767659E-2,3.481931984E-2,8.246681094E-2
2.381066960E-1,8.002334833E-2,2.687807009E-2,8.429940045E-2
2.400901620E-1,8.063421398E-2,1.954768784E-2,8.063421398E-2
2.421046280E-1,7.880161703E-2,1.588249579E-2,8.002334833E-2
2.440883250E-1,7.696902007E-2,1.160643995E-2,7.757988572E-2
2.461037150E-1,7.330382615E-2,7.330383174E-3,7.513642311E-2
2.480849500E-1,7.086037099E-2,2.443460980E-3,7.635815442E-2
2.500997240E-1,7.024950534E-2,-2.443460980E-3,7.391469181E-2
2.520839600E-1,6.780604273E-2,-3.054326167E-3,7.269296050E-2
2.540981180E-1,6.658431143E-2,-7.330383174E-3,7.147123665E-2
2.560821230E-1,6.475171447E-2,-7.941247895E-3,6.902777404E-2
2.580956660E-1,6.719517708E-2,-1.343903504E-2,6.719517708E-2
2.601101330E-1,6.597344577E-2,-1.588249579E-2,6.719517708E-2
2.620939060E-1,6.475171447E-2,-1.527163107E-2,6.352998316E-2
2.641079880E-1,6.475171447E-2,-1.588249579E-2,6.108652428E-2
2.660923010E-1,6.536258012E-2,-1.832595654E-2,6.230825558E-2
2.681055350E-1,6.291911751E-2,-1.832595654E-2,6.230825558E-2
2.700889250E-1,6.352998316E-2,-1.710422710E-2,5.986479297E-2
2.721033920E-1,6.108652428E-2,-1.527163107E-2,5.925392732E-2
2.740867810E-1,5.986479297E-2,-1.710422710E-2,5.864306539E-2
2.761018620E-1,6.108652428E-2,-1.343903504E-2,5.742133409E-2
2.780849440E-1,5.864306539E-2,-9.773843922E-3,5.558873713E-2
2.800979490E-1,5.986479297E-2,-1.038470957E-2,5.497787148E-2
2.820821840E-1,5.803219974E-2,-5.497787148E-3,5.558873713E-2
2.840973430E-1,5.558873713E-2,-1.832595794E-3,5.375614017E-2
2.861108090E-1,5.375614017E-2,1.221730490E-3,5.314527452E-2
2.880945060E-1,5.436700583E-2,3.054326167E-3,5.131268129E-2
2.901089720E-1,5.497787148E-2,7.330383174E-3,5.253441259E-2
2.920923620E-1,5.131268129E-2,1.099557430E-2,5.070181563E-2
2.941062900E-1,5.192354694E-2,1.099557430E-2,5.131268129E-2
2.960899090E-1,5.070181563E-2,1.038470957E-2,4.825835302E-2
2.981044530E-1,4.948008433E-2,1.343903504E-2,4.948008433E-2
3.000877650E-1,4.948008433E-2,1.527163107E-2,4.703662544E-2
3.021028470E-1,4.764748737E-2,1.527163107E-2,4.642575979E-2
3.040860050E-1,4.764748737E-2,1.160643995E-2,4.337143153E-2
3.061001640E-1,4.398229718E-2,1.649336144E-2,4.092797264E-2
3.080837840E-1,4.459316283E-2,1.527163107E-2,4.276056588E-2
3.100983270E-1,4.153883830E-2,1.710422710E-2,3.970624134E-2
3.120811010E-1,4.031710699E-2,1.771509275E-2,3.726277873E-2
3.140955680E-1,3.909537569E-2,1.710422710E-2,3.665191308E-2
3.161091110E-1,3.848451003E-2,1.771509275E-2,3.420845419E-2
3.180937300E-1,3.726277873E-2,1.954768784E-2,3.054326214E-2
3.201075050E-1,3.909537569E-2,1.832595654E-2,3.054326214E-2
3.220908940E-1,3.726277873E-2,1.954768784E-2,2.932153270E-2
3.241057440E-1,3.787364438E-2,2.260201424E-2,2.687807009E-2
3.260902880E-1,3.604105115E-2,2.260201424E-2,2.687807009E-2
3.281026770E-1,3.787364438E-2,2.199114859E-2,2.504547499E-2
3.300869900E-1,3.726277873E-2,2.260201424E-2,2.443460934E-2
3.321004560E-1,3.787364438E-2,2.504547499E-2,2.443460934E-2
3.340842300E-1,3.726277873E-2,2.443460934E-2,2.626720630E-2
3.360989270E-1,3.787364438E-2,2.626720630E-2,2.443460934E-2
3.380830080E-1,4.092797264E-2,2.809980139E-2,2.626720630E-2
3.400962440E-1,3.909537569E-2,2.871066704E-2,2.504547499E-2
3.421109410E-1,3.970624134E-2,2.932153270E-2,2.687807009E-2
3.440946390E-1,3.909537569E-2,2.932153270E-2,2.993239649E-2
3.461091810E-1,3.726277873E-2,3.054326214E-2,2.565634064E-2
3.480925710E-1,3.726277873E-2,3.115412779E-2,2.687807009E-2
3.501058060E-1,3.665191308E-2,3.237585723E-2,2.871066704E-2
3.520898100E-1,3.481931984E-2,3.115412779E-2,2.626720630E-2
3.541036620E-1,3.481931984E-2,3.359758854E-2,2.504547499E-2
3.560873590E-1,3.420845419E-2,3.298672289E-2,2.504547499E-2
3.581015180E-1,3.420845419E-2,3.359758854E-2,2.076941915E-2
3.600858290E-1,3.298672289E-2,3.298672289E-2,2.260201424E-2
3.620996810E-1,3.359758854E-2,3.359758854E-2,1.954768784E-2
3.640826860E-1,3.420845419E-2,3.359758854E-2,1.588249579E-2
3.660953050E-1,3.420845419E-2,3.359758854E-2,1.588249579E-2
3.681107720E-1,3.298672289E-2,3.176499158E-2,1.588249579E-2
3.700953920E-1,3.359758854E-2,3.054326214E-2,1.221730467E-2
3.721097820E-1,3.298672289E-2,2.993239649E-2,9.773843922E-3
3.740934780E-1,3.359758854E-2,2.809980139E-2,7.330383174E-3
3.761074060E-1,3.237585723E-2,2.748893574E-2,3.665191587E-3
3.780910260E-1,3.237585723E-2,3.115412779E-2,0.000000000E0
3.801052610E-1,3.359758854E-2,2.626720630E-2,-1.221730490E-3
3.820891890E-1,3.237585723E-2,2.443460934E-2,-3.665191587E-3
3.841033480E-1,3.237585723E-2,2.809980139E-2,-6.719517522E-3
3.860877370E-1,3.176499158E-2,2.626720630E-2,-8.552113548E-3
3.881006650E-1,2.993239649E-2,2.504547499E-2,-9.773843922E-3
3.900846700E-1,2.993239649E-2,2.565634064E-2,-1.343903504E-2
3.920987520E-1,3.054326214E-2,2.748893574E-2,-1.466076635E-2
3.940818330E-1,3.115412779E-2,2.260201424E-2,-1.527163107E-2
3.960966070E-1,2.748893574E-2,2.199114859E-2,-1.832595654E-2
3.981104580E-1,2.932153270E-2,2.260201424E-2,-1.832595654E-2
4.000932310E-1,2.809980139E-2,2.321287990E-2,-1.954768784E-2
4.021077750E-1,2.993239649E-2,2.076941915E-2,-2.321287990E-2
4.040920870E-1,2.871066704E-2,1.954768784E-2,-2.382374369E-2
4.061077080E-1,2.871066704E-2,1.832595654E-2,-2.871066704E-2
4.080895580E-1,2.748893574E-2,1.954768784E-2,-2.993239649E-2
4.101037170E-1,2.626720630E-2,1.588249579E-2,-2.993239649E-2
4.120877220E-1,2.443460934E-2,1.343903504E-2,-3.237585723E-2
4.141018800E-1,2.199114859E-2,1.221730467E-2,-3.543018550E-2
4.160859620E-1,2.076941915E-2,1.282817032E-2,-3.787364438E-2
4.180997360E-1,2.138028294E-2,9.773843922E-3,-3.909537569E-2
4.200831250E-1,1.832595654E-2,1.160643995E-2,-4.153883830E-2
4.220972830E-1,1.771509275E-2,1.221730467E-2,-4.459316283E-2
4.241121340E-1,1.649336144E-2,1.282817032E-2,-4.703662544E-2
4.260966780E-1,1.588249579E-2,1.710422710E-2,-4.581489414E-2
4.281102980E-1,1.710422710E-2,1.893682219E-2,-4.520402849E-2
4.300930720E-1,1.343903504E-2,2.076941915E-2,-4.886921868E-2
4.321074610E-1,1.038470957E-2,2.748893574E-2,-5.070181563E-2
4.340915430E-1,8.552113548E-3,3.237585723E-2,-4.948008433E-2
4.361053160E-1,7.941247895E-3,3.726277873E-2,-5.070181563E-2
4.380893980E-1,6.108652335E-3,3.848451003E-2,-5.070181563E-2
4.401032490E-1,6.108652335E-3,4.398229718E-2,-5.192354694E-2
4.420860230E-1,5.497787148E-3,5.009094998E-2,-5.009094998E-2
4.441010280E-1,3.665191587E-3,5.497787148E-2,-5.314527452E-2
4.460838020E-1,1.832595794E-3,6.047565863E-2,-5.192354694E-2
4.480989610E-1,-6.108652451E-4,6.291911751E-2,-5.192354694E-2
4.500823490E-1,-1.221730490E-3,6.780604273E-2,-5.131268129E-2
4.520958930E-1,-1.221730490E-3,7.086037099E-2,-5.070181563E-2
4.541105900E-1,-1.832595794E-3,7.452555746E-2,-5.192354694E-2
4.560940560E-1,-3.665191587E-3,7.819075137E-2,-5.131268129E-2
4.581079070E-1,-5.497787148E-3,8.185594529E-2,-5.192354694E-2
4.600921430E-1,-7.330383174E-3,8.491026610E-2,-5.131268129E-2
4.621063010E-1,-9.162978269E-3,8.552113175E-2,-5.192354694E-2
4.640903050E-1,-1.038470957E-2,9.285151958E-2,-5.192354694E-2
4.661050800E-1,-1.282817032E-2,9.468411654E-2,-5.314527452E-2
4.680875460E-1,-1.404990070E-2,9.712757170E-2,-5.253441259E-2
4.701017040E-1,-1.221730467E-2,1.020144969E-1,-5.253441259E-2
4.720854780E-1,-1.649336144E-2,1.032362282E-1,-5.375614017E-2
4.740998680E-1,-1.588249579E-2,1.020144969E-1,-5.558873713E-2
4.760827190E-1,-2.076941915E-2,1.056796908E-1,-5.619960278E-2
4.780978000E-1,-1.954768784E-2,1.038470939E-1,-5.681046844E-2
4.801110360E-1,-2.504547499E-2,1.038470939E-1,-5.986479297E-2
4.820949640E-1,-2.809980139E-2,1.026253626E-1,-6.291911751E-2
4.841100450E-1,-2.932153270E-2,1.026253626E-1,-6.536258012E-2
4.860947420E-1,-3.237585723E-2,9.957103431E-2,-6.536258012E-2
4.881066700E-1,-3.481931984E-2,9.468411654E-2,-6.963863969E-2
4.900909830E-1,-3.604105115E-2,9.224065393E-2,-6.963863969E-2
4.921052180E-1,-3.909537569E-2,8.979719132E-2,-7.269296050E-2
4.940883000E-1,-3.970624134E-2,8.735372871E-2,-7.696902007E-2
4.961023820E-1,-4.092797264E-2,8.613199741E-2,-7.819075137E-2
4.980860780E-1,-4.337143153E-2,8.429940045E-2,-8.185594529E-2
5.001008520E-1,-4.398229718E-2,8.124507964E-2,-8.674286306E-2
5.020848570E-1,-4.581489414E-2,8.063421398E-2,-8.613199741E-2
5.040984010E-1,-4.703662544E-2,8.063421398E-2,-8.979719132E-2
5.061138660E-1,-4.886921868E-2,7.880161703E-2,-9.162978828E-2
5.080962560E-1,-4.886921868E-2,7.819075137E-2,-9.651670605E-2
5.101101840E-1,-5.192354694E-2,7.452555746E-2,-9.834930301E-2
5.120941110E-1,-5.070181563E-2,7.452555746E-2,-1.007927656E-1
5.141082700E-1,-5.314527452E-2,7.330382615E-2,-1.007927656E-1
5.160919670E-1,-5.253441259E-2,7.269296050E-2,-1.007927656E-1
5.181062030E-1,-5.131268129E-2,7.147123665E-2,-1.044579595E-1
5.200898990E-1,-5.375614017E-2,7.086037099E-2,-1.056796908E-1
5.221034430E-1,-5.436700583E-2,7.391469181E-2,-1.081231460E-1
5.240883710E-1,-5.497787148E-2,7.208210230E-2,-1.062905490E-1
5.261009900E-1,-5.375614017E-2,7.208210230E-2,-1.099557430E-1
5.280855340E-1,-5.192354694E-2,7.330382615E-2,-1.111774743E-1
5.300994620E-1,-5.314527452E-2,7.452555746E-2,-1.117883399E-1
5.320834670E-1,-4.948008433E-2,7.513642311E-2,-1.123992056E-1
5.340975480E-1,-5.070181563E-2,7.696902007E-2,-1.105666086E-1
5.361113990E-1,-4.825835302E-2,7.574728876E-2,-1.148426682E-1
5.380948650E-1,-4.825835302E-2,8.002334833E-2,-1.117883399E-1
5.401098690E-1,-4.703662544E-2,8.124507964E-2,-1.136209369E-1
5.420942590E-1,-4.703662544E-2,8.246681094E-2,-1.111774743E-1
5.441068020E-1,-4.642575979E-2,8.735372871E-2,-1.148426682E-1
5.460911150E-1,-4.642575979E-2,9.101892263E-2,-1.105666086E-1
5.481058880E-1,-4.520402849E-2,9.285151958E-2,-1.093448773E-1
5.500887390E-1,-4.276056588E-2,9.773843735E-2,-1.093448773E-1
5.521025910E-1,-4.398229718E-2,9.957103431E-2,-1.105666086E-1
5.540862870E-1,-4.581489414E-2,1.032362282E-1,-1.099557430E-1
5.561012920E-1,-4.581489414E-2,1.032362282E-1,-1.069014147E-1
5.580841430E-1,-4.459316283E-2,1.069014147E-1,-1.075122803E-1
5.600982250E-1,-4.398229718E-2,1.087340117E-1,-1.062905490E-1
5.621123830E-1,-4.948008433E-2,1.087340117E-1,-1.050688252E-1
5.640964650E-1,-5.192354694E-2,1.099557430E-1,-1.044579595E-1
5.661117780E-1,-5.253441259E-2,1.099557430E-1,-1.050688252E-1
5.680939350E-1,-5.436700583E-2,1.111774743E-1,-1.050688252E-1
5.701087100E-1,-5.619960278E-2,1.111774743E-1,-1.014036313E-1
5.720918680E-1,-5.742133409E-2,1.111774743E-1,-1.032362282E-1
5.741053350E-1,-6.047565863E-2,1.111774743E-1,-1.026253626E-1
5.760894160E-1,-6.230825558E-2,1.117883399E-1,-1.050688252E-1
5.781038060E-1,-6.475171447E-2,1.130100712E-1,-1.069014147E-1
5.800875030E-1,-6.475171447E-2,1.130100712E-1,-1.075122803E-1
5.821017380E-1,-6.658431143E-2,1.142318025E-1,-1.099557430E-1
5.840850500E-1,-6.902777404E-2,1.172861308E-1,-1.111774743E-1
5.861005170E-1,-6.841690838E-2,1.197295859E-1,-1.136209369E-1
5.880829050E-1,-7.086037099E-2,1.197295859E-1,-1.166752651E-1
5.900973720E-1,-7.208210230E-2,1.209513173E-1,-1.197295859E-1
5.921109920E-1,-7.269296050E-2,1.221730486E-1,-1.240056455E-1
5.940953050E-1,-7.574728876E-2,1.221730486E-1,-1.252273768E-1
5.961088480E-1,-7.819075137E-2,1.221730486E-1,-1.270599663E-1
5.980930830E-1,-8.002334833E-2,1.209513173E-1,-1.264491081E-1
6.001066270E-1,-7.941248268E-2,1.203404516E-1,-1.270599663E-1
6.020900150E-1,-8.246681094E-2,1.185078546E-1,-1.270599663E-1
6.041048670E-1,-8.368854225E-2,1.154535338E-1,-1.301143020E-1
6.060854100E-1,-8.429940045E-2,1.130100712E-1,-1.313360333E-1
6.081027230E-1,-8.613199741E-2,1.136209369E-1,-1.288925707E-1
6.100867270E-1,-8.796459436E-2,1.148426682E-1,-1.295034289E-1
6.121005010E-1,-8.796459436E-2,1.117883399E-1,-1.295034289E-1
6.140836600E-1,-8.735372871E-2,1.123992056E-1,-1.301143020E-1
6.160981250E-1,-8.979719132E-2,1.154535338E-1,-1.270599663E-1
6.181119770E-1,-8.735372871E-2,1.130100712E-1,-1.246165112E-1
6.200962890E-1,-8.552113175E-2,1.154535338E-1,-1.252273768E-1
6.221109870E-1,-8.307767659E-2,1.172861308E-1,-1.246165112E-1
6.240935290E-1,-8.307767659E-2,1.227839142E-1,-1.252273768E-1
6.261091490E-1,-8.185594529E-2,1.246165112E-1,-1.233947799E-1
6.280919240E-1,-8.124507964E-2,1.282816976E-1,-1.227839142E-1
6.301057750E-1,-7.941248268E-2,1.350012124E-1,-1.221730486E-1
6.320891630E-1,-7.819075137E-2,1.362229437E-1,-1.203404516E-1
6.341033990E-1,-7.574728876E-2,1.429424733E-1,-1.209513173E-1
6.360870200E-1,-7.574728876E-2,1.484402567E-1,-1.185078546E-1
6.381009470E-1,-7.391469181E-2,1.533271819E-1,-1.185078546E-1
6.400851820E-1,-7.208210230E-2,1.588249654E-1,-1.191187203E-1
6.420981870E-1,-7.269296050E-2,1.618792862E-1,-1.172861308E-1
6.441135000E-1,-7.269296050E-2,1.679879427E-1,-1.142318025E-1
6.460978890E-1,-7.208210230E-2,1.740965992E-1,-1.123992056E-1
6.481105090E-1,-7.086037099E-2,1.747074574E-1,-1.130100712E-1
6.500953600E-1,-6.902777404E-2,1.802052408E-1,-1.099557430E-1
6.521092100E-1,-6.780604273E-2,1.838704348E-1,-1.099557430E-1
6.540926000E-1,-6.719517708E-2,1.863138974E-1,-1.087340117E-1
6.561070670E-1,-6.597344577E-2,1.905899495E-1,-1.056796908E-1
6.580908400E-1,-6.352998316E-2,1.942551434E-1,-1.056796908E-1
6.601049220E-1,-6.169738993E-2,1.973094791E-1,-1.038470939E-1
6.620883880E-1,-6.108652428E-2,2.003637999E-1,-1.014036313E-1
6.641027780E-1,-5.925392732E-2,2.009746730E-1,-9.957103431E-2
6.660870900E-1,-5.925392732E-2,2.021963894E-1,-1.020144969E-1
6.681000180E-1,-5.864306539E-2,2.052507252E-1,-1.032362282E-1
6.700843300E-1,-5.497787148E-2,2.052507252E-1,-1.020144969E-1
6.720978730E-1,-5.619960278E-2,2.058615834E-1,-1.032362282E-1
6.741118010E-1,-5.131268129E-2,2.046398520E-1,-1.050688252E-1
6.760961140E-1,-5.070181563E-2,2.046398520E-1,-1.032362282E-1
6.781096570E-1,-5.009094998E-2,2.040289938E-1,-1.087340117E-1
6.800939690E-1,-4.825835302E-2,2.009746730E-1,-1.105666086E-1
6.821071280E-1,-4.703662544E-2,1.997529417E-1,-1.087340117E-1
6.840921330E-1,-4.520402849E-2,1.985312104E-1,-1.117883399E-1
6.861050600E-1,-4.092797264E-2,1.936442852E-1,-1.154535338E-1
6.880892960E-1,-4.153883830E-2,1.936442852E-1,-1.185078546E-1
6.901041470E-1,-3.909537569E-2,1.918116808E-1,-1.215621829E-1
6.920866130E-1,-3.543018550E-2,1.875356287E-1,-1.233947799E-1
6.941010790E-1,-3.359758854E-2,1.857030392E-1,-1.252273768E-1
6.960850070E-1,-3.298672289E-2,1.844813079E-1,-1.276708394E-1
6.980991660E-1,-3.176499158E-2,1.863138974E-1,-1.307251602E-1
7.001137080E-1,-2.871066704E-2,1.832595766E-1,-1.331686229E-1
7.020970980E-1,-2.321287990E-2,1.832595766E-1,-1.362229437E-1
7.041105640E-1,-2.260201424E-2,1.850921661E-1,-1.374446750E-1
7.060952620E-1,-1.893682219E-2,1.857030392E-1,-1.404990107E-1
7.081084200E-1,-1.588249579E-2,1.863138974E-1,-1.447750628E-1
7.100928090E-1,-1.404990070E-2,1.875356287E-1,-1.459967941E-1
7.121060450E-1,-1.038470957E-2,1.912008226E-1,-1.502728462E-1
7.140905870E-1,-7.330383174E-3,1.936442852E-1,-1.514945775E-1
7.161039000E-1,-4.886921961E-3,1.948660165E-1,-1.551597714E-1
7.180881360E-1,-1.221730490E-3,1.960877478E-1,-1.557706445E-1
7.201026790E-1,2.443460980E-3,2.028072625E-1,-1.582140923E-1
7.220854530E-1,3.665191587E-3,2.070833147E-1,-1.600466967E-1
7.241008420E-1,5.497787148E-3,2.125810981E-1,-1.649336219E-1
7.260851550E-1,1.038470957E-2,2.186897546E-1,-1.679879427E-1
7.280971590E-1,1.038470957E-2,2.229658216E-1,-1.704314053E-1
7.301128560E-1,1.404990070E-2,2.296853364E-1,-1.710422635E-1
7.320958610E-1,1.404990070E-2,2.351831198E-1,-1.740965992E-1
7.341097890E-1,1.649336144E-2,2.419026345E-1,-1.716531366E-1
7.360931780E-1,1.893682219E-2,2.535090744E-1,-1.759291887E-1
7.381070290E-1,1.466076635E-2,2.583959997E-1,-1.808161139E-1
7.400915730E-1,1.343903504E-2,2.700024247E-1,-1.826487035E-1
7.421066530E-1,1.160643995E-2,2.785545588E-1,-1.863138974E-1
7.440891970E-1,1.099557430E-2,2.846632004E-1,-1.875356287E-1
7.461039710E-1,5.497787148E-3,2.944370508E-1,-1.899790913E-1
7.480867450E-1,-1.221730490E-3,3.036000133E-1,-1.948660165E-1
7.501009030E-1,-1.832595794E-3,3.078760803E-1,-1.979203373E-1
7.520855240E-1,-8.552113548E-3,3.182607889E-1,-2.003637999E-1
7.540989900E-1,-1.527163107E-2,3.262020350E-1,-2.052507252E-1
7.561132250E-1,-1.832595654E-2,3.304781020E-1,-2.095267773E-1
7.580975380E-1,-2.748893574E-2,3.390302062E-1,-2.125810981E-1
7.601106970E-1,-3.359758854E-2,3.488040566E-1,-2.199114859E-1
7.620947780E-1,-3.665191308E-2,3.543018401E-1,-2.217440903E-1
7.641092440E-1,-4.459316283E-2,3.616322279E-1,-2.296853364E-1
7.660926340E-1,-4.703662544E-2,3.652974069E-1,-2.339613885E-1
7.681064850E-1,-5.619960278E-2,3.744603992E-1,-2.370157093E-1
7.700904120E-1,-6.291911751E-2,3.836233616E-1,-2.467895597E-1
7.721042630E-1,-6.658431143E-2,3.866777122E-1,-2.516764700E-1
7.740879600E-1,-7.269296050E-2,3.970624208E-1,-2.608394623E-1
7.761024270E-1,-8.063421398E-2,4.019493461E-1,-2.681698501E-1
7.780862000E-1,-8.246681094E-2,4.043927789E-1,-2.755002379E-1
7.801006670E-1,-8.857546002E-2,4.111123085E-1,-2.822197378E-1
7.820843640E-1,-9.773843735E-2,4.159992337E-1,-2.926044464E-1
7.840984450E-1,-1.007927656E-1,4.190535545E-1,-2.981022298E-1
7.861126810E-1,-1.081231460E-1,4.221078753E-1,-3.048217595E-1
7.880959930E-1,-1.136209369E-1,4.257730842E-1,-3.103195429E-1
7.901102290E-1,-1.172861308E-1,4.276056588E-1,-3.152064681E-1
7.920929250E-1,-1.252273768E-1,4.306600094E-1,-3.158173263E-1
7.941074690E-1,-1.288925707E-1,4.306600094E-1,-3.200933933E-1
7.960914740E-1,-1.319468915E-1,4.312708676E-1,-3.237585723E-1
7.981053240E-1,-1.356120855E-1,4.331034720E-1,-3.243694305E-1
8.000890210E-1,-1.386664063E-1,4.343251884E-1,-3.255911767E-1
8.021028730E-1,-1.423316002E-1,4.379903674E-1,-3.243694305E-1
8.040878000E-1,-1.453859210E-1,4.367686510E-1,-3.255911767E-1
8.061028050E-1,-1.441642046E-1,4.379903674E-1,-3.243694305E-1
8.080841170E-1,-1.466076523E-1,4.379903674E-1,-3.231477141E-1
8.100991990E-1,-1.496619880E-1,4.398229718E-1,-3.231477141E-1
8.121129720E-1,-1.502728462E-1,4.410447180E-1,-3.213151097E-1
8.140972850E-1,-1.539380401E-1,4.398229718E-1,-3.188716471E-1
8.161105980E-1,-1.588249654E-1,4.392121136E-1,-3.188716471E-1
8.180946020E-1,-1.618792862E-1,4.404338300E-1,-3.182607889E-1
8.201086840E-1,-1.624901593E-1,4.392121136E-1,-3.170390725E-1
8.220921500E-1,-1.716531366E-1,4.331034720E-1,-3.158173263E-1
8.241068480E-1,-1.753183305E-1,4.282165468E-1,-3.170390725E-1
8.260912360E-1,-1.808161139E-1,4.221078753E-1,-3.194825351E-1
8.281041640E-1,-1.838704348E-1,4.178318381E-1,-3.170390725E-1
8.300887080E-1,-1.930334121E-1,4.105014503E-1,-3.207042515E-1
8.321023270E-1,-2.003637999E-1,4.031710625E-1,-3.237585723E-1
8.340856400E-1,-2.034181207E-1,3.958406746E-1,-3.274237812E-1
8.361001060E-1,-2.095267773E-1,3.878994286E-1,-3.329215646E-1
8.380838810E-1,-2.150245607E-1,3.799581826E-1,-3.378084898E-1
8.400976540E-1,-2.186897546E-1,3.775147200E-1,-3.426954150E-1
8.421115050E-1,-2.229658216E-1,3.720169365E-1,-3.457497358E-1
8.440952020E-1,-2.376265824E-1,3.677408695E-1,-3.610213697E-1
8.461081300E-1,-2.400700450E-1,3.689626157E-1,-3.671300113E-1
8.480909040E-1,-2.400700450E-1,3.689626157E-1,-3.671300113E-1
8.501079090E-1,-2.443460971E-1,3.701843321E-1,-3.769038618E-1
8.520919140E-1,-2.486221492E-1,3.732386529E-1,-3.799581826E-1
8.541050720E-1,-2.565633953E-1,3.756821156E-1,-3.891211748E-1
8.560891540E-1,-2.596177161E-1,3.775147200E-1,-3.970624208E-1
8.581030050E-1,-2.626720667E-1,3.787364662E-1,-4.007275999E-1
8.600870090E-1,-2.669481039E-1,3.842342496E-1,-4.080579877E-1
8.621014750E-1,-2.706133127E-1,3.824016452E-1,-4.086688459E-1
8.640844800E-1,-2.755002379E-1,3.805690408E-1,-4.129449129E-1
8.660993310E-1,-2.773328125E-1,3.781255782E-1,-4.190535545E-1
8.681121820E-1,-2.785545588E-1,3.750712574E-1,-4.178318381E-1
8.700962630E-1,-2.828305960E-1,3.720169365E-1,-4.214970171E-1
8.721110380E-1,-2.871066630E-1,3.646865487E-1,-4.190535545E-1
8.740938110E-1,-2.852740586E-1,3.604104817E-1,-4.184426963E-1
8.761085080E-1,-2.895501256E-1,3.524692357E-1,-4.147774875E-1
8.780916670E-1,-2.938261926E-1,3.445279896E-1,-4.117231667E-1
8.801063640E-1,-2.950479090E-1,3.402519524E-1,-4.123340547E-1
8.820895220E-1,-2.962696552E-1,3.304781020E-1,-4.086688459E-1
8.841051430E-1,-3.023782969E-1,3.249803185E-1,-4.037819207E-1
8.860901480E-1,-3.011565804E-1,3.207042515E-1,-4.013384581E-1
8.881017670E-1,-3.005456924E-1,3.164281845E-1,-3.952298164E-1
8.900857720E-1,-3.011565804E-1,3.115412891E-1,-3.897320330E-1
8.920999310E-1,-2.981022298E-1,3.078760803E-1,-3.848451078E-1
8.940830900E-1,-2.962696552E-1,3.066543639E-1,-3.811798990E-1
8.960972480E-1,-2.938261926E-1,3.042109013E-1,-3.732386529E-1
8.981119450E-1,-2.926044464E-1,3.060434759E-1,-3.695734739E-1
9.000950270E-1,-2.864958048E-1,3.005456924E-1,-3.616322279E-1
9.021104150E-1,-2.858849466E-1,3.017674387E-1,-3.591887653E-1
9.040928820E-1,-2.822197378E-1,3.023782969E-1,-3.524692357E-1
9.061082720E-1,-2.785545588E-1,3.042109013E-1,-3.414736688E-1
9.080919690E-1,-2.767219543E-1,3.054326177E-1,-3.371976018E-1
9.101052810E-1,-2.785545588E-1,3.097086847E-1,-3.280346394E-1
9.120889010E-1,-2.791654170E-1,3.164281845E-1,-3.200933933E-1
9.141033680E-1,-2.816088796E-1,3.231477141E-1,-3.170390725E-1
9.160864480E-1,-2.803871334E-1,3.323107064E-1,-3.066543639E-1
9.181009150E-1,-2.809980214E-1,3.475823104E-1,-3.005456924E-1
9.200846890E-1,-2.791654170E-1,3.530801237E-1,-2.981022298E-1
9.220982330E-1,-2.797762752E-1,3.671300113E-1,-2.932153046E-1
9.241136210E-1,-2.767219543E-1,3.824016452E-1,-2.877175212E-1
9.260960110E-1,-2.767219543E-1,3.909537494E-1,-2.864958048E-1
9.281108620E-1,-2.748893499E-1,4.056145251E-1,-2.846632004E-1
9.300944820E-1,-2.767219543E-1,4.105014503E-1,-2.816088796E-1
9.321086400E-1,-2.742784917E-1,4.239404798E-1,-2.803871334E-1
9.340921070E-1,-2.773328125E-1,4.337143302E-1,-2.803871334E-1
9.361068040E-1,-2.785545588E-1,4.386012554E-1,-2.779437006E-1
9.380896540E-1,-2.791654170E-1,4.489859641E-1,-2.791654170E-1
9.401035060E-1,-2.773328125E-1,4.563163519E-1,-2.779437006E-1
9.420881260E-1,-2.791654170E-1,4.599815309E-1,-2.785545588E-1
9.441013610E-1,-2.773328125E-1,4.642575979E-1,-2.797762752E-1
9.460862890E-1,-2.736676335E-1,4.660901725E-1,-2.773328125E-1
9.480995250E-1,-2.748893499E-1,4.660901725E-1,-2.779437006E-1
9.501139140E-1,-2.730567753E-1,4.642575979E-1,-2.767219543E-1
9.520969950E-1,-2.712241709E-1,4.587597847E-1,-2.773328125E-1
9.541118460E-1,-2.693915665E-1,4.550946057E-1,-2.767219543E-1
9.560957740E-1,-2.718350291E-1,4.477642179E-1,-2.767219543E-1
9.581097010E-1,-2.693915665E-1,4.361577928E-1,-2.742784917E-1
9.600930140E-1,-2.693915665E-1,4.294382632E-1,-2.687807083E-1
9.621066350E-1,-2.657263875E-1,4.153883755E-1,-2.681698501E-1
9.640915630E-1,-2.645046413E-1,4.056145251E-1,-2.663372457E-1
9.661065670E-1,-2.614503205E-1,3.866777122E-1,-2.620611787E-1
9.680881100E-1,-2.608394623E-1,3.677408695E-1,-2.553416789E-1
9.701032690E-1,-2.590068579E-1,3.555235863E-1,-2.510656118E-1
9.720868880E-1,-2.553416789E-1,3.310889602E-1,-2.455678284E-1
9.741010470E-1,-2.480112910E-1,3.048217595E-1,-2.382374406E-1
9.760845140E-1,-2.480112910E-1,2.938261926E-1,-2.339613885E-1
9.780982880E-1,-2.406809032E-1,2.669481039E-1,-2.272418737E-1
9.801133690E-1,-2.364048511E-1,2.388483137E-1,-2.199114859E-1
9.820971430E-1,-2.333505303E-1,2.229658216E-1,-2.156354338E-1
9.841106100E-1,-2.278527319E-1,1.893682331E-1,-2.076941878E-1
9.860949980E-1,-2.229658216E-1,1.557706445E-1,-1.997529417E-1
9.881090800E-1,-2.211332172E-1,1.392772794E-1,-1.966986060E-1
9.900922390E-1,-2.156354338E-1,1.032362282E-1,-1.918116808E-1
9.921057830E-1,-2.125810981E-1,8.368854225E-2,-1.863138974E-1
9.940903250E-1,-2.095267773E-1,4.703662544E-2,-1.820378453E-1
9.961039450E-1,-2.058615834E-1,1.160643995E-2,-1.759291887E-1
9.980878730E-1,-2.028072625E-1,-7.330383174E-3,-1.747074574E-1
1.000101493E0,-1.997529417E-1,-3.726277873E-2,-1.704314053E-1
1.002085113E0,-1.960877478E-1,-6.719517708E-2,-1.704314053E-1
1.004100195E0,-1.948660165E-1,-8.002334833E-2,-1.722639948E-1
1.006083045E0,-1.942551434E-1,-1.062905490E-1,-1.704314053E-1
1.008097204E0,-1.924225539E-1,-1.276708394E-1,-1.679879427E-1
1.010111901E0,-1.936442852E-1,-1.337794960E-1,-1.655444801E-1
1.012095060E0,-1.936442852E-1,-1.490511149E-1,-1.685988009E-1
1.014109449E0,-1.936442852E-1,-1.637118906E-1,-1.679879427E-1
1.016092608E0,-1.942551434E-1,-1.673770845E-1,-1.692096740E-1
1.018107613E0,-1.942551434E-1,-1.753183305E-1,-1.710422635E-1
1.020091001E0,-1.942551434E-1,-1.795943826E-1,-1.704314053E-1
1.022105237E0,-1.942551434E-1,-1.771509200E-1,-1.704314053E-1
1.024089242E0,-1.966986060E-1,-1.753183305E-1,-1.679879427E-1
1.026103324E0,-1.954768747E-1,-1.716531366E-1,-1.673770845E-1
1.028086482E0,-1.997529417E-1,-1.649336219E-1,-1.649336219E-1
1.030101179E0,-2.015855312E-1,-1.551597714E-1,-1.588249654E-1
1.032084030E0,-2.015855312E-1,-1.478293836E-1,-1.557706445E-1
1.034098804E0,-2.046398520E-1,-1.337794960E-1,-1.478293836E-1
1.036112347E0,-2.003637999E-1,-1.197295859E-1,-1.380555481E-1
1.038096275E0,-2.015855312E-1,-1.081231460E-1,-1.319468915E-1
1.040109896E0,-1.973094791E-1,-9.285151958E-2,-1.197295859E-1
1.042093592E0,-1.924225539E-1,-8.124507964E-2,-1.075122803E-1
1.044109289E0,-1.875356287E-1,-7.452555746E-2,-1.007927656E-1
1.046094140E0,-1.826487035E-1,-6.658431143E-2,-8.552113175E-2
1.048105298E0,-1.765400618E-1,-6.108652428E-2,-6.963863969E-2
1.050090457E0,-1.753183305E-1,-6.047565863E-2,-6.597344577E-2
1.052104001E0,-1.704314053E-1,-5.986479297E-2,-5.192354694E-2
1.054087698E0,-1.661553532E-1,-6.902777404E-2,-4.459316283E-2
1.056101317E0,-1.655444801E-1,-7.269296050E-2,-3.115412779E-2
1.058085553E0,-1.588249654E-1,-8.246681094E-2,-1.832595654E-2
1.060099481E0,-1.582140923E-1,-8.857546002E-2,-1.160643995E-2
1.062114486E0,-1.569923609E-1,-1.038470939E-1,2.443460980E-3
1.064097336E0,-1.533271819E-1,-1.209513173E-1,1.038470957E-2
1.066112341E0,-1.521054506E-1,-1.319468915E-1,2.015855350E-2
1.068095116E0,-1.527163088E-1,-1.521054506E-1,2.993239649E-2
1.070108966E0,-1.521054506E-1,-1.734857261E-1,3.604105115E-2
1.072093048E0,-1.539380401E-1,-1.838704348E-1,4.153883830E-2
1.074107130E0,-1.539380401E-1,-2.064724565E-1,4.764748737E-2
1.076090210E0,-1.569923609E-1,-2.302961946E-1,5.436700583E-2
1.078104446E0,-1.588249654E-1,-2.425135076E-1,5.497787148E-2
1.080088451E0,-1.618792862E-1,-2.675589919E-1,6.047565863E-2
1.082102226E0,-1.679879427E-1,-2.901609838E-1,6.291911751E-2
1.084085922E0,-1.753183305E-1,-3.158173263E-1,6.230825558E-2
1.086099773E0,-1.795943826E-1,-3.274237812E-1,6.230825558E-2
1.088115240E0,-1.814269722E-1,-3.536909819E-1,6.047565863E-2
1.090098628E0,-1.857030392E-1,-3.640756905E-1,5.986479297E-2
1.092112787E0,-1.881465018E-1,-3.897320330E-1,5.558873713E-2
1.094096484E0,-1.887573600E-1,-4.007275999E-1,5.436700583E-2
1.096110335E0,-1.942551434E-1,-4.227187634E-1,4.581489414E-2
1.098093955E0,-1.973094791E-1,-4.440990388E-1,3.848451003E-2
1.100108421E0,-1.948660165E-1,-4.532620013E-1,3.359758854E-2
1.102092119E0,-1.985312104E-1,-4.679227769E-1,2.382374369E-2
1.104106046E0,-2.009746730E-1,-4.831944108E-1,1.343903504E-2
1.106089743E0,-2.028072625E-1,-4.899139404E-1,8.552113548E-3
1.108103825E0,-1.997529417E-1,-5.021312237E-1,-1.832595794E-3
1.110087830E0,-2.015855312E-1,-5.070181489E-1,-8.552113548E-3
1.112101757E0,-2.009746730E-1,-5.094616413E-1,-1.466076635E-2
1.114085378E0,-2.015855312E-1,-5.112941861E-1,-2.076941915E-2
1.116098921E0,-2.003637999E-1,-5.125159621E-1,-2.565634064E-2
1.118113079E0,-1.991420686E-1,-5.112941861E-1,-2.626720630E-2
1.120097161E0,-1.954768747E-1,-5.076290369E-1,-2.932153270E-2
1.122111320E0,-1.948660165E-1,-5.045747161E-1,-2.993239649E-2
1.124095248E0,-1.930334121E-1,-5.002986193E-1,-2.748893574E-2
1.126110713E0,-1.899790913E-1,-4.941899776E-1,-2.138028294E-2
1.128092487E0,-1.869247705E-1,-4.929682612E-1,-1.771509275E-2
1.130107339E0,-1.844813079E-1,-4.862487316E-1,-7.941247895E-3
1.132090112E0,-1.814269722E-1,-4.819726646E-1,5.497787148E-3
1.134105117E0,-1.802052408E-1,-4.783074856E-1,9.162978269E-3
1.136088199E0,-1.740965992E-1,-4.770857692E-1,2.382374369E-2
1.138102127E0,-1.692096740E-1,-4.746423066E-1,4.031710699E-2
1.140085746E0,-1.679879427E-1,-4.758640230E-1,4.825835302E-2
1.142100828E0,-1.631010175E-1,-4.776966274E-1,6.108652428E-2
1.144084295E0,-1.637118906E-1,-4.789183438E-1,7.696902007E-2
1.146099299E0,-1.606575549E-1,-4.807509482E-1,8.429940045E-2
1.148112304E0,-1.588249654E-1,-4.831944108E-1,1.014036313E-1
1.150095924E0,-1.576032341E-1,-4.893030524E-1,1.136209369E-1
1.152110083E0,-1.551597714E-1,-4.923573732E-1,1.178969890E-1
1.154093856E0,-1.545489132E-1,-4.996877611E-1,1.288925707E-1
1.156108630E0,-1.551597714E-1,-4.996877611E-1,1.356120855E-1
1.158091943E0,-1.533271819E-1,-5.057964325E-1,1.441642046E-1
1.160105870E0,-1.521054506E-1,-5.106833577E-1,1.514945775E-1
1.162088644E0,-1.521054506E-1,-5.131267905E-1,1.539380401E-1
1.164103419E0,-1.527163088E-1,-5.174028873E-1,1.606575549E-1
1.166087116E0,-1.533271819E-1,-5.222898126E-1,1.631010175E-1
1.168101274E0,-1.557706445E-1,-5.241223574E-1,1.631010175E-1
1.170084971E0,-1.569923609E-1,-5.290092826E-1,1.624901593E-1
1.172099130E0,-1.594358236E-1,-5.326744914E-1,1.631010175E-1
1.174112980E0,-1.600466967E-1,-5.338962078E-1,1.618792862E-1
1.176096908E0,-1.594358236E-1,-5.381723046E-1,1.612684280E-1
1.178111144E0,-1.600466967E-1,-5.393940210E-1,1.563815027E-1
1.180095072E0,-1.600466967E-1,-5.418374538E-1,1.557706445E-1
1.182110461E0,-1.631010175E-1,-5.406157374E-1,1.533271819E-1
1.184093235E0,-1.600466967E-1,-5.430592299E-1,1.490511149E-1
1.186107394E0,-1.600466967E-1,-5.442809463E-1,1.478293836E-1
1.188090552E0,-1.576032341E-1,-5.430592299E-1,1.447750628E-1
1.190104403E0,-1.569923609E-1,-5.412266254E-1,1.417207420E-1
1.192088408E0,-1.521054506E-1,-5.424483418E-1,1.362229437E-1
1.194102797E0,-1.466076523E-1,-5.430592299E-1,1.337794960E-1
1.196086263E0,-1.435533315E-1,-5.448917747E-1,1.301143020E-1
1.198100114E0,-1.368338168E-1,-5.442809463E-1,1.258382350E-1
1.200114504E0,-1.307251602E-1,-5.448917747E-1,1.233947799E-1
1.202097662E0,-1.264491081E-1,-5.467243791E-1,1.264491081E-1
1.204112128E0,-1.203404516E-1,-5.479460955E-1,1.227839142E-1
1.206096979E0,-1.081231460E-1,-5.485569835E-1,1.178969890E-1
1.208109061E0,-1.044579595E-1,-5.522221923E-1,1.178969890E-1
1.210093681E0,-9.529497474E-2,-5.583308339E-1,1.166752651E-1
1.212107763E0,-8.674286306E-2,-5.656611919E-1,1.166752651E-1
1.214090614E0,-8.185594529E-2,-5.687155724E-1,1.178969890E-1
1.216105079E0,-7.574728876E-2,-5.797111392E-1,1.197295859E-1
1.218089392E0,-7.147123665E-2,-5.858197808E-1,1.215621829E-1
1.220102859E0,-6.230825558E-2,-5.980370641E-1,1.252273768E-1
1.222087786E0,-5.681046844E-2,-6.133087277E-1,1.288925707E-1
1.224100714E0,-5.253441259E-2,-6.218608022E-1,1.319468915E-1
1.226085949E0,-4.398229718E-2,-6.389650702E-1,1.350012124E-1
1.228098878E0,-3.848451003E-2,-6.560692787E-1,1.423316002E-1
1.230113035E0,-3.420845419E-2,-6.646214128E-1,1.453859210E-1
1.232096425E0,-2.565634064E-2,-6.847799420E-1,1.527163088E-1
1.234110968E0,-2.443460934E-2,-7.018841505E-1,1.606575549E-1
1.236094588E0,-2.199114859E-2,-7.086036801E-1,1.600466967E-1
1.238109362E0,-2.138028294E-2,-7.263187766E-1,1.673770845E-1
1.240092444E0,-1.832595654E-2,-7.434229851E-1,1.710422635E-1
1.242105757E0,-1.588249579E-2,-7.538077235E-1,1.722639948E-1
1.244090376E0,-1.343903504E-2,-7.690793276E-1,1.765400618E-1
1.246104150E0,-1.099557430E-2,-7.867944241E-1,1.789835095E-1
1.248088463E0,-1.160643995E-2,-7.922922373E-1,1.802052408E-1
1.250102390E0,-1.099557430E-2,-8.081747293E-1,1.783726513E-1
1.252085780E0,-1.160643995E-2,-8.167268038E-1,1.795943826E-1
1.254099939E0,-9.773843922E-3,-8.356636763E-1,1.765400618E-1
1.256114636E0,-7.941247895E-3,-8.539896011E-1,1.728748679E-1
1.258098101E0,-9.773843922E-3,-8.649851680E-1,1.716531366E-1
1.260112260E0,-1.099557430E-2,-8.857545853E-1,1.661553532E-1
1.262096881E0,-1.343903504E-2,-9.053022861E-1,1.618792862E-1
1.264110347E0,-1.282817032E-2,-9.181304574E-1,1.582140923E-1
1.266094659E0,-1.404990070E-2,-9.388998747E-1,1.521054506E-1
1.268108279E0,-1.588249579E-2,-9.669997096E-1,1.441642046E-1
1.270091361E0,-1.710422710E-2,-9.798278809E-1,1.404990107E-1
1.272105519E0,-1.771509275E-2,-1.009149432E0,1.331686229E-1
1.274089447E0,-1.893682219E-2,-1.035416603E0,1.246165112E-1
1.276103298E0,-2.076941915E-2,-1.048855662E0,1.252273768E-1
1.278087302E0,-2.504547499E-2,-1.075122833E0,1.160643995E-1
1.280101154E0,-2.626720630E-2,-1.105055213E0,1.111774743E-1
1.282083697E0,-2.809980139E-2,-1.119105101E0,1.087340117E-1
1.284099625E0,-3.176499158E-2,-1.146594048E0,1.062905490E-1
1.286113475E0,-3.481931984E-2,-1.161254883E0,1.014036313E-1
1.288096249E0,-3.787364438E-2,-1.190576315E0,9.834930301E-2
1.290111024E0,-4.337143153E-2,-1.218676209E0,9.529497474E-2
1.292095105E0,-4.642575979E-2,-1.231504321E0,9.651670605E-2
1.294108571E0,-5.131268129E-2,-1.262047648E0,9.468411654E-2
1.296091961E0,-5.558873713E-2,-1.291369081E0,9.651670605E-2
1.298106812E0,-5.925392732E-2,-1.307862520E0,9.834930301E-2
1.300089893E0,-5.925392732E-2,-1.340238333E0,1.020144969E-1
1.302104898E0,-6.108652428E-2,-1.375057697E0,1.038470939E-1
1.304087672E0,-6.169738993E-2,-1.390940189E0,1.075122803E-1
1.306102830E0,-6.414084882E-2,-1.424537778E0,1.093448773E-1
1.308086527E0,-6.719517708E-2,-1.458135366E0,1.142318025E-1
1.310100071E0,-6.963863969E-2,-1.475239515E0,1.178969890E-1
1.312114460E0,-7.269296050E-2,-1.511280656E0,1.209513173E-1
1.314097541E0,-7.574728876E-2,-1.547321677E0,1.221730486E-1
1.316112085E0,-7.757988572E-2,-1.564425945E0,1.270599663E-1
1.318095090E0,-7.513642311E-2,-1.599856019E0,1.282816976E-1
1.320110478E0,-7.513642311E-2,-1.615738630E0,1.288925707E-1
1.322092945E0,-7.574728876E-2,-1.646892667E0,1.301143020E-1
1.324107104E0,-7.757988572E-2,-1.685988069E0,1.295034289E-1
1.326091186E0,-7.757988572E-2,-1.685988069E0,1.295034289E-1
1.328105344E0,-8.246681094E-2,-1.707979202E0,1.295034289E-1
1.330089579E0,-9.040805697E-2,-1.722640038E0,1.307251602E-1
1.332102892E0,-9.346238524E-2,-1.729970336E0,1.313360333E-1
1.334086588E0,-1.075122803E-1,-1.736078978E0,1.350012124E-1
1.336101055E0,-1.185078546E-1,-1.736078978E0,1.417207420E-1
1.338084983E0,-1.282816976E-1,-1.731802940E0,1.435533315E-1
1.340099142E0,-1.447750628E-1,-1.725694299E0,1.514945775E-1
1.342113377E0,-1.637118906E-1,-1.706757545E0,1.612684280E-1
1.344096766E0,-1.747074574E-1,-1.695761919E0,1.673770845E-1
1.346112156E0,-1.875356287E-1,-1.674381614E0,1.795943826E-1
1.348094929E0,-1.899790913E-1,-1.662164330E0,1.857030392E-1
1.350108473E0,-2.003637999E-1,-1.637118816E0,2.015855312E-1
1.352092401E0,-2.034181207E-1,-1.609629869E0,2.193006277E-1
1.354105944E0,-2.021963894E-1,-1.592525721E0,2.272418737E-1
1.356090256E0,-2.028072625E-1,-1.563204169E0,2.504547536E-1
1.358103876E0,-1.960877478E-1,-1.531439185E0,2.693915665E-1
1.360087804E0,-1.918116808E-1,-1.517389297E0,2.816088796E-1
1.362102270E0,-1.820378453E-1,-1.494176388E0,3.036000133E-1
1.364086352E0,-1.704314053E-1,-1.472796082E0,3.255911767E-1
1.366101126E0,-1.679879427E-1,-1.461800575E0,3.384193480E-1
1.368082977E0,-1.618792862E-1,-1.442252874E0,3.591887653E-1
1.370098058E0,-1.569923609E-1,-1.423316002E0,3.805690408E-1
1.372112217E0,-1.569923609E-1,-1.412320495E0,3.933972120E-1
1.374096222E0,-1.563815027E-1,-1.391551018E0,4.166100919E-1
1.376109149E0,-1.588249654E-1,-1.373835921E0,4.355469346E-1
1.378093154E0,-1.576032341E-1,-1.363451242E0,4.477642179E-1
1.380107544E0,-1.612684280E-1,-1.342681766E0,4.685336351E-1
1.382091549E0,-1.649336219E-1,-1.332907915E0,4.789183438E-1
1.384105476E0,-1.747074574E-1,-1.308473349E0,4.960225821E-1
1.386089481E0,-1.881465018E-1,-1.282817006E0,5.143485069E-1
1.388102947E0,-1.966986060E-1,-1.265712738E0,5.247332454E-1
1.390087259E0,-2.150245607E-1,-1.235780358E0,5.400048494E-1
1.392100879E0,-2.339613885E-1,-1.199128509E0,5.583308339E-1
1.394085192E0,-2.455678284E-1,-1.179580808E0,5.681046844E-1
1.396098659E0,-2.700024247E-1,-1.134987593E0,5.907067060E-1
1.398113124E0,-2.913827300E-1,-1.086118460E0,6.114761233E-1
1.400096821E0,-3.036000133E-1,-1.059240341E0,6.236934066E-1
1.402110442E0,-3.268128932E-1,-1.004262447E0,6.493497491E-1
1.404094984E0,-3.506366611E-1,-9.425650835E-1,6.774495840E-1
1.406107989E0,-3.622430861E-1,-9.138544202E-1,6.939429045E-1
1.408092225E0,-3.860668242E-1,-8.503243923E-1,7.287622094E-1
1.410106384E0,-4.141666293E-1,-7.849618196E-1,7.666358948E-1
1.412089465E0,-4.318817258E-1,-7.525860071E-1,7.867944241E-1
1.414103931E0,-4.636467099E-1,-6.921103001E-1,8.271115422E-1
1.416088013E0,-4.807509482E-1,-6.603453159E-1,8.478809595E-1
1.418101863E0,-5.186246037E-1,-6.017022729E-1,8.881980777E-1
1.420084945E0,-5.577199459E-1,-5.448917747E-1,9.346238375E-1
1.422100566E0,-5.717698932E-1,-5.210680366E-1,9.584475756E-1
1.424114494E0,-6.041457057E-1,-4.703662395E-1,1.004873276E0
1.426098421E0,-6.298020482E-1,-4.288274050E-1,1.049466491E0
1.428111657E0,-6.365215778E-1,-4.098905921E-1,1.070846796E0
1.430095354E0,-6.517932415E-1,-3.781255782E-1,1.119716048E0
1.432109820E0,-6.621779203E-1,-3.530801237E-1,1.161254883E0
1.434093825E0,-6.652322412E-1,-3.439171314E-1,1.182635069E0
1.436107368E0,-6.774495840E-1,-3.316998184E-1,1.221119642E0
1.438091064E0,-6.896668673E-1,-3.268128932E-1,1.254106402E0
1.440105839E0,-6.963863969E-1,-3.268128932E-1,1.270599723E0
1.442088613E0,-7.122688890E-1,-3.310889602E-1,1.298088670E0
1.444103387E0,-7.287622094E-1,-3.445279896E-1,1.323134065E0
1.446087776E0,-7.354817390E-1,-3.536909819E-1,1.331075311E0
1.448100319E0,-7.428121567E-1,-3.720169365E-1,1.345125318E0
1.450114863E0,-7.452555895E-1,-3.842342496E-1,1.351844788E0
1.452098559E0,-7.489207983E-1,-4.080579877E-1,1.362229466E0
1.454113025E0,-7.440338731E-1,-4.379903674E-1,1.368949056E0
1.456096338E0,-7.415903807E-1,-4.508185387E-1,1.372614264E0
1.458110497E0,-7.379252315E-1,-4.807509482E-1,1.375668526E0
1.460094501E0,-7.336491346E-1,-5.112941861E-1,1.378111959E0
1.462109044E0,-7.312057018E-1,-5.253441334E-1,1.375668526E0
1.464091742E0,-7.226535678E-1,-5.552765131E-1,1.376279354E0
1.466107207E0,-7.153232098E-1,-5.839871764E-1,1.375057697E0
1.468089982E0,-7.122688890E-1,-5.962044597E-1,1.371392488E0
1.470103525E0,-7.018841505E-1,-6.212499738E-1,1.368949056E0
1.472087453E0,-6.927211881E-1,-6.395758986E-1,1.368338108E0
1.474102226E0,-6.860016584E-1,-6.511823535E-1,1.368949056E0
1.476085693E0,-6.731734872E-1,-6.695083380E-1,1.365283847E0
1.478099159E0,-6.627888083E-1,-6.847799420E-1,1.365283847E0
1.480113395E0,-6.548475623E-1,-6.939429045E-1,1.367116451E0
1.482097092E0,-6.383541822E-1,-7.055493593E-1,1.367727280E0
1.484112173E0,-6.310238242E-1,-7.098253965E-1,1.367727280E0
1.486095178E0,-6.102544069E-1,-7.183775306E-1,1.369559884E0
1.488109413E0,-5.882632136E-1,-7.177666426E-1,1.370781660E0
1.490092495E0,-5.760459304E-1,-7.202101350E-1,1.373835921E0
1.492107500E0,-5.571091175E-1,-7.159340382E-1,1.377501130E0
1.494091504E0,-5.345070958E-1,-7.086036801E-1,1.382998943E0
1.496104201E0,-5.229006410E-1,-7.031059265E-1,1.384220600E0
1.498088514E0,-4.978551865E-1,-6.884451509E-1,1.389107585E0
1.500103212E0,-4.746423066E-1,-6.688974500E-1,1.394605398E0
1.502086600E0,-4.593706727E-1,-6.591235995E-1,1.396438003E0
1.504100528E0,-4.349360466E-1,-6.322455406E-1,1.403768301E0
1.506114918E0,-4.074471295E-1,-6.041457057E-1,1.409876943E0
1.508098922E0,-3.927863538E-1,-5.925393105E-1,1.414153099E0
1.510112542E0,-3.597996235E-1,-5.607742667E-1,1.422705173E0
1.512096163E0,-3.426954150E-1,-5.473352671E-1,1.427592039E0
1.514110091E0,-3.078760803E-1,-5.155702829E-1,1.436144233E0
1.516094325E0,-2.693915665E-1,-4.844161272E-1,1.445307136E0
1.518108869E0,-2.510656118E-1,-4.715879560E-1,1.446528912E0
1.520092182E0,-2.095267773E-1,-4.447098970E-1,1.450194120E0
1.522105416E0,-1.685988009E-1,-4.257730842E-1,1.454470158E0
1.524090344E0,-1.466076523E-1,-4.159992337E-1,1.458746195E0
1.526105196E0,-1.001819000E-1,-4.007275999E-1,1.456302762E0
1.528087047E0,-5.131268129E-2,-3.958406746E-1,1.452637553E0
1.530102435E0,-2.382374369E-2,-3.927863538E-1,1.450194120E0
1.532084902E0,2.687807009E-2,-3.940080702E-1,1.443474531E0
1.534099907E0,7.757988572E-2,-4.037819207E-1,1.431257248E0
1.536113526E0,1.038470939E-1,-4.092797041E-1,1.425148606E0
1.538097454E0,1.533271819E-1,-4.269948006E-1,1.404379249E0
1.540111613E0,2.015855312E-1,-4.465425014E-1,1.379944563E0
1.542095695E0,2.241875380E-1,-4.612032473E-1,1.367727280E0
1.544109161E0,2.687807083E-1,-4.905247986E-1,1.334129691E0
1.546093473E0,2.901609838E-1,-5.076290369E-1,1.317025423E0
1.548107325E0,3.341432810E-1,-5.430592299E-1,1.276097536E0
1.550090713E0,3.732386529E-1,-5.803219676E-1,1.233336926E0
1.552105180E0,3.940080702E-1,-5.986479521E-1,1.208291411E0
1.554087954E0,4.337143302E-1,-6.371324658E-1,1.157589674E0
1.556102728E0,4.721988440E-1,-6.774495840E-1,1.104444385E0
1.558086732E0,4.911356568E-1,-6.969972253E-1,1.076955438E0
1.560100891E0,5.277875662E-1,-7.379252315E-1,1.015868902E0
1.562113588E0,5.632177591E-1,-7.782423496E-1,9.566149712E-1
1.564098131E0,6.090326309E-1,-8.368853927E-1,8.619308472E-1
1.566111674E0,6.090326309E-1,-8.368853927E-1,8.619308472E-1
1.568095449E0,6.389650702E-1,-8.784242272E-1,8.002334833E-1
1.570110454E0,6.536257863E-1,-8.985827565E-1,7.684684992E-1
1.572094150E0,6.841690540E-1,-9.364564419E-1,7.086036801E-1
1.574109232E0,7.134906054E-1,-9.779952765E-1,6.487388611E-1
1.576092083E0,7.275404930E-1,-9.987646937E-1,6.188064814E-1
1.578105241E0,7.562511563E-1,-1.037249207E0,5.571091175E-1
1.580089630E0,7.696902156E-1,-1.059851170E0,5.265658498E-1
1.582104097E0,7.990117669E-1,-1.101390004E0,4.703662395E-1
1.584087794E0,8.258898258E-1,-1.143539786E0,4.092797041E-1
1.586102183E0,8.405506015E-1,-1.164919972E0,3.811798990E-1
1.588084957E0,8.613200188E-1,-1.208902359E0,3.243694305E-1
1.590099424E0,8.796459436E-1,-1.251052022E0,2.675589919E-1
1.592114505E0,8.869763613E-1,-1.265712738E0,2.376265824E-1
1.594097048E0,9.028588533E-1,-1.307251573E0,1.850921661E-1
1.596111515E0,9.162978530E-1,-1.339627504E0,1.276708394E-1
1.598095135E0,9.224064946E-1,-1.354288220E0,9.896016866E-2
1.600109678E0,9.315695167E-1,-1.382387996E0,4.459316283E-2
1.602092452E0,9.358455539E-1,-1.403157473E0,-9.162978269E-3
1.604107149E0,9.401215911E-1,-1.413542151E0,-3.726277873E-2
1.606093076E0,9.370672703E-1,-1.426370382E0,-8.918632567E-2
1.608104773E0,9.321803451E-1,-1.430035591E0,-1.398881376E-1
1.610088778E0,9.291260242E-1,-1.430035591E0,-1.655444801E-1
1.612102860E0,9.169087410E-1,-1.422705173E0,-2.150245607E-1
1.614086326E0,9.120218158E-1,-1.417818189E0,-2.364048511E-1
1.616100485E0,9.010262489E-1,-1.403157473E0,-2.846632004E-1
1.618114567E0,8.894197941E-1,-1.376890302E0,-3.280346394E-1
1.620098032E0,8.796459436E-1,-1.363451242E0,-3.481931984E-1
1.622113037E0,8.637634516E-1,-1.330464482E0,-3.891211748E-1
1.624096504E0,8.436049223E-1,-1.290147424E0,-4.263839424E-1
1.626111201E0,8.332201838E-1,-1.269988894E0,-4.428772926E-1
1.628094359E0,8.093964458E-1,-1.221119642E0,-4.764748812E-1
1.630107826E0,7.849618196E-1,-1.168585181E0,-5.064072609E-1
1.632091523E0,7.721336484E-1,-1.144150615E0,-5.192354321E-1
1.634105988E0,7.489207983E-1,-1.089783549E0,-5.442809463E-1
1.636089455E0,7.257078886E-1,-1.034194827E0,-5.693264008E-1
1.638103845E0,7.116580009E-1,-1.007927656E0,-5.809328556E-1
1.640087002E0,6.853908300E-1,-9.560040832E-1,-6.023131609E-1
1.642100777E0,6.701191664E-1,-9.334021211E-1,-6.120869517E-1
1.644117166E0,6.401867867E-1,-8.857545853E-1,-6.273586154E-1
1.646099248E0,6.035348773E-1,-8.436049223E-1,-6.432411075E-1
1.648113483E0,5.852088928E-1,-8.228355050E-1,-6.505714655E-1
1.650097180E0,5.479460955E-1,-7.916813493E-1,-6.664539576E-1
1.652110647E0,5.039638281E-1,-7.617489696E-1,-6.805039048E-1
1.654095035E0,4.819726646E-1,-7.501425147E-1,-6.872233748E-1
1.656109194E0,4.404338300E-1,-7.336491346E-1,-7.006624341E-1
1.658093122E0,3.982841372E-1,-7.165449262E-1,-7.177666426E-1
1.660106666E0,3.762930036E-1,-7.128797174E-1,-7.250970602E-1
1.662091054E0,3.316998184E-1,-7.037167549E-1,-7.409795523E-1
1.664104906E0,2.901609838E-1,-6.969972253E-1,-7.599163651E-1
1.666088526E0,2.706133127E-1,-6.933320761E-1,-7.727445364E-1
1.668102068E0,2.284636050E-1,-6.890559793E-1,-7.935139537E-1
1.670086381E0,1.899790913E-1,-6.829473376E-1,-8.155050874E-1
1.672100002E0,1.704314053E-1,-6.786713004E-1,-8.258898258E-1
1.674115007E0,1.307251602E-1,-6.682865620E-1,-8.533787727E-1
1.676098164E0,1.099557430E-1,-6.615670323E-1,-8.643743396E-1
1.678112631E0,6.719517708E-2,-6.377432942E-1,-8.912523985E-1
1.680096328E0,2.687807009E-2,-6.065891981E-1,-9.205739498E-1
1.682109563E0,6.108652335E-3,-5.894849896E-1,-9.346238375E-1
1.684095106E0,-3.726277873E-2,-5.455026627E-1,-9.651671052E-1
1.686108881E0,-7.696902007E-2,-4.954117239E-1,-9.908234477E-1
1.688091347E0,-9.651670605E-2,-4.642575979E-1,-1.007316828E0
1.690106120E0,-1.331686229E-1,-4.037819207E-1,-1.027475357E0
1.692088972E0,-1.704314053E-1,-3.378084898E-1,-1.051299095E0
1.694103977E0,-1.899790913E-1,-3.017674387E-1,-1.059240341E0
1.696087135E0,-2.266310006E-1,-2.296853364E-1,-1.078788042E0
1.698101524E0,-2.645046413E-1,-1.600466967E-1,-1.090394497E0
1.700084375E0,-2.785545588E-1,-1.270599663E-1,-1.096503139E0
1.702099457E0,-3.139847219E-1,-6.108652428E-2,-1.100779176E0
1.704113000E0,-3.439171314E-1,-6.108652451E-4,-1.101390004E0
1.706097620E0,-3.597996235E-1,2.748893574E-2,-1.102611780E0
1.708111164E0,-3.836233616E-1,7.452555746E-2,-1.096503139E0
1.710095091E0,-3.940080702E-1,9.834930301E-2,-1.094670534E0
1.712108403E0,-4.166100919E-1,1.356120855E-1,-1.081842303E0
1.714092331E0,-4.324925840E-1,1.673770845E-1,-1.069625020E0
1.716106567E0,-4.459316432E-1,1.765400618E-1,-1.059851170E0
1.718090571E0,-4.685336351E-1,1.948660165E-1,-1.040914416E0
1.720104422E0,-4.880813360E-1,2.040289938E-1,-1.020755768E0
1.722087504E0,-4.984660447E-1,2.083050460E-1,-1.009149432E0
1.724103124E0,-5.167919993E-1,2.058615834E-1,-9.871582389E-1
1.726085359E0,-5.332853794E-1,1.966986060E-1,-9.633345008E-1
1.728100672E0,-5.393940210E-1,1.942551434E-1,-9.511171579E-1
1.730114600E0,-5.516113043E-1,1.777617931E-1,-9.285151958E-1
1.732098297E0,-5.564982295E-1,1.576032341E-1,-9.071348906E-1
1.734111840E0,-5.552765131E-1,1.459967941E-1,-8.943067193E-1
1.736095845E0,-5.583308339E-1,1.191187203E-1,-8.717046976E-1
1.738110541E0,-5.546656251E-1,8.735372871E-2,-8.546004891E-1
1.740093392E0,-5.534439087E-1,7.208210230E-2,-8.448266387E-1
1.742107551E0,-5.497786999E-1,3.665191308E-2,-8.283332586E-1
1.744091556E0,-5.503895879E-1,2.199114859E-2,-8.216137290E-1
1.746106560E0,-5.479460955E-1,-1.588249579E-2,-8.093964458E-1
1.748089642E0,-5.479460955E-1,-5.558873713E-2,-7.984008789E-1
1.750103570E0,-5.485569835E-1,-7.574728876E-2,-7.947356701E-1
1.752086959E0,-5.455026627E-1,-1.148426682E-1,-7.855727077E-1
1.754101118E0,-5.479460955E-1,-1.582140923E-1,-7.819074988E-1
1.756115507E0,-5.467243791E-1,-1.795943826E-1,-7.770205736E-1
1.758099282E0,-5.467243791E-1,-2.211332172E-1,-7.727445364E-1
1.760113440E0,-5.510004759E-1,-2.608394623E-1,-7.703011036E-1
1.762096521E0,-5.510004759E-1,-2.809980214E-1,-7.721336484E-1
1.764111603E0,-5.552765131E-1,-3.219259977E-1,-7.715228200E-1
1.766096454E0,-5.595525503E-1,-3.597996235E-1,-7.696902156E-1
1.768108151E0,-5.601634383E-1,-3.775147200E-1,-7.672467232E-1
1.770092771E0,-5.601634383E-1,-4.153883755E-1,-7.654141784E-1
1.772106930E0,-5.589417219E-1,-4.514294267E-1,-7.654141784E-1
1.774090626E0,-5.589417219E-1,-4.673119187E-1,-7.654141784E-1
1.776104785E0,-5.589417219E-1,-5.027421117E-1,-7.617489696E-1
1.778088483E0,-5.552765131E-1,-5.180137157E-1,-7.617489696E-1
1.780102102E0,-5.540547967E-1,-5.479460955E-1,-7.623597980E-1
1.782086953E0,-5.522221923E-1,-5.809328556E-1,-7.611380816E-1
1.784100266E0,-5.522221923E-1,-5.943718553E-1,-7.611380816E-1
1.786115040E0,-5.558874011E-1,-6.249151230E-1,-7.611380816E-1
1.788098121E0,-5.571091175E-1,-6.566801667E-1,-7.574729323E-1
1.790111895E0,-5.607742667E-1,-6.701191664E-1,-7.599163651E-1
1.792096285E0,-5.662720799E-1,-6.963863969E-1,-7.586946487E-1
1.794110366E0,-5.705481172E-1,-7.232644558E-1,-7.556403279E-1
1.796093525E0,-5.742133260E-1,-7.373143435E-1,-7.538077235E-1
1.798107607E0,-5.778785348E-1,-7.586946487E-1,-7.489207983E-1
1.800091304E0,-5.797111392E-1,-7.757988572E-1,-7.458664775E-1
1.802105462E0,-5.815436840E-1,-7.819074988E-1,-7.415903807E-1
1.804088544E0,-5.858197808E-1,-7.990117669E-1,-7.244861722E-1
1.806105241E0,-5.858197808E-1,-8.032878041E-1,-7.244861722E-1
1.808087322E0,-5.876523852E-1,-8.057312369E-1,-7.141014934E-1
1.810101481E0,-5.900958180E-1,-8.038986921E-1,-6.945537925E-1
1.812115332E0,-5.937610269E-1,-8.014551997E-1,-6.847799420E-1
1.814098798E0,-5.980370641E-1,-7.922922373E-1,-6.627888083E-1
1.816113187E0,-6.029239893E-1,-7.776314616E-1,-6.395758986E-1
1.818096654E0,-6.078109145E-1,-7.690793276E-1,-6.236934066E-1
1.820111120E0,-6.120869517E-1,-7.464773059E-1,-5.937610269E-1
1.822095432E0,-6.151412725E-1,-7.220427394E-1,-5.558874011E-1
1.824108591E0,-6.120869517E-1,-7.092145681E-1,-5.375614166E-1
1.826092980E0,-6.133087277E-1,-6.823364496E-1,-5.009095073E-1
1.828106216E0,-6.065891981E-1,-6.542366743E-1,-4.587597847E-1
1.830090451E0,-6.029239893E-1,-6.377432942E-1,-4.355469346E-1
1.832103994E0,-5.974262357E-1,-6.120869517E-1,-3.915646076E-1
1.834088076E0,-5.919284225E-1,-5.845980644E-1,-3.463605940E-1
1.836101849E0,-5.870414972E-1,-5.729916096E-1,-3.262020350E-1
1.838085624E0,-5.852088928E-1,-5.491678715E-1,-2.797762752E-1
1.840100090E0,-5.845980644E-1,-5.363397002E-1,-2.614503205E-1
1.842113864E0,-5.852088928E-1,-5.125159621E-1,-2.174680233E-1
1.844098868E0,-5.876523852E-1,-4.886921942E-1,-1.777617931E-1
1.846114181E0,-5.876523852E-1,-4.752531648E-1,-1.569923609E-1
1.848095186E0,-5.870414972E-1,-4.532620013E-1,-1.227839142E-1
1.850109652E0,-5.864306092E-1,-4.269948006E-1,-9.040805697E-2
1.852093272E0,-5.833762884E-1,-4.159992337E-1,-7.330382615E-2
1.854107739E0,-5.784893632E-1,-3.909537494E-1,-4.398229718E-2
1.856090589E0,-5.729916096E-1,-3.585779071E-1,-1.710422710E-2
1.858105671E0,-5.681046844E-1,-3.469714522E-1,-2.443460980E-3
1.860089060E0,-5.626068711E-1,-3.152064681E-1,2.565634064E-2
1.862103835E0,-5.571091175E-1,-2.822197378E-1,4.948008433E-2
1.864087223E0,-5.571091175E-1,-2.657263875E-1,6.352998316E-2
1.866102228E0,-5.552765131E-1,-2.333505303E-1,8.857546002E-2
1.868085310E0,-5.510004759E-1,-1.985312104E-1,1.160643995E-1
1.870098545E0,-5.497786999E-1,-1.820378453E-1,1.307251602E-1
1.872113011E0,-5.522221923E-1,-1.496619880E-1,1.576032341E-1
1.874097016E0,-5.540547967E-1,-1.343903542E-1,1.759291887E-1
1.876110945E0,-5.571091175E-1,-1.062905490E-1,2.058615834E-1
1.878094641E0,-5.632177591E-1,-8.063421398E-2,2.406809032E-1
1.880108800E0,-5.687155724E-1,-6.780604273E-2,2.547308207E-1
1.882091574E0,-5.784893632E-1,-5.009094998E-2,2.907718420E-1
1.884107886E0,-5.839871764E-1,-3.909537569E-2,3.316998184E-1
1.886089660E0,-5.876523852E-1,-3.420845419E-2,3.530801237E-1
1.888104819E0,-5.962044597E-1,-2.809980139E-2,3.940080702E-1
1.890088439E0,-6.047565937E-1,-2.932153270E-2,4.410447180E-1
1.892102289E0,-6.059783101E-1,-3.420845419E-2,4.648684561E-1
1.894085679E0,-6.206390858E-1,-3.848451003E-2,5.125159621E-1
1.896100453E0,-6.322455406E-1,-5.253441259E-2,5.607742667E-1
1.898113688E0,-6.365215778E-1,-6.108652428E-2,5.858197808E-1
1.900097693E0,-6.475171447E-1,-7.696902007E-2,6.359107494E-1
1.902112544E0,-6.585127115E-1,-9.896016866E-2,6.829473376E-1
1.904095318E0,-6.621779203E-1,-1.136209369E-1,7.061602473E-1
1.906109707E0,-6.743952036E-1,-1.398881376E-1,7.544185519E-1
1.908093097E0,-6.792821288E-1,-1.569923609E-1,7.782423496E-1
1.910108255E0,-6.908885837E-1,-1.918116808E-1,8.191702962E-1
1.912091875E0,-7.000515461E-1,-2.333505303E-1,8.594874144E-1
1.914105418E0,-7.079927921E-1,-2.541199327E-1,8.753699064E-1
1.916089423E0,-7.177666426E-1,-2.981022298E-1,9.120218158E-1
1.918102736E0,-7.232644558E-1,-3.451388776E-1,9.370672703E-1
1.920086432E0,-7.244861722E-1,-3.720169365E-1,9.511171579E-1
1.922100591E0,-7.287622094E-1,-4.208861589E-1,9.694431424E-1
1.924115904E0,-7.244861722E-1,-4.728097022E-1,9.834930301E-1
1.926099985E0,-7.208209634E-1,-5.002986193E-1,9.889908433E-1
1.928112221E0,-7.128797174E-1,-5.528330207E-1,9.920451641E-1
1.930097533E0,-7.024950385E-1,-6.041457057E-1,9.920451641E-1
1.932110692E0,-6.921103001E-1,-6.322455406E-1,9.877691269E-1
1.934094696E0,-6.780604124E-1,-6.792821288E-1,9.828822017E-1
1.936108009E0,-6.707300544E-1,-7.037167549E-1,9.749409556E-1
1.938091937E0,-6.505714655E-1,-7.501425147E-1,9.578366876E-1
1.940105864E0,-6.316346526E-1,-7.880161405E-1,9.346238375E-1
1.942089869E0,-6.212499738E-1,-8.063421249E-1,9.248499870E-1
1.944103951E0,-5.986479521E-1,-8.332201838E-1,8.991936445E-1
1.946088879E0,-5.736024380E-1,-8.539896011E-1,8.729264140E-1
1.948102191E0,-5.601634383E-1,-8.582656980E-1,8.564330935E-1
1.950085503E0,-5.290092826E-1,-8.625417352E-1,8.289441466E-1
1.952099739E0,-4.984660447E-1,-8.484918475E-1,8.014551997E-1
1.954113897E0,-4.850270152E-1,-8.368853927E-1,7.898487449E-1
1.956097210E0,-4.520402849E-1,-8.069530129E-1,7.666358948E-1
1.958111984E0,-4.227187634E-1,-7.629706860E-1,7.458664775E-1
1.960095681E0,-4.086688459E-1,-7.342600226E-1,7.348709106E-1
1.962108993E0,-3.762930036E-1,-6.725626588E-1,7.202101350E-1
1.964094459E0,-3.469714522E-1,-5.986479521E-1,7.086036801E-1
1.966106464E0,-3.316998184E-1,-5.571091175E-1,7.049384713E-1
1.968090853E0,-3.042109013E-1,-4.654793143E-1,6.994407177E-1
1.970105320E0,-2.889392674E-1,-4.147774875E-1,6.982190013E-1
1.972088632E0,-2.614503205E-1,-3.121521473E-1,7.006624341E-1
1.974102253E0,-2.315179259E-1,-2.034181207E-1,7.079927921E-1
1.976087180E0,-2.180788964E-1,-1.478293836E-1,7.141014934E-1
1.978101262E0,-1.930334121E-1,-2.993239649E-2,7.281513810E-1
1.980115190E0,-1.655444801E-1,8.857546002E-2,7.452555895E-1
1.982098271E0,-1.539380401E-1,1.502728462E-1,7.550294399E-1
1.984112737E0,-1.288925707E-1,2.693915665E-1,7.770205736E-1
1.986097281E0,-1.069014147E-1,3.878994286E-1,8.020660877E-1
1.988110901E0,-9.834930301E-2,4.465425014E-1,8.136724830E-1
1.990094213E0,-7.574728876E-2,5.589417219E-1,8.405506015E-1
1.992108679E0,-5.558873713E-2,6.676757336E-1,8.662069440E-1
1.994091838E0,-4.703662544E-2,7.147123218E-1,8.772025108E-1
1.996106227E0,-2.626720630E-2,8.093964458E-1,8.998045325E-1
1.998089924E0,-6.719517522E-3,8.943067193E-1,9.199630618E-1
2.000104160E0,6.108652335E-3,9.303477407E-1,9.309586287E-1
2.002087550E0,2.565634064E-2,9.975429177E-1,9.468411207E-1
2.004102938E0,3.726277873E-2,1.029918790E0,9.529497623E-1
2.006086635E0,5.925392732E-2,1.080620646E0,9.657779336E-1
2.008099487E0,8.002334833E-2,1.121548533E0,9.706648588E-1
2.010113952E0,8.979719132E-2,1.137431145E0,9.694431424E-1
2.012097649E0,1.093448773E-1,1.164919972E0,9.676105380E-1
2.014112193E0,1.264491081E-1,1.189965487E0,9.615018964E-1
2.016095890E0,1.319468915E-1,1.199128509E0,9.535606503E-1
2.018109125E0,1.466076523E-1,1.215011001E0,9.352346659E-1
2.020093130E0,1.551597714E-1,1.230282545E0,9.108000994E-1
2.022107520E0,1.594358236E-1,1.233947754E0,8.924741149E-1
2.024090601E0,1.685988009E-1,1.246165156E0,8.594874144E-1
2.026105990E0,1.789835095E-1,1.256549835E0,8.161159754E-1
2.028089149E0,1.814269722E-1,1.259604096E0,7.953465581E-1
2.030102693E0,1.844813079E-1,1.268767118E0,7.428121567E-1
2.032086620E0,1.838704348E-1,1.276097536E0,7.165449262E-1
2.034101163E0,1.857030392E-1,1.287703991E0,6.591235995E-1
2.036114399E0,1.832595766E-1,1.300532103E0,5.998696685E-1
2.038098941E0,1.850921661E-1,1.306029916E0,5.687155724E-1
2.040112562E0,1.820378453E-1,1.324355841E0,5.064072609E-1
2.042095951E0,1.863138974E-1,1.345736146E0,4.440990388E-1
2.044110033E0,1.887573600E-1,1.384831548E0,3.536909819E-1
2.046091268E0,1.887573600E-1,1.384831548E0,3.536909819E-1
2.048108504E0,1.912008226E-1,1.415374756E0,2.944370508E-1
2.050092201E0,1.942551434E-1,1.433089852E0,2.687807083E-1
2.052106359E0,2.034181207E-1,1.467298269E0,2.186897546E-1
2.054089441E0,2.138028294E-1,1.503339410E0,1.728748679E-1
2.056104292E0,2.186897546E-1,1.522276163E0,1.539380401E-1
2.058087373E0,2.309070677E-1,1.560149789E0,1.221730486E-1
2.060101763E0,2.443460971E-1,1.602910399E0,9.590584040E-2
2.062117152E0,2.516764700E-1,1.618792892E0,8.735372871E-2
2.064100003E0,2.663372457E-1,1.656666517E0,7.147123665E-2
2.066114084E0,2.803871334E-1,1.689653277E0,6.658431143E-2
2.068097551E0,2.883284092E-1,1.707368374E0,6.475171447E-2
2.070111710E0,3.036000133E-1,1.737911582E0,7.330382615E-2
2.072095637E0,3.115412891E-1,1.750739813E0,7.452555746E-2
2.074109180E0,3.237585723E-1,1.779450417E0,8.979719132E-2
2.076093262E0,3.371976018E-1,1.800219893E0,1.123992056E-1
2.078107421E0,3.451388776E-1,1.807550311E0,1.227839142E-1
2.080090733E0,3.597996235E-1,1.823432803E0,1.502728462E-1
2.082104584E0,3.738495409E-1,1.828930497E0,1.777617931E-1
2.084089281E0,3.830125034E-1,1.829541445E0,1.966986060E-1
2.086104670E0,4.037819207E-1,1.822821856E0,2.272418737E-1
2.088086136E0,4.263839424E-1,1.805717707E0,2.559525371E-1
2.090100911E0,4.392121136E-1,1.792889476E0,2.706133127E-1
2.092114223E0,4.685336351E-1,1.756237626E0,2.956587672E-1
2.094098766E0,4.978551865E-1,1.706757545E0,3.152064681E-1
2.096112078E0,5.137376785E-1,1.673770785E0,3.268128932E-1
2.098096391E0,5.418374538E-1,1.599856019E0,3.390302062E-1
2.100110164E0,5.564982295E-1,1.558928132E0,3.390302062E-1
2.102095169E0,5.858197808E-1,1.464244008E0,3.420845270E-1
2.104108405E0,6.157521605E-1,1.361007810E0,3.341432810E-1
2.106092026E0,6.285803318E-1,1.302364707E0,3.310889602E-1
2.108106568E0,6.487388611E-1,1.179580808E0,3.103195429E-1
2.110089650E0,6.640105247E-1,1.042747021E0,2.871066630E-1
2.112103501E0,6.707300544E-1,9.749409556E-1,2.700024247E-1
2.114088044E0,6.823364496E-1,8.252789378E-1,2.315179259E-1
2.116101049E0,6.933320761E-1,6.701191664E-1,1.893682331E-1
2.118115823E0,6.982190013E-1,5.931501389E-1,1.637118906E-1
2.120099443E0,7.086036801E-1,4.331034720E-1,1.099557430E-1
2.122113293E0,7.159340382E-1,2.693915665E-1,4.948008433E-2
2.124097991E0,7.189884186E-1,1.881465018E-1,1.893682219E-2
2.126110611E0,7.238753438E-1,2.382374369E-2,-4.642575979E-2
2.128095154E0,7.226535678E-1,-1.368338168E-1,-1.136209369E-1
2.130109697E0,7.226535678E-1,-2.168571651E-1,-1.466076523E-1
2.132093010E0,7.171558142E-1,-3.720169365E-1,-2.156354338E-1
2.134107169E0,7.147123218E-1,-4.483750761E-1,-2.492330223E-1
2.136090865E0,7.061602473E-1,-5.888741016E-1,-3.152064681E-1
2.138105024E0,6.951646209E-1,-7.226535678E-1,-3.793473244E-1
2.140088490E0,6.896668673E-1,-7.812966704E-1,-4.086688459E-1
2.142103571E0,6.750060916E-1,-8.918632865E-1,-4.624249935E-1
2.144086345E0,6.621779203E-1,-9.853256345E-1,-5.143485069E-1
2.146101735E0,6.517932415E-1,-1.023810148E0,-5.393940210E-1
2.148114894E0,6.383541822E-1,-1.093448758E0,-5.833762884E-1
2.150098283E0,6.230825782E-1,-1.147815824E0,-6.206390858E-1
2.152112518E0,6.120869517E-1,-1.167974353E0,-6.389650702E-1
2.154095908E0,5.919284225E-1,-1.200961113E0,-6.707300544E-1
2.156110912E0,5.717698932E-1,-1.218676209E0,-6.927211881E-1
2.158093994E0,5.626068711E-1,-1.223563075E0,-7.031059265E-1
2.160107845E0,5.412266254E-1,-1.229671717E0,-7.189884186E-1
2.162091235E0,5.198463202E-1,-1.223563075E0,-7.299839854E-1
2.164106623E0,5.082398653E-1,-1.218676209E0,-7.336491346E-1
2.166090936E0,4.880813360E-1,-1.208902359E0,-7.348709106E-1
2.168103249E0,4.770857692E-1,-1.200961113E0,-7.348709106E-1
2.170087868E0,4.557054639E-1,-1.182635069E0,-7.299839854E-1
2.172101719E0,4.355469346E-1,-1.163698316E0,-7.214318514E-1
2.174115263E0,4.233296216E-1,-1.155757070E0,-7.159340382E-1
2.176099268E0,4.043927789E-1,-1.132544160E0,-7.024950385E-1
2.178113195E0,3.842342496E-1,-1.114829063E0,-6.866125464E-1
2.180097123E0,3.750712574E-1,-1.105055213E0,-6.774495840E-1
2.182111666E0,3.585779071E-1,-1.089172721E0,-6.597344875E-1
2.184095055E0,3.420845270E-1,-1.076344609E0,-6.383541822E-1
2.186110675E0,3.323107064E-1,-1.072679400E0,-6.267477274E-1
2.188093142E0,3.188716471E-1,-1.064127207E0,-6.090326309E-1
2.190106993E0,3.011565804E-1,-1.059240341E0,-5.839871764E-1
2.192090766E0,2.950479090E-1,-1.058629513E0,-5.748242140E-1
2.194104925E0,2.809980214E-1,-1.056185961E0,-5.546656251E-1
2.196088545E0,2.748893499E-1,-1.055575132E0,-5.442809463E-1
2.198103088E0,2.614503205E-1,-1.062905550E0,-5.241223574E-1
2.200086401E0,2.474004179E-1,-1.068403363E0,-5.070181489E-1
2.202100252E0,2.388483137E-1,-1.071457624E0,-4.990769029E-1
2.204114795E0,2.217440903E-1,-1.083674908E0,-4.819726646E-1
2.206098184E0,2.040289938E-1,-1.098946571E0,-4.685336351E-1
2.208112343E0,1.942551434E-1,-1.105666041E0,-4.636467099E-1
2.210096040E0,1.698205322E-1,-1.120937705E0,-4.532620013E-1
2.212110198E0,1.466076523E-1,-1.134987593E0,-4.447098970E-1
2.214094126E0,1.325577646E-1,-1.144761443E0,-4.410447180E-1
2.216108593E0,1.075122803E-1,-1.156978726E0,-4.379903674E-1
2.218091674E0,8.368854225E-2,-1.172861218E0,-4.349360466E-1
2.220105832E0,6.780604273E-2,-1.175915599E0,-4.343251884E-1
2.222090222E0,3.909537569E-2,-1.188132882E0,-4.373795092E-1
2.224103381E0,3.054326167E-3,-1.197295904E0,-4.392121136E-1
2.226088385E0,-2.015855350E-2,-1.196684957E0,-4.410447180E-1
2.228101621E0,-5.864306539E-2,-1.199739337E0,-4.428772926E-1
2.230115472E0,-7.941248268E-2,-1.198517561E0,-4.465425014E-1
2.232098861E0,-1.227839142E-1,-1.195463300E0,-4.526511431E-1
2.234113250E0,-1.637118906E-1,-1.188132882E0,-4.544837475E-1
2.236097024E0,-1.832595766E-1,-1.182635069E0,-4.587597847E-1
2.238111414E0,-2.235766798E-1,-1.167974353E0,-4.618141353E-1
2.240095110E0,-2.602286041E-1,-1.148426652E0,-4.679227769E-1
2.242109654E0,-2.773328125E-1,-1.136820197E0,-4.734205604E-1
2.244092736E0,-3.036000133E-1,-1.110553026E0,-4.770857692E-1
2.246109356E0,-3.237585723E-1,-1.077566266E0,-4.801400900E-1
2.248089898E0,-3.329215646E-1,-1.060462117E0,-4.813618064E-1
2.250105596E0,-3.475823104E-1,-1.018923283E0,-4.868595898E-1
2.252087755E0,-3.555235863E-1,-9.773843884E-1,-4.899139404E-1
2.254102528E0,-3.591887653E-1,-9.547823668E-1,-4.899139404E-1
2.256116764E0,-3.652974069E-1,-9.046914577E-1,-4.929682612E-1
2.258100692E0,-3.720169365E-1,-8.503243923E-1,-4.917465150E-1
2.260114543E0,-3.726277947E-1,-8.234463334E-1,-4.935791194E-1
2.262099162E0,-3.756821156E-1,-7.660250068E-1,-4.911356568E-1
2.264111783E0,-3.750712574E-1,-7.336491346E-1,-4.886921942E-1
2.266097403E0,-3.726277947E-1,-6.743952036E-1,-4.850270152E-1
2.268109715E0,-3.707951903E-1,-6.133087277E-1,-4.776966274E-1
2.270093643E0,-3.646865487E-1,-5.839871764E-1,-4.746423066E-1
2.272107571E0,-3.585779071E-1,-5.253441334E-1,-4.660901725E-1
2.274091806E0,-3.549126983E-1,-4.679227769E-1,-4.538728893E-1
2.276105734E0,-3.506366611E-1,-4.379903674E-1,-4.489859641E-1
2.278089739E0,-3.445279896E-1,-3.824016452E-1,-4.306600094E-1
2.280103590E0,-3.347541690E-1,-3.237585723E-1,-4.135557711E-1
2.282086671E0,-3.274237812E-1,-2.962696552E-1,-4.037819207E-1
2.284101060E0,-3.109304011E-1,-2.095267773E-1,-3.726277947E-1
2.286114988E0,-3.066543639E-1,-1.814269722E-1,-3.604104817E-1
2.288098377E0,-3.023782969E-1,-1.478293836E-1,-3.481931984E-1
2.290114305E0,-2.926044464E-1,-9.101892263E-2,-3.249803185E-1
2.292096772E0,-2.803871334E-1,-3.420845419E-2,-2.987131178E-1
2.294111007E0,-2.761110961E-1,-4.276056774E-3,-2.864958048E-1
2.296095242E0,-2.645046413E-1,5.253441259E-2,-2.632829249E-1
2.298108555E0,-2.602286041E-1,8.063421398E-2,-2.504547536E-1
2.300092868E0,-2.443460971E-1,1.343903542E-1,-2.247984111E-1
2.302107564E0,-2.309070677E-1,1.887573600E-1,-2.021963894E-1
2.304090954E0,-2.229658216E-1,2.156354338E-1,-1.875356287E-1
2.306104882E0,-2.095267773E-1,2.645046413E-1,-1.667662114E-1
2.308088502E0,-1.960877478E-1,3.103195429E-1,-1.435533315E-1
2.310102429E0,-1.899790913E-1,3.329215646E-1,-1.343903542E-1
2.312116819E0,-1.808161139E-1,3.738495409E-1,-1.148426682E-1
2.314100285E0,-1.692096740E-1,4.092797041E-1,-9.285151958E-2
2.316114059E0,-1.649336219E-1,4.245513380E-1,-8.246681094E-2
2.318097756E0,-1.563815027E-1,4.514294267E-1,-6.291911751E-2
2.320112530E0,-1.508837193E-1,4.734205604E-1,-4.459316283E-2
2.322095304E0,-1.453859210E-1,4.813618064E-1,-3.543018550E-2
2.324111001E0,-1.398881376E-1,4.917465150E-1,-1.649336144E-2
2.326095929E0,-1.368338168E-1,4.966334403E-1,-8.552113548E-3
2.328107626E0,-1.325577646E-1,4.984660447E-1,6.719517522E-3
2.330091707E0,-1.288925707E-1,4.923573732E-1,2.504547499E-2
2.332105250E0,-1.288925707E-1,4.893030524E-1,3.237585723E-2
2.334089486E0,-1.307251602E-1,4.758640230E-1,4.886921868E-2
2.336103414E0,-1.398881376E-1,4.593706727E-1,6.475171447E-2
2.338087111E0,-1.453859210E-1,4.489859641E-1,7.269296050E-2
2.340101193E0,-1.582140923E-1,4.282165468E-1,8.979719132E-2
2.342116044E0,-1.740965992E-1,4.062253833E-1,1.050688252E-1
2.344099432E0,-1.832595766E-1,3.927863538E-1,1.142318025E-1
2.346113899E0,-1.991420686E-1,3.707951903E-1,1.350012124E-1
2.348097288E0,-2.125810981E-1,3.457497358E-1,1.588249654E-1
2.350111370E0,-2.205223590E-1,3.378084898E-1,1.655444801E-1
2.352094759E0,-2.309070677E-1,3.170390725E-1,1.905899495E-1
2.354109302E0,-2.370157093E-1,2.962696552E-1,2.168571651E-1
2.356092384E0,-2.412917763E-1,2.901609838E-1,2.309070677E-1
2.358106235E0,-2.467895597E-1,2.791654170E-1,2.577851415E-1
2.360090470E0,-2.449569702E-1,2.736676335E-1,2.687807083E-1
2.362104321E0,-2.486221492E-1,2.700024247E-1,2.987131178E-1
2.364089326E0,-2.522873580E-1,2.724458873E-1,3.213151097E-1
2.366101561E0,-2.541199327E-1,2.712241709E-1,3.347541690E-1
2.368116720E0,-2.565633953E-1,2.767219543E-1,3.597996235E-1
2.370100341E0,-2.583959997E-1,2.803871334E-1,3.817907870E-1
2.372114268E0,-2.583959997E-1,2.828305960E-1,3.885102868E-1
2.374097657E0,-2.547308207E-1,2.846632004E-1,4.086688459E-1
2.376112662E0,-2.492330223E-1,2.877175212E-1,4.288274050E-1
2.378095436E0,-2.461786866E-1,2.895501256E-1,4.386012554E-1
2.380110210E0,-2.388483137E-1,2.895501256E-1,4.538728893E-1
2.382093676E0,-2.302961946E-1,2.938261926E-1,4.697553813E-1
2.384107835E0,-2.260201424E-1,2.956587672E-1,4.752531648E-1
2.386092685E0,-2.180788964E-1,3.011565804E-1,4.856378734E-1
2.388105921E0,-2.076941878E-1,3.078760803E-1,4.960225821E-1
2.390089388E0,-2.028072625E-1,3.139847219E-1,5.021312237E-1
2.392103777E0,-1.875356287E-1,3.237585723E-1,5.094616413E-1
2.394086320E0,-1.783726513E-1,3.292563558E-1,5.125159621E-1
2.396100786E0,-1.643227488E-1,3.481931984E-1,5.198463202E-1
2.398115176E0,-1.490511149E-1,3.665191531E-1,5.235115290E-1
2.400098257E0,-1.417207420E-1,3.756821156E-1,5.296201706E-1
2.402112493E0,-1.252273768E-1,4.025602043E-1,5.345070958E-1
2.404097113E0,-1.093448773E-1,4.318817258E-1,5.381723046E-1
2.406112810E0,-1.026253626E-1,4.477642179E-1,5.393940210E-1
2.408093737E0,-8.918632567E-2,4.795292318E-1,5.448917747E-1
2.410109050E0,-7.330382615E-2,5.186246037E-1,5.491678715E-1
2.412092440E0,-6.658431143E-2,5.369505286E-1,5.546656251E-1
2.414106905E0,-5.803219974E-2,5.791002512E-1,5.571091175E-1
2.416090295E0,-4.337143153E-2,6.194173694E-1,5.632177591E-1
2.418104454E0,-3.726277873E-2,6.420193911E-1,5.662720799E-1
2.420088536E0,-2.321287990E-2,6.847799420E-1,5.687155724E-1
2.422102924E0,-1.038470957E-2,7.269296646E-1,5.742133260E-1
2.424115852E0,-6.108652451E-4,7.458664775E-1,5.754350424E-1
2.426100242E0,1.588249579E-2,7.849618196E-1,5.766568184E-1
2.428114400E0,2.443460934E-2,8.032878041E-1,5.784893632E-1
2.430098020E0,4.153883830E-2,8.381071091E-1,5.809328556E-1
2.432111333E0,5.497787148E-2,8.692612648E-1,5.766568184E-1
2.434095569E0,6.230825558E-2,8.827002645E-1,5.742133260E-1
2.436110034E0,7.819075137E-2,9.077457786E-1,5.699372888E-1
2.438093731E0,9.224065393E-2,9.260717034E-1,5.613851547E-1
2.440107660E0,9.651670605E-2,9.358455539E-1,5.571091175E-1
2.442090971E0,1.081231460E-1,9.480628371E-1,5.479460955E-1
2.444105822E0,1.136209369E-1,9.621127844E-1,5.326744914E-1
2.446088904E0,1.166752651E-1,9.676105380E-1,5.241223574E-1
2.448103602E0,1.233947799E-1,9.773843884E-1,5.088507533E-1
2.450086683E0,1.252273768E-1,9.883799553E-1,4.911356568E-1
2.452100918E0,1.270599663E-1,9.944885969E-1,4.807509482E-1
2.454114769E0,1.331686229E-1,1.007316828E0,4.593706727E-1
2.456099004E0,1.313360333E-1,1.025031924E0,4.471533597E-1
2.458112855E0,1.325577646E-1,1.034805775E0,4.202753007E-1
2.460096014E0,1.319468915E-1,1.058018565E0,3.964515328E-1
2.462111019E0,1.331686229E-1,1.075733662E0,3.824016452E-1
2.464094177E0,1.270599663E-1,1.117883444E0,3.494149148E-1
2.466109259E0,1.197295859E-1,1.167974353E0,3.170390725E-1
2.468093264E0,1.172861308E-1,1.199128509E0,3.029891551E-1
2.470106499E0,1.111774743E-1,1.268767118E0,2.681698501E-1
2.472090427E0,1.069014147E-1,1.348790407E0,2.327396572E-1
2.474104663E0,1.032362282E-1,1.393383622E0,2.168571651E-1
2.476088282E0,9.590584040E-2,1.488067746E0,1.826487035E-1
2.478102441E0,8.918632567E-2,1.584584475E0,1.484402567E-1
2.480116600E0,8.246681094E-2,1.635897160E0,1.337794960E-1
2.482099374E0,7.757988572E-2,1.734857321E0,1.062905490E-1
2.484113840E0,7.024950534E-2,1.833206654E0,8.124507964E-2
2.486098845E0,6.841690838E-2,1.879021525E0,6.780604273E-2
2.488111465E0,6.719517708E-2,1.968818665E0,4.703662544E-2
2.490095161E0,6.902777404E-2,2.014633656E0,3.909537569E-2
2.492109935E0,7.513642311E-2,2.096489429E0,2.260201424E-2
2.494092940E0,7.941248268E-2,2.171015024E0,1.160643995E-2
2.496107715E0,8.307767659E-2,2.204612732E0,4.886921961E-3
2.498091103E0,9.346238524E-2,2.264477491E0,4.886921961E-3
2.500105031E0,1.026253626E-1,2.317622662E0,5.497787148E-3
2.502089652E0,1.087340117E-1,2.340835571E0,6.719517522E-3
2.504103117E0,1.221730486E-1,2.381152630E0,1.832595654E-2
2.506117661E0,1.380555481E-1,2.415361166E0,3.359758854E-2
2.508100435E0,1.435533315E-1,2.428800106E0,4.214970022E-2
2.510115209E0,1.600466967E-1,2.452623844E0,6.169738993E-2
2.512098521E0,1.704314053E-1,2.477669477E0,8.491026610E-2
2.514112757E0,1.759291887E-1,2.485610723E0,9.896016866E-2
2.516096377E0,1.887573600E-1,2.506380081E0,1.246165112E-1
2.518110920E0,1.979203373E-1,2.519819021E0,1.539380401E-1
2.520093694E0,2.058615834E-1,2.524095297E0,1.704314053E-1
2.522108083E0,2.150245607E-1,2.526538610E0,1.985312104E-1
2.524091781E0,2.364048511E-1,2.521040916E0,2.431243658E-1
2.526103169E0,2.425135076E-1,2.513710499E0,2.577851415E-1
2.528121713E0,2.492330223E-1,2.502104044E0,2.730567753E-1
2.530104410E0,2.535090744E-1,2.489886761E0,2.852740586E-1
2.532088107E0,2.693915665E-1,2.453234911E0,3.133738637E-1
2.534102035E0,2.895501256E-1,2.401922226E0,3.329215646E-1
2.536116424E0,2.968805134E-1,2.373211384E0,3.439171314E-1
2.538099506E0,3.176499307E-1,2.301740170E0,3.591887653E-1
2.540113433E0,3.408628106E-1,2.209499598E0,3.671300113E-1
2.542098900E0,3.506366611E-1,2.159408569E0,3.689626157E-1
2.544111905E0,3.732386529E-1,2.045787811E0,3.726277947E-1
2.546096755E0,3.921754956E-1,1.918116927E0,3.665191531E-1
2.548109760E0,4.037819207E-1,1.847256541E0,3.628539443E-1
2.550093380E0,4.288274050E-1,1.697594523E0,3.488040566E-1
2.552108539E0,4.483750761E-1,1.539380431E0,3.316998184E-1
2.554090620E0,4.599815309E-1,1.455691934E0,3.200933933E-1
2.556105394E0,4.801400900E-1,1.279151797E0,2.932153046E-1
2.558088861E0,4.935791194E-1,1.188132882E0,2.791654170E-1
2.560102711E0,5.112941861E-1,9.932668805E-1,2.419026345E-1
2.562116562E0,5.277875662E-1,7.910705209E-1,2.076941878E-1
2.564101106E0,5.351179838E-1,6.878342628E-1,1.869247705E-1
2.566116188E0,5.491678715E-1,4.740314186E-1,1.459967941E-1
2.568097730E0,5.571091175E-1,2.583959997E-1,1.026253626E-1
2.570112889E0,5.626068711E-1,1.478293836E-1,7.635815442E-2
2.572096509E0,5.687155724E-1,-7.208210230E-2,3.054326214E-2
2.574110052E0,5.760459304E-1,-2.895501256E-1,-1.649336144E-2
2.576094364E0,5.803219676E-1,-3.982841372E-1,-3.970624134E-2
2.578107677E0,5.858197808E-1,-6.053674817E-1,-8.918632567E-2
2.580091682E0,5.937610269E-1,-8.075638413E-1,-1.313360333E-1
2.582106455E0,5.980370641E-1,-9.034696817E-1,-1.545489132E-1
2.584090153E0,6.041457057E-1,-1.081842303E0,-1.966986060E-1
2.586104927E0,6.072000265E-1,-1.247386813E0,-2.437352389E-1
2.588088008E0,6.102544069E-1,-1.324355841E0,-2.632829249E-1
2.590101551E0,6.139195561E-1,-1.464244008E0,-3.042109013E-1
2.592115633E0,6.139195561E-1,-1.528384805E0,-3.237585723E-1
2.594099407E0,6.145304441E-1,-1.645671010E0,-3.610213697E-1
2.596114412E0,6.145304441E-1,-1.745242000E0,-3.964515328E-1
2.598097186E0,6.133087277E-1,-1.790446043E0,-4.153883755E-1
2.600112268E0,6.096435189E-1,-1.867415071E0,-4.459316432E-1
2.602094733E0,6.072000265E-1,-1.930334210E0,-4.752531648E-1
2.604109584E0,6.047565937E-1,-1.959044814E0,-4.893030524E-1
2.606092051E0,5.968153477E-1,-2.007914066E0,-5.155702829E-1
2.608107748E0,5.864306092E-1,-2.049452782E0,-5.381723046E-1
2.610091137E0,5.815436840E-1,-2.065335512E0,-5.479460955E-1
2.612105219E0,5.693264008E-1,-2.094656944E0,-5.650503635E-1
2.614088608E0,5.497786999E-1,-2.111761093E0,-5.784893632E-1
2.616102228E0,5.406157374E-1,-2.117869854E0,-5.833762884E-1
2.618117540E0,5.229006410E-1,-2.123978376E0,-5.919284225E-1
2.620100699E0,4.996877611E-1,-2.120313168E0,-5.925393105E-1
2.622115474E0,4.886921942E-1,-2.115426302E0,-5.931501389E-1
2.624099170E0,4.636467099E-1,-2.099543810E0,-5.907067060E-1
2.626113021E0,4.502076805E-1,-2.086715698E0,-5.900958180E-1
2.628096949E0,4.221078753E-1,-2.058615923E0,-5.809328556E-1
2.630109953E0,3.915646076E-1,-2.027461767E0,-5.723807216E-1
2.632093650E0,3.744603992E-1,-2.007303238E0,-5.662720799E-1
2.634108348E0,3.433062732E-1,-1.970040441E0,-5.510004759E-1
2.636092353E0,3.084869385E-1,-1.924836397E0,-5.338962078E-1
2.638106588E0,2.926044464E-1,-1.903456092E0,-5.222898126E-1
2.640089900E0,2.608394623E-1,-1.860084653E0,-5.015203953E-1
2.642104059E0,2.296853364E-1,-1.816102386E0,-4.770857692E-1
2.644088986E0,2.144137025E-1,-1.794722080E0,-4.642575979E-1
2.646103530E0,1.887573600E-1,-1.755626678E0,-4.343251884E-1
2.648115458E0,1.631010175E-1,-1.713477015E0,-4.050036669E-1
2.650099463E0,1.502728462E-1,-1.695151091E0,-3.897320330E-1
2.652113697E0,1.233947799E-1,-1.660942554E0,-3.573561609E-1
2.654097702E0,1.123992056E-1,-1.641394973E0,-3.439171314E-1
2.656111784E0,8.552113175E-2,-1.604743004E0,-3.103195429E-1
2.658095173E0,6.108652428E-2,-1.570534587E0,-2.809980214E-1
2.660109409E0,4.886921868E-2,-1.553430319E0,-2.663372457E-1
2.662093722E0,2.076941915E-2,-1.512502313E0,-2.400700450E-1
2.664107265E0,-2.443460980E-3,-1.470352650E0,-2.156354338E-1
2.666090961E0,-1.404990070E-2,-1.448361516E0,-2.009746730E-1
2.668105120E0,-4.276056588E-2,-1.401324868E0,-1.808161139E-1
2.670089048E0,-7.024950534E-2,-1.346957922E0,-1.661553532E-1
2.672102360E0,-8.613199741E-2,-1.320079803E0,-1.569923609E-1
2.674117057E0,-1.142318025E-1,-1.263880134E0,-1.490511149E-1
2.676100831E0,-1.466076523E-1,-1.204015374E0,-1.398881376E-1
2.678114990E0,-1.594358236E-1,-1.171028733E0,-1.392772794E-1
2.680098687E0,-1.875356287E-1,-1.106887817E0,-1.374446750E-1
2.682112153E0,-2.119702399E-1,-1.040303469E0,-1.398881376E-1
2.684096774E0,-2.223549485E-1,-1.005484223E0,-1.411098689E-1
2.686110008E0,-2.400700450E-1,-9.346238375E-1,-1.466076523E-1
2.688094013E0,-2.461786866E-1,-9.010262489E-1,-1.496619880E-1
2.690108557E0,-2.602286041E-1,-8.295549750E-1,-1.557706445E-1
2.692092176E0,-2.681698501E-1,-7.531968355E-1,-1.618792862E-1
2.694105797E0,-2.742784917E-1,-7.153232098E-1,-1.667662114E-1
2.696089417E0,-2.773328125E-1,-6.346889734E-1,-1.740965992E-1
2.698104268E0,-2.791654170E-1,-5.467243791E-1,-1.826487035E-1
2.700087580E0,-2.767219543E-1,-5.021312237E-1,-1.863138974E-1
2.702102123E0,-2.712241709E-1,-4.092797041E-1,-1.918116808E-1
2.704115974E0,-2.669481039E-1,-3.103195429E-1,-1.979203373E-1
2.706099978E0,-2.632829249E-1,-2.596177161E-1,-2.009746730E-1
2.708114368E0,-2.614503205E-1,-1.612684280E-1,-2.052507252E-1
2.710096912E0,-2.547308207E-1,-5.803219974E-2,-2.046398520E-1
2.712111609E0,-2.535090744E-1,-4.886921961E-3,-2.046398520E-1
2.714094767E0,-2.504547536E-1,9.651670605E-2,-2.015855312E-1
2.716109156E0,-2.437352389E-1,1.960877478E-1,-1.997529417E-1
2.718092854E0,-2.425135076E-1,2.455678284E-1,-1.960877478E-1
2.720107396E0,-2.357939780E-1,3.408628106E-1,-1.869247705E-1
2.722089863E0,-2.315179259E-1,3.830125034E-1,-1.808161139E-1
2.724104637E0,-2.266310006E-1,4.654793143E-1,-1.698205322E-1
2.726090796E0,-2.144137025E-1,5.400048494E-1,-1.514945775E-1
2.728102184E0,-2.052507252E-1,5.723807216E-1,-1.417207420E-1
2.730117574E0,-1.905899495E-1,6.267477274E-1,-1.240056455E-1
2.732100656E0,-1.783726513E-1,6.725626588E-1,-9.773843735E-2
2.734114814E0,-1.685988009E-1,6.902777553E-1,-8.368854225E-2
2.736098434E0,-1.514945775E-1,7.202101350E-1,-5.803219974E-2
2.738112362E0,-1.380555481E-1,7.385360599E-1,-3.298672289E-2
2.740095444E0,-1.295034289E-1,7.446447611E-1,-1.649336144E-2
2.742110448E0,-1.117883399E-1,7.513642311E-1,9.162978269E-3
2.744094222E0,-1.032362282E-1,7.562511563E-1,3.909537569E-2
2.746108920E0,-9.712757170E-2,7.538077235E-1,5.253441259E-2
2.748092078E0,-9.162978828E-2,7.519751191E-1,7.941248268E-2
2.750106236E0,-8.918632567E-2,7.507534027E-1,9.040805697E-2
2.752090241E0,-8.674286306E-2,7.495316267E-1,1.130100712E-1
2.754103785E0,-8.613199741E-2,7.495316267E-1,1.374446750E-1
2.756118174E0,-8.857546002E-2,7.483099103E-1,1.459967941E-1
2.758101025E0,-9.346238524E-2,7.483099103E-1,1.649336219E-1
2.760115414E0,-1.001819000E-1,7.544185519E-1,1.771509200E-1
2.762099111E0,-1.075122803E-1,7.599163651E-1,1.838704348E-1
2.764113269E0,-1.270599663E-1,7.770205736E-1,2.003637999E-1
2.766093967E0,-1.362229437E-1,7.855727077E-1,2.064724565E-1
2.768112126E0,-1.411098689E-1,7.922922373E-1,2.113593817E-1
2.770095207E0,-1.563815027E-1,8.075638413E-1,2.211332172E-1
2.772109288E0,-1.710422635E-1,8.222246170E-1,2.284636050E-1
2.774092370E0,-1.802052408E-1,8.307767510E-1,2.315179259E-1
2.776106836E0,-1.924225539E-1,8.460483551E-1,2.345722616E-1
2.778091149E0,-2.046398520E-1,8.625417352E-1,2.400700450E-1
2.780105000E0,-2.083050460E-1,8.674286604E-1,2.425135076E-1
2.782089082E0,-2.144137025E-1,8.753699064E-1,2.474004179E-1
2.784102547E0,-2.199114859E-1,8.790351152E-1,2.492330223E-1
2.786117398E0,-2.193006277E-1,8.759807348E-1,2.547308207E-1
2.788100403E0,-2.211332172E-1,8.686503768E-1,2.614503205E-1
2.790114638E0,-2.193006277E-1,8.607091308E-1,2.663372457E-1
2.792098259E0,-2.193006277E-1,8.350527883E-1,2.730567753E-1
2.794113033E0,-2.205223590E-1,7.977899909E-1,2.834414840E-1
2.796095499E0,-2.211332172E-1,7.757988572E-1,2.871066630E-1
2.798110273E0,-2.229658216E-1,7.244861722E-1,2.987131178E-1
2.800093970E0,-2.193006277E-1,6.627888083E-1,3.090978265E-1
2.802107513E0,-2.162462920E-1,6.291912198E-1,3.121521473E-1
2.804092210E0,-2.138028294E-1,5.571091175E-1,3.243694305E-1
2.806106907E0,-2.076941878E-1,4.789183438E-1,3.390302062E-1
2.808088527E0,-2.046398520E-1,4.386012554E-1,3.445279896E-1
2.810104455E0,-2.028072625E-1,3.591887653E-1,3.567453027E-1
2.812087229E0,-1.991420686E-1,2.761110961E-1,3.677408695E-1
2.814101388E0,-1.985312104E-1,2.364048511E-1,3.769038618E-1
2.816114931E0,-1.930334121E-1,1.624901593E-1,3.891211748E-1
2.818098935E0,-1.887573600E-1,1.240056455E-1,3.915646076E-1
2.820113479E0,-1.808161139E-1,5.864306539E-2,4.019493461E-1
2.822098099E0,-1.722639948E-1,4.276056774E-3,4.074471295E-1
2.824110950E0,-1.704314053E-1,-1.954768784E-2,4.080579877E-1
2.826095646E0,-1.576032341E-1,-6.230825558E-2,4.153883755E-1
2.828109498E0,-1.502728462E-1,-9.040805697E-2,4.159992337E-1
2.830093118E0,-1.441642046E-1,-1.026253626E-1,4.214970171E-1
2.832106968E0,-1.337794960E-1,-1.185078546E-1,4.208861589E-1
2.834091050E0,-1.227839142E-1,-1.264491081E-1,4.184426963E-1
2.836105132E0,-1.178969890E-1,-1.307251602E-1,4.208861589E-1
2.838088291E0,-1.056796908E-1,-1.295034289E-1,4.178318381E-1
2.840102756E0,-9.651670605E-2,-1.233947799E-1,4.123340547E-1
2.842115915E0,-9.040805697E-2,-1.178969890E-1,4.123340547E-1
2.844100612E0,-8.185594529E-2,-1.099557430E-1,4.080579877E-1
2.846113540E0,-7.147123665E-2,-9.590584040E-2,4.043927789E-1
2.848098468E0,-6.719517708E-2,-8.918632567E-2,4.025602043E-1
2.850112319E0,-5.742133409E-2,-7.330382615E-2,3.958406746E-1
2.852095939E0,-5.314527452E-2,-6.352998316E-2,3.940080702E-1
2.854110097E0,-4.703662544E-2,-4.520402849E-2,3.903428912E-1
2.856093871E0,-4.031710699E-2,-2.015855350E-2,3.885102868E-1
2.858107953E0,-4.092797264E-2,-9.773843922E-3,3.872885704E-1
2.860091419E0,-3.481931984E-2,1.893682219E-2,3.872885704E-1
2.862106193E0,-3.054326214E-2,5.192354694E-2,3.848451078E-1
2.864089506E0,-2.809980139E-2,6.902777404E-2,3.848451078E-1
2.866104280E0,-2.871066704E-2,1.075122803E-1,3.897320330E-1
2.868117592E0,-2.504547499E-2,1.441642046E-1,3.909537494E-1
2.870101520E0,-2.260201424E-2,1.667662114E-1,3.946189582E-1
2.872115755E0,-2.138028294E-2,2.107485086E-1,3.995058835E-1
2.874099759E0,-1.832595654E-2,2.565633953E-1,4.074471295E-1
2.876112995E0,-1.771509275E-2,2.803871334E-1,4.105014503E-1
2.878096923E0,-7.330383174E-3,3.304781020E-1,4.221078753E-1
2.880110544E0,-5.497787148E-3,3.799581826E-1,4.312708676E-1
2.882093932E0,-2.443460980E-3,4.019493461E-1,4.386012554E-1
2.884110168E0,2.443460980E-3,4.502076805E-1,4.489859641E-1
2.886093635E0,6.108652335E-3,4.721988440E-1,4.563163519E-1
2.888106562E0,1.282817032E-2,5.167919993E-1,4.709770977E-1
2.890090182E0,1.832595654E-2,5.613851547E-1,4.825835526E-1
2.892104649E0,2.260201424E-2,5.815436840E-1,4.917465150E-1
2.894088114E0,2.809980139E-2,6.212499738E-1,5.045747161E-1
2.896102273E0,3.176499158E-2,6.591235995E-1,5.180137157E-1
2.898116355E0,3.237585723E-2,6.768386960E-1,5.216789246E-1
2.900100668E0,3.726277873E-2,7.098253965E-1,5.326744914E-1
2.902114287E0,4.276056588E-2,7.403686643E-1,5.424483418E-1
2.904097984E0,4.092797264E-2,7.574729323E-1,5.448917747E-1
2.906112759E0,4.642575979E-2,7.849618196E-1,5.528330207E-1
2.908095840E0,5.009094998E-2,8.148942590E-1,5.564982295E-1
2.910109614E0,5.375614017E-2,8.289441466E-1,5.589417219E-1
2.912094003E0,5.986479297E-2,8.564330935E-1,5.607742667E-1
2.914107778E0,6.414084882E-2,8.747590184E-1,5.589417219E-1
2.916091243E0,7.086037099E-2,9.016370773E-1,5.552765131E-1
2.918105325E0,7.819075137E-2,9.321803451E-1,5.479460955E-1
2.920088792E0,8.124507964E-2,9.480628371E-1,5.461135507E-1
2.922102950E0,9.162978828E-2,9.816604257E-1,5.326744914E-1
2.924118647E0,1.020144969E-1,1.017090678E0,5.204572082E-1
2.926100729E0,1.032362282E-1,1.034805775E0,5.125159621E-1
2.928115272E0,1.087340117E-1,1.067792416E0,4.978551865E-1
2.930098969E0,1.130100712E-1,1.100779176E0,4.807509482E-1
2.932113358E0,1.130100712E-1,1.117883444E0,4.740314186E-1
2.934096517E0,1.117883399E-1,1.153924465E0,4.557054639E-1
2.936111521E0,1.087340117E-1,1.183856845E0,4.410447180E-1
2.938094603E0,1.056796908E-1,1.202182770E0,4.349360466E-1
2.940109454E0,1.014036313E-1,1.223563075E0,4.221078753E-1
2.942092767E0,9.834930301E-2,1.241278172E0,4.074471295E-1
2.944106309E0,9.224065393E-2,1.249219418E0,4.007275999E-1
2.946091007E0,8.979719132E-2,1.253495455E0,3.903428912E-1
2.948104473E0,8.796459436E-2,1.254106402E0,3.836233616E-1
2.950119016E0,7.941248268E-2,1.249830246E0,3.756821156E-1
2.952102713E0,7.147123665E-2,1.235169530E0,3.707951903E-1
2.954116487E0,6.536258012E-2,1.225395679E0,3.695734739E-1
2.956099877E0,6.047565863E-2,1.202182770E0,3.701843321E-1
2.958114112E0,5.436700583E-2,1.174693823E0,3.726277947E-1
2.960097809E0,5.131268129E-2,1.157589674E0,3.738495409E-1
2.962111891E0,5.009094998E-2,1.123381138E0,3.799581826E-1
2.964096202E0,4.581489414E-2,1.086729288E0,3.860668242E-1
2.966111284E0,4.337143153E-2,1.063516378E0,3.885102868E-1
2.968093212E0,4.092797264E-2,1.023199320E0,3.940080702E-1
2.970107679E0,3.848451003E-2,9.779952765E-1,4.019493461E-1
2.972091375E0,3.604105115E-2,9.523389339E-1,4.025602043E-1
2.974105534E0,3.481931984E-2,9.028588533E-1,4.074471295E-1
2.976089155E0,3.420845419E-2,8.472700715E-1,4.105014503E-1
2.978103620E0,3.298672289E-2,8.173376918E-1,4.092797041E-1
2.980117240E0,3.604105115E-2,7.562511563E-1,4.092797041E-1
2.982100861E0,3.970624134E-2,7.226535678E-1,4.074471295E-1
2.984115404E0,4.825835302E-2,6.536257863E-1,4.043927789E-1
2.986099408E0,6.047565863E-2,5.736024380E-1,3.958406746E-1
2.988113490E0,6.719517708E-2,5.308418870E-1,3.927863538E-1
2.990096880E0,8.429940045E-2,4.392121136E-1,3.817907870E-1
2.992111038E0,1.014036313E-1,3.457497358E-1,3.720169365E-1
2.994094812E0,1.111774743E-1,2.950479090E-1,3.628539443E-1
2.996109202E0,1.313360333E-1,1.936442852E-1,3.469714522E-1
2.998092284E0,1.521054506E-1,8.491026610E-2,3.292563558E-1
3.000106749E0,1.624901593E-1,3.176499158E-2,3.194825351E-1
3.002089908E0,1.881465018E-1,-8.063421398E-2,2.968805134E-1
3.004103990E0,2.131919712E-1,-1.924225539E-1,2.700024247E-1
3.006117302E0,2.223549485E-1,-2.474004179E-1,2.577851415E-1
3.008103383E0,2.455678284E-1,-3.591887653E-1,2.284636050E-1
3.010116388E0,2.681698501E-1,-4.703662395E-1,1.966986060E-1
3.012100317E0,2.748893499E-1,-5.216789246E-1,1.777617931E-1
3.014114167E0,2.926044464E-1,-6.230825782E-1,1.417207420E-1
3.016097326E0,3.042109013E-1,-6.725626588E-1,1.197295859E-1
3.018112023E0,3.188716471E-1,-7.690793276E-1,7.941248268E-2
3.020095719E0,3.323107064E-1,-8.613200188E-1,3.298672289E-2
3.022109340E0,3.408628106E-1,-9.046914577E-1,1.160643995E-2
3.024093960E0,3.536909819E-1,-9.853256345E-1,-3.481931984E-2
3.026108042E0,3.665191531E-1,-1.064127207E0,-8.918632567E-2
3.028091431E0,3.726277947E-1,-1.100168347E0,-1.123992056E-1
3.030105282E0,3.824016452E-1,-1.165530920E0,-1.649336219E-1
3.032089287E0,3.940080702E-1,-1.227839112E0,-2.168571651E-1
3.034103214E0,3.982841372E-1,-1.260825872E0,-2.467895597E-1
3.036116988E0,4.062253833E-1,-1.315192819E0,-2.968805134E-1
3.038101301E0,4.105014503E-1,-1.364672899E0,-3.536909819E-1
3.040115536E0,4.123340547E-1,-1.387885809E0,-3.817907870E-1
3.042097925E0,4.159992337E-1,-1.431868076E0,-4.367686510E-1
3.044113699E0,4.190535545E-1,-1.470352650E0,-4.905247986E-1
3.046097704E0,4.178318381E-1,-1.488678575E0,-5.155702829E-1
3.048110247E0,4.153883755E-1,-1.516167521E0,-5.681046844E-1
3.050094021E0,4.123340547E-1,-1.530217409E0,-5.937610269E-1
3.052109026E0,4.068362415E-1,-1.550375938E0,-6.450737119E-1
3.054092108E0,4.019493461E-1,-1.563814998E0,-6.902777553E-1
3.056106343E0,3.995058835E-1,-1.567480206E0,-7.141014934E-1
3.058090271E0,3.909537494E-1,-1.570534587E0,-7.568620443E-1
3.060104430E0,3.842342496E-1,-1.563814998E0,-7.947356701E-1
3.062119280E0,3.793473244E-1,-1.554041147E0,-8.100073338E-1
3.064101669E0,3.707951903E-1,-1.533882618E0,-8.399397135E-1
3.066117059E0,3.597996235E-1,-1.502117634E0,-8.619308472E-1
3.068100141E0,3.530801237E-1,-1.481348276E0,-8.735373020E-1
3.070113760E0,3.433062732E-1,-1.437365890E0,-8.888089061E-1
3.072097688E0,3.341432810E-1,-1.383609772E0,-8.967501521E-1
3.074111540E0,3.286454976E-1,-1.352455616E0,-9.028588533E-1
3.076095313E0,3.176499307E-1,-1.284649611E0,-9.040805697E-1
3.078109779E0,3.115412891E-1,-1.249219418E0,-9.053022861E-1
3.080093169E0,3.005456924E-1,-1.177137375E0,-8.998045325E-1
3.082107559E0,2.871066630E-1,-1.100168347E0,-8.918632865E-1
3.084091640E0,2.809980214E-1,-1.061683774E0,-8.875871897E-1
3.086104568E0,2.687807083E-1,-9.853256345E-1,-8.747590184E-1
3.088119573E0,2.553416789E-1,-9.065240026E-1,-8.607091308E-1
3.090102961E0,2.522873580E-1,-8.680394888E-1,-8.533787727E-1
3.092117120E0,2.419026345E-1,-7.892379165E-1,-8.350527883E-1
3.094100817E0,2.327396572E-1,-7.159340382E-1,-8.161159754E-1
3.096114361E0,2.260201424E-1,-6.792821288E-1,-8.100073338E-1
3.098099057E0,2.211332172E-1,-6.053674817E-1,-7.922922373E-1
3.100113524E0,2.125810981E-1,-5.375614166E-1,-7.757988572E-1
3.102097452E0,2.089159191E-1,-5.057964325E-1,-7.696902156E-1
3.104111071E0,2.058615834E-1,-4.440990388E-1,-7.599163651E-1
3.106095076E0,1.960877478E-1,-3.854559660E-1,-7.513642311E-1
3.108108850E0,1.948660165E-1,-3.585779071E-1,-7.501425147E-1
3.110092547E0,1.838704348E-1,-3.084869385E-1,-7.489207983E-1
3.112105783E0,1.814269722E-1,-2.864958048E-1,-7.495316267E-1
3.114090711E0,1.685988009E-1,-2.449569702E-1,-7.550294399E-1
3.116103639E0,1.569923609E-1,-2.095267773E-1,-7.635815740E-1
3.118119027E0,1.478293836E-1,-1.924225539E-1,-7.690793276E-1
3.120102109E0,1.350012124E-1,-1.673770845E-1,-7.825183868E-1
3.122115653E0,1.233947799E-1,-1.484402567E-1,-7.990117669E-1
3.124100657E0,1.160643995E-1,-1.441642046E-1,-8.063421249E-1
3.126115662E0,9.590584040E-2,-1.325577646E-1,-8.283332586E-1
3.128096667E0,8.002334833E-2,-1.301143020E-1,-8.478809595E-1
3.130112056E0,7.086037099E-2,-1.325577646E-1,-8.570439219E-1
3.132095137E0,5.314527452E-2,-1.374446750E-1,-8.790351152E-1
3.134109527E0,3.665191308E-2,-1.453859210E-1,-9.004153609E-1
3.136092917E0,2.748893574E-2,-1.539380401E-1,-9.126327038E-1
3.138107382E0,9.773843922E-3,-1.704314053E-1,-9.327912331E-1
3.140090772E0,-6.108652335E-3,-1.893682331E-1,-9.505063295E-1
3.142105854E0,-1.649336144E-2,-1.985312104E-1,-9.590584636E-1
3.144088705E0,-3.481931984E-2,-2.266310006E-1,-9.761626720E-1
3.146103478E0,-4.703662544E-2,-2.382374406E-1,-9.853256345E-1
3.148117022E0,-6.597344577E-2,-2.645046413E-1,-9.999864101E-1
3.150100334E0,-8.918632567E-2,-2.938261926E-1,-1.010982037E0
3.152114800E0,-1.014036313E-1,-3.072652221E-1,-1.017090678E0
3.154098497E0,-1.246165112E-1,-3.316998184E-1,-1.026864529E0
3.156112964E0,-1.484402567E-1,-3.543018401E-1,-1.036638379E0
3.158096122E0,-1.612684280E-1,-3.665191531E-1,-1.039081812E0
3.160110203E0,-1.838704348E-1,-3.885102868E-1,-1.045801282E0
3.162093593E0,-2.113593817E-1,-4.043927789E-1,-1.046412110E0
3.164108983E0,-2.211332172E-1,-4.123340547E-1,-1.049466491E0
3.166091833E0,-2.474004179E-1,-4.269948006E-1,-1.048855662E0
3.168106607E0,-2.700024247E-1,-4.373795092E-1,-1.043968678E0
3.170089997E0,-2.840523422E-1,-4.373795092E-1,-1.044579625E0
3.172104386E0,-3.072652221E-1,-4.440990388E-1,-1.039692640E0
3.174117698E0,-3.255911767E-1,-4.428772926E-1,-1.032973170E0
3.176101703E0,-3.335324228E-1,-4.422664344E-1,-1.029307961E0
3.178115862E0,-3.512475193E-1,-4.367686510E-1,-1.016479731E0
3.180099174E0,-3.579670191E-1,-4.337143302E-1,-1.010982037E0
3.182114640E0,-3.689626157E-1,-4.221078753E-1,-9.957103729E-1
3.184097337E0,-3.836233616E-1,-4.056145251E-1,-9.853256345E-1
3.186112189E0,-3.897320330E-1,-4.001167417E-1,-9.773843884E-1
3.188095269E0,-3.988949955E-1,-3.781255782E-1,-9.584475756E-1
3.190109736E0,-4.062253833E-1,-3.573561609E-1,-9.419541955E-1
3.192092818E0,-4.092797041E-1,-3.469714522E-1,-9.352346659E-1
3.194106899E0,-4.147774875E-1,-3.219259977E-1,-9.150761366E-1
3.196090673E0,-4.190535545E-1,-2.987131178E-1,-8.930850029E-1
3.198104755E0,-4.202753007E-1,-2.822197378E-1,-8.833111525E-1
3.200119606E0,-4.202753007E-1,-2.577851415E-1,-8.625417352E-1
3.202102610E0,-4.190535545E-1,-2.315179259E-1,-8.381071091E-1
3.204117154E0,-4.141666293E-1,-2.205223590E-1,-8.265006542E-1
3.206102389E0,-4.105014503E-1,-1.966986060E-1,-7.996225953E-1
3.208114009E0,-4.056145251E-1,-1.850921661E-1,-7.855727077E-1
3.210098322E0,-3.952298164E-1,-1.624901593E-1,-7.599163651E-1
3.212112480E0,-3.848451078E-1,-1.429424733E-1,-7.299839854E-1
3.214095870E0,-3.817907870E-1,-1.350012124E-1,-7.171558142E-1
3.216110336E0,-3.720169365E-1,-1.160643995E-1,-6.872233748E-1
3.218094110E0,-3.646865487E-1,-1.007927656E-1,-6.566801667E-1
3.220107961E0,-3.622430861E-1,-9.468411654E-2,-6.414085031E-1
3.222092503E0,-3.555235863E-1,-8.124507964E-2,-6.139195561E-1
3.224105431E0,-3.543018401E-1,-7.330382615E-2,-5.809328556E-1
3.226090975E0,-3.524692357E-1,-7.024950534E-2,-5.681046844E-1
3.228104518E0,-3.543018401E-1,-6.536258012E-2,-5.418374538E-1
3.230118138E0,-3.536909819E-1,-5.803219974E-2,-5.119050741E-1
3.232101758E0,-3.549126983E-1,-5.497787148E-2,-4.948008358E-1
3.234115686E0,-3.604104817E-1,-4.825835302E-2,-4.673119187E-1
3.236098998E0,-3.695734739E-1,-4.092797264E-2,-4.398229718E-1
3.238113849E0,-3.726277947E-1,-3.726277873E-2,-4.257730842E-1
3.240097777E0,-3.854559660E-1,-2.748893574E-2,-3.952298164E-1
3.242111013E0,-3.933972120E-1,-2.260201424E-2,-3.854559660E-1
3.244094709E0,-4.251621962E-1,1.221730490E-3,-3.439171314E-1
3.246108560E0,-4.379903674E-1,1.160643995E-2,-3.323107064E-1
3.248092027E0,-4.550946057E-1,2.138028294E-2,-3.170390725E-1
3.250107031E0,-4.868595898E-1,4.398229718E-2,-2.907718420E-1
3.252090498E0,-5.235115290E-1,7.086037099E-2,-2.638937831E-1
3.254103964E0,-5.424483418E-1,8.796459436E-2,-2.516764700E-1
3.256119123E0,-5.772676468E-1,1.191187203E-1,-2.217440903E-1
3.258101896E0,-6.065891981E-1,1.484402567E-1,-1.918116808E-1
3.260116670E0,-6.194173694E-1,1.643227488E-1,-1.765400618E-1
3.262101214E0,-6.432411075E-1,1.948660165E-1,-1.478293836E-1
3.264114833E0,-6.633996367E-1,2.266310006E-1,-1.185078546E-1
3.266099377E0,-6.695083380E-1,2.412917763E-1,-1.044579595E-1
3.268112689E0,-6.786713004E-1,2.669481039E-1,-7.269296050E-2
3.270096079E0,-6.823364496E-1,2.932153046E-1,-5.742133409E-2
3.272110160E0,-6.860016584E-1,3.036000133E-1,-2.687807009E-2
3.274094165E0,-6.829473376E-1,3.219259977E-1,2.443460980E-3
3.276108632E0,-6.835582256E-1,3.286454976E-1,1.710422710E-2
3.278091712E0,-6.817256212E-1,3.371976018E-1,4.398229718E-2
3.280105333E0,-6.750060916E-1,3.365867436E-1,7.330382615E-2
3.282089030E0,-6.737843752E-1,3.335324228E-1,8.674286306E-2
3.284105343E0,-6.658431292E-1,3.182607889E-1,1.123992056E-1
3.286089039E0,-6.609562039E-1,2.974913716E-1,1.368338168E-1
3.288100967E0,-6.554583907E-1,2.828305960E-1,1.514945775E-1
3.290115741E0,-6.511823535E-1,2.480112910E-1,1.753183305E-1
3.292099515E0,-6.407976151E-1,2.052507252E-1,1.960877478E-1
3.294113981E0,-6.395758986E-1,1.844813079E-1,2.101376504E-1
3.296096755E0,-6.285803318E-1,1.374446750E-1,2.309070677E-1
3.298110837E0,-6.175847650E-1,9.407325089E-2,2.547308207E-1
3.300094534E0,-6.114761233E-1,6.902777404E-2,2.657263875E-1
3.302109385E0,-5.968153477E-1,2.076941915E-2,2.858849466E-1
3.304092698E0,-5.907067060E-1,-6.108652451E-4,2.981022298E-1
3.306108471E0,-5.754350424E-1,-4.703662544E-2,3.188716471E-1
3.308091168E0,-5.619960427E-1,-9.101892263E-2,3.402519524E-1
3.310104789E0,-5.534439087E-1,-1.130100712E-1,3.524692357E-1
3.312118640E0,-5.412266254E-1,-1.490511149E-1,3.750712574E-1
3.314102874E0,-5.283984542E-1,-1.826487035E-1,3.952298164E-1
3.316116803E0,-5.210680366E-1,-1.979203373E-1,4.037819207E-1
3.318100423E0,-5.106833577E-1,-2.223549485E-1,4.221078753E-1
3.320114273E0,-4.966334403E-1,-2.431243658E-1,4.398229718E-1
3.322098278E0,-4.911356568E-1,-2.522873580E-1,4.489859641E-1
3.324112822E0,-4.795292318E-1,-2.657263875E-1,4.642575979E-1
3.326096133E0,-4.697553813E-1,-2.748893499E-1,4.789183438E-1
3.328110600E0,-4.636467099E-1,-2.779437006E-1,4.856378734E-1
3.330093759E0,-4.550946057E-1,-2.840523422E-1,4.954117239E-1
3.332107533E0,-4.477642179E-1,-2.858849466E-1,5.039638281E-1
3.334091537E0,-4.459316432E-1,-2.840523422E-1,5.088507533E-1
3.336105465E0,-4.404338300E-1,-2.840523422E-1,5.155702829E-1
3.338088855E0,-4.404338300E-1,-2.840523422E-1,5.180137157E-1
3.340103551E0,-4.440990388E-1,-2.822197378E-1,5.216789246E-1
3.342117787E0,-4.502076805E-1,-2.755002379E-1,5.235115290E-1
3.344101484E0,-4.477642179E-1,-2.742784917E-1,5.271766782E-1
3.346116797E0,-4.526511431E-1,-2.651155293E-1,5.290092826E-1
3.348099262E0,-4.538728893E-1,-2.541199327E-1,5.363397002E-1
3.350113421E0,-4.502076805E-1,-2.455678284E-1,5.369505286E-1
3.352096503E0,-4.416555762E-1,-2.254092693E-1,5.448917747E-1
3.354111276E0,-4.312708676E-1,-1.979203373E-1,5.491678715E-1
3.356094743E0,-4.300491214E-1,-1.808161139E-1,5.534439087E-1
3.358108594E0,-4.196644127E-1,-1.435533315E-1,5.619960427E-1
3.360092522E0,-4.105014503E-1,-1.014036313E-1,5.742133260E-1
3.362106757E0,-4.074471295E-1,-7.819075137E-2,5.760459304E-1
3.364091685E0,-3.995058835E-1,-2.932153270E-2,5.900958180E-1
3.366106459E0,-3.933972120E-1,2.809980139E-2,6.041457057E-1
3.368087694E0,-3.909537494E-1,5.742133409E-2,6.114761233E-1
3.370102699E0,-3.824016452E-1,1.142318025E-1,6.279694438E-1
3.372116627E0,-3.811798990E-1,1.459967941E-1,6.389650702E-1
3.374099940E0,-3.732386529E-1,2.058615834E-1,6.579018831E-1
3.376114405E0,-3.652974069E-1,2.675589919E-1,6.786713004E-1
3.378098487E0,-3.585779071E-1,2.987131178E-1,6.890559793E-1
3.380112031E0,-3.500257730E-1,3.604104817E-1,7.079927921E-1
3.382095958E0,-3.384193480E-1,4.221078753E-1,7.299839854E-1
3.384111117E0,-3.353650272E-1,4.544837475E-1,7.403686643E-1
3.386094429E0,-3.207042515E-1,5.155702829E-1,7.617489696E-1
3.388107742E0,-3.036000133E-1,5.766568184E-1,7.812966704E-1
3.390091977E0,-2.987131178E-1,6.078109145E-1,7.916813493E-1
3.392105212E0,-2.834414840E-1,6.664539576E-1,8.081747293E-1
3.394119756E0,-2.638937831E-1,7.269296646E-1,8.228355050E-1
3.396103452E0,-2.559525371E-1,7.544185519E-1,8.313875794E-1
3.398117534E0,-2.357939780E-1,8.106181622E-1,8.448266387E-1
3.400101231E0,-2.125810981E-1,8.607091308E-1,8.533787727E-1
3.402115160E0,-2.046398520E-1,8.869763613E-1,8.564330935E-1
3.404099779E0,-1.826487035E-1,9.346238375E-1,8.613200188E-1
3.406112938E0,-1.728748679E-1,9.572258592E-1,8.649851680E-1
3.408097635E0,-1.502728462E-1,9.981538057E-1,8.662069440E-1
3.410110870E0,-1.331686229E-1,1.039081812E0,8.655960560E-1
3.412095106E0,-1.240056455E-1,1.058018565E0,8.649851680E-1
3.414109034E0,-1.075122803E-1,1.092837930E0,8.570439219E-1
3.416092654E0,-8.857546002E-2,1.128878951E0,8.497135639E-1
3.418106812E0,-8.307767659E-2,1.145372391E0,8.442157507E-1
3.420089971E0,-6.536258012E-2,1.183246017E0,8.313875794E-1
3.422105053E0,-4.825835302E-2,1.221119642E0,8.191702962E-1
3.424119441E0,-4.153883830E-2,1.240056396E0,8.087855577E-1
3.426103216E0,-2.565634064E-2,1.277930140E0,7.929030657E-1
3.428117374E0,-1.099557430E-2,1.312749386E0,7.770205736E-1
3.430100072E0,-6.108652335E-3,1.332297087E0,7.672467232E-1
3.432114230E0,6.108652335E-3,1.367116451E0,7.501425147E-1
3.434098235E0,1.282817032E-2,1.384220600E0,7.403686643E-1
3.436112086E0,2.565634064E-2,1.415985584E0,7.275404930E-1
3.438095551E0,3.420845419E-2,1.447139740E0,7.098253965E-1
3.440109710E0,4.153883830E-2,1.459967971E0,7.018841505E-1
3.442092792E0,5.192354694E-2,1.487456918E0,6.866125464E-1
3.444107566E0,6.230825558E-2,1.512502313E0,6.731734872E-1
3.446092724E0,6.658431143E-2,1.523497939E0,6.688974500E-1
3.448104806E0,8.063421398E-2,1.540602207E0,6.554583907E-1
3.450120119E0,9.040805697E-2,1.556484699E0,6.475171447E-1
3.452102584E0,9.651670605E-2,1.563814998E0,6.438519955E-1
3.454117666E0,1.081231460E-1,1.572367191E0,6.365215778E-1
3.456101133E0,1.203404516E-1,1.576032281E0,6.316346526E-1
3.458116215E0,1.252273768E-1,1.576643229E0,6.291912198E-1
3.460098373E0,1.337794960E-1,1.573588848E0,6.261368990E-1
3.462113455E0,1.411098689E-1,1.569312811E0,6.194173694E-1
3.464097075E0,1.484402567E-1,1.563814998E0,6.194173694E-1
3.466111617E0,1.557706445E-1,1.552819490E0,6.169738770E-1
3.468095315E0,1.612684280E-1,1.546099901E0,6.145304441E-1
3.470109166E0,1.704314053E-1,1.526552200E0,6.139195561E-1
3.472092556E0,1.863138974E-1,1.502117634E0,6.108652353E-1
3.474106406E0,1.918116808E-1,1.489289522E0,6.096435189E-1
3.476090103E0,2.070833147E-1,1.458135366E0,6.047565937E-1
3.478104262E0,2.186897546E-1,1.423316002E0,6.035348773E-1
3.480117804E0,2.260201424E-1,1.403768301E0,6.029239893E-1
3.482102655E0,2.388483137E-1,1.357953429E0,5.974262357E-1
3.484115276E0,2.590068579E-1,1.274264932E0,5.900958180E-1
3.486097204E0,2.663372457E-1,1.244943380E0,5.870414972E-1
3.488114439E0,2.718350291E-1,1.215011001E0,5.827654600E-1
3.490097751E0,2.803871334E-1,1.145983219E0,5.711590052E-1
3.492112295E0,2.901609838E-1,1.109331250E0,5.656611919E-1
3.494095607E0,3.005456924E-1,1.036027431E0,5.601634383E-1
3.496110150E0,3.158173263E-1,9.602801800E-1,5.455026627E-1
3.498093770E0,3.188716471E-1,9.217956662E-1,5.381723046E-1
3.500107391E0,3.347541690E-1,8.466592431E-1,5.235115290E-1
3.502091395E0,3.408628106E-1,8.081747293E-1,5.155702829E-1
3.504105169E0,3.579670191E-1,7.305948138E-1,4.966334403E-1
3.506120943E0,3.695734739E-1,6.536257863E-1,4.764748812E-1
3.508103332E0,3.781255782E-1,6.163630486E-1,4.660901725E-1
3.510117183E0,3.915646076E-1,5.430592299E-1,4.386012554E-1
3.512101188E0,4.062253833E-1,4.691445231E-1,4.117231667E-1
3.514115655E0,4.123340547E-1,4.343251884E-1,3.952298164E-1
3.516099120E0,4.263839424E-1,3.616322279E-1,3.628539443E-1
3.518113202E0,4.428772926E-1,2.864958048E-1,3.255911767E-1
3.520096361E0,4.483750761E-1,2.528982162E-1,3.103195429E-1
3.522110211E0,4.605923891E-1,1.795943826E-1,2.718350291E-1
3.524095139E0,4.721988440E-1,1.069014147E-1,2.290744632E-1
3.526110144E0,4.789183438E-1,7.024950534E-2,2.083050460E-1
3.528091764E0,4.886921942E-1,-1.221730490E-3,1.673770845E-1
3.530106461E0,4.941899776E-1,-7.086037099E-2,1.264491081E-1
3.532090466E0,4.978551865E-1,-1.050688252E-1,1.062905490E-1
3.534104317E0,5.027421117E-1,-1.704314053E-1,6.414084882E-2
3.536118860E0,5.015203953E-1,-2.009746730E-1,4.459316283E-2
3.538102557E0,5.021312237E-1,-2.602286041E-1,4.276056774E-3
3.540116639E0,4.978551865E-1,-3.176499307E-1,-3.726277873E-2
3.542100027E0,4.984660447E-1,-3.463605940E-1,-5.497787148E-2
3.544115109E0,4.941899776E-1,-3.927863538E-1,-9.346238524E-2
3.546098807E0,4.880813360E-1,-4.355469346E-1,-1.307251602E-1
3.548112965E0,4.880813360E-1,-4.550946057E-1,-1.490511149E-1
3.550095123E0,4.856378734E-1,-4.880813360E-1,-1.826487035E-1
3.552109590E0,4.825835526E-1,-5.131267905E-1,-2.156354338E-1
3.554094518E0,4.795292318E-1,-5.253441334E-1,-2.351831198E-1
3.556107445E0,4.740314186E-1,-5.467243791E-1,-2.651155293E-1
3.558090912E0,4.703662395E-1,-5.564982295E-1,-2.956587672E-1
3.560105609E0,4.654793143E-1,-5.619960427E-1,-3.121521473E-1
3.562118922E0,4.624249935E-1,-5.687155724E-1,-3.371976018E-1
3.564103233E0,4.557054639E-1,-5.748242140E-1,-3.671300113E-1
3.566116700E0,4.532620013E-1,-5.748242140E-1,-3.787364662E-1
3.568101397E0,4.465425014E-1,-5.778785348E-1,-4.031710625E-1
3.570115247E0,4.422664344E-1,-5.791002512E-1,-4.153883755E-1
3.572098252E0,4.355469346E-1,-5.797111392E-1,-4.404338300E-1
3.574112719E0,4.251621962E-1,-5.827654600E-1,-4.612032473E-1
3.576097724E0,4.208861589E-1,-5.827654600E-1,-4.734205604E-1
3.578110574E0,4.105014503E-1,-5.833762884E-1,-4.923573732E-1
3.580093964E0,3.982841372E-1,-5.839871764E-1,-5.051855445E-1
3.582109046E0,3.940080702E-1,-5.809328556E-1,-5.167919993E-1
3.584091511E0,3.848451078E-1,-5.754350424E-1,-5.283984542E-1
3.586106593E0,3.726277947E-1,-5.681046844E-1,-5.442809463E-1
3.588090367E0,3.671300113E-1,-5.638286471E-1,-5.534439087E-1
3.590104526E0,3.543018401E-1,-5.479460955E-1,-5.632177591E-1
3.592118376E0,3.433062732E-1,-5.320636034E-1,-5.748242140E-1
3.594102304E0,3.365867436E-1,-5.192354321E-1,-5.827654600E-1
3.596116540E0,3.262020350E-1,-5.015203953E-1,-5.949827433E-1
3.598099929E0,3.194825351E-1,-4.886921942E-1,-6.047565937E-1
3.600113395E0,3.054326177E-1,-4.667010605E-1,-6.175847650E-1
3.602097170E0,2.889392674E-1,-4.422664344E-1,-6.346889734E-1
3.604112482E0,2.809980214E-1,-4.288274050E-1,-6.420193911E-1
3.606097179E0,2.632829249E-1,-4.025602043E-1,-6.603453159E-1
3.608108799E0,2.419026345E-1,-3.824016452E-1,-6.792821288E-1
3.610093112E0,2.315179259E-1,-3.720169365E-1,-6.878342628E-1
3.612107654E0,2.101376504E-1,-3.506366611E-1,-7.086036801E-1
3.614091351E0,1.875356287E-1,-3.384193480E-1,-7.287622094E-1
3.616105203E0,1.771509200E-1,-3.323107064E-1,-7.379252315E-1
3.618119592E0,1.533271819E-1,-3.225368559E-1,-7.593054771E-1
3.620102750E0,1.319468915E-1,-3.182607889E-1,-7.812966704E-1
3.622117755E0,1.221730486E-1,-3.182607889E-1,-7.910705209E-1
3.624100914E0,1.038470939E-1,-3.170390725E-1,-8.118399382E-1
3.626115379E0,8.735372871E-2,-3.188716471E-1,-8.344419003E-1
3.628098154E0,7.880161703E-2,-3.188716471E-1,-8.411614299E-1
3.630112543E0,6.291911751E-2,-3.255911767E-1,-8.594874144E-1
3.632096625E0,5.314527452E-2,-3.249803185E-1,-8.717046976E-1
3.634110475E0,3.970624134E-2,-3.292563558E-1,-8.900306821E-1
3.636093557E0,2.626720630E-2,-3.310889602E-1,-9.065240026E-1
3.638108332E0,1.832595654E-2,-3.298672438E-1,-9.144652486E-1
3.640092336E0,6.108652335E-3,-3.298672438E-1,-9.297369123E-1
3.642105802E0,-6.108652335E-3,-3.268128932E-1,-9.443976879E-1
3.644120576E0,-1.099557430E-2,-3.262020350E-1,-9.535606503E-1
3.646103966E0,-2.382374369E-2,-3.225368559E-1,-9.645562172E-1
3.648117893E0,-3.359758854E-2,-3.182607889E-1,-9.761626720E-1
3.650101590E0,-3.787364438E-2,-3.158173263E-1,-9.798278809E-1
3.652115749E0,-4.459316283E-2,-3.097086847E-1,-9.944885969E-1
3.654099753E0,-5.436700583E-2,-3.072652221E-1,-1.002429843E0
3.656114143E0,-5.864306539E-2,-3.048217595E-1,-1.006705880E0
3.658097532E0,-6.597344577E-2,-3.042109013E-1,-1.015868902E0
3.660111691E0,-7.086037099E-2,-3.048217595E-1,-1.025031924E0
3.662095695E0,-7.391469181E-2,-3.023782969E-1,-1.029918790E0
3.664109546E0,-7.696902007E-2,-3.048217595E-1,-1.038470864E0
3.666094475E0,-7.880161703E-2,-3.072652221E-1,-1.043357849E0
3.668106863E0,-8.368854225E-2,-3.103195429E-1,-1.052520871E0
3.670091099E0,-8.429940045E-2,-3.121521473E-1,-1.056796908E0
3.672105258E0,-8.735372871E-2,-3.084869385E-1,-1.058629513E0
3.674118878E0,-9.040805697E-2,-3.109304011E-1,-1.065959811E0
3.676102498E0,-9.224065393E-2,-3.097086847E-1,-1.070235968E0
3.678117656E0,-9.651670605E-2,-3.078760803E-1,-1.072679400E0
3.680101046E0,-9.834930301E-2,-3.054326177E-1,-1.077566266E0
3.682114819E0,-1.044579595E-1,-3.005456924E-1,-1.079398870E0
3.684099440E0,-1.056796908E-1,-2.981022298E-1,-1.079398870E0
3.686114598E0,-1.111774743E-1,-2.895501256E-1,-1.080009699E0
3.688095527E0,-1.166752651E-1,-2.816088796E-1,-1.077566266E0
3.690110223E0,-1.191187203E-1,-2.779437006E-1,-1.075733662E0
3.692094613E0,-1.258382350E-1,-2.651155293E-1,-1.073290229E0
3.694108694E0,-1.368338168E-1,-2.583959997E-1,-1.066570759E0
3.696092160E0,-1.417207420E-1,-2.541199327E-1,-1.062905550E0
3.698105627E0,-1.569923609E-1,-2.437352389E-1,-1.051909924E0
3.700119862E0,-1.618792862E-1,-2.364048511E-1,-1.047633886E0
3.702104406E0,-1.814269722E-1,-2.254092693E-1,-1.038470864E0
3.704118025E0,-2.003637999E-1,-2.125810981E-1,-1.023810148E0
3.706103261E0,-2.095267773E-1,-2.052507252E-1,-1.016479731E0
3.708116112E0,-2.272418737E-1,-1.893682331E-1,-1.001819015E0
3.710098885E0,-2.461786866E-1,-1.716531366E-1,-9.834930301E-1
3.712114275E0,-2.565633953E-1,-1.594358236E-1,-9.767735004E-1
3.714097126E0,-2.724458873E-1,-1.411098689E-1,-9.590584636E-1
3.716111593E0,-2.864958048E-1,-1.178969890E-1,-9.370672703E-1
3.718095289E0,-2.944370508E-1,-1.062905490E-1,-9.254608750E-1
3.720109063E0,-3.084869385E-1,-8.368854225E-2,-9.059131742E-1
3.722092530E0,-3.243694305E-1,-6.169738993E-2,-8.820894361E-1
3.724106688E0,-3.426954150E-1,-2.993239649E-2,-8.491026759E-1
3.726087923E0,-3.426954150E-1,-2.993239649E-2,-8.491026759E-1
3.728105467E0,-3.481931984E-1,-1.954768784E-2,-8.374962807E-1
3.730119626E0,-3.579670191E-1,-2.443460980E-3,-8.136724830E-1
3.732103553E0,-3.671300113E-1,1.282817032E-2,-7.886270285E-1
3.734117481E0,-3.683517575E-1,1.893682219E-2,-7.776314616E-1
3.736100563E0,-3.799581826E-1,3.176499158E-2,-7.562511563E-1
3.738114721E0,-3.860668242E-1,3.909537569E-2,-7.324274182E-1
3.740098110E0,-3.903428912E-1,4.276056588E-2,-7.202101350E-1
3.742113808E0,-3.909537494E-1,5.375614017E-2,-6.982190013E-1
3.744096504E0,-3.927863538E-1,5.742133409E-2,-6.774495840E-1
3.746111047E0,-3.897320330E-1,5.925392732E-2,-6.652322412E-1
3.748094052E0,-3.885102868E-1,6.047565863E-2,-6.456845403E-1
3.750108519E0,-3.860668242E-1,5.742133409E-2,-6.230825782E-1
3.752091677E0,-3.817907870E-1,5.681046844E-2,-6.126978397E-1
3.754106374E0,-3.775147200E-1,5.314527452E-2,-5.919284225E-1
3.756088918E0,-3.720169365E-1,5.009094998E-2,-5.717698932E-1
3.758104229E0,-3.652974069E-1,4.825835302E-2,-5.607742667E-1
3.760117542E0,-3.597996235E-1,4.459316283E-2,-5.393940210E-1
3.762101239E0,-3.561344445E-1,4.276056588E-2,-5.308418870E-1
3.764116244E0,-3.426954150E-1,3.970624134E-2,-5.082398653E-1
3.766101248E0,-3.316998184E-1,3.298672289E-2,-4.844161272E-1
3.768112946E0,-3.304781020E-1,3.115412779E-2,-4.746423066E-1
3.770097566E0,-3.194825351E-1,2.993239649E-2,-4.502076805E-1
3.772112262E0,-3.145956099E-1,2.748893574E-2,-4.269948006E-1
3.774095344E0,-3.158173263E-1,2.809980139E-2,-4.141666293E-1
3.776109580E0,-3.170390725E-1,3.176499158E-2,-3.897320330E-1
3.778092662E0,-3.268128932E-1,4.337143153E-2,-3.677408695E-1
3.780107050E0,-3.341432810E-1,4.948008433E-2,-3.555235863E-1
3.782091748E0,-3.445279896E-1,6.414084882E-2,-3.310889602E-1
3.784105291E0,-3.610213697E-1,8.491026610E-2,-3.029891551E-1
3.786119988E0,-3.695734739E-1,9.957103431E-2,-2.913827300E-1
3.788102762E0,-3.842342496E-1,1.301143020E-1,-2.651155293E-1
3.790116921E0,-3.976732790E-1,1.655444801E-1,-2.382374406E-1
3.792101003E0,-4.025602043E-1,1.844813079E-1,-2.254092693E-1
3.794114776E0,-4.117231667E-1,2.284636050E-1,-2.015855312E-1
3.796098165E0,-4.202753007E-1,2.528982162E-1,-1.887573600E-1
3.798112017E0,-4.306600094E-1,3.005456924E-1,-1.624901593E-1
3.800096098E0,-4.428772926E-1,3.555235863E-1,-1.392772794E-1
3.802109872E0,-4.502076805E-1,3.811798990E-1,-1.264491081E-1
3.804095184E0,-4.618141353E-1,4.306600094E-1,-1.007927656E-1
3.806108113E0,-4.770857692E-1,4.783074856E-1,-7.269296050E-2
3.808091809E0,-4.807509482E-1,5.033529401E-1,-5.742133409E-2
3.810106275E0,-4.948008358E-1,5.448917747E-1,-2.871066704E-2
3.812119819E0,-5.009095073E-1,5.748242140E-1,1.221730490E-3
3.814103746E0,-5.021312237E-1,5.913175344E-1,1.649336144E-2
3.816117905E0,-5.076290369E-1,6.120869517E-1,5.131268129E-2
3.818102217E0,-5.125159621E-1,6.267477274E-1,8.246681094E-2
3.820115530E0,-5.131267905E-1,6.279694438E-1,1.001819000E-1
3.822099534E0,-5.180137157E-1,6.273586154E-1,1.319468915E-1
3.824114232E0,-5.229006410E-1,6.194173694E-1,1.655444801E-1
3.826097621E0,-5.259549618E-1,6.114761233E-1,1.820378453E-1
3.828110933E0,-5.332853794E-1,5.937610269E-1,2.174680233E-1
3.830094630E0,-5.375614166E-1,5.809328556E-1,2.315179259E-1
3.832108712E0,-5.424483418E-1,5.491678715E-1,2.651155293E-1
3.834092717E0,-5.442809463E-1,5.155702829E-1,2.987131178E-1
3.836106644E0,-5.430592299E-1,4.935791194E-1,3.127630055E-1
3.838089957E0,-5.412266254E-1,4.514294267E-1,3.433062732E-1
3.840104808E0,-5.369505286E-1,4.025602043E-1,3.714060783E-1
3.842118581E0,-5.357288122E-1,3.744603992E-1,3.860668242E-1
3.844103202E0,-5.320636034E-1,3.207042515E-1,4.117231667E-1
3.846118899E0,-5.296201706E-1,2.681698501E-1,4.392121136E-1
3.848099904E0,-5.308418870E-1,2.425135076E-1,4.502076805E-1
3.850114985E0,-5.314527750E-1,1.936442852E-1,4.709770977E-1
3.852098682E0,-5.320636034E-1,1.472185254E-1,4.880813360E-1
3.854112149E0,-5.265658498E-1,1.215621829E-1,4.960225821E-1
3.856096153E0,-5.265658498E-1,8.063421398E-2,5.106833577E-1
3.858110619E0,-5.210680366E-1,6.108652428E-2,5.167919993E-1
3.860094009E0,-5.125159621E-1,2.809980139E-2,5.283984542E-1
3.862108783E0,-4.990769029E-1,0.000000000E0,5.369505286E-1
3.864092556E0,-4.941899776E-1,-1.099557430E-2,5.363397002E-1
3.866106100E0,-4.838052690E-1,-3.054326214E-2,5.387831330E-1
3.868120182E0,-4.709770977E-1,-4.581489414E-2,5.345070958E-1
3.870103263E0,-4.624249935E-1,-5.070181563E-2,5.338962078E-1
3.872117806E0,-4.495968223E-1,-5.803219974E-2,5.271766782E-1
3.874101503E0,-4.398229718E-1,-5.925392732E-2,5.192354321E-1
3.876115585E0,-4.337143302E-1,-5.925392732E-2,5.155702829E-1
3.878099897E0,-4.233296216E-1,-5.803219974E-2,5.088507533E-1
3.880113441E0,-4.135557711E-1,-5.497787148E-2,5.021312237E-1
3.882096292E0,-4.086688459E-1,-5.436700583E-2,4.954117239E-1
3.884111988E0,-3.952298164E-1,-4.459316283E-2,4.899139404E-1
3.886094762E0,-3.799581826E-1,-3.970624134E-2,4.880813360E-1
3.888109229E0,-3.744603992E-1,-3.481931984E-2,4.831944108E-1
3.890092848E0,-3.591887653E-1,-2.809980139E-2,4.831944108E-1
3.892107315E0,-3.518583775E-1,-2.382374369E-2,4.844161272E-1
3.894090474E0,-3.359758854E-1,-1.527163107E-2,4.874704778E-1
3.896104863E0,-3.243694305E-1,-3.054326167E-3,4.948008358E-1
3.898119021E0,-3.194825351E-1,2.443460980E-3,4.990769029E-1
3.900102411E0,-3.054326177E-1,1.771509275E-2,5.119050741E-1
3.902117800E0,-2.950479090E-1,3.726277873E-2,5.271766782E-1
3.904100575E0,-2.883284092E-1,4.948008433E-2,5.345070958E-1
3.906114809E0,-2.803871334E-1,7.330382615E-2,5.497786999E-1
3.908098122E0,-2.730567753E-1,1.056796908E-1,5.699372888E-1
3.910112665E0,-2.712241709E-1,1.172861308E-1,5.791002512E-1
3.912095746E0,-2.651155293E-1,1.539380401E-1,5.998696685E-1
3.914110751E0,-2.590068579E-1,1.863138974E-1,6.188064814E-1
3.916093526E0,-2.547308207E-1,2.064724565E-1,6.291912198E-1
3.918107685E0,-2.480112910E-1,2.406809032E-1,6.475171447E-1
3.920092304E0,-2.357939780E-1,2.748893499E-1,6.664539576E-1
3.922105617E0,-2.278527319E-1,2.895501256E-1,6.737843752E-1
3.924120929E0,-2.156354338E-1,3.213151097E-1,6.878342628E-1
3.926104626E0,-2.089159191E-1,3.353650272E-1,6.939429045E-1
3.928117323E0,-1.985312104E-1,3.628539443E-1,7.037167549E-1
3.930101943E0,-1.863138974E-1,3.848451078E-1,7.092145681E-1
3.932114871E0,-1.820378453E-1,3.995058835E-1,7.110471725E-1
3.934099106E0,-1.692096740E-1,4.184426963E-1,7.122688890E-1
3.936112957E0,-1.643227488E-1,4.386012554E-1,7.073819637E-1
3.938097270E0,-1.582140923E-1,4.483750761E-1,7.061602473E-1
3.940110812E0,-1.521054506E-1,4.648684561E-1,6.963863969E-1
3.942095817E0,-1.533271819E-1,4.868595898E-1,6.884451509E-1
3.944109284E0,-1.527163088E-1,5.002986193E-1,6.835582256E-1
3.946093288E0,-1.533271819E-1,5.332853794E-1,6.695083380E-1
3.948106601E0,-1.478293836E-1,5.687155724E-1,6.572909951E-1
3.950120452E0,-1.441642046E-1,5.907067060E-1,6.517932415E-1
3.952104765E0,-1.301143020E-1,6.444628239E-1,6.456845403E-1
3.954118230E0,-1.142318025E-1,7.079927921E-1,6.359107494E-1
3.956102004E0,-1.014036313E-1,7.415903807E-1,6.334672570E-1
3.958116471E0,-8.429940045E-2,8.155050874E-1,6.285803318E-1
3.960099783E0,-7.574728876E-2,8.515461683E-1,6.255260110E-1
3.962113634E0,-6.169738993E-2,9.297369123E-1,6.224716902E-1
3.964097023E0,-4.276056588E-2,1.042747021E0,6.151412725E-1
3.966112490E0,-4.276056588E-2,1.042747021E0,6.151412725E-1
