"Time (s)","Linear Acceleration x (m/s^2)","Linear Acceleration y (m/s^2)","Linear Acceleration z (m/s^2)"
1.810502300E-2,1.114919782E-3,1.657009125E-2,-4.382801056E-2
2.610158000E-2,1.337306201E-2,-1.097989082E-2,-2.337551117E-2
3.409613800E-2,-2.786795795E-2,-4.844951630E-2,5.561542511E-2
4.209154100E-2,-6.873483956E-2,-1.075243950E-2,5.367946625E-2
5.008694500E-2,-9.733647108E-2,-1.217126846E-3,9.774208069E-2
5.808265600E-2,-1.372029483E-1,1.987051964E-2,1.448202133E-1
6.611029000E-2,-1.518194377E-1,1.799535751E-2,1.818895340E-1
7.410384700E-2,-1.501413882E-1,-9.325504303E-3,2.360992432E-1
8.209902000E-2,-1.385754049E-1,-3.381538391E-2,1.917734146E-1
9.009650100E-2,-1.677640080E-1,-1.904225349E-2,1.805772781E-1
9.809190400E-2,-1.452877820E-1,1.876044273E-2,1.700696945E-1
1.060885390E-1,-1.608976424E-1,4.975962639E-2,1.421384811E-1
1.140827880E-1,-2.080073357E-1,6.868314743E-2,1.093854904E-1
1.221080370E-1,-2.077477872E-1,9.022688866E-2,8.802700043E-2
1.301052100E-1,-1.670415998E-1,1.142337322E-1,8.231925964E-2
1.380996910E-1,-1.700275540E-1,1.176507473E-1,8.826923370E-2
1.460967100E-1,-1.017800570E-1,1.126070023E-1,5.895328522E-2
1.540921130E-1,1.344645023E-2,1.027922630E-1,4.813289642E-2
1.620874400E-1,8.199039102E-2,8.151507378E-2,1.110076904E-2
1.700831500E-1,1.399419308E-1,6.046676636E-2,-6.146049500E-2
1.781087080E-1,1.590097547E-1,8.517003059E-2,-9.853172302E-2
1.861053420E-1,1.832919717E-1,9.038257599E-2,-1.046266556E-1
1.941001300E-1,1.508772969E-1,8.895683289E-2,-1.126966476E-1
2.020952260E-1,1.124099791E-1,9.318757057E-2,-9.693145752E-2
2.100910150E-1,3.807911277E-2,6.010270119E-2,-8.431529999E-2
2.180869570E-1,-5.979177356E-2,2.655100822E-2,-6.496334076E-2
2.260836670E-1,-1.168356240E-1,4.535102844E-2,-2.359676361E-2
2.341091480E-1,-1.317520142E-1,3.639340401E-2,-4.894256592E-3
2.421046280E-1,-1.258842647E-1,3.785681725E-2,-4.095172882E-2
2.500997240E-1,-8.268141747E-2,5.751466751E-2,-8.252239227E-2
2.580956660E-1,-3.811842203E-2,6.182956696E-2,-3.878879547E-2
2.660923010E-1,4.622957110E-2,9.261250496E-2,-7.026672363E-3
2.740867810E-1,7.726326585E-2,7.245922089E-2,-6.004047394E-2
2.820821840E-1,6.237134337E-2,5.723381042E-2,-1.071720123E-1
2.901089720E-1,4.213431478E-2,4.814124107E-2,-1.038045883E-1
2.981044530E-1,2.790275216E-2,3.973770142E-2,-8.711147308E-2
3.061001640E-1,6.254324317E-2,4.591774940E-2,-6.224727631E-2
3.140955680E-1,5.997675657E-2,5.697393417E-2,-2.018356323E-2
3.220908940E-1,4.294911027E-2,4.678225517E-2,4.113483429E-2
3.300869900E-1,-1.466578245E-2,-1.115393639E-2,1.631546021E-2
3.380830080E-1,-7.467627525E-3,-2.599239349E-2,2.023887634E-2
3.461091810E-1,-4.297578335E-2,-3.618645668E-2,-5.248069763E-2
3.541036620E-1,-6.870940328E-2,-2.216267586E-2,-6.523990631E-2
3.700953920E-1,-5.319029093E-3,-1.755499840E-2,-5.227470398E-2
3.780910260E-1,3.527948260E-2,-5.092644691E-2,-6.729125977E-2
3.860877370E-1,3.471702337E-2,-5.055332184E-2,-1.085901260E-1
3.940818330E-1,5.289441347E-2,-4.265332222E-2,-1.306371689E-1
4.021077750E-1,6.575417519E-2,-3.449082375E-2,-1.238918304E-1
4.101037170E-1,5.655357242E-2,-2.141618729E-2,-1.267061234E-1
4.180997360E-1,5.623698235E-2,-4.135918617E-2,-9.586811066E-2
4.260966780E-1,3.877145052E-2,-3.452897072E-2,-1.032066345E-1
4.340915430E-1,4.103231430E-2,-3.451609612E-2,-1.056032181E-1
4.420860230E-1,3.251987696E-2,-7.722616196E-3,-9.581565857E-2
4.500823490E-1,5.166676641E-2,-1.891708374E-2,-8.345603943E-2
4.581079070E-1,1.005395353E-1,1.805496216E-2,-1.068592072E-1
4.661050800E-1,1.047131419E-1,2.910876274E-2,-1.564140320E-1
4.740998680E-1,1.095491052E-1,9.529829025E-3,-1.818199158E-1
4.820949640E-1,1.095923781E-1,-9.465217590E-3,-1.854763031E-1
4.900909830E-1,9.931543469E-2,-1.801609993E-2,-1.361999512E-1
4.980860780E-1,4.735735059E-2,-5.941891670E-2,-1.178712845E-1
5.061138660E-1,1.967787743E-3,-9.788155556E-2,-6.347084045E-2
5.141082700E-1,-1.512432098E-2,-1.190841198E-1,-7.595729828E-2
5.221034430E-1,-3.965169191E-2,-1.375472546E-1,-9.312248230E-2
5.300994620E-1,-1.871830225E-2,-1.771383286E-1,-8.619880676E-2
5.380948650E-1,-4.864871502E-3,-2.139792442E-1,-1.294202805E-1
5.460911150E-1,1.420170069E-2,-2.072489262E-1,-2.203311920E-1
5.540862870E-1,1.027607918E-2,-1.880693436E-1,-2.774963379E-1
5.621123830E-1,3.101050854E-2,-1.420652866E-1,-3.488092422E-1
5.701087100E-1,5.441319942E-2,-9.075570107E-2,-3.576660156E-1
5.781038060E-1,6.824901700E-2,-6.782960892E-2,-3.424491882E-1
5.861005170E-1,5.580872297E-2,-3.046441078E-2,-2.936716080E-1
5.940953050E-1,1.024520397E-2,-2.672362328E-2,-2.448987961E-1
6.020900150E-1,-2.567398548E-2,-3.966498375E-2,-1.841106415E-1
6.100867270E-1,-9.052240849E-2,-9.072875977E-2,-1.304397583E-1
6.181119770E-1,-9.537249804E-2,-1.272203922E-1,-7.188701630E-2
6.261091490E-1,-5.669087172E-2,-1.901192665E-1,-3.965568542E-2
6.341033990E-1,-2.177143097E-2,-2.194764614E-1,-3.606987000E-2
6.420981870E-1,-3.086745739E-2,-1.987452507E-1,-4.202365875E-2
6.500953600E-1,-3.609567881E-2,-2.089707851E-1,-7.174873352E-2
6.580908400E-1,-2.104532719E-2,-1.739318371E-1,-9.906864166E-2
6.660870900E-1,1.636826992E-2,-1.749305725E-1,-1.790323257E-1
6.741118010E-1,8.712303638E-2,-2.114078999E-1,-2.013645172E-1
6.821071280E-1,1.375935078E-1,-2.378563881E-1,-1.948566437E-1
6.901041470E-1,1.456459761E-1,-2.588260174E-1,-2.001619339E-1
6.980991660E-1,1.494064331E-1,-2.625198364E-1,-2.077856064E-1
7.060952620E-1,2.184077501E-1,-2.536630630E-1,-2.464265823E-1
7.140905870E-1,3.021281064E-1,-2.465291023E-1,-3.471956253E-1
7.220854530E-1,4.073999524E-1,-2.384810448E-1,-4.118623734E-1
7.301128560E-1,4.957402050E-1,-2.267696857E-1,-4.762153625E-1
7.381070290E-1,5.660629272E-1,-1.957168579E-1,-5.597143173E-1
7.461039710E-1,6.413932443E-1,-1.361949444E-1,-6.241168976E-1
7.540989900E-1,6.601611972E-1,-1.237702370E-2,-6.598310471E-1
7.620947780E-1,6.085180044E-1,9.205365181E-2,-6.332645416E-1
7.700904120E-1,5.841283798E-1,1.388282776E-1,-5.109167099E-1
7.780862000E-1,5.316488743E-1,1.284461021E-1,-3.788108826E-1
7.861126810E-1,4.146082699E-1,7.788872719E-2,-2.608356476E-1
7.941074690E-1,2.789980173E-1,2.584624290E-2,-2.046928406E-1
8.021028730E-1,1.658988893E-1,-5.630207062E-2,-2.126998901E-1
8.100991990E-1,1.261813045E-1,-1.230781078E-1,-2.752361298E-1
8.180946020E-1,1.715148389E-1,-1.528089046E-1,-3.443813324E-1
8.260912360E-1,3.050710261E-1,-9.055352211E-2,-3.771953583E-1
8.340856400E-1,3.693426549E-1,-1.780343056E-2,-3.068037033E-1
8.421115050E-1,3.398981690E-1,1.195929050E-1,-2.437381744E-1
8.501079090E-1,2.096745968E-1,1.705207825E-1,-1.663837433E-1
8.581030050E-1,6.290119886E-2,1.754729748E-1,-8.659553528E-2
8.660993310E-1,-1.376519203E-1,1.085498333E-1,1.131954193E-1
8.740938110E-1,-3.018256426E-1,2.049279213E-2,2.655363083E-1
8.820895220E-1,-4.308080077E-1,-9.316110611E-2,3.369655609E-1
8.900857720E-1,-4.779441953E-1,-1.582479477E-1,4.231433868E-1
8.981119450E-1,-4.954786301E-1,-2.188248634E-1,4.614601135E-1
9.061082720E-1,-5.162243247E-1,-2.518067360E-1,5.641355515E-1
9.141033680E-1,-5.626287460E-1,-1.642243862E-1,4.773311615E-1
9.220982330E-1,-5.491603017E-1,-2.553963661E-2,5.531330109E-1
9.300944820E-1,-5.513631105E-1,1.247200966E-1,6.139602661E-1
9.380896540E-1,-5.913980007E-1,2.759144306E-1,6.425752640E-1
9.460862890E-1,-7.041600347E-1,3.167519569E-1,7.064666748E-1
9.541118460E-1,-8.177199364E-1,3.225638866E-1,7.269172668E-1
9.621066350E-1,-9.649201632E-1,3.156788349E-1,7.472028732E-1
9.701032690E-1,-1.063456297E0,3.009037971E-1,7.264699936E-1
9.780982880E-1,-1.144070387E0,2.523219585E-1,8.154926300E-1
9.860949980E-1,-1.146551609E0,2.344853878E-1,8.918571472E-1
9.940903250E-1,-1.089914918E0,2.380726337E-1,9.864883423E-1
1.002085113E0,-1.010967731E0,2.727832794E-1,9.939432144E-1
1.010111901E0,-9.967114925E-1,3.120968342E-1,9.190816879E-1
1.018107613E0,-9.678983688E-1,3.303897381E-1,9.277153015E-1
1.026103324E0,-1.004650116E0,4.105880260E-1,7.780780792E-1
1.034098804E0,-1.107674003E0,4.518141747E-1,6.740055084E-1
1.042093592E0,-1.176804900E0,3.849499226E-1,7.068481445E-1
1.050090457E0,-1.157246947E0,3.071238995E-1,7.205047607E-1
1.058085553E0,-1.148375154E0,2.405731678E-1,7.795095444E-1
1.066112341E0,-1.125980854E0,2.281830311E-1,7.159252167E-1
1.074107130E0,-1.090867043E0,3.079185486E-1,5.630197525E-1
1.082102226E0,-9.855839014E-1,4.338607788E-1,4.235506058E-1
1.090098628E0,-8.189940453E-1,5.588271618E-1,4.628152847E-1
1.098093955E0,-6.351654530E-1,6.634011269E-1,5.943899155E-1
1.106089743E0,-5.531852245E-1,7.335908413E-1,7.535810471E-1
1.114085378E0,-5.415884256E-1,7.486655712E-1,9.527750015E-1
1.122111320E0,-6.192628145E-1,7.064938545E-1,1.005676270E0
1.130107339E0,-7.214697599E-1,6.454200745E-1,9.964027405E-1
1.138102127E0,-7.058019638E-1,5.558276176E-1,1.008867264E0
1.146099299E0,-6.131579876E-1,5.161535740E-1,9.805479050E-1
1.154093856E0,-4.802490473E-1,4.904863834E-1,9.257202148E-1
1.162088644E0,-3.743378520E-1,5.429899693E-1,8.752832413E-1
1.170084971E0,-2.811708450E-1,6.660928726E-1,8.506107330E-1
1.178111144E0,-3.020547628E-1,7.217710018E-1,9.238176346E-1
1.186107394E0,-3.388729095E-1,7.223753929E-1,9.633932114E-1
1.194102797E0,-3.087009192E-1,5.904586315E-1,1.156672478E0
1.202097662E0,-2.672266364E-1,3.742215633E-1,1.218832016E0
1.210093681E0,-1.837682128E-1,1.605753899E-1,1.375215530E0
1.218089392E0,-1.167106032E-1,1.863384247E-2,1.446068764E0
1.226085949E0,-4.265999794E-2,-4.914712906E-2,1.527184486E0
1.234110968E0,2.907222509E-2,-4.984188080E-2,1.450088501E0
1.242105757E0,1.091554165E-1,-6.119012833E-2,1.362891197E0
1.250102390E0,1.736268103E-1,-1.138556004E-1,1.280210495E0
1.258098101E0,2.603661418E-1,-2.289059162E-1,1.326783180E0
1.266094659E0,3.326534629E-1,-4.370734692E-1,1.349572182E0
1.274089447E0,3.721280694E-1,-7.285518646E-1,1.442065239E0
1.282083697E0,3.922332227E-1,-9.260253906E-1,1.376976967E0
1.290111024E0,4.437925220E-1,-1.096297741E0,1.178545952E0
1.298106812E0,4.929187298E-1,-1.198289394E0,9.356956482E-1
1.306102830E0,5.085204840E-1,-1.299413919E0,7.394523621E-1
1.314097541E0,5.542119741E-1,-1.435773611E0,7.551631927E-1
1.322092945E0,5.636670589E-1,-1.612214327E0,1.026175499E0
1.330089579E0,4.631260931E-1,-1.807515144E0,9.875831604E-1
1.338084983E0,3.903772831E-1,-1.876445770E0,5.085201263E-1
1.346112156E0,4.632289410E-1,-1.802693129E0,-2.067947388E-1
1.354105944E0,5.089652538E-1,-1.785448074E0,-4.095106125E-1
1.362102270E0,4.941573143E-1,-1.882464647E0,-1.610498428E-1
1.370098058E0,2.197074294E-1,-2.004794121E0,-1.401252747E-1
1.378093154E0,-1.626233459E-1,-2.074644089E0,-3.391761780E-1
1.386089481E0,-6.149697304E-1,-1.970729828E0,-9.502601624E-1
1.394085192E0,-9.784911275E-1,-1.655945539E0,-1.621377468E0
1.402110442E0,-1.551927567E0,-1.158808708E0,-2.112318993E0
1.410106384E0,-2.234805584E0,-7.073006630E-1,-2.428011417E0
1.418101863E0,-2.700956821E0,-3.417067528E-1,-2.887931347E0
1.426098421E0,-3.166292667E0,1.570415497E-2,-2.868897438E0
1.434093825E0,-3.392565727E0,1.397900581E-1,-2.213734627E0
1.442088613E0,-3.393131971E0,2.648730278E-1,-1.817952633E0
1.450114863E0,-3.287273407E0,4.670433998E-1,-1.244946480E0
1.458110497E0,-3.229579926E0,8.571438789E-1,-5.593118668E-1
1.466107207E0,-3.281816721E0,1.384468079E0,-3.576183319E-2
1.474102226E0,-3.304308414E0,1.829903603E0,3.569469452E-1
1.482097092E0,-3.160871983E0,2.336019039E0,5.307960510E-1
1.490092495E0,-2.958681822E0,2.637960672E0,4.706935883E-1
1.498088514E0,-2.696724415E0,2.891219139E0,2.068004608E-1
1.506114918E0,-2.496173143E0,2.998536587E0,1.966075897E-1
1.514110091E0,-2.292203188E0,3.000008106E0,2.958927155E-1
1.522105416E0,-1.887345314E0,2.911661625E0,4.430055618E-1
1.530102435E0,-1.424848557E0,2.779361010E0,8.042640686E-1
1.538097454E0,-7.584035993E-1,2.657263041E0,9.282665253E-1
1.546093473E0,-5.219326913E-2,2.497284174E0,9.064292908E-1
1.554087954E0,7.672110796E-1,2.200496197E0,1.066796303E0
1.562113588E0,1.606690288E0,1.778164148E0,1.101901054E0
1.570110454E0,2.250150919E0,1.283806562E0,1.128687859E0
1.578105241E0,2.930779219E0,6.936359406E-1,1.159914970E0
1.586102183E0,3.530140638E0,1.305589676E-1,9.442262650E-1
1.594097048E0,4.204575062E0,-3.275995255E-1,2.586116791E-1
1.602092452E0,4.772972584E0,-7.004318237E-1,-3.480491638E-1
1.610088778E0,5.052418232E0,-9.869019985E-1,-9.422817230E-1
1.618114567E0,5.226729393E0,-1.236781836E0,-1.396085739E0
1.626111201E0,5.103531837E0,-1.472629070E0,-1.697997570E0
1.634105988E0,4.860790253E0,-1.729219198E0,-1.866462231E0
1.642100777E0,4.614526749E0,-1.960434914E0,-1.867391586E0
1.650097180E0,4.451121330E0,-2.097141981E0,-1.997808456E0
1.658093122E0,4.444538116E0,-2.238226414E0,-2.032007217E0
1.666088526E0,4.504426003E0,-2.311934948E0,-2.076718807E0
1.674115007E0,4.548925877E0,-2.411948919E0,-2.159655571E0
1.682109563E0,4.386011124E0,-2.502929926E0,-2.550019741E0
1.690106120E0,3.945019722E0,-2.625626087E0,-2.984335899E0
1.698101524E0,3.292960644E0,-2.720819473E0,-3.212035656E0
1.706097620E0,2.654991865E0,-2.843936443E0,-2.897186756E0
1.714092331E0,1.888231993E0,-3.104155064E0,-2.289206028E0
1.722087504E0,1.239021301E0,-3.254966021E0,-2.002870083E0
1.730114600E0,7.466371059E-1,-3.430644274E0,-1.838399887E0
1.738110541E0,3.862855434E-1,-3.646221638E0,-1.630405426E0
1.746106560E0,4.030799866E-2,-3.805737972E0,-1.519076347E0
1.754101118E0,-2.303647995E-1,-3.947727203E0,-1.288684368E0
1.762096521E0,-4.443743229E-1,-3.902545452E0,-1.218233585E0
1.770092771E0,-6.306478977E-1,-3.621053219E0,-1.187741280E0
1.778088483E0,-6.685404778E-1,-3.279407978E0,-1.166122913E0
1.786115040E0,-6.269929409E-1,-2.849865437E0,-1.291355133E0
1.794110366E0,-5.989286900E-1,-2.424784660E0,-1.363731861E0
1.810101481E0,-1.001622915E0,-1.932654858E0,-1.210375786E0
1.818096654E0,-1.458148003E0,-1.787683010E0,-1.133428097E0
1.826092980E0,-1.977667451E0,-1.623669147E0,-6.050887108E-1
1.834088076E0,-2.342422009E0,-1.415634155E0,8.316516876E-3
1.842113864E0,-2.645735264E0,-1.179934025E0,3.049998283E-1
1.850109652E0,-2.772943735E0,-7.888712883E-1,5.887131691E-1
1.858105671E0,-2.867222071E0,-4.384527206E-1,8.370523453E-1
1.866102228E0,-3.069921255E0,-2.066087723E-2,1.081936836E0
1.874097016E0,-3.230514526E0,3.126282692E-1,1.120072365E0
1.882091574E0,-3.396980524E0,7.002229691E-1,9.279313087E-1
1.884107886E0,-3.322013855E0,8.266811371E-1,9.489827156E-1
1.886089660E0,-3.360321045E0,8.697767258E-1,9.537711143E-1
1.888104819E0,-3.439329624E0,9.463911057E-1,8.963103294E-1
1.890088439E0,-3.513549805E0,1.039765358E0,7.502636909E-1
1.898113688E0,-3.509109735E0,1.214185715E0,3.786211014E-1
1.906109707E0,-3.370465994E0,1.263463974E0,1.651182175E-1
1.914105418E0,-3.041510105E0,1.238198280E0,2.086777687E-1
1.922100591E0,-2.468595028E0,1.190717220E0,4.360980988E-1
1.930097533E0,-1.699653864E0,1.204668999E0,9.258995056E-1
1.938091937E0,-9.807311296E-1,1.308805943E0,1.320362091E0
1.946088879E0,-3.012534380E-1,1.509863377E0,1.814306736E0
1.954113897E0,3.808414936E-2,1.693727970E0,1.952083111E0
1.962108993E0,2.409105301E-1,1.827203274E0,1.823890209E0
1.970105320E0,3.072013855E-1,1.883673191E0,1.617190361E0
1.978101262E0,2.786942720E-1,1.827004910E0,1.364297390E0
1.986097281E0,3.658500910E-1,1.701113224E0,1.033066750E0
1.994091838E0,5.194984674E-1,1.621725559E0,7.585968971E-1
2.002087550E0,8.805370331E-1,1.452687263E0,5.856509209E-1
2.010113952E0,1.247905612E0,1.260279179E0,4.359607697E-1
2.018109125E0,1.722378969E0,1.094404697E0,-2.724933624E-2
2.026105990E0,2.358769655E0,9.421148300E-1,-4.628839493E-1
2.034101163E0,2.921749353E0,8.278169632E-1,-1.042189121E0
2.042095951E0,3.411512136E0,7.208552361E-1,-1.264296055E0
2.050092201E0,3.585789680E0,5.879578590E-1,-1.177838326E0
2.058087373E0,3.454671860E0,4.271159172E-1,-7.785029411E-1
2.066114084E0,2.995557308E0,2.156848907E-1,-2.528057098E-1
2.074109180E0,2.066657066E0,6.010055542E-3,3.900051117E-2
2.082104584E0,8.978585005E-1,-1.966738701E-1,1.286191940E-1
2.090100911E0,1.548342705E-1,-3.590002060E-1,4.285697937E-1
2.098096391E0,-2.774366140E-1,-5.893225670E-1,9.111766815E-1
2.106092026E0,-3.645646572E-1,-7.206954956E-1,1.249601364E0
2.114088044E0,-1.619789600E-1,-7.421426773E-1,1.085426331E0
2.122113293E0,3.520488739E-1,-6.942472458E-1,9.530315399E-1
2.130109697E0,9.142134190E-1,-5.629076958E-1,6.791915894E-1
2.138105024E0,1.367458344E0,-4.301753044E-1,3.396272659E-1
2.146101735E0,1.537676215E0,-3.725924492E-1,-5.640697479E-2
2.154095908E0,1.588214636E0,-4.227857590E-1,-6.513638496E-1
2.162091235E0,1.552746654E0,-6.049766541E-1,-1.084944725E0
2.170087868E0,1.429670572E0,-8.411703110E-1,-1.409322739E0
2.178113195E0,1.186065912E0,-1.120850563E0,-1.576364517E0
2.186110675E0,9.265687466E-1,-1.324634075E0,-1.504108429E0
2.194104925E0,5.566594601E-1,-1.429484367E0,-1.238669395E0
2.202100252E0,2.298116684E-1,-1.411104679E0,-1.128734589E0
2.210096040E0,5.072665215E-2,-1.272161961E0,-1.169002056E0
2.218091674E0,8.352923393E-2,-1.071793079E0,-1.275756359E0
2.226088385E0,2.838213444E-1,-9.053654671E-1,-1.532119274E0
2.234113250E0,6.668779850E-1,-7.066302299E-1,-1.918097496E0
2.242109654E0,1.031441927E0,-6.564540863E-1,-2.152750015E0
2.250105596E0,1.345823765E0,-7.631993294E-1,-2.116169453E0
2.258100692E0,1.367250681E0,-9.455556870E-1,-2.068437576E0
2.266097403E0,1.093241930E0,-1.096649647E0,-1.617970467E0
2.274091806E0,5.171461105E-1,-1.222669125E0,-1.027626514E0
2.290114305E0,-1.066298723E0,-9.997653961E-1,-1.431312561E-1
2.298108555E0,-1.687336445E0,-8.295936584E-1,1.709752083E-1
2.306104882E0,-2.211518049E0,-6.483364105E-1,5.644922256E-1
2.314100285E0,-2.555832624E0,-4.457159042E-1,7.565898895E-1
2.322095304E0,-2.667774439E0,-1.515703201E-1,7.259325981E-1
2.330091707E0,-2.662311316E0,1.515855789E-1,6.536641121E-1
2.338087111E0,-2.599418402E0,4.877219200E-1,3.153834343E-1
2.346113899E0,-2.583211422E0,7.808403969E-1,-1.435632706E-1
2.354109302E0,-2.637462378E0,9.692473412E-1,-4.011812210E-1
2.362104321E0,-2.647691727E0,1.015584946E0,-4.483804703E-1
2.370100341E0,-2.543233395E0,9.922881126E-1,-2.920045853E-1
2.378095436E0,-2.324460983E0,1.016063690E0,1.343836784E-1
2.386092685E0,-2.071408033E0,1.118575096E0,3.429355621E-1
2.394086320E0,-1.773145676E0,1.283473969E0,5.759859085E-1
2.402112493E0,-1.503035784E0,1.513088703E0,7.668838501E-1
2.410109050E0,-1.206262469E0,1.718025208E0,7.860035896E-1
2.418104454E0,-8.995505571E-1,1.862913132E0,7.297568321E-1
2.426100242E0,-4.536070824E-1,1.863924980E0,7.109246254E-1
2.434095569E0,6.123042107E-2,1.799259663E0,6.319293976E-1
2.442090971E0,6.757310629E-1,1.678657532E0,5.015678406E-1
2.450086683E0,1.242177248E0,1.601540565E0,1.205182076E-1
2.458112855E0,1.689278245E0,1.553220749E0,-3.235402107E-1
2.466109259E0,2.021656036E0,1.479880810E0,-9.977140427E-1
2.474104663E0,2.246407032E0,1.359609604E0,-1.167127132E0
2.482099374E0,2.401385784E0,1.250869751E0,-1.246349812E0
2.490095161E0,2.458801746E0,1.156610966E0,-8.570594788E-1
2.498091103E0,2.257101536E0,9.752526283E-1,-2.309403419E-1
2.506117661E0,1.589335680E0,6.908531189E-1,4.463043213E-1
2.514112757E0,7.442235947E-1,4.486222267E-1,7.153711319E-1
2.530104410E0,-1.206882477E0,-1.923332214E-1,8.154029846E-1
2.538099506E0,-1.800044179E0,-4.875669479E-1,9.084730148E-1
2.546096755E0,-1.993794441E0,-6.765661240E-1,1.135236740E0
2.554090620E0,-1.857939005E0,-6.945114136E-1,1.464536667E0
2.562116562E0,-1.458842635E0,-5.531511307E-1,1.891277313E0
2.570112889E0,-9.586511254E-1,-3.419542313E-1,2.059824944E0
2.578107677E0,-2.758679688E-1,-6.077766418E-2,2.173546791E0
2.586104927E0,3.012505174E-1,5.427074432E-2,1.821434975E0
2.594099407E0,8.188260794E-1,-2.092981339E-2,1.310126305E0
2.602094733E0,1.120063305E0,-2.834954262E-1,7.790279388E-1
2.610091137E0,1.193918824E0,-5.985603333E-1,2.287454605E-1
2.618117540E0,1.040030360E0,-9.380736351E-1,-2.968873978E-1
2.626113021E0,7.968381643E-1,-1.106205463E0,-6.430954933E-1
2.634108348E0,6.554433107E-1,-1.122671127E0,-8.987226486E-1
2.642104059E0,5.515390635E-1,-9.575743675E-1,-8.395795822E-1
2.650099463E0,5.532977581E-1,-8.088946342E-1,-6.303400993E-1
2.658095173E0,7.067444324E-1,-6.336965561E-1,-5.719366074E-1
2.666090961E0,9.162629843E-1,-5.384497643E-1,-5.524001122E-1
2.674117057E0,1.424461603E0,-4.687023163E-1,-7.605066299E-1
2.682112153E0,1.933702230E0,-4.258708954E-1,-8.659567833E-1
2.688094013E0,2.078655243E0,-3.891186714E-1,-8.486452103E-1
2.690108557E0,2.164846420E0,-4.034838676E-1,-8.941349983E-1
2.698104268E0,2.018242836E0,-4.528374672E-1,-8.025717735E-1
2.706099978E0,1.596823454E0,-5.465803146E-1,-7.524628639E-1
2.714094767E0,8.575661182E-1,-6.003088951E-1,-7.005939484E-1
2.722089863E0,1.514976025E-1,-5.962576866E-1,-5.338625908E-1
2.730117574E0,-6.381255388E-1,-5.598812103E-1,-7.257652283E-2
2.738112362E0,-1.359911323E0,-3.982539177E-1,3.459630013E-1
2.746108920E0,-1.851769209E0,-1.961574554E-1,5.386676788E-1
2.754103785E0,-2.303024292E0,1.225781441E-1,4.481449127E-1
2.762099111E0,-2.589067221E0,4.793043137E-1,2.020940781E-1
2.770095207E0,-2.702316761E0,8.822336197E-1,-1.055150032E-1
2.778091149E0,-2.582329750E0,1.193817139E0,-2.778210640E-1
2.786117398E0,-2.433128595E0,1.283178329E0,-2.224922180E-1
2.794113033E0,-2.257328510E0,1.214422703E0,-4.223155975E-2
2.802107513E0,-2.094742775E0,1.142975330E0,1.749668121E-1
2.810104455E0,-1.984414577E0,1.017642021E0,3.474817276E-1
2.818098935E0,-1.837599993E0,9.974479675E-1,2.227325439E-1
2.826095646E0,-1.674981117E0,9.972276688E-1,3.279380798E-1
2.834091050E0,-1.372655034E0,1.006027699E0,4.193964005E-1
2.842115915E0,-1.019884586E0,1.058727741E0,4.812793732E-1
2.850112319E0,-5.673897266E-1,1.155962467E0,4.327535629E-1
2.858107953E0,-3.096706271E-1,1.247976303E0,4.034376144E-1
2.866104280E0,-1.308238506E-1,1.369944572E0,3.272066116E-1
2.874099759E0,-1.250480413E-1,1.398929358E0,2.547845840E-1
2.882093932E0,-1.754474640E-1,1.338912010E0,3.527669907E-1
2.890090182E0,-2.207604647E-1,1.272671700E0,4.601373672E-1
2.898116355E0,-1.366692185E-1,1.211674690E0,5.026473999E-1
2.906112759E0,1.107832193E-1,1.142956734E0,4.627122879E-1
2.914107778E0,4.982038140E-1,9.931821823E-1,3.748970032E-1
2.922102950E0,9.348827600E-1,8.009414673E-1,3.211441040E-1
2.930098969E0,1.125854611E0,6.101040840E-1,2.539272308E-1
2.938094603E0,1.123768806E0,4.995145798E-1,2.031049728E-1
2.946091007E0,1.007091045E0,4.195828438E-1,7.434749603E-2
2.954116487E0,7.448900938E-1,2.933678627E-1,-1.026668549E-1
2.962111891E0,2.270891964E-1,1.250891685E-1,-2.171182632E-1
2.970107679E0,-1.609956026E-1,-1.311850548E-1,-2.478399277E-1
2.978103620E0,-2.716678977E-1,-3.352603912E-1,-1.235742569E-1
2.986099408E0,-1.211072505E-1,-5.549745560E-1,4.437656403E-1
2.994094812E0,1.048268378E-1,-6.494765282E-1,1.007263184E0
3.002089908E0,5.143107176E-1,-7.199048996E-1,1.622770309E0
3.010116388E0,9.743459225E-1,-8.347764015E-1,1.846802711E0
3.018112023E0,1.627755761E0,-9.409823418E-1,1.725298882E0
3.026108042E0,2.321088076E0,-1.083874702E0,1.442934990E0
3.034103214E0,2.847360849E0,-1.199261189E0,1.110133171E0
3.042097925E0,3.432504177E0,-1.365505219E0,7.756986618E-1
3.050094021E0,3.840977669E0,-1.514490128E0,4.262495041E-1
3.058090271E0,3.999126673E0,-1.647432327E0,1.415567398E-1
3.066117059E0,3.862586021E0,-1.715833187E0,-1.524705887E-1
3.074111540E0,3.584617615E0,-1.761887074E0,-3.750009537E-1
3.082107559E0,3.278249741E0,-1.818721294E0,-6.827888489E-1
3.090102961E0,2.970980644E0,-1.921195984E0,-8.181886673E-1
3.098099057E0,2.551748276E0,-2.069105625E0,-8.993139267E-1
3.106095076E0,2.309215069E0,-2.195896149E0,-9.603238106E-1
3.114090711E0,2.147789478E0,-2.273244858E0,-1.096785545E0
3.122115653E0,2.057243586E0,-2.214444160E0,-1.204754829E0
3.130112056E0,1.967138410E0,-2.093350887E0,-1.424361706E0
3.138107382E0,1.809556127E0,-1.891009331E0,-1.626852036E0
3.146103478E0,1.580472946E0,-1.713371277E0,-1.893143177E0
3.154098497E0,1.276681662E0,-1.553073406E0,-2.161746025E0
3.162093593E0,9.331411123E-1,-1.415169239E0,-2.352439404E0
3.170089997E0,5.662641525E-1,-1.238880157E0,-2.387379646E0
3.178115862E0,9.263157845E-2,-1.141540527E0,-2.158687592E0
3.186112189E0,-3.437976837E-1,-1.111124039E0,-1.940238476E0
3.194106899E0,-8.381313086E-1,-1.127367496E0,-1.427289486E0
3.202102610E0,-1.284338474E0,-1.086229801E0,-8.019304276E-1
3.210098322E0,-1.658009291E0,-1.053133011E0,-1.204595566E-1
3.218094110E0,-2.002804756E0,-9.557356834E-1,4.006657600E-1
3.226090975E0,-2.243968487E0,-8.186030388E-1,6.144204140E-1
3.234115686E0,-2.476686001E0,-5.553407669E-1,4.990940094E-1
3.242111013E0,-2.578726768E0,-2.323956490E-1,2.760839462E-1
3.250107031E0,-2.646055937E0,2.452659607E-1,-3.576960564E-1
3.258101896E0,-2.554939508E0,7.197146416E-1,-6.823778152E-1
3.266099377E0,-2.445571423E0,9.992508888E-1,-7.225370407E-1
3.274094165E0,-2.403694868E0,1.065105915E0,-4.549198151E-1
3.282089030E0,-2.437979937E0,1.041837215E0,-1.557998657E-1
3.290115741E0,-2.581579447E0,9.960489273E-1,2.863068581E-1
3.298110837E0,-2.855770588E0,9.603071213E-1,6.025795937E-1
3.306108471E0,-3.109699249E0,9.846425056E-1,9.528126717E-1
3.314102874E0,-3.289122105E0,1.148255825E0,1.076735973E0
3.322098278E0,-3.178329468E0,1.327311039E0,1.145832062E0
3.330093759E0,-2.726938248E0,1.564341068E0,1.132460594E0
3.338088855E0,-2.065495968E0,1.765782833E0,9.233484268E-1
3.346116797E0,-1.334303617E0,2.002571344E0,5.132942200E-1
3.354111276E0,-8.145884275E-1,2.081631422E0,3.734221458E-1
3.362106757E0,-5.381892323E-1,1.986822844E0,1.961383820E-1
3.370102699E0,-4.175003767E-1,1.852800608E0,1.431016922E-1
3.378098487E0,-3.517145514E-1,1.777000427E0,1.911740303E-1
3.386094429E0,-2.170975804E-1,1.684374332E0,3.401207924E-1
3.394119756E0,-3.530895710E-2,1.618715763E0,5.464277267E-1
3.402115160E0,1.774719357E-1,1.542740345E0,7.602529526E-1
3.410110870E0,5.056176186E-1,1.506477356E0,7.574634552E-1
3.418106812E0,8.004577160E-1,1.454941750E0,6.098556519E-1
3.426103216E0,1.151651025E0,1.372581005E0,4.087362289E-1
3.434098235E0,1.351947665E0,1.239349842E0,3.034744263E-1
3.442092792E0,1.437937498E0,1.082402229E0,1.211681366E-1
3.458116215E0,1.166233540E0,6.073670387E-1,5.899333954E-2
3.466111617E0,9.830766916E-1,3.964409828E-1,5.775833130E-2
3.474106406E0,8.950490355E-1,2.479763031E-1,2.874717712E-1
3.482102655E0,8.562255502E-1,8.051586151E-2,6.051368713E-1
3.490097751E0,8.303187490E-1,-1.388502121E-2,9.163427353E-1
3.498093770E0,8.190793991E-1,-1.185793877E-1,1.042737007E0
3.506120943E0,9.485353827E-1,-3.204379082E-1,1.014839172E0
3.514115655E0,1.267497659E0,-5.275592804E-1,1.042300224E0
3.522110211E0,1.783239484E0,-7.889156342E-1,1.172293663E0
3.530106461E0,2.195326805E0,-1.005582809E0,1.145281792E0
3.538102557E0,2.631999016E0,-1.123408318E0,8.602199554E-1
3.546098807E0,3.015267134E0,-1.156163692E0,4.468240738E-1
3.554094518E0,3.240796566E0,-1.211554050E0,1.255311966E-1
3.562118922E0,3.467995882E0,-1.330374718E0,-1.538410187E-1
3.570115247E0,3.628417492E0,-1.455687523E0,-2.311334610E-1
3.578110574E0,3.646658182E0,-1.536969185E0,-3.959102631E-1
3.586106593E0,3.476463079E0,-1.649728298E0,-5.709362030E-1
3.594102304E0,3.305419922E0,-1.743099213E0,-7.056465149E-1
3.602097170E0,3.199990511E0,-1.914489269E0,-9.074826241E-1
3.610093112E0,3.092155457E0,-1.996784687E0,-1.089248657E0
3.618119592E0,2.993539095E0,-2.086127758E0,-1.283262730E0
3.626115379E0,2.836944580E0,-2.103871822E0,-1.483272076E0
3.634110475E0,2.612497091E0,-2.153026104E0,-1.612250805E0
3.642105802E0,2.333861113E0,-2.165197372E0,-1.555617809E0
3.650101590E0,2.115219355E0,-2.154445648E0,-1.395936489E0
3.658097532E0,1.944328904E0,-2.145214558E0,-1.194902420E0
3.666094475E0,1.801813364E0,-2.173875332E0,-1.006950855E0
3.674118878E0,1.558328629E0,-2.186449528E0,-9.045491219E-1
3.682114819E0,1.177860141E0,-2.193621159E0,-8.918256760E-1
3.690110223E0,7.394301891E-1,-2.156512737E0,-9.264664650E-1
3.698105627E0,2.280938625E-1,-1.985810280E0,-1.141700268E0
3.706103261E0,-2.040923834E-1,-1.771551609E0,-1.280492783E0
3.714097126E0,-5.359504223E-1,-1.536917210E0,-1.384567261E0
3.722092530E0,-7.118498087E-1,-1.352900982E0,-1.398012161E0
3.730119626E0,-7.801343203E-1,-1.242886066E0,-1.157828331E0
3.738114721E0,-8.515051007E-1,-1.176176071E0,-9.391527176E-1
3.746111047E0,-9.101569057E-1,-1.073143482E0,-5.379271507E-1
3.754106374E0,-1.085022569E0,-9.494323730E-1,-1.066122055E-1
3.762101239E0,-1.399074078E0,-8.574070930E-1,2.525558472E-1
3.770097566E0,-1.866203070E0,-7.174787521E-1,4.842820168E-1
3.778092662E0,-2.269721508E0,-4.089827538E-1,2.706360817E-1
3.786119988E0,-2.459626675E0,1.615858078E-2,3.795099258E-2
3.794114776E0,-2.455469847E0,5.137128830E-1,-2.593755722E-1
3.802109872E0,-2.287020206E0,7.959885597E-1,-5.128769875E-1
3.810106275E0,-2.191118479E0,9.393939972E-1,-6.603522301E-1
3.818102217E0,-2.260821342E0,9.327664375E-1,-4.916481972E-1
3.826097621E0,-2.392857075E0,8.516836166E-1,-4.458365440E-1
3.834092717E0,-2.679015636E0,8.189644814E-1,-1.035628319E-1
3.842118581E0,-2.863667011E0,8.616890907E-1,2.632570267E-1
3.850114985E0,-3.015433311E0,1.056201935E0,4.853692055E-1
3.858110619E0,-2.887105942E0,1.297102451E0,8.003673553E-1
3.866106100E0,-2.403275967E0,1.504844189E0,1.230558395E0
3.874101503E0,-1.700134397E0,1.741347790E0,1.381978989E0
3.882096292E0,-1.010058641E0,1.901891232E0,1.392066956E0
3.890092848E0,-4.037890434E-1,1.847099781E0,1.396368504E0
3.898119021E0,-1.832876503E-1,1.809574127E0,1.248357773E0
3.906114809E0,-1.610386372E-1,1.683665752E0,1.092413425E0
3.914110751E0,-1.005026251E-1,1.583523273E0,8.906173706E-1
3.922105617E0,1.083466858E-1,1.456794262E0,9.136886597E-1
3.930101943E0,4.929362535E-1,1.322189331E0,9.194412231E-1
3.938097270E0,8.641312122E-1,1.229638577E0,8.013200760E-1
3.946093288E0,1.138462424E0,1.231588364E0,3.577337265E-1
3.954118230E0,1.131928086E0,1.167132378E0,4.963140488E-1
3.962113634E0,1.111284018E0,9.387130737E-1,4.690151215E-1
3.970110576E0,1.228236437E0,6.636295319E-1,4.698581696E-1
3.978106595E0,1.368715167E0,4.724240303E-1,7.684860229E-1
3.986101768E0,1.509842634E0,3.063220978E-1,1.062330246E0
3.994095941E0,1.618932843E0,2.379102707E-1,1.156303406E0
4.002091882E0,1.600205183E0,2.020664215E-1,1.155421257E0
4.010118978E0,1.477954626E0,1.399450302E-1,9.988431931E-1
4.018114151E0,1.371574879E0,6.553840637E-2,7.818775177E-1
4.026110708E0,1.163261414E0,-1.139783859E-1,3.438920975E-1
4.034105265E0,9.706423879E-1,-2.983384132E-1,-3.437423706E-2
4.042100900E0,7.548601627E-1,-5.517354012E-1,-3.300504684E-1
4.050096611E0,6.764274240E-1,-7.946758270E-1,-1.789102554E-1
4.058092629E0,7.660075426E-1,-9.400320053E-1,2.543821335E-1
4.066118187E0,1.000119925E0,-1.018953323E0,7.803802490E-1
4.074114821E0,1.228147984E0,-9.859509468E-1,9.854640961E-1
4.082108456E0,1.542235613E0,-9.632000923E-1,1.055978775E0
4.090105936E0,1.860759020E0,-1.014361382E0,8.364095688E-1
4.098101032E0,2.170809746E0,-1.184123993E0,6.243839264E-1
4.106098051E0,2.447238684E0,-1.354837418E0,4.659166336E-1
4.114092531E0,2.652759075E0,-1.456510544E0,2.395782471E-1
4.122118011E0,2.943572044E0,-1.542771339E0,-3.229141235E-3
4.130114030E0,3.054205894E0,-1.597672462E0,-2.206029892E-1
4.138110049E0,3.103541613E0,-1.713376522E0,-4.545612335E-1
4.146106376E0,3.093188286E0,-1.802741528E0,-7.089848518E-1
4.154101241E0,2.986953020E0,-1.919548988E0,-9.397392273E-1
4.162095721E0,2.759184837E0,-2.040132999E0,-1.159800529E0
4.170092047E0,2.410420179E0,-2.127437115E0,-1.275045395E0
4.178118451E0,1.925154209E0,-2.244369507E0,-1.290598392E0
4.186114470E0,1.500154257E0,-2.323586941E0,-1.238810539E0
4.194108720E0,1.240026236E0,-2.355118275E0,-1.012091637E0
4.210101066E0,1.096488953E0,-2.112211704E0,-8.612785339E-1
4.218096160E0,1.010046721E0,-1.880947590E0,-8.909220695E-1
4.226093103E0,8.774159551E-1,-1.691581726E0,-9.892702103E-1
4.234118352E0,6.453354955E-1,-1.521708012E0,-1.166326523E0
4.242113064E0,3.155504465E-1,-1.366542339E0,-1.308340549E0
4.250109390E0,8.146166801E-3,-1.283354282E0,-1.334190369E0
4.258104794E0,-3.998265862E-1,-1.143041134E0,-1.511117458E0
4.266100813E0,-6.959695816E-1,-9.388852119E-1,-1.656416416E0
4.274096216E0,-8.762351274E-1,-7.034649849E-1,-1.684381008E0
4.282091389E0,-8.176444769E-1,-4.819135666E-1,-1.644987106E0
4.290117792E0,-6.318931580E-1,-2.793798447E-1,-1.635204315E0
4.298113580E0,-5.559164286E-1,-1.781482697E-1,-1.327475548E0
4.306110523E0,-6.558780670E-1,-1.310334206E-1,-1.121104717E0
4.314104388E0,-9.937456846E-1,-1.253948212E-1,-5.791554451E-1
4.322100099E0,-1.408191442E0,-1.266503334E-1,-9.684991837E-2
4.330096117E0,-1.937439561E0,-7.258939743E-2,5.928025246E-1
4.338092136E0,-2.450073004E0,1.291818619E-1,8.286476135E-1
4.346118232E0,-2.723049879E0,4.124193192E-1,7.945666313E-1
4.354113328E0,-2.865509510E0,8.283243179E-1,6.515207291E-1
4.362108808E0,-2.828824520E0,1.222624779E0,2.037329674E-1
4.370104828E0,-2.651484489E0,1.624119282E0,-2.753481865E-1
4.378100461E0,-2.413676500E0,1.852157116E0,-4.665770531E-1
4.386097172E0,-2.275700569E0,1.860810757E0,-2.942132950E-1
4.394122037E0,-2.218126297E0,1.741979122E0,-7.105159760E-2
4.402117826E0,-2.134884834E0,1.645403385E0,2.115550041E-1
4.410113845E0,-1.928005695E0,1.522075176E0,5.794897079E-1
4.418109248E0,-1.653700352E0,1.449910164E0,7.885599136E-1
4.426105575E0,-1.238003969E0,1.410396099E0,1.295938492E0
4.434100593E0,-7.735543847E-1,1.484247684E0,1.266576767E0
4.442095074E0,-4.157208800E-1,1.620236397E0,1.281384468E0
4.450091477E0,-6.166893244E-2,1.715090275E0,1.222223282E0
4.458117650E0,2.451502085E-1,1.689785004E0,7.899656296E-1
4.466113900E0,3.981795311E-1,1.598664284E0,3.158121109E-1
4.474108457E0,3.816020489E-1,1.349470139E0,1.916694641E-2
4.482103861E0,3.646167517E-1,1.061873436E0,-1.410999298E-1
4.490100187E0,2.491261959E-1,7.354888916E-1,-2.490110397E-1
4.498095821E0,2.038147599E-1,5.246224403E-1,-2.547798157E-1
4.506122686E0,2.885366678E-1,4.195170403E-1,-1.427659988E-1
4.514118013E0,5.138615370E-1,4.233832359E-1,-5.255603790E-2
4.522112494E0,9.693233967E-1,4.699330330E-1,3.651580811E-1
4.530109205E0,1.586069584E0,4.536018372E-1,5.336694717E-1
4.538104609E0,2.011144638E0,3.939323425E-1,5.891180038E-1
4.546100857E0,2.243014574E0,2.732515335E-1,6.541776657E-1
4.554095953E0,2.288249969E0,9.146308899E-2,5.642824173E-1
4.562120972E0,2.263020277E0,-1.272783279E-1,3.945817947E-1
4.570118222E0,2.002795935E0,-3.418345451E-1,2.387256622E-1
4.578112933E0,1.707138181E0,-5.119009018E-1,1.107225418E-1
4.586110183E0,1.392609000E0,-6.102390289E-1,-2.261018753E-1
4.594104355E0,1.171650410E0,-6.781320572E-1,-3.470516205E-1
4.602099528E0,8.872950077E-1,-7.737345695E-1,-2.573471069E-1
4.610095778E0,6.238059998E-1,-9.223651886E-1,3.854274750E-2
4.618121720E0,4.093959630E-1,-1.114742279E0,5.211544037E-1
4.626118046E0,4.066027999E-1,-1.201826572E0,8.650445938E-1
4.634113142E0,4.263400435E-1,-1.199169636E0,1.038318634E0
4.642108161E0,4.036918581E-1,-1.172015190E0,1.200785637E0
4.650103949E0,5.662782192E-1,-1.155501842E0,1.086739540E0
4.658100198E0,7.768146992E-1,-1.177235126E0,1.120307922E0
4.666096602E0,1.063550353E0,-1.204786777E0,1.096045494E0
4.674121852E0,1.289643288E0,-1.248157501E0,9.408254623E-1
4.682116948E0,1.590649843E0,-1.275477886E0,5.095281601E-1
4.690112044E0,1.713168144E0,-1.318883896E0,-4.335403442E-2
4.698108371E0,1.682237625E0,-1.428428173E0,-4.860982895E-1
4.706104927E0,1.546186090E0,-1.554867744E0,-8.559474945E-1
4.714099792E0,1.303503513E0,-1.594993114E0,-1.252950668E0
4.722094888E0,8.533346057E-1,-1.591056824E0,-1.395026684E0
4.730121292E0,4.767554104E-1,-1.541955948E0,-1.316170692E0
4.738117695E0,2.092426419E-1,-1.450413704E0,-1.264227867E0
4.746114561E0,1.515109241E-1,-1.344427586E0,-1.071154594E0
4.754108195E0,2.255711555E-1,-1.205718994E0,-7.900609970E-1
4.762103290E0,3.890212178E-1,-1.093034267E0,-6.379861832E-1
4.770099309E0,5.738090277E-1,-1.028000832E0,-7.055516243E-1
4.778094943E0,6.950672269E-1,-9.243803024E-1,-7.291436195E-1
4.786122039E0,6.002142429E-1,-8.844661713E-1,-6.096353531E-1
4.794116904E0,4.288536310E-1,-8.351979256E-1,-6.385798454E-1
4.802112539E0,2.380062342E-1,-7.714390755E-1,-5.706105232E-1
4.810108326E0,-6.501042843E-2,-6.413846016E-1,-5.715126991E-1
4.818104037E0,-3.712378740E-1,-4.996619225E-1,-5.250129700E-1
4.826100980E0,-5.869701505E-1,-2.985143661E-1,-5.304746628E-1
4.834095460E0,-8.434730172E-1,-4.062891006E-2,-7.010378838E-1
4.842121018E0,-1.003420115E0,1.371760368E-1,-5.006618500E-1
4.850117037E0,-1.111421943E0,3.103060722E-1,-2.077484131E-1
4.858111825E0,-1.153322697E0,4.954700470E-1,-2.595443726E-1
4.866108766E0,-1.157189727E0,6.161203384E-1,-4.208846092E-1
4.874103785E0,-1.042680860E0,7.363038063E-1,-5.266489983E-1
4.882098881E0,-9.002992511E-1,8.710923195E-1,-7.432241440E-1
4.890095285E0,-8.270200491E-1,1.051529884E0,-1.135513306E0
4.898121150E0,-8.330562115E-1,1.254513264E0,-1.452241421E0
4.906118015E0,-8.793352842E-1,1.332670212E0,-1.532786369E0
4.914112495E0,-1.011069179E0,1.306098938E0,-1.554465771E0
4.930103994E0,-1.316514015E0,1.071347713E0,-1.091737747E0
4.938100013E0,-1.368879676E0,9.616703987E-1,-7.661256790E-1
4.946095417E0,-1.323785186E0,9.015145302E-1,-4.959602356E-1
4.954120897E0,-1.224323869E0,9.003472328E-1,-2.857789993E-1
4.962116301E0,-1.112420321E0,1.005741596E0,-2.505989075E-1
4.970112397E0,-1.132948279E0,1.135899067E0,-1.826071739E-1
4.978108030E0,-1.226049304E0,1.186783791E0,-8.078956604E-2
4.986104434E0,-1.217750072E0,1.107312679E0,4.165029526E-2
4.994098530E0,-1.042264104E0,9.100255966E-1,3.692483902E-2
5.002094318E0,-8.655011058E-1,7.429094315E-1,5.602645874E-2
5.010121029E0,-8.128960133E-1,6.086530685E-1,1.392412186E-2
5.018117125E0,-9.929328561E-1,5.047488213E-1,2.216339111E-3
5.026113066E0,-1.368197322E0,4.152164459E-1,-1.146450043E-1
5.034108239E0,-1.580418110E0,3.285899162E-1,-1.757779121E-1
5.042103258E0,-1.544349313E0,2.143421173E-1,-1.735038757E-1
5.050099354E0,-1.315691471E0,1.775779724E-1,-6.248235703E-2
5.058094450E0,-1.017665386E0,2.154846191E-1,1.471734047E-1
5.066121469E0,-5.699775219E-1,2.574839592E-1,3.871603012E-1
5.074116642E0,-2.561920881E-1,2.753739357E-1,3.700518608E-1
5.082111429E0,6.233216822E-2,3.189678192E-1,1.926140785E-1
5.090107679E0,3.148750365E-1,2.863006592E-1,-2.146992683E-1
5.098103467E0,5.475029945E-1,2.554612160E-1,-6.096663475E-1
5.106100102E0,8.378183246E-1,1.668062210E-1,-9.463877678E-1
5.114094813E0,1.068862319E0,1.158967018E-1,-1.161792755E0
5.122120140E0,1.289790869E0,2.856445312E-2,-1.263741493E0
5.130116466E0,1.351347446E0,8.425712585E-4,-1.278387547E0
5.138112484E0,1.367540121E0,-6.033945084E-2,-1.180802345E0
5.146109119E0,1.245008707E0,-5.874729156E-2,-1.147819042E0
5.154103599E0,1.149353743E0,-3.928279877E-2,-1.025793076E0
5.162098080E0,1.088319182E0,2.900743484E-2,-1.190809250E0
5.170095022E0,1.056439519E0,4.227161407E-2,-1.096087933E0
5.178120580E0,1.189095616E0,1.811885834E-2,-1.109101295E0
5.186117752E0,1.396447897E0,-6.706666946E-2,-1.172301769E0
5.194111309E0,1.657462955E0,-1.927957535E-1,-1.126738548E0
5.202106482E0,1.883076668E0,-2.964496613E-1,-1.067766666E0
5.210103424E0,1.977372408E0,-3.777437210E-1,-9.446926117E-1
5.218098828E0,1.842862606E0,-4.545931816E-1,-7.078008652E-1
5.226095462E0,1.493367672E0,-5.404086113E-1,-5.640029907E-1
5.234120404E0,1.002350330E0,-5.574178696E-1,-2.893738747E-1
5.242115422E0,5.196188688E-1,-5.454349518E-1,-3.335003853E-1
5.250111518E0,1.654632092E-1,-5.375299454E-1,-2.727279663E-1
5.258107229E0,-7.788127661E-2,-5.264286995E-1,-4.041247368E-1
5.266103248E0,-2.160648108E-1,-4.589591026E-1,-7.296838760E-1
5.274098575E0,-3.703715205E-1,-3.107872009E-1,-1.021475315E0
5.282093440E0,-4.877182841E-1,-1.592769623E-1,-1.066674709E0
5.290120228E0,-5.798571706E-1,-3.478765488E-2,-9.954643250E-1
5.298115862E0,-6.401880980E-1,1.356258392E-1,-8.635210991E-1
5.306112496E0,-6.959620714E-1,2.447991371E-1,-6.054620743E-1
5.314107592E0,-8.158962727E-1,3.774356842E-1,-2.558097839E-1
5.322102380E0,-9.998205304E-1,4.541969299E-1,3.079466820E-1
5.330099092E0,-1.281993032E0,5.082526207E-1,5.053925514E-1
5.338093265E0,-1.548058748E0,5.930209160E-1,4.161214828E-1
5.346121591E0,-1.686919928E0,6.576671600E-1,2.789015770E-1
5.354116379E0,-1.658726931E0,7.265148163E-1,3.120231628E-1
5.362111398E0,-1.535060883E0,8.041396141E-1,3.023924828E-1
5.370107724E0,-1.307472706E0,9.723973274E-1,3.270959854E-1
5.378102820E0,-1.057036638E0,1.139510632E0,5.818276405E-1
5.386099839E0,-9.609322548E-1,1.282360077E0,7.013635635E-1
5.394093935E0,-8.813282251E-1,1.409935474E0,7.713828087E-1
5.402119493E0,-8.968431354E-1,1.451370239E0,9.224658012E-1
5.410115588E0,-8.752853870E-1,1.497692585E0,9.775824547E-1
5.418111530E0,-8.350685835E-1,1.442008495E0,1.160751343E0
5.426107241E0,-7.618036270E-1,1.268108845E0,1.341508865E0
5.434102414E0,-6.938723326E-1,1.102869987E0,1.305050850E0
5.442097202E0,-5.985167027E-1,9.683990479E-1,1.176658154E0
5.450125144E0,-4.834862053E-1,9.190559387E-1,1.025102615E0
5.458119932E0,-4.143286645E-1,8.496832848E-1,1.006059647E0
5.466116566E0,-3.303928971E-1,7.909746170E-1,1.080832005E0
5.474111970E0,-3.260307312E-1,7.760977745E-1,1.210857868E0
5.482106142E0,-3.214477301E-1,7.842850685E-1,1.444561958E0
5.490102777E0,-3.350516558E-1,7.864332199E-1,1.602118492E0
5.498098488E0,-2.893212438E-1,7.536296844E-1,1.647535324E0
5.506095200E0,-2.308462858E-1,7.104330063E-1,1.491090775E0
5.514120064E0,-2.064921260E-1,6.621022224E-1,1.275238037E0
5.522114929E0,-1.896448135E-1,7.052636147E-1,1.046908379E0
5.530110948E0,-2.284963131E-1,7.266597748E-1,8.607435226E-1
5.538107505E0,-2.281661034E-1,7.690200806E-1,7.763652802E-1
5.546103294E0,-1.397970319E-1,6.679072380E-1,9.942855835E-1
5.554098390E0,-3.615701199E-2,5.028305054E-1,1.336454391E0
5.562123562E0,8.149027824E-3,3.304257393E-1,1.287084579E0
5.570119965E0,-1.571148634E-1,3.523926735E-1,9.379472733E-1
5.578115369E0,-3.580088615E-1,3.567361832E-1,1.072756767E0
5.586111926E0,-6.845011711E-1,3.603019714E-1,1.043935776E0
5.594106714E0,-8.770669699E-1,2.745165825E-1,1.024340630E0
5.602101810E0,-9.572389126E-1,1.704235077E-1,6.930093765E-1
5.610098214E0,-7.805868387E-1,-3.586292267E-3,5.320358276E-1
5.618124310E0,-4.444502592E-1,-2.277431488E-1,4.602060318E-1
5.626121251E0,-1.373301744E-1,-4.060177803E-1,1.206808090E-1
5.634115193E0,-3.793609142E-2,-4.553627968E-1,-8.591938019E-2
5.642110904E0,-1.023340225E-2,-4.536089897E-1,-1.215019226E-1
5.650106616E0,-5.493474007E-2,-4.158625603E-1,-9.318065643E-2
5.658102327E0,-2.328804731E-1,-3.695807457E-1,-1.259317398E-1
5.666099192E0,-4.148741961E-1,-3.779697418E-1,8.413982391E-2
5.674124441E0,-4.770433903E-1,-4.546170235E-1,2.466888428E-1
5.682119537E0,-4.669446945E-1,-5.490059853E-1,4.597854614E-2
5.690115864E0,-3.882279396E-1,-6.040010452E-1,-1.002416611E-1
5.698110037E0,-2.269988060E-1,-6.240887642E-1,-3.200764656E-1
5.706107056E0,-9.149813652E-2,-5.377264023E-1,-4.787206650E-1
5.714101536E0,-8.892369270E-2,-4.505267143E-1,-6.494717598E-1
5.722097786E0,-1.553981304E-1,-5.011706352E-1,-6.657924652E-1
5.730124035E0,3.319013119E-2,-6.982059479E-1,-1.593561172E-1
5.738119669E0,4.061366320E-1,-7.756271362E-1,3.193092346E-2
5.746116073E0,3.609715700E-1,-8.442096710E-1,-8.109807968E-2
5.754110784E0,1.017985344E-1,-9.241905212E-1,2.407646179E-2
5.762105649E0,-1.266903877E-1,-1.031509399E0,6.045818329E-2
5.770102284E0,-1.820743084E-1,-1.087483883E0,4.973268509E-2
5.778097609E0,-1.254560947E-1,-1.164117813E0,2.046055794E-1
5.786123782E0,-2.337455750E-3,-1.195194721E0,2.964787483E-1
5.794119878E0,7.362318039E-2,-1.230787754E0,1.360449791E-1
5.802114897E0,1.709127426E-2,-1.217630863E0,4.073619843E-3
5.810110070E0,-8.220791817E-2,-1.200418472E0,-1.679701805E-1
5.818106628E0,-2.268691063E-1,-1.085067749E0,-5.311989784E-1
5.826102954E0,-2.934160233E-1,-9.312567711E-1,-6.483306885E-1
5.834097742E0,-2.946126461E-1,-9.052381516E-1,-2.968525887E-1
5.842123376E0,-1.645200253E-1,-9.034576416E-1,7.629537582E-2
5.850119087E0,-1.413490772E-1,-8.478798866E-1,3.111314774E-1
5.858114722E0,-2.335906029E-1,-8.041005135E-1,6.625633240E-1
5.866111433E0,-3.341033459E-1,-7.549352646E-1,7.019686699E-1
5.874105914E0,-4.503104687E-1,-7.490129471E-1,5.556321144E-1
5.882101317E0,-5.825502872E-1,-7.780566216E-1,5.122804642E-1
5.890098489E0,-6.731970310E-1,-7.181744576E-1,2.196931839E-1
5.898123431E0,-7.077584267E-1,-7.095479965E-1,1.080713272E-1
5.906120758E0,-5.367488861E-1,-7.895302773E-1,2.174787521E-1
5.914114854E0,-1.686506271E-1,-8.293433189E-1,2.861418724E-1
5.922110257E0,1.232178211E-1,-7.801046371E-1,3.951725960E-1
5.930105969E0,3.495707512E-1,-7.671208382E-1,6.201405525E-1
5.938102065E0,3.244271278E-1,-6.996479034E-1,4.080767632E-1
5.946098006E0,2.082080841E-1,-6.583609581E-1,3.086361885E-1
5.954123871E0,2.825260162E-2,-6.828031540E-1,4.658517838E-1
5.962118428E0,-3.625583649E-2,-7.000913620E-1,4.821143150E-1
5.970115371E0,-1.238005161E-1,-7.697882652E-1,4.464111328E-1
5.978110082E0,-3.089337349E-1,-7.202792168E-1,2.544832230E-1
5.986106716E0,-5.820398331E-1,-5.980653763E-1,9.175252914E-2
5.994101580E0,-7.967865467E-1,-3.803110123E-1,-1.364393234E-1
6.002096676E0,-8.501691818E-1,-2.218637466E-1,-2.235074043E-1
6.010123080E0,-7.132115364E-1,-1.404051781E-1,-6.549119949E-2
6.018118868E0,-6.663970947E-1,-2.137508392E-1,2.430224419E-1
6.026115810E0,-8.838458061E-1,-3.280758858E-1,3.485817909E-1
6.034110522E0,-1.240137339E0,-5.389518738E-1,4.225420952E-1
6.042105310E0,-1.490255833E0,-6.438388824E-1,4.658546448E-1
6.050101713E0,-1.770102024E0,-7.264208794E-1,4.010953903E-1
6.058097116E0,-1.878403664E0,-6.709508896E-1,3.139500618E-1
6.066123904E0,-1.924576998E0,-4.517889023E-1,2.489557266E-1
6.074118385E0,-1.932873726E0,-1.199045181E-1,1.052432060E-1
6.082114404E0,-1.993649483E0,2.596383095E-1,1.482725143E-2
6.090110038E0,-2.068794250E0,4.829349518E-1,1.364240646E-1
6.098105827E0,-1.984191656E0,4.756932259E-1,3.039064407E-1
6.106102152E0,-1.732293367E0,3.013291359E-1,3.155007362E-1
6.114096941E0,-1.401810408E0,3.149986267E-2,4.692192078E-1
6.122122114E0,-1.108231068E0,-1.521663666E-1,3.647522926E-1
6.130119056E0,-9.050731659E-1,-2.162942886E-1,3.152632713E-1
6.138114459E0,-7.676036358E-1,-1.627945900E-1,3.526005745E-1
6.146110863E0,-7.564222813E-1,-1.117806435E-1,1.684470177E-1
6.154105574E0,-7.531850338E-1,-1.740741730E-2,-1.706428528E-1
6.162100438E0,-8.233287334E-1,1.898097992E-1,-5.700879097E-1
6.170096765E0,-8.132245541E-1,2.831692696E-1,-3.934288025E-1
6.178122861E0,-6.313953400E-1,3.133549690E-1,-1.348147392E-1
6.186119495E0,-3.316018581E-1,2.297401428E-1,3.044195175E-1
6.194114284E0,-8.154034615E-2,1.742558479E-1,4.314084053E-1
6.202109380E0,2.120683193E-1,1.480250359E-1,3.377461433E-1
6.210105398E0,4.827051163E-1,1.786193848E-1,2.040185928E-1
6.218100878E0,8.103487492E-1,2.002339363E-1,-4.629373550E-2
6.226097820E0,1.027950287E0,2.418990135E-1,-2.427392006E-1
6.234122378E0,1.096413851E0,2.997403145E-1,-4.175491333E-1
6.238120849E0,1.102622747E0,3.220667839E-1,-5.040535927E-1
6.240104623E0,1.102622747E0,3.292493820E-1,-5.686969757E-1
6.242117781E0,1.088257551E0,3.077015877E-1,-6.117925644E-1
6.250114108E0,1.045495510E0,2.730965614E-1,-6.585130692E-1
6.258109512E0,1.030040741E0,1.736021042E-1,-6.770005226E-1
6.266106453E0,9.152450562E-1,9.686899185E-2,-7.959027290E-1
6.274101318E0,6.751270294E-1,4.369640350E-2,-9.430255890E-1
6.282096029E0,3.045613766E-1,4.962491989E-2,-9.510469437E-1
6.290122587E0,-7.305455208E-2,1.257972717E-1,-1.007551193E0
6.298118221E0,-4.528067112E-1,2.037262917E-1,-1.004161835E0
6.306114933E0,-6.090290546E-1,1.828103065E-1,-9.547486305E-1
6.314109105E0,-6.251354218E-1,4.027700424E-2,-9.373211861E-1
6.322104816E0,-4.890995026E-1,-6.938934326E-2,-9.439792633E-1
6.330100758E0,-2.957401276E-1,-1.520810127E-1,-9.449348450E-1
6.338096469E0,-6.405544281E-2,-1.893401146E-1,-1.004248142E0
6.346123334E0,2.595424652E-2,-1.357102394E-1,-1.131937981E0
6.354118430E0,1.271052361E-1,3.230571747E-3,-1.210236073E0
6.362113449E0,1.461753845E-1,1.619515419E-1,-1.173735142E0
6.370110391E0,1.498322487E-1,2.824883461E-1,-1.189265728E0
6.378105486E0,1.522264481E-1,3.997721672E-1,-1.210773945E0
6.386101582E0,1.136288643E-1,4.071393013E-1,-1.177172661E0
6.394096601E0,7.154560089E-2,2.859864235E-1,-1.051284790E0
6.402121928E0,8.184814453E-2,4.808521271E-2,-9.524722099E-1
6.410117639E0,1.415615082E-1,-1.577072144E-1,-7.251424789E-1
6.418113966E0,3.014092445E-1,-3.788194656E-1,-6.454310417E-1
6.426109984E0,4.272470474E-1,-4.681825638E-1,-6.853551865E-1
6.434104695E0,5.345981121E-1,-4.398140907E-1,-7.639985085E-1
6.442100407E0,5.166881084E-1,-3.275451660E-1,-8.043823242E-1
6.450127195E0,5.231759548E-1,-1.756772995E-1,-8.760266304E-1
6.458122368E0,5.355145931E-1,-1.812410355E-2,-6.987066269E-1
6.466118310E0,5.587456226E-1,6.557941437E-2,-3.827652931E-1
6.474113483E0,5.578997135E-1,1.314210892E-1,-3.524355888E-1
6.482109116E0,6.122047901E-1,9.583187103E-2,-1.860656738E-1
6.490104828E0,6.188232899E-1,-7.395219803E-2,2.212667465E-2
6.498100616E0,5.450236797E-1,-2.386937141E-1,1.756620407E-1
6.506096943E0,4.356927872E-1,-3.053665161E-1,3.505430222E-1
6.514122192E0,3.636012077E-1,-4.037466049E-1,5.718870163E-1
6.522117211E0,2.856035233E-1,-4.535140991E-1,6.952466965E-1
6.530113615E0,1.791243553E-1,-5.099682808E-1,7.332615852E-1
6.538108710E0,1.954889297E-2,-5.195102692E-1,6.791501045E-1
6.546106190E0,-5.677366257E-2,-4.260077477E-1,5.466074944E-1
6.554100440E0,3.549098969E-3,-2.470240593E-1,4.670815468E-1
6.562125921E0,1.714181900E-1,-8.896541595E-2,9.272480011E-2
6.570122248E0,5.373847485E-1,-7.762002945E-2,1.539993286E-2
6.578118036E0,8.727095127E-1,-8.894157410E-2,2.949666977E-2
6.586114055E0,1.186614037E0,-8.242988586E-2,-8.754777908E-2
6.594108842E0,1.303533792E0,7.760477066E-2,-7.528162003E-2
6.602103861E0,1.146645546E0,2.148466110E-1,7.851362228E-2
6.610101419E0,8.491499424E-1,2.967853546E-1,5.429172516E-2
6.618126053E0,6.077332497E-1,2.527723312E-1,2.549371719E-1
6.626122687E0,4.060316086E-1,1.113829613E-1,2.939639091E-1
6.634117245E0,3.521041870E-1,-2.149724960E-2,3.921313286E-1
6.642113263E0,4.325184822E-1,-2.416548729E-1,7.747578621E-1
6.650109513E0,7.065496445E-1,-5.414934158E-1,6.295475960E-1
6.658104609E0,1.099132538E0,-1.126174927E0,2.047399044E0
6.666101320E0,1.158223629E0,-1.519662857E0,2.361839294E0
6.674125647E0,4.008414745E-1,-1.410169125E0,2.466143608E0
6.682121050E0,-6.088774204E-1,-8.672475815E-1,1.979013443E0
6.690117300E0,-7.973887920E-1,-1.269207001E-1,1.376862049E0
6.698114010E0,-6.247346401E-1,6.256422997E-1,5.792870522E-1
6.706109952E0,8.394336700E-2,1.235613823E0,7.767324448E-1
6.714104125E0,5.578248501E-1,1.412992001E0,8.848958015E-1
6.722099298E0,7.338321209E-1,1.219063282E0,1.269376278E0
6.730125394E0,3.990521431E-1,9.204893112E-1,1.182800293E0
6.738122105E0,-1.647830009E-2,4.332113266E-1,1.120814800E0
6.746118740E0,-2.367820740E-1,2.107954025E-2,9.213166237E-1
6.754113142E0,-2.687656879E-1,-1.983942986E-1,6.348776817E-1
6.762107931E0,-1.174368858E-1,-1.874690056E-1,2.646303177E-1
6.770105565E0,9.949064255E-2,-8.970689774E-2,-1.596784592E-2
6.778099353E0,3.139302731E-1,1.869678497E-2,-1.700596809E-1
6.786126834E0,4.998290539E-1,7.627725601E-2,-2.281222343E-1
6.794121930E0,4.824352264E-1,5.965518951E-2,-2.520513535E-1
6.802116718E0,2.345499992E-1,-1.502990723E-3,-3.733634949E-1
6.810112659E0,-8.137345314E-2,-7.266998291E-2,-2.975158691E-1
6.818108447E0,-4.061496258E-1,-1.100392342E-1,-4.425549507E-1
6.826105313E0,-4.741523266E-1,-1.310353279E-1,-4.665994644E-1
6.834100409E0,-2.536096573E-1,-1.915311813E-1,-5.430374146E-1
6.842125735E0,1.314430237E-1,-1.890091896E-1,-1.038633347E0
6.850122370E0,1.423714161E-1,-1.182413101E-1,-6.925516129E-1
6.858117158E0,-2.753367424E-1,7.368373871E-2,-7.501201630E-1
6.866113407E0,-5.821707249E-1,1.796641350E-1,-5.137839317E-1
6.874108810E0,-5.881319046E-1,1.400880814E-1,-7.023167610E-1
6.882103906E0,-5.384929180E-1,7.849740982E-2,-7.238564491E-1
6.890100233E0,-5.009913445E-1,9.120941162E-2,-1.118260860E0
6.898125867E0,-1.236036062E0,2.962455750E-1,-9.413700104E-1
6.906123117E0,-1.797476292E0,4.197402000E-1,-1.243263721E0
6.914116904E0,-1.579583645E0,4.530525208E-2,-1.129803658E0
6.922112000E0,-1.031593323E0,-2.321619987E-1,-1.424291611E0
6.930108712E0,3.364973068E-1,-4.960703850E-1,-8.614840508E-1
6.938104038E0,1.027862310E0,-8.638014793E-1,-1.049762249E0
6.946100442E0,7.034931183E-1,-7.696065903E-1,-1.603547096E0
6.954125077E0,2.377352715E-1,-5.629439354E-1,-1.338677883E0
6.962120711E0,-6.877899170E-3,-4.024162292E-1,-1.204642773E0
6.970116190E0,-2.468032837E-1,-2.890305519E-1,-7.976560593E-1
6.978113133E0,-4.810376167E-1,-2.510089874E-1,-6.677646637E-1
6.986109382E0,-5.328235626E-1,-2.924571037E-1,-4.210152626E-1
6.994103863E0,-5.217132568E-1,-4.154601097E-1,1.349987984E-1
7.002099343E0,-3.990111351E-1,-4.363555908E-1,1.329832077E-1
7.010125209E0,-3.864760399E-1,-4.714131355E-1,5.442771912E-1
7.018121458E0,-5.196800232E-1,-5.033965111E-1,6.890144348E-1
7.026117861E0,-7.844519615E-1,-4.371066093E-1,1.044750690E0
7.034112342E0,-1.087926865E0,-1.679334641E-1,1.098288536E0
7.042107976E0,-1.158333778E0,1.100120544E-1,1.040867329E0
7.050103687E0,-8.374710083E-1,2.926096916E-1,1.010081768E0
7.058100014E0,-5.098676682E-1,2.808589935E-1,1.113169670E0
7.066126879E0,-5.515460968E-1,4.206647873E-1,5.308184624E-1
7.074120744E0,-5.789895058E-1,6.826334000E-1,-3.750705719E-2
7.082116070E0,-2.869997025E-1,7.809572220E-1,-3.140373230E-1
7.090112705E0,3.325934410E-1,6.382913589E-1,-2.126293182E-1
7.098107493E0,5.623118877E-1,5.686573982E-1,-5.298986435E-1
7.106104743E0,6.083557606E-1,5.103907585E-1,-7.200798988E-1
7.114099608E0,4.531965256E-1,4.534406662E-1,-5.710701942E-1
7.122125088E0,8.969879150E-2,2.274346352E-1,3.354749680E-1
7.130121183E0,-7.849550247E-1,3.307819366E-3,5.720901489E-1
7.138116587E0,-1.144571304E0,-2.429156303E-1,7.336168289E-1
7.146113529E0,-8.487768173E-1,-5.326476097E-1,6.591095924E-1
7.154107317E0,-3.967270851E-1,-5.920529366E-1,3.150377274E-1
7.162103029E0,-1.816077232E-1,-5.892663002E-1,1.747140884E-1
7.170099432E0,-3.923120499E-1,-5.412197113E-1,3.435039520E-2
7.178125836E0,-6.995649338E-1,-4.539952278E-1,1.118564606E-2
7.185987687E0,-9.300255775E-1,-3.711099625E-1,4.426431656E-2
7.193982137E0,-8.751077652E-1,-2.666554451E-1,-2.438974380E-2
7.201977280E0,-8.498935699E-1,-1.546421051E-1,-3.004360199E-2
7.209973500E0,-9.417438507E-1,1.683850288E-1,-3.147721291E-1
7.217968335E0,-1.053357124E0,3.833022118E-1,-1.330404282E-1
7.225965170E0,-9.764018059E-1,5.458340645E-1,-9.474034309E-1
7.233990081E0,-1.175017834E0,6.332254410E-1,-1.992969513E0
7.241985532E0,-2.868728638E-1,4.544734955E-3,6.976909637E-1
7.249983290E0,2.201571465E-1,6.963081360E-1,-9.582104683E-1
7.257977741E0,-2.346463203E-1,1.621972322E0,-2.420001030E-1
7.265973730E0,-6.660294533E-1,2.139421940E0,-2.099313736E-1
7.273968565E0,-4.701633453E-1,2.132204056E0,-2.131481171E-1
7.281963554E0,-2.132916451E-1,2.093470573E0,-7.053236961E-1
7.289989696E0,-3.098597527E-1,2.097951889E0,-4.370994568E-1
7.297985685E0,-7.188282013E-1,1.951869488E0,-1.423420906E-1
7.305982904E0,-9.467206001E-1,1.659223795E0,3.790044785E-2
7.313977124E0,-8.943424225E-1,1.332767963E0,2.157907486E-1
7.329969641E0,-5.085005760E-1,6.730957031E-1,7.087678909E-1
7.337963784E0,-2.885742188E-1,5.588774681E-1,6.113829613E-1
7.345990849E0,-1.007604599E-2,6.695652008E-1,5.047345161E-1
7.353985376E0,3.034825325E-1,7.745754719E-1,3.223404884E-1
7.361980750E0,4.782338142E-1,9.014501572E-1,1.252126694E-1
7.369977277E0,5.465812683E-1,8.253545761E-1,7.591247559E-3
7.377973266E0,5.235428810E-1,6.964948177E-1,-8.820915222E-2
7.385969024E0,3.517222404E-1,5.113241673E-1,-1.536402702E-1
7.393994783E0,1.089754105E-1,3.124642372E-1,-2.741394043E-1
7.401989541E0,-1.237878799E-1,1.594676971E-1,-2.971863747E-1
7.409984914E0,-2.664914131E-1,2.598285675E-2,-2.201342583E-1
7.417980595E0,-4.410066605E-1,-6.565952301E-2,-7.728052139E-2
7.425977276E0,-6.270599365E-1,-1.493406296E-1,-4.231929779E-3
7.433971727E0,-7.558102608E-1,-2.061953545E-1,-2.575826645E-2
7.441966793E0,-7.531948090E-1,-2.153825760E-1,-1.274108887E-3
7.449963320E0,-7.201395035E-1,-2.262001038E-1,9.182739258E-2
7.457990078E0,-7.119178772E-1,-2.424268723E-1,1.230854988E-1
7.465985836E0,-6.629323959E-1,-2.458534241E-1,8.083057404E-2
7.473980825E0,-5.504589081E-1,-3.090486526E-1,2.027735710E-1
7.481976275E0,-3.990321159E-1,-3.082132339E-1,1.168041229E-1
7.489972264E0,-3.290758133E-1,-2.438850403E-1,6.135511398E-2
7.497967253E0,-2.530770302E-1,-2.654252052E-1,9.232139587E-2
7.505994396E0,-2.090959549E-1,-2.509045601E-1,7.824420929E-2
7.513988847E0,-1.957902908E-1,-1.566672325E-1,6.875419617E-2
7.521984758E0,-1.543989182E-1,-1.021108627E-1,1.180229187E-1
7.529979824E0,-5.366802216E-3,-4.856204987E-2,6.152534485E-2
7.537976120E0,1.916003227E-1,3.223037720E-2,-2.771329880E-2
7.545971494E0,3.475427628E-1,5.603265762E-2,-2.463293076E-2
7.553966560E0,4.066767693E-1,9.715175629E-2,-8.332729340E-2
7.561962318E0,4.697294235E-1,1.439404488E-1,-1.651940346E-1
7.569985692E0,5.541715622E-1,1.960206032E-1,-3.508534431E-1
7.577984373E0,5.147833824E-1,1.900067329E-1,-2.714519501E-1
7.585980746E0,1.989579201E-1,2.138099670E-1,-5.943984985E-1
7.593975427E0,1.541738510E-1,-1.359591484E-1,2.166481018E-1
7.601970570E0,3.429141045E-1,-3.833050728E-1,-2.487044334E-1
7.609966790E0,5.502705574E-1,-5.996003151E-1,5.068778992E-3
7.617993010E0,5.299477577E-1,-6.077332497E-1,-2.004766464E-2
7.625989614E0,3.993763924E-1,-5.817503929E-1,-3.625726700E-2
7.633984372E0,2.702808380E-1,-5.713543892E-1,-1.336007118E-1
7.641979053E0,3.382582664E-1,-5.657987595E-1,-7.878589630E-2
7.649974811E0,4.582200050E-1,-5.845050812E-1,-1.414518356E-1
7.657971338E0,5.422654152E-1,-5.986771584E-1,-2.728590965E-1
7.665968020E0,5.437669754E-1,-6.693086624E-1,-3.081493378E-1
7.673992239E0,5.497226715E-1,-7.002868652E-1,-2.871375084E-1
7.681988305E0,5.678153038E-1,-6.959447861E-1,-2.930169106E-1
7.689983064E0,6.329426765E-1,-6.536278725E-1,-7.576513290E-2
7.697980283E0,5.008063316E-1,-6.523613930E-1,2.649021149E-2
7.705975887E0,3.151345253E-1,-7.234702110E-1,3.760576248E-2
7.713970030E0,1.728396416E-1,-7.242603302E-1,3.687858582E-3
7.721965096E0,7.783460617E-2,-7.179660797E-1,-7.902240753E-2
7.729991931E0,1.100153923E-1,-6.249327660E-1,-1.318655014E-1
7.737987304E0,1.198105812E-1,-5.039787292E-1,-1.712374687E-1
7.745984447E0,2.142863274E-1,-4.185199738E-1,-1.850118637E-1
7.753978975E0,3.465003967E-1,-3.227233887E-1,-3.106884956E-1
7.761974040E0,4.186739922E-1,-2.803626060E-1,-3.555784225E-1
7.769970567E0,3.055276871E-1,-2.907991409E-1,-3.675675392E-1
7.777966325E0,1.292352676E-1,-3.351778984E-1,-4.087028503E-1
7.785992468E0,1.026740074E-1,-4.366731644E-1,-3.253765106E-1
7.793987150E0,1.496596336E-1,-4.755783081E-1,-2.731018066E-1
7.801983139E0,1.084756851E-1,-4.589982033E-1,-2.461361885E-1
7.809976128E0,5.697154999E-2,-4.629974365E-1,-2.094340324E-1
7.817974193E0,1.495647430E-2,-4.612689018E-1,-2.651834488E-1
7.825970259E0,-9.835243225E-3,-4.412703514E-1,-4.002461433E-1
7.833965325E0,9.149551392E-3,-4.285731316E-1,-5.226726532E-1
7.841991083E0,1.925373077E-2,-4.439859390E-1,-6.508603096E-1
7.849987149E0,1.061105728E-2,-3.965940475E-1,-6.749720573E-1
7.857982753E0,-9.573554993E-2,-3.305015564E-1,-5.718240738E-1
7.865979358E0,-1.653366089E-1,-2.311511040E-1,-4.578585625E-1
7.873974423E0,-1.563091278E-1,-1.128888130E-1,-2.601451874E-1
7.881969258E0,-1.088209152E-1,2.670288086E-2,-1.005849838E-1
7.889965785E0,-1.064906120E-1,1.331753731E-1,-3.838729858E-2
7.897991620E0,2.440357208E-2,2.637662888E-1,-4.115629196E-2
7.905987379E0,1.485023499E-1,3.827695847E-1,-4.520702362E-2
7.913982444E0,3.262915611E-1,4.734282494E-1,-6.900310516E-2
7.921977126E0,4.431209564E-1,5.385017395E-1,-1.238851547E-1
7.929973730E0,5.203294754E-1,5.293698311E-1,-2.037177086E-1
7.937969180E0,5.499238968E-1,4.741230011E-1,-2.143831253E-1
7.945965476E0,5.477671623E-1,3.741517067E-1,-1.196579933E-1
7.953990696E0,4.198002815E-1,2.568688393E-1,-1.371536255E-1
7.961986301E0,2.158913612E-1,7.952976227E-2,-3.713798523E-2
7.969981751E0,-1.569461823E-2,-8.667707443E-2,8.924579620E-2
7.977977433E0,-1.907896996E-1,-2.683253288E-1,8.899593353E-2
7.985974345E0,-2.970008850E-1,-3.866138458E-1,2.162027359E-1
7.993969103E0,-3.741288185E-1,-5.762958527E-1,2.246532440E-1
8.001964476E0,-3.853635788E-1,-7.160372734E-1,2.367205620E-1
8.009990003E0,-3.395767212E-1,-8.233237267E-1,2.429032326E-1
8.017986300E0,-2.822732925E-1,-8.071541786E-1,3.365573883E-1
8.025982289E0,-2.066383362E-1,-7.297096252E-1,3.999943733E-1
8.033977278E0,-1.779561043E-1,-6.170606613E-1,4.614543915E-1
8.041972113E0,-2.228822708E-1,-4.690971375E-1,3.866052628E-1
8.047981642E0,-2.837839127E-1,-2.888493538E-1,3.760862350E-1
8.049965948E0,-2.694187164E-1,-2.625131607E-1,3.928456306E-1
8.057964321E0,-1.936736107E-1,-1.385278702E-1,4.627404213E-1
8.065990771E0,-6.089401245E-2,-5.200958252E-2,4.731068611E-1
8.073985530E0,5.439281464E-2,6.156110764E-2,3.635845184E-1
8.081980672E0,1.305537224E-1,1.703634262E-1,3.560075760E-1
8.089976585E0,3.018279076E-1,2.811813354E-1,2.466468811E-1
8.097972574E0,4.643073082E-1,3.199477196E-1,2.763824463E-1
8.105968870E0,5.727019310E-1,3.058519363E-1,4.188275337E-1
8.113963628E0,5.334267616E-1,3.380002975E-1,3.013176918E-1
8.121990155E0,4.752864838E-1,3.580703735E-1,1.503643990E-1
8.129985529E0,4.396424294E-1,3.503427505E-1,8.781957626E-2
8.137980825E0,4.606447220E-1,3.320398331E-1,-1.687049866E-2
8.145977814E0,6.262454987E-1,3.806548119E-1,-9.653615952E-2
8.153971650E0,6.746301651E-1,4.652633667E-1,-7.293653488E-2
8.161967946E0,5.830907822E-1,4.606385231E-1,-1.801075935E-1
8.169963628E0,4.268527031E-1,2.908225060E-1,6.251001358E-2
8.177989385E0,3.056335449E-1,2.014513016E-1,8.578872681E-2
8.185985451E0,1.756119728E-1,1.784324646E-1,1.046624184E-1
8.193980824E0,8.061742783E-2,2.022347450E-1,1.935458183E-1
8.201975506E0,3.184700012E-2,2.225670815E-1,1.791977882E-1
8.209972495E0,9.900999069E-2,1.205496788E-1,2.684545517E-1
8.217966945E0,7.526063919E-2,2.393913269E-2,2.935738564E-1
8.225964088E0,-1.551294327E-2,-7.870817184E-2,2.430686951E-1
8.233989384E0,-1.583743095E-1,-7.827091217E-2,2.745785713E-1
8.241984142E0,-2.158150673E-1,-2.107477188E-2,2.686915398E-1
8.249980670E0,-1.438107491E-1,1.075191498E-1,1.333003044E-1
8.257975812E0,-1.160311699E-1,1.860542297E-1,-2.441978455E-2
8.265972417E0,-2.037429810E-1,5.865287781E-2,-1.261711121E-2
8.273967098E0,-3.466391563E-1,-9.776449203E-2,-1.710486412E-1
8.281962164E0,-3.665432930E-1,-1.399016380E-1,-3.027014732E-1
8.289989614E0,-1.934928894E-1,-1.280021667E-1,-4.122009277E-1
8.297984372E0,1.106686592E-1,-5.550193787E-2,-5.860695839E-1
8.305980976E0,3.536591530E-1,3.853273392E-2,-7.803602219E-1
8.313975042E0,4.774165154E-1,1.574902534E-1,-8.797745705E-1
8.321971031E0,4.906539917E-1,2.982873917E-1,-9.672946930E-1
8.329966405E0,3.881578445E-1,3.377857208E-1,-1.039602757E0
8.337962471E0,2.324814796E-1,2.991905212E-1,-1.042034149E0
8.345989537E0,1.564126015E-1,1.993021965E-1,-9.519882202E-1
8.353983986E0,1.295561790E-1,2.085580826E-1,-8.545832634E-1
8.361979360E0,2.588591576E-1,2.462048531E-1,-7.021245956E-1
8.369975041E0,3.409690857E-1,3.775939941E-1,-8.145141602E-1
8.377970338E0,4.876503944E-1,5.429139137E-1,-7.948579788E-1
8.385967327E0,5.479359627E-1,6.551876068E-1,-8.952856064E-1
8.393961778E0,5.807638168E-1,7.037725449E-1,-9.836087227E-1
8.401987844E0,6.034364700E-1,7.795767784E-1,-9.587435722E-1
8.409982985E0,5.960030556E-1,8.301424980E-1,-9.433975220E-1
8.417979590E0,5.779380798E-1,9.236783981E-1,-6.703553200E-1
8.425975810E0,4.243001938E-1,9.462914467E-1,-3.091053963E-1
8.433970876E0,-5.470371246E-2,9.405417442E-1,-6.435108185E-2
8.441966249E0,-5.783576965E-1,8.124957085E-1,2.890033722E-1
8.449992469E0,-2.881860733E-1,9.112296104E-1,-3.300936699E0
8.457987766E0,1.164279938E0,1.836285591E-1,-2.445378304E-1
8.465984677E0,-8.253455162E-1,-1.240013599E0,3.170550346E0
8.473979512E0,-4.533833504E0,-2.373316765E0,5.051813602E0
8.481973963E0,-5.992752075E0,-2.676805019E0,3.063248158E0
8.489970490E0,-4.629929066E0,-3.151358604E0,3.216448784E0
8.497965864E0,-1.957767010E0,-3.158545494E0,3.294275761E0
8.505962237E0,-1.173577785E0,-2.519965649E0,3.173388004E0
8.513987380E0,-1.694492817E0,-1.285071373E0,2.080257416E0
8.529979049E0,-1.088035583E0,5.885028839E-2,6.993088722E-1
8.537973885E0,-3.047461510E-1,4.742517471E-1,5.677700043E-3
8.545970412E0,2.806339264E-1,8.299651146E-1,-6.456561089E-1
8.553965863E0,1.077004433E0,1.121006966E0,-1.418462276E0
8.561991390E0,1.826244831E0,1.246392727E0,-1.793723106E0
8.569987302E0,2.236849546E0,1.285456181E0,-1.773406982E0
8.577982676E0,2.091661930E0,1.264811516E0,-1.617780924E0
8.585979049E0,1.652731895E0,1.215445042E0,-1.555237770E0
8.593973807E0,1.317043304E0,1.096788406E0,-1.389190674E0
8.601968873E0,1.206617832E0,9.366412163E-1,-1.256764412E0
8.609965169E0,1.095933914E0,7.389969826E-1,-1.204673767E0
8.617992235E0,8.237481117E-1,5.919952393E-1,-1.332345486E0
8.625988147E0,4.947228432E-1,5.088105202E-1,-1.490837097E0
8.633982367E0,3.092331886E-1,3.714866638E-1,-1.468413830E0
8.641977664E0,2.642283440E-1,2.806262970E-1,-1.622434855E0
8.649973037E0,1.745185852E-1,2.590351105E-1,-1.828032732E0
8.657969410E0,1.154732704E-1,2.957839966E-1,-1.881988525E0
8.665966322E0,2.482619286E-1,3.899412155E-1,-1.964144707E0
8.673990927E0,1.905849457E0,7.893085480E-1,-6.009708881E0
8.681986531E0,1.705067635E0,-7.813262939E-1,7.201528549E-2
8.689982212E0,-2.494384289E0,-1.891103268E0,3.415047646E0
8.697978202E0,-4.845099926E0,-2.072805882E0,2.238919258E0
8.705974190E0,-4.125431538E0,-2.067451954E0,1.490702152E0
8.713968409E0,-1.598042488E0,-2.223364353E0,2.148334026E0
8.721964706E0,-3.490142822E-1,-1.960259438E0,2.176105976E0
8.729990464E0,-1.338580132E0,-1.194303513E0,2.033645630E0
8.737986453E0,-1.870217323E0,-6.623973846E-1,1.741168499E0
8.739970220E0,-1.752921581E0,-5.796918869E-1,1.617150784E0
8.741985217E0,-1.587721825E0,-4.815297127E-1,1.463922024E0
8.743967445E0,-1.487165451E0,-4.408283234E-1,1.387307644E0
8.745982442E0,-1.259716034E0,-3.354835510E-1,1.205348015E0
8.753978431E0,-6.473984718E-1,-1.629376411E-1,5.939278603E-1
8.761972650E0,-2.621598244E-1,1.415033340E-1,-3.548860550E-2
8.767983104E0,-4.866600037E-2,5.041189194E-1,-3.542852402E-1
8.769966408E0,-4.866600037E-2,5.041189194E-1,-3.542852402E-1
8.777964320E0,3.782429695E-1,6.649303436E-1,-6.422457695E-1
8.785991309E0,9.386153221E-1,6.911091805E-1,-1.051584721E0
8.793986145E0,1.159890175E0,5.777654648E-1,-1.119169235E0
8.801980826E0,1.044128418E0,4.225654602E-1,-1.087255955E0
8.809977200E0,8.663725853E-1,3.237886429E-1,-8.479719162E-1
8.817972804E0,7.985663414E-1,3.214573860E-1,-7.757143974E-1
8.825968561E0,8.374476433E-1,4.283752441E-1,-7.340226173E-1
8.833964166E0,7.860155106E-1,5.197472572E-1,-8.434200287E-1
8.841989385E0,7.205853462E-1,7.030711174E-1,-9.797649384E-1
8.849985990E0,7.282114029E-1,8.590159416E-1,-1.021998882E0
8.857981364E0,7.697629929E-1,1.000079632E0,-1.159595013E0
8.865977968E0,6.931524277E-1,1.130084038E0,-1.193606853E0
8.873972803E0,5.309228897E-1,1.161547661E0,-1.097486973E0
8.881967560E0,2.823791504E-1,1.067389488E0,-8.583836555E-1
8.889964088E0,3.925800323E-3,9.527978897E-1,-6.667079926E-1
8.897990308E0,-2.505412102E-1,7.909693718E-1,-4.236660004E-1
8.905986527E0,-3.027229309E-1,6.149277687E-1,4.115104675E-4
8.913980747E0,1.186161041E-1,6.359720230E-1,-2.740599632E0
8.921975736E0,1.695443153E0,-1.430730820E-1,7.857012749E-1
8.929972033E0,-4.825401306E-1,-9.844827652E-1,1.871027470E0
8.937967714E0,-4.368972301E0,-1.948432446E0,3.841174126E0
8.945963779E0,-5.201107979E0,-1.973380089E0,2.080329418E0
8.953988922E0,-2.849254608E0,-1.971187592E0,1.704382896E0
8.961984065E0,-5.047092438E-1,-1.606204987E0,1.700617790E0
8.969980669E0,-2.094001770E-1,-1.011541367E0,1.519690514E0
8.977975428E0,-1.107507229E0,-2.445464134E-1,9.499249458E-1
8.985973263E0,-1.418511868E0,9.516620636E-2,4.874796867E-1
8.993967636E0,-9.359207153E-1,1.787214279E-1,1.148328781E-1
9.001962163E0,-1.908864975E-1,2.263321877E-1,-3.616676331E-1
9.009986998E0,4.705181122E-1,3.882379532E-1,-8.888263702E-1
9.017984602E0,9.668464661E-1,4.328618050E-1,-8.723649979E-1
9.025980822E0,9.124579430E-1,3.683986664E-1,-5.635809898E-1
9.033976504E0,4.296951294E-1,2.324032784E-1,-3.893141747E-1
9.041971031E0,1.559920311E-1,1.382169724E-1,-4.002676010E-1
9.049967251E0,3.067507744E-1,1.675629616E-1,-4.063372612E-1
9.057963008E0,5.284566879E-1,3.240103722E-1,-5.345859528E-1
9.065990074E0,5.358119011E-1,5.189819336E-1,-5.317053795E-1
9.073984217E0,4.033770561E-1,6.756224632E-1,-6.561751366E-1
9.081978667E0,2.945380211E-1,7.602496147E-1,-7.447242737E-1
9.089975580E0,2.879824638E-1,8.541140556E-1,-8.936481476E-1
9.097971184E0,3.725275993E-1,8.883504868E-1,-1.089756489E0
9.105967481E0,5.027184486E-1,9.237265587E-1,-1.128787994E0
9.113962239E0,6.623864174E-1,9.534564018E-1,-1.170360088E0
9.121987765E0,7.702398300E-1,9.858489037E-1,-1.170297623E0
9.129984677E0,7.682971954E-1,9.199576378E-1,-9.284615517E-1
9.137980128E0,6.066083908E-1,7.334527969E-1,-7.277927399E-1
9.145976117E0,1.724758148E-1,5.231261253E-1,-5.576400757E-1
9.153970875E0,1.394715309E-1,4.815049171E-1,-3.470915556E0
9.161966249E0,1.250155926E0,1.777639389E-1,-1.019385338E0
9.169962776E0,-5.688099861E-1,-6.896882057E-1,1.486151695E0
9.177987764E0,-3.508557796E0,-1.482237339E0,3.178822041E0
9.185984600E0,-4.687853813E0,-1.797846794E0,1.444272518E0
9.193979358E0,-2.780758858E0,-1.974167824E0,1.516502380E0
9.201974116E0,-7.712965012E-1,-1.782831192E0,1.980090141E0
9.209970797E0,-1.774396896E-1,-1.237493992E0,1.944493771E0
9.217965786E0,-6.951837540E-1,-5.589461327E-1,1.516819000E0
9.225962160E0,-7.814412117E-1,-7.972288132E-2,9.405050278E-1
9.233987917E0,-4.591765404E-1,1.357650757E-2,5.469174385E-1
9.241983060E0,-3.254938126E-2,7.570266724E-2,-1.472177505E-1
9.249979280E0,5.615997314E-1,2.660698891E-1,-8.544082642E-1
9.257974654E0,1.101377964E0,3.848423958E-1,-8.928771019E-1
9.265970720E0,1.237293720E0,3.789186478E-1,-7.496657372E-1
9.273965709E0,9.337735176E-1,2.890758514E-1,-6.493968964E-1
9.281961082E0,5.995821953E-1,1.047759056E-1,-4.756965637E-1
9.289987917E0,6.954903603E-1,2.602767944E-2,-3.502569199E-1
9.297982905E0,8.793420792E-1,1.059937477E-1,-2.938380241E-1
9.305979510E0,8.811044693E-1,2.593731880E-1,-2.907938957E-1
9.313974037E0,6.630210876E-1,3.981232643E-1,-3.972983360E-1
9.321969334E0,4.645905495E-1,5.261917114E-1,-5.899591446E-1
9.329965015E0,4.881730080E-1,6.038169861E-1,-6.799054146E-1
9.337961081E0,6.730041504E-1,6.829113960E-1,-7.624349594E-1
9.345987455E0,7.885513306E-1,7.819476128E-1,-9.085702896E-1
9.353982520E0,7.754964828E-1,8.756422997E-1,-1.040205002E0
9.361978201E0,7.911953926E-1,8.613686562E-1,-9.948859215E-1
9.369974575E0,7.894916534E-1,8.258028030E-1,-1.060040951E0
9.377969948E0,7.234153748E-1,7.326545715E-1,-1.038629532E0
9.385966168E0,4.861812592E-1,6.440587044E-1,-1.118709564E0
9.393960388E0,3.893213272E-1,6.622405052E-1,-2.085639477E0
9.401986223E0,1.750357151E0,4.754538536E-1,-1.592199326E0
9.409982750E0,1.389112473E-1,-6.075539589E-1,8.946127892E-1
9.417977816E0,-4.046740055E0,-1.399798393E0,3.181018353E0
9.425974112E0,-5.640679836E0,-1.497821331E0,1.354793072E0
9.433968871E0,-3.871411324E0,-1.618712425E0,1.459073067E0
9.441964244E0,-1.040915489E0,-1.484961510E0,1.938192844E0
9.449960541E0,-4.309606552E-1,-1.042252541E0,2.004174709E0
9.457986684E0,-1.413727283E0,-4.485163689E-1,1.353621006E0
9.465982673E0,-1.783534527E0,-2.019391060E-1,7.149028778E-1
9.473977815E0,-1.162506580E0,-1.715030670E-1,3.741745949E-1
9.481972265E0,-4.439163208E-1,5.983877182E-2,-6.027698517E-3
9.489969408E0,2.482199669E-1,3.431949615E-1,-6.478290558E-1
9.497965166E0,1.072215080E0,5.350255966E-1,-9.949908257E-1
9.505991309E0,1.460932255E0,5.454478264E-1,-9.029679298E-1
9.513986375E0,1.381413460E0,4.932632446E-1,-8.275485039E-1
9.521980826E0,9.591455460E-1,4.046025276E-1,-6.673054695E-1
9.529976506E0,8.123955727E-1,2.942380905E-1,-5.811772346E-1
9.537973110E0,8.897056580E-1,2.844109535E-1,-6.223497391E-1
9.545969330E0,9.952497482E-1,3.588404655E-1,-5.910077095E-1
9.553964165E0,8.846359253E-1,4.952249527E-1,-5.840072632E-1
9.561990616E0,6.760182381E-1,6.208353043E-1,-7.115626335E-1
9.569985374E0,5.870556831E-1,6.949124336E-1,-8.015899658E-1
9.577981671E0,6.306128502E-1,7.610960007E-1,-8.862514496E-1
9.585977583E0,6.579861641E-1,7.797808647E-1,-9.433426857E-1
9.593972956E0,6.315474510E-1,7.492556572E-1,-1.036229610E0
9.601967175E0,5.381083488E-1,6.844716072E-1,-1.024312973E0
9.609963780E0,3.841629028E-1,5.903296471E-1,-9.752140045E-1
9.617990153E0,2.584805489E-1,5.309219360E-1,-9.443497658E-1
9.625986450E0,2.987251282E-1,5.267887115E-1,-1.644931793E0
9.633980978E0,1.648554325E0,2.769088745E-1,-9.719047546E-1
9.641976274E0,-3.451576233E-1,-7.113609314E-1,1.325415134E0
9.649971955E0,-4.128724575E0,-1.379629135E0,3.736164093E0
9.657968021E0,-5.596763134E0,-1.591338634E0,1.298691750E0
9.665964317E0,-4.084579945E0,-1.548945904E0,1.959794044E0
9.673989768E0,-1.582292080E0,-1.167706013E0,2.455610752E0
9.681985142E0,-9.287424088E-1,-4.556784630E-1,1.634388924E0
9.689981131E0,-1.303442955E0,1.938285828E-1,1.022701740E0
9.697976581E0,-1.217681885E0,3.442568779E-1,9.958600998E-2
9.705972569E0,-6.685013771E-1,3.094711304E-1,2.015786171E-1
9.713967866E0,-3.864793777E-1,2.574510574E-1,3.032264709E-1
9.721962393E0,1.322913170E-1,2.076425552E-1,-1.901049614E-1
9.729990690E0,9.790444374E-1,2.055892944E-1,-6.403055191E-1
9.737984756E0,1.449842930E0,1.419124603E-1,-6.250143051E-1
9.745982283E0,1.245953083E0,9.110498428E-2,-5.556583405E-1
9.753975580E0,6.124720573E-1,1.310920715E-2,-4.501090050E-1
9.761971492E0,3.723239899E-1,-3.551435471E-2,-5.129556656E-1
9.769968096E0,6.583318710E-1,3.804731369E-2,-5.875086784E-1
9.773964783E0,8.136944771E-1,8.299398422E-2,-5.956487656E-1
9.775978934E0,8.855204582E-1,1.213011742E-1,-6.100139618E-1
9.777962623E0,9.046740532E-1,1.452431679E-1,-6.219849586E-1
9.785989920E0,8.302993774E-1,3.213820457E-1,-6.732454300E-1
9.793984755E0,6.232504845E-1,4.306664467E-1,-6.603941917E-1
9.801979513E0,5.665955544E-1,4.791860580E-1,-7.301068306E-1
9.809976964E0,6.330838203E-1,5.057921410E-1,-8.516750336E-1
9.817971414E0,6.837391853E-1,5.921049118E-1,-9.842576981E-1
9.825968095E0,7.211103439E-1,6.878929138E-1,-9.863400459E-1
9.833962238E0,7.398734093E-1,7.651495934E-1,-9.989199638E-1
9.841988380E0,7.299523354E-1,7.739653587E-1,-9.789981842E-1
9.849984369E0,5.999331474E-1,6.713352203E-1,-7.808651924E-1
9.857979743E0,3.694272041E-1,5.185027122E-1,-7.594771385E-1
9.865976348E0,8.999333382E-1,7.227835655E-1,-4.647442341E0
9.873971106E0,1.839115620E0,-2.008676529E-2,9.731388092E-1
9.881965787E0,-1.327706337E0,-5.627679825E-1,1.643553257E0
9.889962698E0,-4.223710537E0,-1.226317406E0,3.045414925E0
9.897988610E0,-4.975111961E0,-1.627992153E0,2.646885872E0
9.905985138E0,-2.960057735E0,-1.836527824E0,2.100759029E0
9.913979896E0,-1.046560287E0,-1.237702847E0,1.889605045E0
9.921974962E0,-1.800556183E-1,-3.981847763E-1,9.170141220E-1
9.923989805E0,-1.704788208E-1,-2.497444153E-1,7.063245773E-1
9.925973110E0,-1.920266151E-1,1.122379303E-2,4.285969734E-1
9.927987568E0,-2.303338051E-1,1.644525528E-1,4.046549797E-1
9.929970336E0,-2.518815994E-1,2.171249390E-1,4.884519577E-1
9.937966632E0,-4.781131744E-1,2.013087273E-1,5.859746933E-1
9.945963236E0,-7.732553482E-1,1.846599579E-2,1.361451149E-1
9.953987917E0,-6.180253029E-1,-8.934259415E-2,-2.121019363E-1
9.961983291E0,3.755636215E-1,-5.856037140E-3,-8.207983971E-1
9.969979510E0,1.303554058E0,2.264981270E-1,-1.173103809E0
9.977975269E0,1.694161892E0,5.351910591E-1,-1.217509031E0
9.985971565E0,1.335982800E0,7.184429169E-1,-1.075976372E0
9.993966324E0,6.654939651E-1,6.303677559E-1,-7.551283836E-1
1.000196077E1,4.672775269E-1,4.318394661E-1,-5.828185081E-1
1.000998746E1,7.143878937E-1,2.607550621E-1,-5.360770226E-1
1.001798375E1,9.652719498E-1,2.579264641E-1,-5.395908356E-1
1.002597951E1,8.827567101E-1,4.039773941E-1,-5.452528000E-1
1.003397427E1,6.603531837E-1,5.729846954E-1,-6.074647903E-1
1.004196956E1,5.336174965E-1,6.855721474E-1,-6.441512108E-1
1.004996586E1,5.372152328E-1,6.968197823E-1,-7.087678909E-1
1.005796093E1,4.876170158E-1,6.863079071E-1,-8.096508980E-1
1.006598868E1,3.210406303E-1,6.838607788E-1,-8.347549438E-1
1.007398306E1,1.806340218E-1,6.680645943E-1,-8.395452499E-1
1.008197843E1,8.044290543E-2,5.957808495E-1,-7.382159233E-1
1.008997411E1,5.849409103E-2,4.786171913E-1,-1.300022840E0
1.009797072E1,1.523920059E0,3.613271713E-1,-2.016950130E0
1.010596617E1,1.293792725E-1,-5.509471893E-1,7.533211708E-1
1.011396123E1,-3.535134792E0,-1.009317398E0,3.300728321E0
1.012198699E1,-5.168363094E0,-1.641656876E0,2.829733849E0
1.012998298E1,-4.004585743E0,-1.954074383E0,2.005299091E0
1.013797805E1,-1.179016590E0,-1.482397079E0,1.755612850E0
1.014597465E1,2.861161232E-1,-8.080615997E-1,1.557390690E0
1.015396972E1,6.266903877E-1,1.623959541E-1,-7.232856750E-2
1.016196455E1,3.350763321E-1,5.696234703E-1,5.800437927E-2
1.016996108E1,-1.625180244E-1,3.810343742E-1,-2.672767639E-2
1.017798638E1,-3.598027229E-1,2.219786644E-1,-1.070938110E-1
1.018598298E1,1.746330261E-1,1.230850220E-1,-3.841381073E-1
1.019397835E1,1.239984035E0,2.233333588E-1,-8.334903717E-1
1.020197280E1,1.680600166E0,4.661488533E-1,-9.846878052E-1
1.020996964E1,1.390342236E0,5.919570923E-1,-7.970018387E-1
1.021796409E1,7.428407669E-1,4.468770027E-1,-5.127735138E-1
1.022596108E1,2.997589111E-1,1.289348602E-1,-3.817701340E-1
1.023398661E1,4.909381866E-1,-8.540248871E-2,-3.507723808E-1
1.024198229E1,8.030314445E-1,-4.779815674E-2,-3.463926315E-1
1.024997758E1,8.487043381E-1,1.527800560E-1,-3.971743584E-1
1.025797334E1,7.303791046E-1,3.138937950E-1,-4.665274620E-1
1.026596895E1,5.981616974E-1,4.607200623E-1,-5.969171524E-1
1.027396470E1,6.400170326E-1,5.749707222E-1,-7.360482216E-1
1.028195977E1,6.936230659E-1,7.222952843E-1,-8.347215652E-1
1.028998684E1,6.638541222E-1,8.585577011E-1,-8.694567680E-1
1.029798190E1,4.920024872E-1,8.726296425E-1,-7.322711945E-1
1.030597843E1,1.920223236E-1,7.812829018E-1,-5.217251778E-1
1.031397234E1,-8.971738815E-2,6.220679283E-1,-3.651595116E-1
1.032196764E1,5.952181816E-1,7.397537231E-1,-3.929973125E0
1.032996363E1,8.140563965E-1,-2.396187782E-1,8.189601898E-1
1.033795969E1,-3.032499313E0,-1.094379902E0,3.188095093E0
1.034598614E1,-6.651531696E0,-1.666935444E0,2.731451988E0
1.035398152E1,-6.389521122E0,-1.195617676E0,1.141867161E0
1.036197650E1,-3.537205219E0,-5.797371864E-1,1.570975304E0
1.036997311E1,-1.001954556E0,1.279311180E-1,1.778946400E0
1.037796787E1,-4.228734970E-1,5.756254196E-1,1.779640675E0
1.038596447E1,-5.991744995E-1,8.883571625E-1,8.449182510E-1
1.039395954E1,-3.850431442E-1,9.021258354E-1,-2.122464180E-1
1.040198514E1,3.362002373E-1,5.438380241E-1,-3.978152275E-1
1.040998052E1,9.750280380E-1,5.411815643E-1,-1.301786184E0
1.041797673E1,1.369647026E0,7.875118256E-1,-9.887051582E-1
1.042597334E1,1.376866817E0,8.166685104E-1,-7.601137161E-1
1.043396787E1,1.274247646E0,7.036471367E-1,-6.752114296E-1
1.044196286E1,1.155132294E0,3.834452629E-1,-6.071839333E-1
1.044998961E1,1.047138691E0,8.511590958E-2,-8.064618111E-1
1.045798529E1,9.464516640E-1,-7.791185379E-2,-7.302484512E-1
1.046598198E1,7.174601555E-1,-1.650824547E-1,-4.584336281E-1
1.047397604E1,3.851408958E-1,-1.795506477E-1,-2.832055092E-1
1.048197141E1,-2.759933472E-2,-2.253670692E-1,-2.405891418E-1
1.048996748E1,-2.608709335E-1,-2.743444443E-1,-2.510848045E-1
1.049796308E1,-3.306136131E-1,-2.657823563E-1,-3.107528687E-1
1.050599054E1,-3.152542114E-1,-2.615237236E-1,-1.938562393E-1
1.051398491E1,-3.201317787E-1,-1.707639694E-1,-2.190403938E-1
1.052197936E1,-3.802714348E-1,-6.452512741E-2,-2.956380844E-1
1.052997689E1,-6.397166252E-1,7.294607162E-2,-2.499904633E-1
1.053797134E1,-9.769306183E-1,2.506213188E-1,-2.552618980E-1
1.054596832E1,-1.200200081E0,3.638215065E-1,-3.508849144E-1
1.055396308E1,-1.241095543E0,4.568705559E-1,-4.131784439E-1
1.056198853E1,-1.223535061E0,4.161562920E-1,-2.423424721E-1
1.056998429E1,-1.244030476E0,3.986735344E-1,-1.592240334E-1
1.057798028E1,-1.336769104E0,3.769063950E-1,-1.752381325E-1
1.058597650E1,-1.436792850E0,4.132809639E-1,-2.251892090E-1
1.059397095E1,-1.404047966E0,4.764966965E-1,-2.790222168E-1
1.060196663E1,-1.232819557E0,5.354619026E-1,-2.947440147E-1
1.060996270E1,-1.046762943E0,5.641241074E-1,-3.067398071E-1
1.061798823E1,-9.972586632E-1,6.293573380E-1,-3.964209557E-1
1.062598475E1,-1.061306477E0,6.451902390E-1,-4.847984314E-1
1.063397990E1,-1.184416771E0,5.619282722E-1,-3.611173630E-1
1.064197435E1,-1.271277905E0,4.729022980E-1,-3.419857025E-1
1.064997087E1,-1.232000828E0,3.757162094E-1,-3.115205765E-1
1.065796663E1,-1.027019978E0,3.400244713E-1,-3.332543373E-1
1.066596324E1,-7.857313156E-1,3.898777962E-1,-5.101242065E-1
1.067398815E1,-4.519114494E-1,5.183234215E-1,-6.318054199E-1
1.068198375E1,-1.622123718E-1,5.686411858E-1,-6.992461681E-1
1.068997913E1,1.637492180E-1,5.304989815E-1,-6.998841763E-1
1.069797512E1,3.606128693E-1,5.011816025E-1,-6.783812046E-1
1.070597118E1,5.058879852E-1,4.303941727E-1,-5.248937607E-1
1.071396617E1,6.173758507E-1,3.261408806E-1,-3.813610077E-1
1.072196185E1,7.703447342E-1,2.292299271E-1,-2.404222488E-1
1.072998769E1,8.449044228E-1,1.954646111E-1,-1.535139084E-1
1.073798406E1,9.206800461E-1,1.657276154E-1,-6.777286530E-2
1.074598005E1,1.007366180E0,1.391534805E-1,-7.371282578E-2
1.075397450E1,1.179424763E0,7.139778137E-2,-6.894779205E-2
1.076196980E1,1.354751587E0,-2.887392044E-2,-3.596544266E-2
1.076996671E1,1.528707504E0,-2.067608833E-1,4.274368286E-2
1.077796116E1,1.592578888E0,-3.385930061E-1,2.019248009E-1
1.078598922E1,1.559530258E0,-5.388398170E-1,4.546604156E-1
1.079398306E1,1.356096745E0,-7.474427223E-1,5.807762146E-1
1.080197843E1,1.193281174E0,-8.516569138E-1,6.131892204E-1
1.080997373E1,1.196580887E0,-1.027281761E0,8.302097321E-1
1.081797003E1,1.341000080E0,-1.119859695E0,9.839434624E-1
1.082596725E1,1.536229134E0,-1.135779858E0,1.056416512E0
1.083396054E1,1.596986294E0,-1.068568707E0,1.009026527E0
1.084198691E1,1.526186943E0,-1.063227654E0,9.075555801E-1
1.084998290E1,1.534827232E0,-1.161825657E0,8.770809174E-1
1.085797828E1,1.593331814E0,-1.254716873E0,8.503441811E-1
1.086597488E1,1.653379440E0,-1.375827312E0,7.845320702E-1
1.087396964E1,1.686199665E0,-1.438569546E0,7.247982025E-1
1.088196501E1,1.625156403E0,-1.472328186E0,7.039675713E-1
1.088996100E1,1.544911385E0,-1.456526279E0,7.257423401E-1
1.089798691E1,1.486909866E0,-1.393052101E0,7.235798836E-1
1.090598436E1,1.449027538E0,-1.334673882E0,4.269714355E-1
1.091397789E1,1.283817291E0,-1.582901478E0,1.196166992E0
1.092197334E1,1.244064808E0,-1.405796528E0,1.060617924E0
1.092996933E1,1.013296604E0,-1.179991245E0,1.278522015E0
1.093796524E1,9.683527946E-1,-1.130080223E0,7.886347771E-1
1.094596154E1,1.243885994E0,-1.206842422E0,8.544588089E-1
1.095398645E1,1.270235062E0,-1.151423931E0,9.348506927E-1
1.096198213E1,1.054266453E0,-9.583830833E-1,7.693409920E-1
1.096997751E1,9.379396439E-1,-8.302297592E-1,5.982365608E-1
1.097797357E1,8.808341026E-1,-7.813792229E-1,6.157579422E-1
1.098596987E1,7.059521675E-1,-6.586289406E-1,5.730981827E-1
1.099396455E1,5.706119537E-1,-4.729905128E-1,3.294982910E-1
1.100195962E1,5.091433525E-1,-3.686542511E-1,3.736124039E-1
1.100998583E1,4.196043015E-1,-3.375582695E-1,5.489211082E-1
1.101798175E1,2.484035492E-1,-2.490067482E-1,5.061469078E-1
1.102597804E1,1.450891495E-1,-1.970915794E-1,5.207843781E-1
1.103397311E1,7.399463654E-2,-1.532864571E-1,3.868174553E-1
1.104196794E1,-2.836227417E-3,-1.905231476E-1,6.273818016E-1
1.104996455E1,-8.321475983E-2,-1.523137093E-1,3.598604202E-1
1.105795961E1,-7.198047638E-2,-1.928544044E-1,2.749609947E-1
1.106598699E1,-1.479926109E-1,-1.857762337E-1,3.199939728E-1
1.107398144E1,-1.395816803E-1,-9.713840485E-2,-7.503747940E-2
1.108197681E1,-1.756238937E-1,2.370834351E-2,2.508735657E-2
1.108997280E1,-2.660751343E-1,1.701459885E-1,-4.160227776E-1
1.109796841E1,-3.740124702E-1,2.689280510E-1,-2.134242058E-1
1.110596509E1,-3.708133698E-1,3.689541817E-1,-7.670993805E-1
1.111395892E1,-6.520576477E-1,3.368830681E-1,-1.476340294E-1
1.112198476E1,-9.560456276E-1,4.710717201E-1,-8.508572578E-1
1.112998198E1,-1.164744854E0,4.226126671E-1,-2.583189011E-1
1.113797696E1,-1.479194641E0,3.669714928E-1,-4.693403244E-1
1.114597334E1,-1.424338818E0,5.161132812E-1,-8.969087601E-1
1.115396833E1,-1.448872566E0,5.915293694E-1,-3.380522728E-1
1.116196316E1,-1.904854298E0,6.219410896E-1,-5.938205719E-1
1.116995884E1,-2.011921883E0,9.827914238E-1,-9.222669601E-1
1.117798529E1,-1.439031124E0,1.048603058E0,-1.018520355E0
1.118598159E1,-1.330110550E0,1.047222137E0,-8.452920914E-1
1.119397596E1,-1.781675816E0,1.414357185E0,-1.434872627E0
1.120197164E1,-2.156223774E0,1.542516708E0,-1.129339218E0
1.120996833E1,-2.300711155E0,1.462339401E0,-1.085785389E0
1.121796308E1,-2.104875088E0,1.399922848E0,-1.137104273E0
1.122596000E1,-1.944790363E0,1.337560177E0,-1.018375874E0
1.123398545E1,-1.859371662E0,1.313131809E0,-1.049052000E0
1.124198082E1,-1.872725010E0,1.199212074E0,-9.383790493E-1
1.124997627E1,-1.925385475E0,1.054712772E0,-9.133923054E-1
1.125797157E1,-1.804629803E0,9.091339111E-1,-9.165551662E-1
1.126596886E1,-1.567290306E0,7.610030174E-1,-8.864171505E-1
1.127396262E1,-1.260575294E0,6.419239044E-1,-8.265974522E-1
1.128195777E1,-9.823908806E-1,4.951014519E-1,-7.625451088E-1
1.128998475E1,-8.055438995E-1,3.160634041E-1,-8.453671932E-1
1.129798043E1,-6.421852112E-1,1.439437866E-1,-7.257096767E-1
1.130597742E1,-4.677734375E-1,-1.435613632E-2,-6.546564102E-1
1.131397126E1,-2.093768120E-1,-1.439857483E-1,-4.373574257E-1
1.132196663E1,3.271961212E-2,-2.538800240E-1,-1.961140633E-1
1.132996224E1,2.593507767E-1,-3.624939919E-1,-5.003166199E-2
1.133795830E1,4.342761040E-1,-4.692878723E-1,-4.011154175E-3
1.134598537E1,5.908498764E-1,-5.407495499E-1,7.791900635E-2
1.135397943E1,7.066702843E-1,-6.175289154E-1,1.194181442E-1
1.136197542E1,8.444490433E-1,-6.554360390E-1,1.334519386E-1
1.136997087E1,9.833216667E-1,-6.705880165E-1,1.524925232E-1
1.137796594E1,1.068396568E0,-6.719932556E-1,1.535830498E-1
1.138596339E1,1.153519154E0,-6.125621796E-1,2.142357826E-1
1.139395822E1,1.173646450E0,-4.843406677E-1,2.133898735E-1
1.140198368E1,1.135430813E0,-3.936271667E-1,1.694698334E-1
1.140998005E1,1.037557125E0,-3.387079239E-1,2.149014473E-1
1.141797596E1,9.599266052E-1,-3.773622513E-1,3.781380653E-1
1.142597202E1,8.589873314E-1,-4.283351898E-1,4.236922264E-1
1.143396648E1,7.919206619E-1,-4.604511261E-1,4.613971710E-1
1.144196185E1,6.959805489E-1,-4.903368950E-1,4.859757423E-1
1.144995776E1,6.167721748E-1,-4.705381393E-1,5.066943169E-1
1.145798421E1,5.473370552E-1,-4.394116402E-1,5.310931206E-1
1.146597997E1,5.430331230E-1,-4.519348145E-1,5.478267670E-1
1.147397558E1,5.713205338E-1,-4.531822205E-1,5.414280891E-1
1.148197010E1,5.527157784E-1,-4.699463844E-1,4.780750275E-1
1.148996671E1,4.979376793E-1,-4.806571007E-1,4.167718887E-1
1.149796231E1,4.912233353E-1,-5.234112740E-1,3.846268654E-1
1.150598907E1,4.847064018E-1,-6.412935257E-1,4.557876587E-1
1.151398321E1,4.758210182E-1,-7.170295715E-1,4.598822594E-1
1.152197889E1,4.427914619E-1,-8.150019646E-1,4.710812569E-1
1.152997434E1,4.140400887E-1,-8.322792053E-1,4.769201279E-1
1.153797033E1,3.463921547E-1,-9.035272598E-1,5.482897758E-1
1.154596655E1,3.564686775E-1,-9.232258797E-1,5.336399078E-1
1.155396193E1,4.745502472E-1,-9.483823776E-1,6.239829063E-1
1.156198714E1,7.566704750E-1,-1.021389008E0,7.250452042E-1
1.156998321E1,9.755077362E-1,-1.134749413E0,7.248988152E-1
1.157797943E1,1.181976318E0,-1.302515030E0,7.181539536E-1
1.158597480E1,1.264742851E0,-1.382936001E0,5.800700188E-1
1.159396964E1,1.229309559E0,-1.327700615E0,4.389543533E-1
1.160196563E1,1.086478233E0,-1.199409008E0,3.150038719E-1
1.160996154E1,9.010672569E-1,-1.158546925E0,4.642767906E-1
1.161798684E1,8.618988991E-1,-1.137144089E0,6.282052994E-1
1.162598436E1,8.883314133E-1,-1.067599297E0,7.144994736E-1
1.163397851E1,9.098920822E-1,-9.289531708E-1,6.710190773E-1
1.164996733E1,6.105647087E-1,-2.673940659E-1,-5.627965927E-2
1.165796493E1,1.157507896E-1,1.163687706E-1,-5.280733109E-1
1.166596146E1,-3.870396614E-1,2.835259438E-1,-3.334403038E-1
1.167398768E1,-6.496024132E-1,2.068748474E-1,1.986293793E-1
1.168198213E1,-5.325355530E-1,5.585002899E-2,5.164923668E-1
1.168997781E1,-3.037657738E-1,1.078720093E-1,6.655526161E-1
1.169797372E1,-1.128449440E-1,3.928346634E-1,4.644689560E-1
1.170597010E1,-3.788471222E-3,7.053980827E-1,2.181787491E-1
1.171396539E1,6.526613235E-2,8.671650887E-1,1.161785126E-1
1.172196023E1,1.098279953E-1,9.084529877E-1,1.872100830E-1
1.172998668E1,1.991796494E-1,8.925352097E-1,2.765083313E-1
1.173798228E1,2.356405258E-1,9.876747131E-1,2.418537140E-1
1.174597827E1,2.374286652E-1,1.089992523E0,2.683963776E-1
1.175397372E1,3.610463142E-1,1.186593533E0,3.155670166E-1
1.176196879E1,4.753036499E-1,1.277299881E0,3.336987495E-1
1.176996470E1,4.645404816E-1,1.432326317E0,3.396682739E-1
1.177796015E1,3.602032661E-1,1.483871937E0,2.712812424E-1
1.178598722E1,1.999464035E-1,1.509715080E0,2.151160240E-1
1.179398198E1,2.007179260E-1,1.425295830E0,2.915391922E-1
1.180197612E1,2.532839775E-1,1.416531086E0,-6.490707397E-3
1.180997303E1,1.547727585E-1,1.548492908E0,-5.359363556E-1
1.181796864E1,-3.017225266E-1,1.761958122E0,-9.568333626E-1
1.182596532E1,-9.499664307E-1,1.761311054E0,-8.248119354E-1
1.183395969E1,-1.298538208E0,1.544154644E0,-4.492521286E-1
1.184198529E1,-1.354543686E0,1.373442173E0,-1.113452911E-1
1.184998067E1,-1.288736343E0,1.331482887E0,1.958241463E-1
1.185797720E1,-1.204970837E0,1.431022644E0,1.512389183E-1
1.186597357E1,-1.129025936E0,1.611112118E0,-8.435249329E-4
1.187396771E1,-1.157303333E0,1.599342346E0,-6.610870361E-2
1.188196362E1,-1.129499435E0,1.450907230E0,-8.945560455E-2
1.188999007E1,-1.023297310E0,1.209027290E0,-8.405160904E-2
1.189798552E1,-9.707937241E-1,1.027599335E0,-1.093392372E-1
1.190598174E1,-9.007997513E-1,9.155645370E-1,-2.429237366E-1
1.191397689E1,-8.613500595E-1,9.126915932E-1,-3.707108498E-1
1.192197157E1,-8.660917282E-1,9.253892899E-1,-3.579845428E-1
1.192996856E1,-8.999099731E-1,8.130183220E-1,-2.010445595E-1
1.193796301E1,-8.680629730E-1,5.919628143E-1,-9.788894653E-2
1.194596015E1,-9.220809937E-1,2.608036995E-1,-8.175420761E-2
1.195398568E1,-1.002748013E0,5.187034607E-3,-1.984596252E-3
1.196198044E1,-1.111534119E0,-2.685613632E-1,-7.349967957E-3
1.196997650E1,-1.210114956E0,-4.619255066E-1,-7.341003418E-2
1.197797180E1,-1.310898304E0,-5.389814377E-1,-7.599258423E-2
1.198596879E1,-1.414906502E0,-5.260953903E-1,-3.528642654E-2
1.199396285E1,-1.447339058E0,-4.878206253E-1,2.522373199E-2
1.200195853E1,-1.393023968E0,-4.525942802E-1,2.275848389E-2
1.200998498E1,-1.225596428E0,-4.787063599E-1,6.409263611E-2
1.201798074E1,-1.004504681E0,-5.087814331E-1,2.517032623E-2
1.202597788E1,-8.153910637E-1,-4.923777580E-1,-3.321313858E-2
1.203397110E1,-6.652283669E-1,-4.914684296E-1,6.194448471E-2
1.204196655E1,-4.527888298E-1,-4.966406822E-1,6.720685959E-2
1.204996401E1,-2.888970375E-1,-5.093560219E-1,2.029271126E-1
1.205795822E1,-2.038936615E-1,-4.482984543E-1,4.212269783E-1
1.206598552E1,-2.128558159E-1,-3.765025139E-1,5.550017357E-1
1.207397997E1,-2.439408302E-1,-3.185391426E-1,6.203651428E-1
1.208197481E1,-1.916694641E-1,-3.320641518E-1,5.096249580E-1
1.208997195E1,-3.980255127E-2,-3.923687935E-1,4.145431519E-1
1.209796640E1,1.389160156E-1,-4.350419044E-1,3.243193626E-1
1.210596308E1,2.981438637E-1,-4.674553871E-1,2.186794281E-1
1.211395807E1,4.355745316E-1,-3.534188271E-1,3.060436249E-2
1.212997936E1,5.520930290E-1,-1.148996353E-1,-3.514018059E-1
1.213797534E1,6.406459808E-1,-4.199695587E-2,-5.699987411E-1
1.214597126E1,7.306027412E-1,-2.837324142E-2,-7.163476944E-1
1.215396640E1,8.728866577E-1,-2.404212952E-2,-9.235177040E-1
1.216196200E1,9.533410072E-1,-1.216077805E-2,-1.080356598E0
1.216995745E1,9.817457199E-1,-2.365112305E-4,-1.256416559E0
1.217798383E1,9.645700455E-1,2.140855789E-2,-1.565083027E0
1.218598082E1,9.171090126E-1,2.479743958E-2,-1.595696926E0
1.219397496E1,9.638905525E-1,-4.472732544E-2,-1.647813320E0
1.220197002E1,1.045146942E0,-1.004157066E-1,-1.766986609E0
1.220996655E1,1.164061546E0,-7.103109360E-2,-1.931974649E0
1.221796193E1,1.288478374E0,-7.399606705E-2,-2.079519749E0
1.223398406E1,1.340871334E0,-7.182979584E-2,-2.333437681E0
1.224197889E1,1.283383369E0,-1.444692612E-1,-2.349020720E0
1.224997519E1,1.177603722E0,-3.259859085E-1,-2.294343233E0
1.225797087E1,1.083287716E0,-4.943170547E-1,-2.341922045E0
1.226596678E1,1.026155472E0,-5.052928925E-1,-2.307622194E0
1.227396192E1,1.106032848E0,-4.903931618E-1,-2.208863735E0
1.228195699E1,1.130887032E0,-4.323492050E-1,-2.146227360E0
1.228998429E1,1.060526371E0,-3.815217018E-1,-2.039992809E0
1.229797904E1,9.725008011E-1,-3.597702980E-1,-1.738289118E0
1.230597573E1,8.648867607E-1,-2.773089409E-1,-1.497814178E0
1.231396987E1,7.208094597E-1,-2.116537094E-1,-9.939489365E-1
1.232196493E1,5.761094093E-1,-1.907763481E-1,-4.559493065E-1
1.232996123E1,2.271485329E-1,-2.592315674E-1,1.862392426E-1
1.233795691E1,-1.941580772E-1,-3.960585594E-1,4.879112244E-1
1.234598398E1,-5.532393456E-1,-6.914658546E-1,9.246110916E-1
1.235397835E1,-6.875896454E-1,-1.054386616E0,1.196163654E0
1.236197372E1,-4.797258377E-1,-1.282518864E0,7.865724564E-1
1.236996725E1,1.227341652E0,-9.752430916E-1,-3.793945312E0
1.237796547E1,1.666745663E0,-1.946926594E0,8.698287010E-1
1.238596200E1,-3.838229179E-1,-3.135310173E0,1.555103302E0
1.239395676E1,-3.430108547E0,-3.973836899E0,3.738244057E0
1.240198236E1,-5.235486984E0,-3.731203556E0,1.874502659E0
1.240997920E1,-3.316415787E0,-2.520149708E0,1.022906303E-1
1.241797403E1,-6.031646729E-1,-1.168591976E0,-4.143066406E-1
1.242597033E1,7.334113121E-1,3.555989265E-1,1.902794838E-1
1.243396532E1,6.390442848E-1,1.352397442E0,2.212486267E-1
1.244195977E1,3.361415863E-1,2.042456388E0,-1.710882187E-1
1.244998660E1,5.834188461E-1,2.290143967E0,-4.827857018E-1
1.245798290E1,1.108009815E0,2.422362804E0,-6.755921841E-1
1.246597974E1,1.634500504E0,2.345880032E0,-6.734440327E-1
1.247397396E1,1.779911041E0,1.989672899E0,-3.410649300E-1
1.248196864E1,1.862561703E0,1.475695133E0,-1.417016983E-1
1.248996432E1,1.591857910E0,1.044703960E0,2.667961121E-1
1.249796031E1,7.975568771E-1,8.628344536E-1,6.259703636E-1
1.250595637E1,-5.363612175E-1,5.688695908E-1,1.072487831E0
1.251398221E1,-1.370091915E0,1.689434052E-3,6.026816368E-1
1.252197696E1,-2.594288349E0,-2.164013863E0,3.085910320E0
1.252997318E1,-3.870339394E0,-3.820842743E0,1.753995419E0
1.253796925E1,-4.393519402E0,-3.519950867E0,1.941310883E0
1.254596547E1,-3.895451069E0,-3.158055305E0,1.757223606E0
1.255396054E1,-2.812146187E0,-2.361774921E0,1.451800346E0
1.256195468E1,-1.406325817E0,-1.127686501E0,5.470213890E-1
1.256998174E1,-4.077334404E-1,-4.756932259E-1,1.141548157E-1
1.257797750E1,7.451167107E-1,1.605110168E-1,-1.446194887E0
1.258597403E1,1.619701862E0,3.100275993E-1,-1.165007114E0
1.259396910E1,1.899775028E0,2.203607559E-1,-1.420848131E0
1.260196385E1,2.185432911E0,2.008132935E-1,-1.528392076E0
1.260996053E1,2.438834667E0,3.370575905E-1,-1.779455185E0
1.261798606E1,2.556847572E0,6.070795059E-1,-1.750548840E0
1.262598259E1,2.455089092E0,8.062248230E-1,-1.395254374E0
1.263397650E1,2.073293686E0,8.660826683E-1,-9.086363316E-1
1.264197180E1,1.719502926E0,7.773323059E-1,-9.671115875E-2
1.264996817E1,1.294300556E0,7.090840340E-1,1.473255157E-1
1.265796378E1,5.691356659E-1,6.973743439E-1,7.588291168E-2
1.266596076E1,-1.218872070E-1,6.353435516E-1,2.616453171E-2
1.267398498E1,-6.282219887E-1,5.031247139E-1,8.431196213E-2
1.268198043E1,-5.637869835E-1,3.683767319E-1,2.163472176E-1
1.268997696E1,-3.166837692E-1,3.354554176E-1,8.043575287E-2
1.269797264E1,-1.210355759E-2,4.488983154E-1,-7.445001602E-2
1.270596932E1,1.758241653E-1,5.420851707E-1,-1.560816765E-1
1.271396316E1,3.457503319E-1,3.799271584E-1,-3.534588814E-1
1.272195876E1,5.937447548E-1,2.483720779E-1,-1.208247185E0
1.272998560E1,2.255365849E0,5.944528580E-1,-5.685321331E0
1.273798005E1,1.591077328E0,-2.040388107E0,2.868914127E0
1.274597781E1,-2.881665230E0,-3.924236774E0,4.910676956E0
1.275397164E1,-6.424648762E0,-3.151049137E0,1.899867058E0
1.276196648E1,-4.625510693E0,-1.557141781E0,2.249975204E-1
1.276996370E1,1.267142296E-1,-7.985615730E-1,1.021242142E-1
1.277795899E1,2.320841312E0,-7.062530518E-1,5.655827522E-1
1.278598544E1,1.708510399E0,-4.444627762E-1,-5.383582115E-1
1.279397997E1,-3.362226486E-2,-2.265353203E-1,-4.452476501E-1
1.280197527E1,-8.834681511E-1,-3.453640938E-1,-1.048188210E0
1.280997226E1,-6.053195000E-1,-1.474499702E-1,-8.936078548E-1
1.281796755E1,2.495017052E-1,1.804289818E-1,-8.523085117E-1
1.282596385E1,1.277088642E0,3.848142624E-1,-6.675810814E-1
1.283395807E1,1.641051292E0,5.334129333E-1,-3.174843788E-1
1.284998082E1,4.973134995E-1,7.034916878E-1,-1.133732796E-1
1.285797557E1,2.319502831E-1,7.690992355E-1,-2.116584778E-1
1.286597218E1,4.397826195E-1,8.725008965E-1,-2.650470734E-1
1.287396725E1,7.582559586E-1,9.164485931E-1,-2.898955345E-1
1.288196170E1,7.017512321E-1,8.985476494E-1,-2.547488213E-1
1.288995853E1,3.674082756E-1,8.261799812E-1,-2.636981010E-1
1.289798383E1,8.608770370E-2,7.567200661E-1,-2.683587074E-1
1.290598097E1,-6.071949005E-2,6.844816208E-1,-1.931481361E-1
1.291397488E1,4.783630371E-3,5.876603127E-1,-7.591056824E-2
1.292197079E1,6.551170349E-2,4.517054558E-1,5.465316772E-2
1.292996617E1,1.983342171E-1,2.807760239E-1,-9.882974625E-2
1.293796254E1,9.158844948E-1,3.193831444E-1,-3.196366310E0
1.294595907E1,5.770006180E-1,-1.840301991E0,3.716335297E0
1.295398336E1,-1.846651554E0,-3.030025005E0,2.269446850E0
1.296197843E1,-3.812118053E0,-2.361957550E0,3.742861748E0
1.296997542E1,-2.368480206E0,-9.634485245E-1,5.147433281E-1
1.297797072E1,1.859931946E-1,-1.842727661E-1,5.357260704E-1
1.298596732E1,1.789380550E0,1.429681778E-1,1.006379128E-1
1.299396216E1,1.337532043E0,-3.998851776E-2,-1.251263618E-1
1.300195653E1,-1.113781929E-1,-3.105115891E-2,-2.977976799E-1
1.300998367E1,-2.577619553E-1,-2.711234093E-1,-2.111544609E-1
1.301797958E1,4.733700752E-1,-3.813433647E-1,-1.640810966E-1
1.302597557E1,1.026570797E0,-1.214380264E-1,-5.722889900E-1
1.303397033E1,1.038275242E0,1.929473877E-1,-5.746927261E-1
1.304196601E1,9.227418900E-1,3.662419319E-1,-3.545985222E-1
1.304996169E1,7.138099670E-1,4.661221504E-1,-1.508870125E-1
1.305795768E1,3.924913406E-1,5.211381912E-1,-1.623449326E-1
1.306598352E1,2.644143105E-1,5.566158295E-1,-2.302474976E-1
1.307397889E1,2.546801567E-1,6.157746315E-1,-3.378682137E-1
1.308197396E1,2.706103325E-1,5.885205269E-1,-1.466450691E-1
1.308996748E1,1.724033356E-1,5.751204491E-1,-4.229545593E-4
1.309796570E1,-2.700710297E-2,5.522389412E-1,-1.037979126E-2
1.310596192E1,-2.829699516E-1,5.883340836E-1,-9.676885605E-2
1.311395676E1,-3.519096375E-1,6.401462555E-1,-1.667451859E-1
1.312198229E1,-2.536196709E-1,6.197910309E-1,-1.054167747E-1
1.312997796E1,8.782863617E-3,4.780941010E-1,-4.604463577E-1
1.313797388E1,1.201958179E0,3.590865135E-1,-2.541458845E0
1.314597048E1,1.353325844E-1,-1.854403019E0,3.241677761E0
1.315396563E1,-3.108633995E0,-2.517472744E0,2.262216568E0
1.316196031E1,-4.154596806E0,-1.776001453E0,1.038677216E0
1.316995668E1,-2.103263855E0,-4.784383774E-1,5.567069054E-1
1.317798282E1,8.709659576E-1,2.341408730E-1,-1.419072151E-1
1.318597904E1,1.822216511E0,4.896702766E-1,-7.031106949E-1
1.319397442E1,1.139172077E0,3.807015419E-1,-8.276114464E-1
1.320196948E1,-4.480886459E-2,-7.797431946E-2,-5.765585899E-1
1.320996516E1,-2.195191383E-1,-3.299269676E-1,-6.887960434E-1
1.321796023E1,4.860720634E-1,-2.384867668E-1,-9.304575920E-1
1.322595683E1,1.087288380E0,1.186857224E-1,-1.023897171E0
1.323398182E1,1.196212292E0,4.818549156E-1,-6.559505463E-1
1.324197750E1,7.411637306E-1,6.346669197E-1,-3.400955200E-1
1.324997311E1,2.598528862E-1,6.123805046E-1,-2.454586029E-1
1.325796879E1,-9.024238586E-2,5.402307510E-1,-2.089819908E-1
1.326596516E1,-1.793694496E-1,5.062084198E-1,-1.852722168E-1
1.327395992E1,-1.810202599E-1,5.143384933E-1,-1.592736244E-1
1.328195591E1,-6.729078293E-2,4.889540672E-1,1.284503937E-2
1.328998228E1,-4.435682297E-2,5.041704178E-1,-6.971359253E-3
1.329797773E1,-9.934568405E-2,6.245436668E-1,-2.176833153E-1
1.330597303E1,-1.468563080E-2,7.108607292E-1,-2.124891281E-1
1.331396817E1,1.742577553E-1,7.751255035E-1,-1.750078201E-1
1.332196385E1,3.542742729E-1,6.978321075E-1,-6.269884109E-2
1.332995923E1,5.773005486E-1,4.511346817E-1,-9.878914356E-1
1.333795522E1,1.646747589E0,4.155788422E-1,-2.326159477E0
1.334598228E1,7.974362373E-1,-1.531821728E0,3.416805267E0
1.335397727E1,-3.241189957E0,-3.127732277E0,4.117877960E0
1.336197234E1,-4.740793705E0,-2.365356445E0,1.111310005E0
1.336996779E1,-2.676502705E0,-6.534175873E-1,1.002582073E0
1.337796470E1,2.230219841E-1,1.895666122E-2,2.141022682E-1
1.338596069E1,1.682496071E0,3.682160378E-1,2.536430359E-1
1.339395475E1,9.750251770E-1,4.640550613E-1,-6.592698097E-1
1.340198090E1,-8.965492249E-2,1.973633766E-1,-1.503372192E-2
1.340997719E1,-7.612218857E-1,-4.888057709E-3,-5.369224548E-1
1.341797287E1,-3.691053391E-1,-6.900978088E-2,-3.960781097E-1
1.342596925E1,8.418493271E-1,1.529927254E-1,-9.626307487E-1
1.343396362E1,1.626240253E0,4.553918839E-1,-8.858690262E-1
1.344195876E1,1.664626598E0,5.891957283E-1,-6.298651695E-1
1.344995475E1,1.149157524E0,6.224827766E-1,-4.686508179E-1
1.345798113E1,7.197499275E-1,6.097593307E-1,-5.763854980E-1
1.346597773E1,6.716470718E-1,6.036176682E-1,-6.667799950E-1
1.347397195E1,8.584280014E-1,6.177425385E-1,-5.585703850E-1
1.348196755E1,8.446941376E-1,6.723961830E-1,-2.863798141E-1
1.348996393E1,4.134817123E-1,7.034482956E-1,-3.810930252E-2
1.349795992E1,-1.778936386E-2,6.192765236E-1,1.595706940E-1
1.350598598E1,-4.020318985E-1,4.853281975E-1,2.629499435E-1
1.351398082E1,-5.560679436E-1,4.025573730E-1,2.781500816E-1
1.352197588E1,-3.229088783E-1,3.609876633E-1,3.523879051E-1
1.352997210E1,1.664471626E-1,3.369073868E-1,-7.494668961E-1
1.353796686E1,1.164806843E0,2.176899910E-1,-1.139280081E0
1.354596316E1,-8.135495186E-1,-1.588003159E0,3.481282234E0
1.355395830E1,-4.155004025E0,-2.669161320E0,3.702601433E0
1.356198413E1,-4.885386944E0,-2.219210625E0,1.432998657E0
1.356997982E1,-2.483872890E0,-8.160743713E-1,1.866713524E0
1.357797550E1,3.374776840E-1,-6.898784637E-2,6.542930603E-1
1.358597241E1,1.241633415E0,4.924149513E-1,-2.352762222E-1
1.359396809E1,1.129742146E0,5.756435394E-1,7.860708237E-2
1.360196285E1,3.769969940E-1,3.597912788E-1,-1.338429451E-1
1.360995822E1,-3.971700668E-1,3.926763535E-1,-7.312827110E-1
1.361798429E1,-1.170492172E-2,3.435702324E-1,-9.854149818E-1
1.362598089E1,1.312073231E0,3.397383690E-1,-1.126806498E0
1.363397573E1,2.097340584E0,4.738140106E-1,-1.246237040E0
1.364197102E1,2.215710402E0,6.523265839E-1,-1.025437355E0
1.364996740E1,1.624556541E0,7.304344177E-1,-9.998621941E-1
1.365796269E1,9.718818665E-1,6.888847351E-1,-8.349728584E-1
1.366595814E1,8.779525757E-1,6.092801094E-1,-6.950125694E-1
1.367398483E1,1.018221855E0,6.011481285E-1,-2.322311401E-1
1.368197935E1,7.619976997E-1,6.635584831E-1,7.224559784E-2
1.368997503E1,1.639494896E-1,6.386322975E-1,2.253289223E-1
1.369797133E1,-6.148419380E-1,4.187068939E-1,4.409661293E-1
1.370596755E1,-1.012491703E0,2.443881035E-1,4.226479530E-1
1.371396116E1,-1.060913086E0,1.547646523E-1,4.071636200E-1
1.372195676E1,-6.072010994E-1,2.274889946E-1,3.115639687E-1
1.372998359E1,1.784486771E-1,3.604822159E-1,-1.121115923E0
1.373797950E1,1.715920925E0,1.548271179E-1,-5.096068382E-1
1.374597619E1,3.722925186E-1,-6.965813637E-1,4.076209068E-1
1.375397064E1,-3.939374924E0,-2.308765888E0,4.697097778E0
1.376196593E1,-5.709119320E0,-2.523148060E0,1.872796535E0
1.376996200E1,-3.445680141E0,-1.513033867E0,6.809740067E-1
1.377795737E1,3.172254562E-1,-2.979555130E-1,-2.465963364E-1
1.378598467E1,2.112734556E0,6.940412521E-2,2.936506271E-1
1.379397858E1,1.746450424E0,2.338724136E-1,6.708397865E-1
1.380197396E1,7.592439651E-2,4.076271057E-1,1.336202621E-1
1.380997018E1,-8.069477081E-1,3.885354996E-1,-1.174513817E0
1.381796593E1,1.866912842E-1,2.353949547E-1,-1.389723063E0
1.382596277E1,1.495208263E0,3.061714172E-1,-1.456564426E0
1.383395730E1,2.432384968E0,6.270213127E-1,-1.481290817E0
1.384198275E1,2.308600664E0,9.826731682E-1,-1.364899397E0
1.384997789E1,1.482795715E0,1.129115582E0,-1.184113264E0
1.385797388E1,7.993497849E-1,9.736948013E-1,-1.046263695E0
1.386597140E1,6.485943794E-1,8.452582359E-1,-7.438368797E-1
1.387396486E1,7.596478462E-1,7.256865501E-1,-1.681914330E-1
1.388196092E1,5.327029228E-1,7.249693871E-1,1.092324257E-1
1.388995683E1,-1.210451126E-1,6.622619629E-1,3.744564056E-1
1.389798213E1,-6.538033485E-1,4.023232460E-1,5.157527924E-1
1.390597958E1,-9.695048332E-1,1.361336708E-1,5.971565247E-1
1.391397472E1,-8.243837357E-1,-8.910226822E-2,4.811711311E-1
1.392196910E1,-4.067769051E-1,-5.494928360E-2,3.803181648E-1
1.392996539E1,2.504901886E-1,5.444622040E-2,1.570701599E-3
1.393796015E1,1.570362568E0,3.246827126E-1,-2.771758318E0
1.394595706E1,1.098605156E0,-8.644485474E-1,5.925354958E-1
1.395398228E1,-3.383253574E0,-2.572982788E0,4.783033371E0
1.396197735E1,-6.081152916E0,-3.097160339E0,2.505156517E0
1.396997341E1,-4.245900631E0,-1.674255371E0,1.130763054E0
1.397796940E1,-6.495213509E-1,-5.458464622E-1,-2.578248978E-1
1.398596570E1,2.151859999E0,3.395886421E-1,-6.178956032E-1
1.399396100E1,2.378587246E0,3.181719780E-1,8.571538925E-1
1.400195545E1,2.545032501E-1,3.443179131E-1,4.178504944E-1
1.400998220E1,-1.220279694E0,3.588933945E-1,-9.250378609E-1
1.401797788E1,-3.733739853E-1,2.212252617E-1,-1.392151117E0
1.402597418E1,1.827658176E0,3.372845650E-1,-1.377627134E0
1.403396863E1,2.880619049E0,6.424937248E-1,-1.328108549E0
1.404196431E1,2.776577711E0,1.014008045E0,-1.280878305E0
1.404996038E1,1.716319084E0,1.004098892E0,-9.582290649E-1
1.405795575E1,7.985811234E-1,8.098735809E-1,-7.589173317E-1
1.406598190E1,3.301286697E-1,5.899486542E-1,-4.779548645E-1
1.407397719E1,2.930741310E-1,5.244035721E-1,-6.059551239E-2
1.408197318E1,1.159501076E-1,4.672574997E-1,5.535688400E-1
1.408996886E1,-2.318325043E-1,4.152007103E-1,8.130092621E-1
1.409796462E1,-8.289318085E-1,2.397637367E-1,1.062882900E0
1.410596084E1,-1.256674767E0,4.690933228E-2,9.819707870E-1
1.411395468E1,-1.192250252E0,-6.208419800E-3,8.498058319E-1
1.412198113E1,-6.177988052E-1,4.040527344E-2,8.249979019E-1
1.412997750E1,-1.417646408E-1,3.751897812E-2,4.274826050E-1
1.413797256E1,1.251601696E0,2.509946823E-1,-2.068340302E0
1.414596948E1,5.670509338E-1,-5.648055077E-1,2.722549438E-2
1.415396385E1,-1.995769978E0,-1.419328213E0,2.429465771E0
1.416195868E1,-4.504690170E0,-2.372055531E0,2.646416664E0
1.416995490E1,-3.853569031E0,-1.874822140E0,6.766414642E-1
1.417798082E1,-2.012591362E-1,-8.384571075E-1,-3.948502541E-1
1.418597827E1,2.014752150E0,-3.797760010E-1,-4.188251495E-2
1.419397249E1,1.758534908E0,7.634925842E-2,1.443171501E-1
1.420196755E1,6.802654266E-2,5.995197296E-1,-4.568462372E-1
1.420996347E1,-5.307559967E-1,7.480587959E-1,-1.433744192E0
1.421795892E1,4.372701645E-1,6.545014381E-1,-1.758827686E0
1.422595521E1,1.675200939E0,5.351939201E-1,-1.712277889E0
1.423398074E1,2.447386742E0,6.286783218E-1,-1.752034187E0
1.424197581E1,2.171009779E0,8.170876503E-1,-1.441643953E0
1.424997172E1,1.445624828E0,8.617000580E-1,-9.970822334E-1
1.425796717E1,7.173075676E-1,7.264776230E-1,-7.189006805E-1
1.426596408E1,3.677000999E-1,5.817208290E-1,-3.083529472E-1
1.427395884E1,1.785697937E-1,3.953456879E-1,3.507003784E-1
1.428195390E1,-8.786630630E-2,2.445955276E-1,4.416151047E-1
1.428998066E1,-4.560322762E-1,1.050896645E-1,3.874063492E-1
1.429797565E1,-7.990102768E-1,-1.032280922E-1,4.980778694E-1
1.430597202E1,-9.168510437E-1,-1.427974701E-1,3.705620766E-1
1.431396732E1,-6.684427261E-1,-5.241107941E-2,7.877588272E-2
1.432196300E1,-1.011352539E-1,1.650052071E-1,1.266956329E-3
1.432995868E1,4.437360764E-1,2.840037346E-1,-1.496315002E-2
1.433795413E1,1.636576653E0,6.147661209E-1,-3.424794674E0
1.434598082E1,1.279653072E0,-2.175321579E-1,-2.779822350E-1
1.435397588E1,-1.884655476E0,-1.270473480E0,1.557407379E0
1.436197041E1,-5.200507641E0,-2.741000652E0,4.152306557E0
1.436996732E1,-5.504445076E0,-2.100974083E0,9.514751434E-1
1.437796262E1,-2.304168701E0,-7.829337120E-1,1.837854385E-1
1.438595899E1,2.931318283E-1,2.999100685E-1,-9.883203506E-1
1.439395398E1,1.455666065E0,9.050898552E-1,8.859634399E-2
1.440197981E1,1.213060856E0,1.108167171E0,4.157748222E-1
1.440997557E1,9.247779846E-2,1.052838802E0,1.301207542E-1
1.441797087E1,-3.199830055E-1,7.057576180E-1,-2.467617989E-1
1.442596747E1,1.330118179E-1,2.694649696E-1,-6.033940315E-1
1.443396254E1,8.132915497E-1,7.194375992E-2,-3.833451271E-1
1.444195730E1,1.200732708E0,2.306189537E-1,-2.026267052E-1
1.444995359E1,1.343041897E0,3.991270065E-1,-1.969866753E-1
1.445797950E1,1.314144135E0,3.566818237E-1,2.529573441E-2
1.446597580E1,1.146299839E0,1.842889786E-1,8.170175552E-2
1.447397118E1,9.544858932E-1,4.823207855E-3,1.527729034E-1
1.448196616E1,9.823451042E-1,-4.734134674E-2,2.193045616E-1
1.448996246E1,1.142761230E0,-1.407198906E-1,5.952854156E-1
1.449795814E1,1.243560314E0,-3.166646957E-1,9.295716286E-1
1.450595382E1,1.181183815E0,-5.939950943E-1,1.035085678E0
1.451397935E1,9.653234482E-1,-7.476258278E-1,9.049897194E-1
1.452197388E1,6.556320190E-1,-6.991262436E-1,6.082744598E-1
1.452997040E1,3.257040977E-1,-5.437884331E-1,5.325737000E-1
1.453796609E1,2.209620476E-1,-4.470415115E-1,5.899462700E-1
1.454596246E1,1.418504715E-1,-3.824515343E-1,7.268376350E-1
1.455395714E1,-3.669261932E-3,-3.757624626E-1,7.537002563E-1
1.456198305E1,-1.882534027E-1,-4.005236626E-1,7.482862473E-1
1.456997904E1,-1.639356613E-1,-5.044512749E-1,8.437891006E-1
1.457797465E1,-2.841520309E-2,-5.753917694E-1,1.042586327E0
1.458597133E1,2.122712135E-1,-5.835962296E-1,9.926199913E-1
1.459396539E1,2.965350151E-1,-4.734659195E-1,9.189162254E-1
1.460196084E1,2.788958549E-1,-2.638454437E-1,6.943922043E-1
1.460995683E1,1.409621239E-1,-5.996179581E-2,3.773469925E-1
1.461798290E1,-2.302742004E-2,4.787015915E-2,1.464524269E-1
1.462597981E1,-7.140159607E-2,1.319007874E-1,2.165889740E-2
1.463397403E1,-7.158803940E-2,1.979489326E-1,-2.573070526E-1
1.464196971E1,-6.882286072E-2,2.785072327E-1,-5.665001869E-1
1.464996539E1,-4.166126251E-3,3.433837891E-1,-7.739138603E-1
1.465796107E1,8.539628983E-2,3.546123505E-1,-9.926934242E-1
1.466595706E1,1.320457458E-1,2.991013527E-1,-1.205621719E0
1.467398290E1,1.237483025E-1,2.536859512E-1,-1.340897083E0
1.468197735E1,5.474042892E-2,2.777462006E-1,-1.409627438E0
1.468997357E1,-1.268458366E-1,3.436083794E-1,-1.441226482E0
1.469796925E1,-4.123234749E-1,3.957080841E-1,-1.487537861E0
1.470596647E1,-7.418437004E-1,4.241218567E-1,-1.527648449E0
1.471396123E1,-1.019254684E0,4.284472466E-1,-1.504429340E0
1.472195575E1,-1.289824009E0,4.271616936E-1,-1.483273983E0
1.472998243E1,-1.289989948E0,3.031244278E-1,-5.639429092E-1
1.473797781E1,-1.254990578E0,3.751854897E-1,-2.229052544E0
1.474597511E1,-2.304572105E0,9.229393005E-1,-2.729123354E0
1.475396925E1,-2.786120892E0,8.652133942E-1,-1.314925194E0
1.476196431E1,-2.054380417E0,6.400575638E-1,-1.828702211E0
1.476995969E1,-1.473836422E0,5.564594269E-1,-1.577116728E0
1.477795560E1,-8.357381821E-1,6.239709854E-1,-2.103361368E0
1.478598297E1,-2.281155586E-1,6.921219826E-1,-2.049531221E0
1.479397781E1,-1.886519432E0,3.177056313E-1,-5.624294281E-1
1.480197287E1,-3.339314461E0,2.579541206E-1,-8.606014252E-1
1.480996971E1,-2.972720146E0,-9.452676773E-2,-4.049496651E-1
1.481796416E1,-1.622378349E0,-9.155750275E-2,-5.175776482E-1
1.482596115E1,-8.937177658E-1,1.444296837E-1,-7.064037323E-1
1.483395583E1,-6.328735352E-1,3.581819534E-1,-4.099755287E-1
1.484198136E1,-8.591203690E-1,2.752442360E-1,-4.441809654E-1
1.484997734E1,-1.028683662E0,1.701693535E-1,-4.262032509E-1
1.485797303E1,-1.118239880E0,1.184935570E-1,-6.041965485E-1
1.486596963E1,-9.344077110E-1,1.531481743E-1,-6.108407974E-1
1.487396446E1,-5.921564102E-1,1.864924431E-1,-3.714838028E-1
1.488195945E1,-2.607402802E-1,1.443266869E-1,-2.828116417E-1
1.488995544E1,-2.685322762E-1,1.737794876E-1,-2.459616661E-1
1.489798128E1,-3.619375229E-1,1.517992020E-1,-9.024047852E-2
1.490597788E1,-3.607501984E-1,1.279139519E-1,-9.127902985E-2
1.491397233E1,-2.897176743E-1,1.788010597E-1,-2.660889626E-1
1.492196771E1,8.583068848E-3,2.358860970E-1,-2.792930603E-1
1.492996408E1,1.927938461E-1,1.502790451E-1,3.982114792E-2
1.493795884E1,1.404957771E-1,4.621028900E-2,1.969432831E-1
1.494595567E1,1.290793419E-1,-4.434633255E-2,3.375587463E-1
1.495398120E1,1.890654564E-1,-8.927440643E-2,1.330623627E-1
1.496197657E1,3.393468857E-1,-9.861946106E-3,-9.060049057E-2
1.496997287E1,4.211273193E-1,6.530427933E-2,3.954410553E-3
1.497796794E1,5.612072945E-1,4.589605331E-2,1.673216820E-1
1.498596485E1,8.302307129E-1,-1.107716560E-1,5.020217896E-1
1.499395899E1,8.437023163E-1,-1.904115677E-1,4.855098724E-1
1.500195444E1,7.195491791E-1,-2.293434143E-1,5.003972054E-1
1.500998020E1,7.797641754E-1,-2.763528824E-1,5.520477295E-1
1.501797596E1,8.737292290E-1,-3.432292938E-1,5.787863731E-1
1.502597248E1,8.790445328E-1,-3.391938210E-1,6.134576797E-1
1.503396694E1,8.676605225E-1,-3.340830803E-1,5.599880219E-1
1.504196262E1,7.622461319E-1,-3.922777176E-1,6.260070801E-1
1.504995838E1,6.579785347E-1,-4.135098457E-1,4.905986786E-1
1.505795429E1,5.769510269E-1,-4.362821579E-1,5.254096985E-1
1.506598105E1,5.851249695E-1,-4.179935455E-1,3.629894257E-1
1.507397580E1,8.844723701E-1,-4.247546196E-1,5.123052597E-1
1.508197125E1,1.015442371E0,-4.529733658E-1,3.334760666E-1
1.508996693E1,7.955107689E-1,-3.386855125E-1,2.847828865E-1
1.509796315E1,5.966548920E-1,-3.401036263E-1,6.631112099E-1
1.510595953E1,6.673660278E-1,-4.736375809E-1,1.077252388E0
1.511395390E1,8.845367432E-1,-5.490765572E-1,1.194430351E0
1.512197974E1,1.065023899E0,-4.908719063E-1,9.140777588E-1
1.512997580E1,9.840378761E-1,-4.561715126E-1,1.052041531E0
1.513797148E1,9.883041382E-1,-4.940800667E-1,1.066010475E0
1.514596747E1,9.528284073E-1,-5.709223747E-1,1.076063633E0
1.515396284E1,9.279394150E-1,-5.424642563E-1,9.297356606E-1
1.516195783E1,1.019224167E0,-4.700770378E-1,8.647274971E-1
1.516995359E1,1.026562214E0,-3.692955971E-1,6.773095131E-1
1.517798004E1,7.872891426E-1,-2.981090546E-1,5.113754272E-1
1.518597603E1,4.254741669E-1,-2.823748589E-1,3.005533218E-1
1.519397102E1,3.459944725E-1,-3.527121544E-1,5.190849304E-1
1.520196555E1,6.864943504E-1,-4.605603218E-1,4.785065651E-1
1.520996246E1,6.860532761E-1,-4.315061569E-1,3.968639374E-1
1.521795783E1,3.862404823E-1,-3.105177879E-1,2.591319084E-1
1.522595467E1,3.681821823E-1,-3.350791931E-1,5.857410431E-1
1.523397966E1,5.195655823E-1,-3.748202324E-1,4.967145920E-1
1.524997125E1,6.225538254E-1,-3.028354645E-1,4.325428009E-1
1.525796639E1,1.760959625E-2,-1.573152542E-1,2.038984299E-1
1.526596269E1,-2.230796814E-1,-1.365213394E-1,9.090566635E-2
1.527395768E1,1.969070435E-1,-2.948231697E-1,2.012925148E-1
1.528195282E1,3.370103836E-1,-2.740001678E-1,-1.524024010E-1
1.528997920E1,4.075250626E-1,-2.119393349E-1,4.653930664E-3
1.529797465E1,3.114466667E-1,-2.772974968E-1,6.198310852E-2
1.530597156E1,-1.967306137E-1,1.407909393E-2,-2.377381802E0
1.531396593E1,-2.045392990E-2,-4.333424568E-1,9.349379539E-1
1.532196138E1,1.229610920E0,-8.911871910E-1,1.040588379E0
1.532995676E1,1.454073906E0,-6.080942154E-1,-9.761142731E-2
1.533795274E1,6.199421883E-1,-2.915439606E-1,1.074757576E-1
1.534597973E1,1.591320038E-1,-3.091998100E-1,2.167310715E-1
1.535397388E1,4.580864906E-1,-5.075392723E-1,5.040917397E-1
1.536196986E1,7.299451828E-1,-4.056706429E-1,1.212415695E-1
1.536996593E1,4.840421677E-1,-3.627185822E-1,3.633518219E-1
1.537796123E1,5.487504005E-1,-4.615917206E-1,3.522729874E-1
1.538595760E1,8.080830574E-1,-3.950595856E-1,6.000947952E-2
1.539395320E1,4.720525742E-1,-1.607098579E-1,-1.582856178E-1
1.540197781E1,2.035746574E-1,-2.748470306E-1,1.424908638E-1
1.540997357E1,2.264223099E-1,-4.553942680E-1,1.235437393E-2
1.541796986E1,8.141326904E-2,-5.348262787E-1,1.722922325E-1
1.542596639E1,-7.148456573E-2,-4.072175026E-1,2.795019150E-1
1.543396061E1,-2.898936272E-1,-1.462311745E-1,2.763295174E-1
1.544195591E1,-4.000463486E-1,-6.367206573E-3,3.400802612E-3
1.544998266E1,-4.312734604E-1,1.476001740E-2,-2.938318253E-2
1.545797812E1,-3.578162193E-1,-3.820800781E-2,-1.798696518E-1
1.546597495E1,-3.079590797E-1,-1.502919197E-1,-1.398601532E-1
1.547396940E1,-3.462285995E-1,-3.939008713E-1,6.126832962E-2
1.548196454E1,-5.458335876E-1,-7.371973991E-1,1.733632088E-1
1.548996046E1,-8.700413704E-1,-1.315893650E0,2.238311768E-1
1.549795644E1,-1.232542992E0,-1.685071468E0,2.362065315E-1
1.550598290E1,-1.653183460E0,-1.857339382E0,1.299028397E-1
1.551397827E1,-2.058656216E0,-1.919842720E0,4.054827690E-1
1.552197310E1,-1.976393700E0,-1.999943256E0,6.228361130E-1
1.552996902E1,-1.499857426E0,-1.859084129E0,1.182370186E-1
1.553796408E1,-1.207438946E0,-1.543873787E0,-1.856770515E-1
1.554596107E1,-1.045104504E0,-1.119580746E0,-5.534019470E-1
1.555395606E1,-1.112623692E0,-8.422212601E-1,-7.085232735E-1
1.556198159E1,-1.238158703E0,-6.671800613E-1,-6.453871727E-1
1.556997788E1,-1.312162399E0,-5.022854805E-1,-4.258403778E-1
1.557797303E1,-1.209332466E0,-4.586057663E-1,-2.680435181E-1
1.558596994E1,-1.025563240E0,-2.581982613E-1,-2.651777267E-1
1.559396377E1,-9.408292770E-1,-6.278085709E-2,-2.510762215E-1
1.560195945E1,-8.775491714E-1,1.624302864E-1,-7.001399994E-2
1.560995575E1,-9.179291725E-1,3.497662544E-1,5.846166611E-2
1.561798182E1,-1.021233082E0,5.072140694E-1,1.802887917E-1
1.562597819E1,-1.180267811E0,6.504406929E-1,1.768541336E-1
1.563397287E1,-1.223472595E0,7.480311394E-1,7.092094421E-2
1.564196763E1,-1.235236168E0,8.478803635E-1,-6.866121292E-2
1.564996339E1,-1.182341576E0,9.733715057E-1,-2.715392113E-1
1.565795938E1,-1.127876282E0,1.097920895E0,-5.291175842E-1
1.566595621E1,-1.031327248E0,1.251569271E0,-6.318330765E-1
1.567398182E1,-8.515086174E-1,1.349831581E0,-6.538138390E-1
1.568197619E1,-6.156396866E-1,1.428933620E0,-6.862134933E-1
1.568997310E1,-4.090633392E-1,1.439549923E0,-7.217793465E-1
1.569796794E1,-1.992616653E-1,1.391201019E0,-8.000354767E-1
1.570596454E1,-5.557489395E-2,1.282153606E0,-9.013924599E-1
1.571395899E1,4.349708557E-3,1.183675766E0,-1.027486801E0
1.572195460E1,-5.915832520E-2,1.146591663E0,-1.133827209E0
1.572998135E1,-1.973953247E-1,1.137199879E0,-1.045149803E0
1.573797619E1,-2.658047676E-1,1.191608429E0,-8.658671379E-1
1.574597279E1,-1.532855034E-1,1.283571720E0,-7.410292625E-1
1.575396778E1,1.043272018E-2,1.412740231E0,-8.318028450E-1
1.576196292E1,1.022267342E-1,1.528114796E0,-9.219489098E-1
1.576995891E1,5.907058716E-2,1.615283489E0,-9.116287231E-1
1.577795490E1,2.639436722E-2,1.751130581E0,-9.112997055E-1
1.578598227E1,5.961704254E-2,1.898443222E0,-1.034464836E0
1.579397642E1,2.638459206E-1,2.048326015E0,-1.227978706E0
1.580197118E1,5.565919876E-1,2.194646120E0,-1.276340961E0
1.580996740E1,7.359375954E-1,2.258311510E0,-1.448560715E0
1.581796254E1,1.220622540E0,2.513608932E0,-4.781621933E0
1.582595976E1,1.320392609E0,2.343413115E0,-3.010101795E0
1.583395390E1,2.759480476E-1,1.269673824E0,3.197164536E-1
1.584197997E1,-1.616614819E0,9.093723297E-1,1.034538269E0
1.584997572E1,-2.565791130E0,8.737740517E-1,2.545914650E-1
1.585797164E1,-2.086950779E0,9.042105675E-1,-3.698730469E-1
1.586596832E1,-1.010231972E0,7.058100700E-1,-3.039126396E-1
1.587396269E1,-4.175181389E-1,6.030120850E-1,2.625799179E-2
1.588195783E1,-6.146059036E-1,6.109776497E-1,-9.936809540E-3
1.588995405E1,-9.469151497E-1,6.696462631E-1,-3.399991989E-1
1.589797966E1,-7.102632523E-1,5.605058670E-1,-6.379833221E-1
1.590597649E1,-1.892070770E-1,4.483718872E-1,-8.598203659E-1
1.591397133E1,3.735370636E-1,4.829139709E-1,-7.916512489E-1
1.592196670E1,6.540007591E-1,5.921812057E-1,-7.648010254E-1
1.592996146E1,7.652015686E-1,7.251772881E-1,-7.412548065E-1
1.593795806E1,7.215032578E-1,7.887883186E-1,-4.959053993E-1
1.594595398E1,6.970744133E-1,7.976431847E-1,-4.722342491E-1
1.595397927E1,6.577277184E-1,7.200088501E-1,-5.159287453E-1
1.596197457E1,6.769628525E-1,5.604276657E-1,-5.633125305E-1
1.596997117E1,7.178502083E-1,3.440065384E-1,-4.085125923E-1
1.597796632E1,5.945096016E-1,1.296057701E-1,-4.516530037E-1
1.598596292E1,5.395812988E-1,7.316017151E-2,-3.951115608E-1
1.599395791E1,4.959893227E-1,9.519290924E-2,-2.318916321E-1
1.600195274E1,5.395278931E-1,1.905064583E-1,-1.835966110E-2
1.600997973E1,6.040201187E-1,3.304204941E-1,1.985392570E-1
1.601797541E1,6.637706757E-1,4.390139580E-1,1.689343452E-1
1.602597117E1,7.389779091E-1,5.148329735E-1,1.392669678E-1
1.603396616E1,8.329420090E-1,5.527486801E-1,4.525265694E-1
1.604196092E1,7.384066582E-1,5.997104645E-1,7.136063576E-1
1.604995729E1,4.228310585E-1,5.072240829E-1,7.958936691E-1
1.605795297E1,7.656145096E-2,3.793182373E-1,7.011399269E-1
