"Time (s)","Linear Acceleration x (m/s^2)","Linear Acceleration y (m/s^2)","Linear Acceleration z (m/s^2)"
1.463675000E-2,7.517838478E-2,8.566051722E-3,-4.779024124E-1
2.263153700E-2,9.807443619E-2,2.184852958E-3,-3.223667145E-1
3.062632400E-2,1.808203459E-1,8.439379185E-2,-6.624889374E-2
3.865311100E-2,1.985039711E-1,4.825207591E-2,1.672849655E-1
4.664874500E-2,2.037550211E-1,-5.636723340E-2,3.697557449E-1
5.464537800E-2,2.214368582E-1,-1.477863938E-1,5.337209702E-1
6.263993500E-2,1.969887018E-1,-1.379754841E-1,5.642890930E-1
7.063556800E-2,1.964511871E-1,-6.480716169E-2,4.754352570E-1
7.863074000E-2,1.947060823E-1,-4.055140913E-2,3.368549347E-1
8.662729600E-2,1.427054405E-1,8.166983724E-3,1.279430389E-1
9.465377600E-2,7.229888439E-2,1.338733733E-2,-3.232955933E-4
1.026480250E-1,2.273535728E-2,2.169358730E-2,-1.124868393E-1
1.106431210E-1,1.769959927E-2,1.539209485E-2,-2.005329132E-1
1.186399850E-1,8.898854256E-3,2.110080421E-2,-2.309837341E-1
1.266354640E-1,-5.671727657E-2,2.226875722E-2,-2.206430435E-1
1.346327130E-1,-1.350575686E-1,1.494571567E-2,-1.628198624E-1
1.426572700E-1,-2.372967005E-1,1.102221012E-2,-6.464958191E-2
1.506533650E-1,-2.743754387E-1,9.326234460E-3,5.800151825E-2
1.586484600E-1,-2.445777655E-1,-1.950794458E-2,1.559162140E-1
1.666450160E-1,-1.895906925E-1,-9.271636605E-3,2.335510254E-1
1.746404960E-1,-1.587909460E-1,-2.987626195E-2,2.623348236E-1
1.826352060E-1,-1.201412678E-1,-1.407799125E-2,2.234630585E-1
1.906306090E-1,-7.314729691E-2,-8.487150073E-3,1.960287094E-1
1.986272420E-1,-2.900838852E-2,-1.214787364E-3,1.404113770E-1
2.066531060E-1,4.516720772E-3,-3.721265495E-2,9.661102295E-2
2.146497400E-1,4.702031612E-2,-4.223857820E-2,5.032730103E-2
2.226433730E-1,7.353806496E-2,-2.607563138E-2,2.771377563E-2
2.306396220E-1,9.325599670E-2,-3.538092971E-2,-2.895355225E-3
2.386347940E-1,1.191061735E-1,-4.134973884E-2,4.357337952E-3
2.466311190E-1,1.066772938E-1,3.627479076E-3,-4.930496216E-3
2.546575990E-1,8.385658264E-2,1.408921182E-2,-1.027011871E-2
2.626523090E-1,5.856251717E-2,3.295162320E-2,1.788139343E-3
2.706477900E-1,6.887876987E-2,6.595909595E-2,1.916599274E-2
2.786440390E-1,9.516346455E-2,4.286503792E-2,4.818630219E-2
2.866388260E-1,6.933951378E-2,2.254526317E-2,8.486938477E-2
2.946367670E-1,5.404865742E-2,1.046495140E-2,1.261863708E-1
3.026306310E-1,2.360904217E-2,-6.311893463E-3,1.594772339E-1
3.106568030E-1,7.672309875E-3,1.067367196E-2,1.760330200E-1
3.186531290E-1,-2.761197090E-2,-9.892582893E-4,1.686220169E-1
3.266484540E-1,-2.017033100E-2,-1.732902229E-2,1.515893936E-1
3.346442420E-1,-1.328647137E-2,-2.658157051E-2,1.081438065E-1
3.426392600E-1,1.524186134E-2,-4.091343284E-2,3.358078003E-2
3.506341240E-1,4.190707207E-2,-3.875640035E-2,-9.791374207E-3
3.586307570E-1,1.008977890E-1,-1.524494588E-2,-6.498146057E-2
3.666571600E-1,1.250811815E-1,1.047043502E-2,-7.693290710E-2
3.746535620E-1,1.002051830E-1,1.711288095E-2,-7.914638519E-2
3.826479650E-1,7.886290550E-2,2.380140126E-2,-5.487155914E-2
3.906437520E-1,5.115079880E-2,1.862342656E-2,7.820129395E-3
3.986390780E-1,2.394580841E-2,3.961429000E-3,6.818962097E-2
4.066345580E-1,8.935928345E-3,-1.308853924E-2,1.142244339E-1
4.146314990E-1,-3.457999229E-2,-1.565870643E-2,1.555042267E-1
4.226558240E-1,-5.681669712E-2,-3.918558359E-3,1.680202484E-1
4.306509190E-1,-7.699799538E-2,-3.299826384E-2,1.613349915E-1
4.386474770E-1,-1.166952848E-1,-1.675845683E-2,1.426286697E-1
4.466434950E-1,-1.377162933E-1,2.563738823E-2,8.315277100E-2
4.546402050E-1,-1.187452078E-1,5.363896489E-2,4.512977600E-2
4.626352230E-1,-9.089148045E-2,6.040471792E-2,9.414672852E-3
4.706303180E-1,-7.548916340E-2,3.891968727E-2,-7.203102112E-3
4.786561820E-1,-4.611253738E-2,2.737045288E-2,-1.428890228E-2
4.866515850E-1,-1.190936565E-2,2.596499026E-2,-1.417636871E-2
4.946495260E-1,4.391396046E-2,2.251569927E-2,1.947307587E-2
5.026430830E-1,7.869219780E-2,-1.183295250E-2,4.361820221E-2
5.106390240E-1,1.332949400E-1,-3.439047933E-2,4.151535034E-2
5.186341960E-1,1.454738379E-1,-4.051250219E-2,5.386352539E-2
5.266295210E-1,1.392977238E-1,-5.886363983E-2,2.800846100E-2
5.346582320E-1,9.322214127E-2,-6.066253781E-2,1.183795929E-2
5.426523270E-1,1.027131081E-1,-1.714463532E-2,1.488780975E-2
5.506478060E-1,5.540025234E-2,2.137939632E-2,-1.070404053E-2
5.586429010E-1,1.815021038E-2,-9.418293834E-3,-2.185821533E-2
5.666388420E-1,5.288124084E-4,3.167678416E-2,2.212619781E-2
5.746360910E-1,-1.939630508E-2,4.155674577E-2,5.415534973E-2
5.826297240E-1,-1.751506329E-2,1.779355109E-2,7.903862000E-2
5.906564350E-1,-2.734303474E-2,1.545542479E-2,9.199047089E-2
5.986516070E-1,-3.240823746E-2,1.096144319E-3,7.860660553E-2
6.066475490E-1,-3.989517689E-2,1.143306494E-3,6.522464752E-2
6.146445670E-1,-6.170189381E-2,2.534171939E-2,4.467582703E-2
6.226389690E-1,-7.638311386E-2,1.139061153E-2,3.370475769E-2
6.306356030E-1,-5.778264999E-2,2.857539058E-2,1.073169708E-2
6.386300820E-1,-7.529711723E-2,4.118359089E-2,-2.682685852E-3
6.466559460E-1,-1.050782204E-1,5.635049939E-2,1.738548279E-2
6.546526570E-1,-9.193551540E-2,6.188029051E-2,4.700660706E-2
6.626468290E-1,-1.367709637E-1,3.373600543E-2,7.894802094E-2
6.706422310E-1,-1.584441662E-1,2.451653779E-2,8.443450928E-2
6.786382490E-1,-2.051259279E-1,-1.604661345E-2,6.581878662E-2
6.866345750E-1,-2.192395926E-1,-3.748252988E-2,7.579135895E-2
6.946305930E-1,-2.485584021E-1,-3.959585726E-2,7.127857208E-2
7.026563800E-1,-1.926392317E-1,-4.656094313E-2,6.422710419E-2
7.106515520E-1,-1.403113604E-1,-3.193020821E-2,5.221176147E-2
7.186471850E-1,-1.129648685E-1,-2.945914865E-3,6.158733368E-2
7.266429730E-1,-1.008980274E-1,-2.673089504E-3,5.167388916E-2
7.346398370E-1,-1.039230824E-1,-1.206971705E-2,4.165172577E-2
7.426343930E-1,-5.497825146E-2,-1.431065798E-2,5.786037445E-2
7.506291810E-1,-2.120101452E-2,7.186695933E-3,5.240058899E-2
7.586559680E-1,3.567576408E-2,2.840703726E-2,4.441928864E-2
7.666516020E-1,7.784152031E-2,6.134803593E-2,1.244258881E-2
7.746486200E-1,1.153922081E-1,6.999284029E-2,1.879501343E-2
7.826431000E-1,1.083381176E-1,4.251208901E-2,5.879211426E-2
7.906381180E-1,1.192244291E-1,2.935089171E-2,5.826091766E-2
7.986345210E-1,6.643319130E-2,5.915346742E-2,7.462882996E-2
8.066298460E-1,3.637325764E-2,6.010405719E-2,1.055307388E-1
8.146566330E-1,-3.063678741E-4,-1.121759415E-3,1.341209412E-1
8.226511900E-1,-4.194545746E-2,-2.394884825E-2,1.219882965E-1
8.306462080E-1,-1.130343676E-1,-7.989516854E-2,1.097593307E-1
8.386426110E-1,-1.464194059E-1,-9.967680275E-2,9.984302521E-2
8.466385520E-1,-1.396062374E-1,-1.046902984E-1,7.071018219E-2
8.546349540E-1,-9.481048584E-2,-6.155583262E-2,3.674888611E-2
8.626299720E-1,-2.841711044E-2,-6.112504005E-2,4.100799561E-4
8.706559130E-1,4.542124271E-2,-5.322101712E-2,2.765655518E-5
8.786518550E-1,1.028476954E-1,7.326394320E-3,2.363777161E-2
8.866470260E-1,9.626078606E-2,5.823226273E-2,2.818298340E-2
8.946442750E-1,9.272742271E-2,9.954547882E-2,2.803421021E-2
9.026380620E-1,1.088569164E-1,1.099769771E-1,4.711627960E-2
9.106334650E-1,1.327174902E-1,6.762360036E-2,5.669784546E-2
9.186294830E-1,1.572084427E-1,2.994810045E-2,7.115364075E-2
9.266563470E-1,1.320731640E-1,1.114416122E-2,6.654357910E-2
9.346523660E-1,8.832204342E-2,-5.564485490E-2,5.243206024E-2
9.426462300E-1,-7.190704346E-4,-5.080030859E-2,4.073810577E-2
9.506425560E-1,-6.080055237E-2,-6.064462662E-2,-1.163101196E-2
9.586381900E-1,-9.972476959E-2,-5.633345246E-2,-1.138591766E-2
9.666339770E-1,-1.228060722E-1,-4.505763948E-2,-3.282546997E-2
9.746305330E-1,-1.204705238E-1,-2.895797789E-2,-4.003047943E-2
9.826564740E-1,-1.239367723E-1,1.105582714E-2,-2.343940735E-2
9.906502620E-1,-1.088676453E-1,5.749613047E-3,5.038261414E-3
9.986472800E-1,-8.482992649E-2,5.612760782E-3,1.907253265E-2
1.006642913E0,-9.940397739E-2,-2.299647033E-2,8.334732056E-2
1.014638931E0,-6.389057636E-2,1.792770624E-2,9.013748169E-2
1.022633488E0,-3.571963310E-2,-3.215461969E-3,1.280336380E-1
1.030629429E0,1.151645184E-2,-7.602915168E-3,1.515531540E-1
1.038655601E0,7.813930511E-2,-7.113993168E-3,1.511669159E-1
1.046650772E0,1.142060757E-1,-1.865446568E-3,1.293125153E-1
1.054647406E0,1.417205334E-1,2.019344270E-2,1.004209518E-1
1.062641885E0,1.487721205E-1,2.780891955E-2,7.646942139E-2
1.070636903E0,1.495822668E-1,1.380746067E-2,6.222629547E-2
1.078633921E0,1.224224567E-1,-1.698459685E-2,1.935958862E-2
1.086629016E0,7.217764854E-2,4.707306623E-3,1.012802124E-2
1.094656420E0,4.174232483E-2,2.387219667E-2,3.382682800E-3
1.102650207E0,-9.813666344E-3,2.846337855E-2,1.482009888E-3
1.110645918E0,-6.579339504E-2,1.383237541E-2,-2.760887146E-3
1.118641705E0,-1.075593233E-1,1.360361278E-2,1.452541351E-2
1.126637954E0,-1.568400860E-1,-1.010328531E-3,2.697563171E-2
1.134634356E0,-1.568275690E-1,-3.388255835E-3,5.365753174E-2
1.142628759E0,-1.819064617E-1,-1.020352542E-2,6.102752686E-2
1.150654700E0,-1.722352505E-1,9.536311030E-3,7.541942596E-2
1.158650949E0,-1.468720436E-1,-3.009597957E-2,8.727359772E-2
1.166647044E0,-8.644890785E-2,-5.539561808E-2,9.661197662E-2
1.174642062E0,-4.087853432E-2,-5.214206874E-2,6.278038025E-2
1.182637464E0,2.135932446E-2,-3.467836976E-2,5.526828766E-2
1.190632944E0,1.640486717E-2,4.224956036E-3,3.576278687E-2
1.198628654E0,2.795422077E-2,7.165342569E-3,1.861476898E-2
1.206655365E0,3.192830086E-2,-6.597861648E-3,1.817226410E-2
1.214651075E0,1.395547390E-2,2.030706406E-2,8.096694946E-3
1.222646247E0,4.622387886E-2,3.040796518E-2,2.804756165E-3
1.230641265E0,4.062807560E-2,1.652541757E-2,1.912307739E-2
1.238636975E0,5.729711056E-2,-2.135038376E-2,4.990863800E-2
1.246632993E0,6.516313553E-2,-4.963560402E-2,7.122516632E-2
1.254661319E0,2.082431316E-2,-5.396211147E-2,9.260940552E-2
1.262655184E0,-8.846998215E-3,-2.017898858E-2,1.020603180E-1
1.270651510E0,-9.717464447E-3,1.534312963E-3,8.996963501E-2
1.278645758E0,-3.548145294E-3,6.345644593E-3,8.025169373E-2
1.286641700E0,1.213383675E-2,6.493046880E-3,8.249950409E-2
1.294639025E0,3.032040596E-2,1.626881957E-2,6.321525574E-2
1.302632889E0,3.693616390E-2,1.404114068E-2,6.313991547E-2
1.310627677E0,1.781415939E-2,1.672437787E-2,7.272720337E-2
1.318655002E0,3.793120384E-3,2.536892891E-3,7.038497925E-2
1.326650482E0,-3.643059731E-2,2.971738577E-4,6.566619873E-2
1.334647038E0,-6.483364105E-2,-4.336059093E-3,6.092739105E-2
1.342642210E0,-5.522418022E-2,-1.627662778E-2,4.177856445E-2
1.350636998E0,-3.857100010E-2,-1.890331507E-3,4.415988922E-2
1.358632708E0,1.892697811E-2,-4.196301103E-3,4.416656494E-2
1.366659111E0,3.849852085E-2,-1.136639714E-2,5.619621277E-2
1.374655821E0,2.012920380E-2,-8.900612593E-3,4.194164276E-2
1.382650300E0,2.349102497E-2,-1.610933244E-2,4.686450958E-2
1.390645088E0,-2.320265770E-2,3.197476268E-3,4.703521729E-2
1.398641644E0,-2.215361595E-2,2.014788985E-2,5.915832520E-2
1.406636508E0,-3.816831112E-2,2.032612264E-2,6.165981293E-2
1.414633680E0,-4.256951809E-2,8.592158556E-3,5.453777313E-2
1.422659853E0,-5.935955048E-2,-1.274605095E-2,3.538513184E-2
1.430655256E0,-3.090322018E-2,-2.899050713E-3,5.450630188E-2
1.438649812E0,-2.664923668E-2,4.614666104E-3,5.443859100E-2
1.446646138E0,-2.021336555E-2,-2.138751745E-2,3.039932251E-2
1.454642156E0,-2.824759483E-2,2.779737115E-3,2.310180664E-2
1.462637482E0,-3.050923347E-3,-2.091316879E-2,4.210186005E-2
1.470632346E0,5.776882172E-4,-3.864243627E-3,1.321601868E-2
1.478658518E0,1.130056381E-2,-1.076754928E-2,2.980709076E-2
1.486654843E0,2.684998512E-2,-1.014664769E-3,3.443050385E-2
1.494651092E0,5.222439766E-2,-2.010071278E-2,4.148006439E-2
1.502645956E0,5.169785023E-2,-1.286597550E-2,4.619598389E-2
1.510641359E0,3.000366688E-2,-8.081659675E-3,4.617595673E-2
1.518636454E0,1.086401939E-2,-1.051193476E-2,6.054210663E-2
1.526632164E0,-1.056933403E-2,-5.703389645E-3,5.816555023E-2
1.534659259E0,-4.404926300E-2,-3.416076303E-3,6.534957886E-2
1.542653970E0,-3.951549530E-2,-1.310932636E-2,4.615783691E-2
1.550649372E0,-5.444407463E-2,-1.088485122E-2,4.368209839E-2
1.558646006E0,-6.731617451E-2,8.202031255E-3,2.679538727E-2
1.566641793E0,-5.171215534E-2,1.310366392E-2,2.424335480E-2
1.574637811E0,-4.581093788E-2,1.331254840E-2,3.604030609E-2
1.582632521E0,-1.631021500E-2,-3.142863512E-3,6.215763092E-2
1.590658386E0,-1.069283485E-2,-1.253981888E-2,8.109855652E-2
1.598654404E0,-1.228761673E-2,-1.960049570E-2,8.806228638E-2
1.606649269E0,-1.881706715E-2,-5.319684744E-3,7.584953308E-2
1.614646748E0,-3.847599030E-3,-7.872968912E-3,6.362628937E-2
1.622640689E0,-9.628534317E-4,-5.765512586E-3,5.617523193E-2
1.630635707E0,-2.993464470E-3,-1.090030372E-2,2.715682983E-2
1.638631802E0,-7.426738739E-3,5.549743772E-3,1.489830017E-2
1.646658589E0,-2.162194252E-2,2.873763442E-3,1.698017120E-2
1.654655761E0,-1.426434517E-2,-2.200141549E-3,1.427459717E-2
1.662649395E0,-1.160025597E-2,-9.384751320E-5,1.397705078E-2
1.670645643E0,-1.122295856E-2,-1.484213769E-2,3.045272827E-2
1.678640738E0,-8.505105972E-3,-1.759804785E-2,5.649757385E-2
1.686637141E0,-5.723476410E-3,-8.380368352E-3,5.621623993E-2
1.694633159E0,-1.516795158E-2,-8.780241013E-3,5.829334259E-2
1.702658408E0,-2.241563797E-2,-3.069715202E-2,5.555725098E-2
1.710652887E0,-2.002751827E-2,-3.099690378E-2,5.761909485E-2
1.718649752E0,8.948683739E-3,9.571790695E-3,5.253791809E-2
1.726644846E0,3.581500053E-2,3.111998737E-2,5.467891693E-2
1.734641557E0,1.984405518E-2,3.863766789E-2,6.404685974E-2
1.742636267E0,4.006981850E-3,2.474963665E-2,7.583045959E-2
1.750632054E0,1.452898979E-2,1.294091344E-3,6.367492676E-2
1.758657535E0,-3.490030766E-2,3.947466612E-3,5.868434906E-2
1.766654168E0,2.350306511E-2,-1.508720219E-2,3.215694427E-2
1.774650263E0,2.930617332E-2,-1.023405790E-2,2.000141144E-2
1.782645051E0,5.719208717E-2,-1.971812546E-2,3.186130524E-2
1.790640376E0,3.284811974E-2,-1.267401874E-2,3.659343719E-2
1.798635779E0,3.282666206E-2,-1.276595891E-2,4.377079010E-2
1.806632412E0,1.402306557E-2,-2.479320765E-2,6.775856018E-2
1.814658969E0,-4.659652710E-3,-1.770354807E-2,6.063652039E-2
1.822653371E0,-3.763842583E-2,-3.378719091E-3,5.352497101E-2
1.830649389E0,-3.958320618E-2,8.544340730E-3,7.034397125E-2
1.838644484E0,-3.704893589E-2,1.374363899E-3,5.839252472E-2
1.846640810E0,-4.436361790E-2,1.534074545E-3,6.795501709E-2
1.854637213E0,-1.850068569E-2,1.142360270E-2,3.198528290E-2
1.862631308E0,-2.262711525E-3,2.138340473E-2,3.910732269E-2
1.870657249E0,9.329080582E-3,7.323071361E-3,3.906250000E-2
1.878653574E0,2.355659008E-2,-1.159466803E-2,3.905010223E-2
1.886649592E0,3.329026699E-2,-9.062021971E-3,4.625701904E-2
1.894645611E0,3.125238419E-2,-1.624365151E-2,3.912162781E-2
1.902640629E0,3.417205811E-2,-2.110750973E-2,4.637336731E-2
1.910636031E0,6.029725075E-3,1.223216951E-2,2.968788147E-2
1.918631434E0,-5.290746689E-3,-4.732444882E-3,3.934764862E-2
1.926658299E0,-1.893353462E-2,1.187156141E-2,2.507591248E-2
1.934654240E0,-3.259539604E-2,-2.651071548E-2,3.474617004E-2
1.942649027E0,-2.960360050E-2,-1.943385601E-2,3.961181641E-2
1.950644122E0,-1.225876808E-2,-7.518738508E-3,3.011226654E-2
1.958640448E0,-1.885390282E-2,-3.818869591E-4,6.370925903E-2
1.966635620E0,-2.550947666E-2,2.068623900E-3,6.138801575E-2
1.974632176E0,6.044387817E-3,-4.965588450E-3,4.947757721E-2
1.982658348E0,-8.247733116E-3,7.092520595E-3,5.427742004E-2
1.990652520E0,-1.526534557E-2,9.551271796E-3,4.233074188E-2
1.998649153E0,-7.933139801E-3,-2.322569489E-3,6.390094757E-2
2.006644325E0,-1.746428013E-2,-1.672397554E-2,3.517532349E-2
2.014640651E0,-3.672921658E-2,2.457767725E-3,3.755569458E-2
2.022635977E0,-4.646027088E-2,1.932875812E-2,4.711437225E-2
2.030630533E0,-2.994692326E-2,-9.206220508E-3,5.187416077E-2
2.038657244E0,-2.800333500E-2,5.459189415E-4,4.463481903E-2
2.046653877E0,-1.419377327E-2,-1.129837334E-2,4.216861725E-2
2.054649895E0,-1.476860046E-2,-1.366591454E-2,6.363964081E-2
2.062644451E0,-1.786172390E-2,-4.320532084E-3,6.114673615E-2
2.070639546E0,-1.846885681E-2,-1.418988407E-2,5.387496948E-2
2.078634949E0,-7.181286812E-3,-1.442417502E-2,5.617237091E-2
2.086631506E0,-7.030963898E-4,1.181222498E-2,6.565189362E-2
2.094658601E0,-1.087093353E-2,-9.835124016E-3,5.120563507E-2
2.102653696E0,3.979206085E-4,2.126947045E-2,4.871654510E-2
2.110648561E0,-3.025531769E-4,4.605248570E-3,6.538486481E-2
2.118644502E0,-8.591413498E-4,4.611402750E-3,6.052207947E-2
2.126640212E0,1.528680325E-2,7.105112076E-3,4.368209839E-2
2.134636307E0,3.401648998E-2,3.883242607E-5,4.362869263E-2
2.142631710E0,2.649271488E-2,-3.098458052E-2,5.316162109E-2
2.150657497E0,1.896750927E-2,4.940450191E-3,5.311584473E-2
2.158653823E0,2.123868465E-2,-7.034853101E-3,3.155231476E-2
2.166648302E0,2.601420879E-2,-2.869161963E-2,4.112434387E-2
2.174645320E0,2.303838730E-3,-1.455776393E-2,3.157329559E-2
2.182639723E0,-6.922245026E-3,2.035558224E-3,3.640556335E-2
2.190635202E0,-2.574384212E-2,-5.941241980E-4,3.644466400E-2
2.198661913E0,-8.631467819E-3,-8.105129004E-3,3.169536591E-2
2.206657084E0,-2.991771698E-2,-1.139551401E-3,4.369640350E-2
2.214653718E0,-2.983307838E-2,3.391146660E-3,3.412532806E-2
2.222648121E0,-3.221356869E-2,-6.301879883E-3,4.370117188E-2
2.230644139E0,-1.799058914E-2,1.040683687E-2,4.607582092E-2
2.238639849E0,-8.731484413E-3,-1.566544175E-3,5.800342560E-2
2.246635944E0,-2.107048035E-2,-1.583571732E-2,5.077457428E-2
2.254662117E0,-2.166271210E-3,-1.588182151E-2,7.947063446E-2
2.262657442E0,4.658579826E-3,-2.310082316E-2,5.547904968E-2
2.270651922E0,9.339332581E-3,-2.555130422E-2,7.222270966E-2
2.278647709E0,2.177476883E-3,-2.084214985E-2,5.785942078E-2
2.286644343E0,-2.086162567E-4,-1.135174930E-2,5.785751343E-2
2.294640591E0,4.798293114E-3,-1.147787273E-2,2.197170258E-2
2.302635379E0,4.896759987E-3,-1.644350588E-2,1.958656311E-2
2.310661243E0,1.473653316E-2,-7.031396031E-3,1.482963562E-2
2.318656953E0,1.751017570E-2,8.718669415E-5,2.206134796E-2
2.326652971E0,1.327919960E-2,-3.813207150E-5,3.171062469E-2
2.334649374E0,-7.556438446E-3,2.281606197E-3,3.180408478E-2
2.342643238E0,-1.630282402E-2,1.183883846E-2,2.952003479E-2
2.350638641E0,-3.250896931E-2,-2.512902021E-3,5.593109131E-2
2.358635274E0,-4.189896584E-2,-1.699109375E-2,6.553077698E-2
2.366661446E0,-4.668855667E-2,-2.661499381E-2,6.074142456E-2
2.374657695E0,-1.585793495E-2,-2.433694899E-2,6.309318542E-2
2.382653097E0,-1.398599148E-2,-2.449512482E-2,4.147148132E-2
2.390648500E0,-7.441759109E-3,-4.372242093E-2,4.138469696E-2
2.398643672E0,-3.261327744E-3,-1.258473098E-2,3.172683716E-2
2.406639997E0,1.062798500E-2,2.570973337E-2,1.729679108E-2
2.414635708E0,1.519095898E-2,1.620770991E-2,2.923870087E-2
2.422660958E0,-6.605148315E-3,-2.879276872E-3,4.596710205E-2
2.430656283E0,-6.821751595E-3,-2.887129784E-3,4.833221436E-2
2.438652609E0,-4.584550858E-3,-5.311936140E-3,4.591751099E-2
2.446648319E0,-1.417493820E-2,-5.957633257E-4,6.027793884E-2
2.454644722E0,-9.437084198E-3,-1.035754383E-2,6.266117096E-2
2.462638894E0,-1.921725273E-2,1.470327377E-3,5.784225464E-2
2.470635143E0,-1.701664925E-2,6.186351180E-3,6.499862671E-2
2.478630622E0,-1.000213623E-2,8.474156260E-3,4.581928253E-2
2.486656486E0,-2.708184719E-2,3.611907363E-3,3.619861603E-2
2.494653351E0,-2.986788750E-2,-8.428394794E-3,3.614425659E-2
2.502647907E0,-2.547109127E-2,1.066318154E-2,3.130245209E-2
2.510643233E0,-6.738901138E-3,-1.325337589E-2,3.842926025E-2
2.518638712E0,-2.364873886E-3,-1.559305191E-2,5.274009705E-2
2.526634961E0,-5.422830582E-4,1.284599304E-3,6.942558289E-2
2.534661748E0,3.758311272E-3,1.271978021E-3,5.020713806E-2
2.542656305E0,2.006423473E-2,-2.036671340E-2,6.690406799E-2
2.550652015E0,2.454161644E-2,3.376111388E-3,6.685733795E-2
2.558648033E0,3.579854965E-4,-1.552298665E-3,5.485248566E-2
2.566643051E0,4.956960678E-3,7.790580392E-3,4.045581818E-2
2.574639377E0,-1.199185848E-2,3.538131714E-4,2.127170563E-2
2.582634856E0,2.421855927E-3,2.599626780E-3,4.282188416E-2
2.590660414E0,1.912271976E-2,2.664357424E-3,2.845096588E-2
2.598656740E0,-2.401590347E-3,-9.319052100E-3,3.803062439E-2
2.606652065E0,-9.509801865E-3,-2.118632197E-3,4.761695862E-2
2.614647853E0,1.711356640E-2,-1.175214350E-2,8.117294312E-2
2.622643486E0,1.262104511E-2,-2.866466343E-2,6.445026398E-2
2.630639581E0,-8.599042892E-3,-2.168905735E-2,4.772949219E-2
2.638634368E0,-1.297891140E-2,-7.564604282E-3,5.496215820E-2
2.646660848E0,-6.589889526E-4,-5.470320582E-3,3.824138641E-2
2.654657481E0,-3.153705597E-2,-8.543133736E-4,3.348255157E-2
2.662652807E0,-1.955831051E-2,-3.423035145E-3,2.150917053E-2
2.670647056E0,-4.607474804E-2,-1.311329007E-2,4.542446136E-2
2.678643304E0,-4.892194271E-2,3.563866019E-3,2.620792389E-2
2.686638399E0,-3.985917568E-2,-5.960240960E-3,6.987571716E-3
2.694636033E0,-1.943826675E-3,1.096899807E-2,7.158184052E-2
2.702660666E0,2.516746521E-3,-2.958612144E-2,6.914806366E-2
2.710656377E0,8.995890617E-3,-3.428220749E-2,7.863330841E-2
2.718651395E0,2.273237705E-2,-3.193718195E-2,5.700016022E-2
2.726647413E0,2.498602867E-2,-1.548165083E-2,7.373428345E-2
2.734643738E0,4.679119587E-2,3.348216414E-3,6.178951263E-2
2.742638602E0,3.760993481E-2,1.747106016E-2,2.353000641E-2
2.750633620E0,2.143192291E-2,2.199608088E-2,2.360153198E-2
2.758660409E0,5.009174347E-4,-9.353354573E-3,2.607345581E-2
2.766656504E0,-2.501320839E-2,-2.207532525E-3,5.251789093E-2
2.774652445E0,-2.651691437E-2,-7.056757808E-3,4.305934906E-2
2.782647232E0,-3.288173676E-2,4.042685032E-5,4.795455933E-2
2.790642712E0,-2.747249603E-2,1.194375753E-2,4.324817657E-2
2.798639037E0,-3.903675079E-2,-2.153965831E-2,6.964015961E-2
2.806634440E0,-4.607188702E-2,1.188918948E-2,4.332065582E-2
2.814661458E0,-3.908908367E-2,-3.130675852E-2,6.005191803E-2
2.822655322E0,-3.732073307E-2,-7.514402270E-3,3.362846375E-2
2.830651417E0,-3.097498417E-2,1.392805576E-2,2.393722534E-2
2.838647358E0,-5.652666092E-3,4.333823919E-3,4.295444489E-2
2.846643376E0,1.461637020E-2,-2.432040870E-2,4.518032074E-2
2.854639702E0,8.787751198E-3,-1.454137266E-2,3.547000885E-2
2.862634258E0,-1.384019852E-2,-2.557933331E-3,5.687427521E-2
2.870660123E0,1.393795013E-2,-7.392182946E-3,4.716968536E-2
2.878655833E0,1.560604572E-2,-3.141626716E-2,4.228305817E-2
2.886651235E0,2.218234539E-2,-1.244877279E-2,2.783203125E-2
2.894647792E0,5.066871643E-3,6.560623646E-3,3.975296021E-2
2.902642579E0,-7.059812546E-3,-1.746159792E-2,6.127929688E-2
2.910638059E0,2.444863319E-3,-1.269026101E-2,5.648040771E-2
2.918634000E0,-7.154703140E-3,-8.102655411E-4,7.802391052E-2
2.926660557E0,-2.398574352E-2,-2.242653072E-2,7.322406769E-2
2.934656498E0,-2.657151222E-2,-1.000106335E-3,7.559013367E-2
2.942651593E0,-2.455949783E-2,-1.067049801E-2,5.398941040E-2
2.950646996E0,-1.063728333E-2,6.006449461E-3,4.914093018E-2
2.958642476E0,5.574464798E-3,-1.319719851E-2,5.385589600E-2
2.966637571E0,1.219737530E-2,-1.355841756E-3,3.223037720E-2
2.974635050E0,-5.204677582E-3,-6.244659424E-3,3.693103790E-2
2.982659376E0,3.907442093E-3,1.041026413E-2,1.053237915E-2
2.990654778E0,1.108407974E-3,1.026420295E-2,3.441715240E-2
2.998650796E0,3.349542618E-3,-9.134277701E-3,2.481460571E-2
3.006646891E0,2.253866196E-2,2.490967512E-3,2.959918976E-2
3.014643448E0,2.031314373E-2,-1.218686998E-2,5.595111847E-2
3.022637620E0,1.593887806E-2,-2.926069498E-2,5.121040344E-2
3.030634022E0,6.878733635E-3,-2.472633123E-2,6.085014343E-2
3.038660117E0,2.191460133E-2,-3.690211475E-2,4.656982422E-2
3.046655905E0,5.933284760E-3,-3.649428487E-3,6.342792511E-2
3.054651846E0,6.862759590E-3,-1.503258944E-3,6.593894958E-2
3.062647248E0,-1.658916473E-3,-6.510019302E-3,4.931545258E-2
3.070641805E0,-1.749014854E-2,1.485970616E-2,3.985786438E-2
3.078637746E0,-1.891767979E-2,2.198293805E-2,4.956245422E-2
3.086633842E0,-1.306164265E-2,-6.687983871E-3,3.773403168E-2
3.094660552E0,-2.416718006E-2,-4.137873650E-3,4.742908478E-2
3.102655032E0,-3.287601471E-2,-1.596231759E-2,5.951976776E-2
3.110651050E0,-1.047039032E-2,-3.028768301E-2,5.963516235E-2
3.118646452E0,2.292037010E-3,-3.517912328E-2,4.537391663E-2
3.126641932E0,-2.313244343E-2,-6.479814649E-3,4.549407959E-2
3.134638565E0,2.311873436E-2,1.026315987E-2,3.601932526E-2
3.142633660E0,3.347551823E-2,3.051236272E-3,3.133392334E-2
3.150659217E0,4.405879974E-2,1.265303791E-2,2.189254761E-2
3.158655466E0,4.048216343E-2,1.507498324E-2,1.487255096E-2
3.166650945E0,4.442906380E-2,1.036068797E-2,5.099582672E-2
3.174647578E0,1.985347271E-2,-1.461714506E-3,5.602455139E-2
3.182642289E0,-9.359002113E-3,9.355247021E-4,4.670429230E-2
3.190637999E0,-3.613543510E-2,-2.053074539E-2,6.372833252E-2
3.198633094E0,-3.914880753E-2,-2.525892854E-2,5.918025970E-2
3.206659958E0,-5.926966667E-2,-1.096911728E-2,4.021739960E-2
3.214655899E0,-6.059145927E-2,-3.790065646E-3,5.233383179E-2
3.222649840E0,-5.987572670E-2,5.694568157E-3,3.806400299E-2
3.230645858E0,-2.580308914E-2,-6.327122450E-3,2.377223969E-2
3.238642107E0,-3.262066841E-2,-6.323024631E-3,1.185035706E-2
3.246637818E0,-5.167579651E-2,-1.595059037E-2,3.819942474E-2
3.254664914E0,-4.462766647E-2,-4.052773118E-3,3.578472137E-2
3.262658778E0,-1.625621319E-2,-2.801813185E-2,6.207275391E-2
3.270655180E0,-4.878401756E-3,-1.848213375E-2,5.959701538E-2
3.278650198E0,1.664996147E-3,-2.796439826E-2,4.275321960E-2
3.286646832E0,9.104013443E-4,-8.740976453E-3,5.222988129E-2
3.294642927E0,9.884238243E-3,-1.471668482E-3,5.214977264E-2
3.302637099E0,1.177847385E-2,8.129641414E-3,5.208301544E-2
3.310632501E0,8.967399597E-3,3.386467695E-3,5.681610107E-2
3.318659904E0,6.441831589E-3,-8.511900902E-3,5.201148987E-2
3.326654691E0,2.064979076E-2,1.107990742E-3,4.001903534E-2
3.334651248E0,-8.086800575E-3,-1.225307584E-3,3.523254395E-2
3.342645804E0,-1.278316975E-2,-5.958363414E-3,5.200576782E-2
3.350642361E0,-7.305145264E-4,-1.783679426E-2,2.568149567E-2
3.358636609E0,-1.493084431E-2,-2.268856764E-2,4.246234894E-2
3.366664012E0,-2.809047699E-3,-2.512471378E-2,5.205917358E-2
3.374660338E0,-9.734392166E-3,-1.784276962E-2,4.730701447E-2
3.382654510E0,-2.408492565E-2,-2.015784383E-2,5.688762665E-2
3.390650143E0,-1.454365253E-2,-8.795261383E-4,5.209732056E-2
3.398645853E0,-2.413487434E-2,1.603588462E-3,6.167411804E-2
3.406641871E0,-1.455903053E-2,8.899271488E-3,4.491615295E-2
3.414637582E0,4.570484161E-3,4.236727953E-3,4.491519928E-2
3.422663447E0,-5.029439926E-3,-1.008634269E-2,4.012489319E-2
3.430658926E0,9.523630142E-3,6.646841764E-3,3.536128998E-2
3.438654560E0,9.915232658E-3,-5.496442318E-4,3.541374207E-2
3.446650655E0,1.527452469E-2,9.084165096E-3,3.549194336E-2
3.454646596E0,1.846897602E-2,-5.175992846E-3,6.433296204E-2
3.462641152E0,2.421271801E-2,-1.707260311E-2,5.488777161E-2
3.470636478E0,6.111025810E-3,-2.422988415E-2,5.981922150E-2
3.478663573E0,-2.153420448E-2,-1.224461198E-2,5.278396606E-2
3.486659360E0,-1.338601112E-3,-1.471249759E-2,4.813480377E-2
3.494655686E0,-1.949858665E-2,-5.158036947E-3,2.193260193E-2
3.502650165E0,-1.142525673E-2,-5.205348134E-3,1.965904236E-2
3.510645491E0,-1.778602600E-2,2.021983266E-3,3.892612457E-2
3.518641509E0,-2.921128273E-2,4.431650043E-3,1.505756378E-2
3.526637835E0,-2.867770195E-2,1.651117206E-2,3.907489777E-2
3.534664314E0,-5.470812321E-2,-2.476513386E-3,2.236080170E-2
3.542659102E0,-1.628279686E-2,-7.011175156E-3,4.153537750E-2
3.550653966E0,-1.625859737E-2,-2.828827500E-2,4.872798920E-2
3.558649984E0,2.802371979E-3,-1.343595982E-2,6.548500061E-2
3.566645694E0,1.471590996E-2,-3.459511697E-2,6.069660187E-2
3.574642251E0,9.883046150E-3,-3.191907704E-2,5.830287933E-2
3.582637424E0,2.451646328E-2,-2.976879478E-3,5.116176605E-2
3.590663211E0,2.979290485E-2,-1.486994326E-2,4.404735565E-2
3.598658613E0,3.055858612E-2,4.225283861E-3,1.063156128E-2
3.606654401E0,7.447957993E-3,2.086594701E-2,3.559112549E-3
3.614650419E0,-1.079189777E-2,2.319085598E-2,2.523040771E-2
3.622645437E0,-2.428615093E-2,-1.517572999E-2,1.577091217E-2
3.630640224E0,-2.104794979E-2,-1.276770234E-2,4.461765289E-2
3.638636934E0,-1.078021526E-2,-5.522832274E-3,5.907821655E-2
3.646663414E0,-1.004326344E-2,-3.420355916E-2,8.072757721E-2
3.654659970E0,-1.890873909E-2,-1.508581638E-2,9.040069580E-2
3.662653911E0,-1.844346523E-2,-8.912533522E-4,8.806705475E-2
3.670649929E0,-1.325142384E-2,1.338917017E-2,4.502487183E-2
3.678645332E0,-3.402829170E-3,1.320047677E-2,3.548049927E-2
3.686641658E0,-2.732527256E-2,1.311758161E-2,2.829837799E-2
3.694637676E0,-4.915034771E-2,1.075300574E-2,1.389598846E-2
3.702662002E0,-6.162035465E-2,1.575760543E-2,1.383304596E-2
3.710658250E0,-5.742716789E-2,-5.528882146E-3,2.572822571E-2
3.718654576E0,-4.373586178E-2,-5.144476891E-4,2.085304260E-2
3.726649671E0,-3.977453709E-2,-2.867430449E-4,4.468631744E-2
3.734646689E0,-2.881789207E-2,-2.406297624E-2,4.694557190E-2
3.742641169E0,-3.248059750E-2,-2.629141510E-2,4.198741913E-2
3.750636264E0,-9.935379028E-3,-2.370184660E-2,4.898452759E-2
3.758662436E0,-1.917719841E-3,-1.169219613E-2,5.356121063E-2
3.766659070E0,3.648519516E-3,-1.637537777E-2,5.334377289E-2
3.774655088E0,4.588484764E-3,-2.580073476E-2,4.836177826E-2
3.782649798E0,1.274609566E-2,-1.355244219E-2,3.859806061E-2
3.790644278E0,2.339518070E-2,-1.329734921E-3,3.842449188E-2
3.798640680E0,3.079056740E-3,-1.535129547E-2,4.066848755E-2
3.806636083E0,-5.207300186E-3,1.761078835E-3,4.052639008E-2
3.814663793E0,9.887218475E-4,-3.493279219E-4,3.082275391E-2
3.822657888E0,2.160811424E-2,2.624215186E-2,2.591419220E-2
3.830654522E0,3.510761261E-2,4.906252027E-3,4.974460602E-2
3.838649078E0,1.284623146E-2,-4.475593567E-3,4.725933075E-2
3.846645096E0,1.676082611E-4,5.324080586E-3,3.759193420E-2
3.854641653E0,-2.451539040E-2,1.742368937E-2,6.383037567E-2
3.862636824E0,-2.288877964E-2,-2.321673930E-2,3.978633881E-2
3.870661381E0,-1.645946503E-2,-2.569413185E-2,4.686546326E-2
3.878657476E0,-9.947896004E-3,2.828776836E-3,4.677104950E-2
3.886653417E0,1.334631443E-2,-2.135506272E-2,6.583213806E-2
3.894650973E0,3.002882004E-3,-3.113852441E-2,4.896450043E-2
3.902644607E0,-4.877567291E-3,-1.471699774E-2,5.365180969E-2
3.910640549E0,1.847720146E-2,-2.981752157E-3,3.680896759E-2
3.918636336E0,2.988004684E-2,-1.996089518E-2,4.630565643E-2
3.926662431E0,1.254308224E-2,-3.328174353E-3,4.861831665E-2
3.934658834E0,-2.303600311E-3,-1.536802948E-2,3.658199310E-2
3.942654159E0,-2.629518509E-3,-8.271321654E-3,4.371833801E-2
3.950648639E0,-2.200007439E-2,1.093849540E-2,3.411388397E-2
3.958644657E0,-1.987385750E-2,-5.713075399E-3,3.408050537E-2
3.966640060E0,-3.945672512E-2,-3.235176206E-3,3.641891479E-2
3.974637001E0,-8.880257607E-3,-1.502896845E-2,5.550289154E-2
3.982662865E0,-9.526968002E-3,-2.455815673E-2,4.105186462E-2
3.990657652E0,4.262566566E-3,-1.976139843E-2,4.815769196E-2
3.998652747E0,1.093828678E-2,-1.260069013E-2,3.851222992E-2
4.006649457E0,4.162383080E-2,-5.518496037E-3,2.887535095E-2
4.014646014E0,2.943587303E-2,-7.234066725E-4,2.884578705E-2
4.022640570E0,3.180623055E-2,3.030046821E-2,3.841781616E-2
4.030635281E0,2.003586292E-2,8.721113205E-3,3.844451904E-2
4.038661837E0,-2.746331692E-2,-5.545303226E-3,5.765056610E-2
4.046658086E0,-4.381453991E-2,-1.021963358E-2,4.094886780E-2
4.054654489E0,-5.093169212E-2,-2.865344286E-3,5.293178558E-2
4.062649199E0,-6.312525272E-2,-2.662423253E-2,5.769443512E-2
4.070644909E0,-4.687047005E-2,-2.647912502E-2,6.481456757E-2
4.078640621E0,-4.530644417E-2,-1.680830121E-2,5.033969879E-2
4.086636331E0,-1.979768276E-2,-2.142009139E-2,3.107929230E-2
4.094662580E0,1.051163673E-2,-9.401544929E-3,3.815460205E-2
4.102657675E0,1.682424545E-2,-2.617979050E-2,1.888465881E-2
4.110653077E0,1.858329773E-2,4.910528660E-3,3.555870056E-2
4.118649018E0,1.553237438E-2,2.589136362E-3,2.110671997E-2
4.126644498E0,7.978320122E-3,2.625331283E-3,2.824115753E-2
4.134640208E0,3.197693825E-2,2.623811364E-3,4.740238190E-2
4.142635226E0,1.039910316E-2,-4.994077981E-2,8.570766449E-2
4.150662014E0,-4.224312305E-2,7.709220052E-3,6.895637512E-2
4.158657493E0,-3.963708878E-3,3.656335175E-2,4.740715027E-2
4.166652896E0,-2.329730988E-2,-2.326689661E-2,5.456733704E-2
4.174650375E0,-3.109109402E-2,-3.038282692E-2,5.688095093E-2
4.182643701E0,-4.627442360E-2,-1.602217555E-2,3.283023834E-2
4.190639334E0,3.443837166E-3,2.229291201E-2,2.557373047E-2
4.198635122E0,1.252138615E-2,7.957682014E-3,2.790164948E-2
4.206661909E0,-7.166981697E-3,-2.547506988E-2,4.459285736E-2
4.214658773E0,-5.191087723E-3,-8.664339781E-3,3.975009918E-2
4.222653022E0,-1.761603355E-2,2.012543380E-2,4.687309265E-2
4.230648655E0,-8.493542671E-3,8.270680904E-3,5.878639221E-2
4.238643750E0,2.836585045E-3,-1.330256462E-2,6.588363647E-2
4.246641077E0,1.653337479E-2,-3.243568540E-2,4.664134979E-2
4.254637403E0,1.837885380E-2,-3.662720323E-3,5.375289917E-2
4.262661651E0,1.798558235E-2,-1.319627464E-2,5.370235443E-2
4.270656516E0,2.513194084E-2,-1.272678375E-3,5.848503113E-2
4.278652534E0,2.549612522E-2,9.953677654E-4,4.895305634E-2
4.286648552E0,3.317403793E-2,-8.707448840E-3,5.859279633E-2
4.294645416E0,1.470661163E-2,-1.125070453E-2,4.431533813E-2
4.302639895E0,1.310491562E-2,3.000989556E-3,5.878353119E-2
4.310635067E0,-9.969353676E-3,-1.874983311E-3,5.410766602E-2
4.318661778E0,-9.191513062E-3,-2.350889146E-2,6.139087677E-2
4.326657488E0,-3.725671768E-2,-9.318739176E-3,3.992843628E-2
4.334654198E0,-4.370725155E-2,-4.603192210E-3,4.481220245E-2
4.342647678E0,-4.320621490E-2,-1.915232837E-2,4.487514496E-2
4.350643696E0,-2.604401112E-2,-5.596876144E-5,1.859092712E-2
4.358639714E0,-4.020667076E-2,1.426839828E-2,2.819442749E-2
4.366635193E0,-4.249691963E-2,-9.126961231E-5,4.496765137E-2
4.374663134E0,-3.322076797E-2,-2.161359787E-2,5.450439453E-2
4.382656768E0,-2.892422676E-2,-2.151013911E-2,4.725837708E-2
4.390653401E0,3.707408905E-3,-1.422186196E-2,6.150817871E-2
4.398648419E0,-4.317045212E-3,-6.905212998E-3,4.942893982E-2
4.406644208E0,2.594387531E-2,-2.602382004E-2,3.973865509E-2
4.414640841E0,8.550167084E-3,-9.163901210E-3,2.529048920E-2
4.422665167E0,3.474462032E-2,3.740638494E-4,3.005886078E-2
4.430661108E0,1.338589191E-2,2.832591534E-3,3.726768494E-2
4.438656203E0,2.330410480E-2,-1.141083241E-2,4.689311981E-2
4.446652913E0,-1.959323883E-2,-1.754030585E-3,5.410480499E-2
4.454648931E0,-3.377020359E-2,-2.793474495E-2,4.934406281E-2
4.462643641E0,-7.364034653E-3,-2.064374089E-2,7.090282440E-2
4.470639352E0,-3.130269051E-2,-1.097591221E-2,5.654048920E-2
4.478665831E0,-2.189445496E-2,-1.325845718E-2,5.412673950E-2
4.486661003E0,-2.450144291E-2,3.585815430E-3,4.931259155E-2
4.494657944E0,-1.532626152E-2,-1.128911972E-3,5.883789062E-2
4.502652116E0,-1.334488392E-2,1.575013995E-2,5.878543854E-2
4.510647442E0,-1.942873001E-3,1.110057533E-2,6.350135803E-2
4.518643844E0,2.217411995E-3,8.740857244E-3,4.905319214E-2
4.526639478E0,-8.188486099E-4,-7.950410247E-3,4.178714752E-2
4.532651492E0,-6.183385849E-3,1.769378781E-3,3.453159332E-2
4.534666573E0,-1.097178459E-2,-1.738423109E-2,4.889678955E-2
4.542660514E0,-1.147508621E-2,-1.005469263E-2,4.404449463E-2
4.550656840E0,1.433277130E-2,-9.926572442E-3,5.355548859E-2
4.558652473E0,-2.443087101E-2,-1.703201234E-2,3.673648834E-2
4.566648260E0,-1.548850536E-2,-1.918937266E-2,4.384136200E-2
4.574643972E0,-1.130509377E-2,-2.150771022E-2,4.376316071E-2
4.582639990E0,4.647850990E-3,-9.507253766E-3,4.844474792E-2
4.590664931E0,1.552224159E-3,-1.187840104E-2,5.074691772E-2
4.598661487E0,1.008749008E-3,-3.344169259E-2,5.546283722E-2
4.606656582E0,-2.023577690E-3,-2.388657629E-2,5.059051514E-2
4.614653216E0,-2.170336246E-2,-1.661552489E-2,6.967639923E-2
4.622648003E0,-7.829904556E-3,-3.331372142E-2,5.764293671E-2
4.630643405E0,-5.901098251E-3,-1.404218376E-2,6.716060638E-2
4.638640039E0,-4.150748253E-3,1.007349789E-2,6.947422028E-2
4.646665595E0,1.199233532E-2,5.388781428E-3,5.981826782E-2
4.654661690E0,6.680250168E-3,1.030522585E-2,3.581047058E-2
4.662656170E0,3.811001778E-3,-1.347745955E-2,3.096294403E-2
4.670651496E0,5.838871002E-3,1.298005879E-2,3.331184387E-2
4.678647821E0,5.695939064E-3,-1.089905202E-2,3.568840027E-2
4.686643839E0,7.754564285E-4,3.484666348E-3,5.961418152E-2
4.694639934E0,-1.690983772E-3,1.034572721E-3,4.284381866E-2
4.702664568E0,7.813096046E-3,-8.673280478E-3,5.719661713E-2
4.710660893E0,-4.086971283E-3,3.180921078E-3,5.480861664E-2
4.718656527E0,-2.565908432E-2,7.438957691E-4,5.719947815E-2
4.726652006E0,-2.340829372E-2,-1.368515193E-2,5.478477478E-2
4.734648948E0,-2.127587795E-2,-2.817286551E-2,5.235290527E-2
4.742643043E0,-4.558539391E-2,-1.866839826E-2,6.427383423E-2
4.750638138E0,-3.665900230E-2,-2.345436811E-2,3.785324097E-2
4.758665541E0,-1.588749886E-2,5.902647972E-4,4.733085632E-2
4.766660405E0,-1.446008682E-2,-8.958801627E-3,3.523254395E-2
4.774657346E0,-1.536285877E-2,-1.123383641E-2,5.905914307E-2
4.782651518E0,1.985073090E-2,-8.798256516E-3,6.375694275E-2
4.790648459E0,7.199287415E-3,-8.793994784E-3,7.085132599E-2
4.798643554E0,2.834022045E-2,-6.451189518E-3,6.840229034E-2
4.806638649E0,4.723155499E-2,-3.532937169E-2,7.075881958E-2
4.814666052E0,3.040480614E-2,-1.399199665E-2,5.638027191E-2
4.822660762E0,1.148331165E-2,2.550631762E-3,4.922294617E-2
4.830655626E0,2.146160603E-2,-1.919506490E-2,4.208850861E-2
4.838651260E0,2.673149109E-2,-4.873499274E-3,4.454421997E-2
4.846647354E0,1.534271240E-2,-4.958286881E-3,4.222488403E-2
4.854643911E0,-1.027441025E-2,1.407723129E-2,3.034496307E-2
4.862638083E0,-2.185940742E-3,-5.264580250E-3,2.806568146E-2
4.870665255E0,-5.410301685E-2,8.971750736E-3,3.295040131E-2
4.878660350E0,-5.606186390E-2,6.589218974E-3,6.173801422E-2
4.886656060E0,-7.040810585E-2,-5.401641130E-3,6.413364410E-2
4.894653309E0,-7.308757305E-2,-2.208375931E-2,8.804035187E-2
4.902647097E0,-5.208146572E-2,-1.734893024E-2,7.360267639E-2
4.910642192E0,-1.942563057E-2,-2.696751058E-2,8.785438538E-2
4.918638518E0,8.351564407E-3,4.041165113E-3,5.420780182E-2
4.926664151E0,7.335066795E-3,-8.570402861E-4,3.491878510E-2
4.934661708E0,1.118540764E-2,1.584109664E-2,1.564121246E-2
4.942655495E0,2.013134956E-2,3.263503313E-2,3.710746765E-2
4.950651897E0,2.205872536E-2,4.017382860E-3,5.380821228E-2
4.958646685E0,9.867548943E-3,1.715630293E-3,6.335830688E-2
4.966642626E0,-9.459614754E-3,-1.730288565E-2,8.009910583E-2
4.974639028E0,-1.670658588E-2,-1.717102528E-2,8.967018127E-2
4.982664277E0,-4.318892956E-2,-7.563933730E-3,8.486366272E-2
4.990659680E0,-1.690053940E-2,-7.592737675E-3,6.809616089E-2
4.998655390E0,-3.633439541E-2,-3.884334862E-2,7.763385773E-2
5.006651408E0,-2.478682995E-2,-3.412525356E-2,4.884624481E-2
5.014648042E0,-2.753674984E-2,2.787871659E-2,3.682422638E-2
5.022641906E0,3.238916397E-3,-1.295781136E-2,3.677558899E-2
5.030638155E0,1.729834080E-2,-2.247899771E-2,5.110263824E-2
5.038664403E0,-1.412117481E-2,1.450821757E-3,5.106353760E-2
5.046660729E0,-4.864931107E-3,-5.754128098E-3,5.341529846E-2
5.054656747E0,-1.482141018E-2,3.798991442E-3,7.491302490E-2
5.062651534E0,-1.286280155E-2,-3.220704198E-2,7.964324951E-2
5.070646630E0,1.310980320E-2,-3.699156642E-2,8.677864075E-2
5.078642033E0,1.512968540E-2,-2.502910793E-2,7.475757599E-2
5.086638282E0,1.004660130E-2,-1.329793036E-2,7.471370697E-2
5.094665761E0,3.641188145E-2,-8.607998490E-3,5.556201935E-2
5.102659933E0,1.494348049E-2,-3.955349326E-3,6.754016876E-2
5.110654720E0,7.678270340E-4,-4.120588303E-3,4.361915588E-2
5.118651354E0,-2.765607834E-2,-4.219725728E-3,5.323410034E-2
5.126646449E0,-3.450393677E-3,1.248420775E-2,4.129695892E-2
5.134643082E0,-2.710652351E-2,-1.869599521E-2,5.569744110E-2
5.142638485E0,-1.480197906E-2,-4.396185279E-3,3.179740906E-2
5.150663657E0,-4.105472565E-2,-9.208798409E-3,5.574989319E-2
5.158659444E0,-2.428245544E-2,-1.163128018E-2,5.814456940E-2
5.166655770E0,-2.931058407E-2,2.768293023E-3,7.008552551E-2
5.174652095E0,-2.273356915E-2,-1.153786480E-2,6.521987915E-2
5.182646498E0,-4.090785980E-3,-2.578076720E-2,8.909797668E-2
5.190642901E0,9.722232819E-3,-1.842576265E-2,7.945251465E-2
5.198637688E0,1.872611046E-2,-1.113992929E-2,7.219696045E-2
5.206664398E0,2.306783199E-2,-8.681505919E-3,6.495952606E-2
5.214660416E0,2.271449566E-2,3.323376179E-3,6.491374969E-2
5.222655203E0,2.499127388E-2,-1.511827111E-3,4.574394226E-2
5.230650376E0,-1.272797585E-3,1.040452719E-2,5.054092407E-2
5.238646087E0,1.078200340E-2,1.275996864E-2,4.336833954E-2
5.246642643E0,1.332235336E-2,5.531400442E-3,2.902030945E-2
5.254638661E0,-5.591750145E-3,-1.126049459E-2,5.059909821E-2
5.262663987E0,1.144969463E-2,-1.577198505E-3,4.584980011E-2
5.270659697E0,-4.947185516E-5,3.243148327E-3,6.745815277E-2
5.278654715E0,-2.120625973E-2,-2.783897519E-2,7.229995728E-2
5.286650810E0,-3.304862976E-2,-3.019516170E-2,8.189296722E-2
5.294647674E0,-3.082180023E-2,-8.583530784E-3,9.624004364E-2
5.302641538E0,-2.888011932E-2,-6.151109934E-3,8.899879456E-2
5.310667479E0,-2.710831165E-2,-6.113514304E-3,8.413028717E-2
5.318664344E0,-1.351320744E-2,-3.250895441E-2,8.402824402E-2
5.326659746E0,-2.139925957E-2,-1.099054515E-2,7.196521759E-2
5.334656149E0,-2.221393585E-2,-2.293755114E-2,5.510139465E-2
5.342650628E0,1.287782192E-2,1.007303596E-3,3.823471069E-2
5.350646339E0,-7.080435753E-3,-6.135374308E-3,4.052639008E-2
5.358642049E0,1.720428467E-3,1.070669293E-2,4.042720795E-2
5.366637452E0,4.669713974E-2,-2.503542602E-2,7.148933411E-2
5.374664854E0,2.712011337E-2,-8.220613003E-3,6.664657593E-2
5.382659642E0,7.752418518E-3,-1.297610998E-2,6.183242798E-2
5.390653814E0,1.741361618E-2,-2.742165327E-2,6.184101105E-2
5.398650679E0,8.593797684E-4,-2.033387125E-2,7.144260406E-2
5.406646389E0,-2.768945694E-2,-1.318356395E-2,6.907081604E-2
5.414643022E0,-2.058231831E-2,-2.033105493E-2,8.103275299E-2
5.422668348E0,-2.790272236E-2,-2.743826807E-2,7.862186432E-2
5.430663058E0,-1.617145538E-2,-2.983506024E-2,7.619762421E-2
5.438659153E0,-1.407074928E-2,-1.537978649E-2,7.137298584E-2
5.446655171E0,-1.197898388E-2,-2.492496371E-2,4.739189148E-2
5.454650882E0,2.124989033E-2,1.099924743E-2,5.932617188E-2
5.462645592E0,1.141560078E-2,1.809260249E-2,5.450248718E-2
5.470641379E0,1.838481426E-2,2.285385132E-2,5.447483063E-2
5.478667859E0,1.579833031E-2,1.093076169E-2,5.205631256E-2
5.486662954E0,6.172299385E-3,-1.295433939E-2,6.162834167E-2
5.494659280E0,-3.503918648E-3,-1.533423364E-2,6.640338898E-2
5.502655221E0,-2.268183231E-2,-1.055467129E-2,7.837200165E-2
5.510649700E0,-2.015590668E-2,-1.787149906E-2,7.120323181E-2
5.518646026E0,-7.942199707E-3,-2.758274972E-2,8.320236206E-2
5.526641813E0,-1.982283592E-2,-4.215519130E-2,7.123851776E-2
5.534669447E0,-2.940928936E-2,-1.654341817E-3,8.080863953E-2
5.542663618E0,-2.960550785E-2,5.392029881E-3,6.881046295E-2
5.550658713E0,-3.467679024E-2,-1.796633005E-3,5.919647217E-2
5.558654194E0,-4.228115082E-2,-8.994072676E-3,6.153583527E-2
5.566651058E0,-9.253382683E-3,-4.138112068E-3,5.189704895E-2
5.574647461E0,2.242922783E-3,-1.668408513E-3,8.296298981E-2
5.582641556E0,1.813530922E-3,-1.120072603E-2,7.812023163E-2
5.590667728E0,1.103246212E-2,-2.556574345E-2,9.004497528E-2
5.598662899E0,3.621101379E-3,-2.076005936E-2,8.522796631E-2
5.606659456E0,3.246510029E-2,-2.802866697E-2,8.524036407E-2
5.614655474E0,-9.590387344E-4,-4.003730416E-2,8.525180817E-2
5.622649415E0,1.598334312E-2,-9.054899216E-3,7.090568542E-2
5.630645125E0,3.317177296E-2,1.480044425E-2,5.180549622E-2
5.638641451E0,1.208305359E-2,-2.003952861E-3,5.186462402E-2
5.646668161E0,-4.067897797E-3,2.190628648E-2,3.518295288E-2
5.654664795E0,-1.547420025E-2,2.191917598E-2,6.398677826E-2
5.662658967E0,-2.210235596E-2,1.719944179E-2,4.011821747E-2
5.670653215E0,-5.043518543E-2,1.004132628E-2,6.411170959E-2
5.678650464E0,-4.553151131E-2,-9.074270725E-3,8.088588715E-2
5.686645867E0,-6.027388573E-2,-1.378138363E-2,8.802223206E-2
5.694643116E0,-5.158817768E-2,-1.134093106E-2,9.030342102E-2
5.702667441E0,-6.000030041E-2,-2.557548881E-2,8.775234222E-2
5.710662536E0,-4.711723328E-2,-1.839359105E-2,5.643653870E-2
5.718657862E0,-2.484631538E-2,-4.462695122E-2,6.819534302E-2
5.726654189E0,2.848708630E-2,-2.786415815E-2,5.121231079E-2
5.734650591E0,3.416633606E-2,-1.102101803E-2,3.665637970E-2
5.742645994E0,3.307354450E-2,-1.095461845E-2,5.806541443E-2
5.750641089E0,4.189896584E-2,-1.336687803E-2,7.472801208E-2
5.758667261E0,5.111610889E-2,9.151846170E-4,8.186244965E-2
5.766663202E0,3.925359249E-2,5.670741200E-3,9.384727478E-2
5.774658681E0,1.821899414E-2,-3.911361098E-3,1.034898758E-1
5.782654392E0,1.411974430E-2,-2.798146009E-2,9.399890900E-2
5.790648794E0,-8.939027786E-3,-1.370744407E-2,9.171581268E-2
5.798644812E0,-2.248752117E-2,-1.145730913E-2,8.942317963E-2
5.806640830E0,-2.903831005E-2,-1.879552007E-2,7.992362976E-2
5.814668618E0,-3.104901314E-2,-1.162512600E-2,4.884815216E-2
5.822662482E0,-5.250072479E-2,-4.441425204E-3,4.646587372E-2
5.830658500E0,-3.349065781E-2,-2.126172185E-3,4.165744781E-2
5.838653903E0,-4.578053951E-2,2.024024725E-4,2.246093750E-2
5.846649844E0,-2.696275711E-2,7.386669517E-3,3.917789459E-2
5.854645631E0,-2.255022526E-2,-1.176168025E-2,5.588817596E-2
5.862641034E0,-6.269812584E-3,1.466254890E-2,7.498264313E-2
5.870666590E0,7.381558418E-3,1.225523651E-2,9.404563904E-2
5.878662916E0,-5.882978439E-4,-9.247690439E-3,1.059160233E-1
5.886658549E0,8.236527443E-3,3.880858421E-4,1.130046844E-1
5.894654876E0,9.773015976E-3,-6.740838289E-3,1.128959656E-1
5.902649432E0,-3.059983253E-3,5.264967680E-3,9.123706818E-2
5.910645143E0,3.457427025E-3,-1.912772655E-3,7.678699493E-2
5.918640853E0,5.317091942E-3,-2.353204787E-2,5.756378174E-2
5.926667025E0,-2.269387245E-3,2.817600965E-3,3.117561340E-2
5.934663351E0,9.249329567E-3,-1.954481006E-3,5.266666412E-2
5.942658138E0,-7.795453072E-3,-2.828906476E-2,4.305362701E-2
5.950652848E0,-7.441043854E-4,-3.071755171E-2,4.064083099E-2
5.958649482E0,3.854751587E-3,-3.315886855E-2,7.174110413E-2
5.966645269E0,-1.061618328E-2,-9.385526180E-3,7.651233673E-2
5.974641594E0,-8.335828781E-3,-4.802480340E-3,6.691646576E-2
5.982666151E0,-2.539336681E-2,-2.577960491E-3,1.003932953E-1
5.990662554E0,-5.218279362E-2,-3.384053707E-4,1.075153351E-1
5.998657879E0,-3.354084492E-2,1.159635186E-2,8.590030670E-2
6.006653974E0,-5.453705788E-3,-3.878176212E-4,8.821392059E-2
6.014649608E0,9.664297104E-4,-1.465588808E-2,7.614707947E-2
6.022644472E0,2.416896820E-2,-1.457823813E-2,5.929374695E-2
6.030640105E0,2.365469933E-2,-2.633735538E-3,5.443954468E-2
6.038666662E0,2.109360695E-2,-9.869650006E-3,5.681228638E-2
6.046662680E0,3.072011471E-2,-1.711037755E-2,5.921077728E-2
6.054658699E0,1.665127277E-2,-1.239004731E-2,5.445861816E-2
6.062653486E0,-4.297256470E-3,-7.585689425E-3,6.171798706E-2
6.070649196E0,1.778757572E-2,-2.924121916E-2,8.333206177E-2
6.078645445E0,-1.988148689E-2,8.889362216E-3,7.383251190E-2
6.086640002E0,-9.771704674E-3,-7.567703724E-4,9.544754028E-2
6.094668635E0,-3.813338280E-2,-9.750574827E-4,9.788417816E-2
6.102662115E0,4.414319992E-4,-2.036771178E-2,1.003065109E-1
6.110656902E0,-3.780972958E-2,-6.290242076E-3,8.354854584E-2
6.118653304E0,-2.362632751E-2,-2.086994052E-2,6.915473938E-2
6.126648938E0,-5.760073662E-2,-1.858392358E-2,6.669998169E-2
6.134645340E0,-5.827844143E-2,5.362689495E-3,3.070068359E-2
6.142640128E0,-4.964959621E-2,-8.857667446E-3,5.213165283E-2
6.150665992E0,-2.946615219E-2,-1.818260550E-2,3.759765625E-2
6.158662625E0,-6.995558739E-3,-1.788130403E-2,5.178260803E-2
6.166657720E0,2.025532722E-2,-2.245213091E-2,8.032989502E-2
6.174654584E0,2.123224735E-2,-3.211790323E-2,7.057189941E-2
6.182648525E0,2.720201015E-2,-3.220643103E-2,7.759857178E-2
6.190644236E0,2.378332615E-2,-1.796634495E-2,5.591869354E-2
6.198639946E0,2.067613602E-2,-1.336732507E-2,7.497692108E-2
6.206666656E0,2.015566826E-2,-1.104834676E-2,7.730388641E-2
6.214662444E0,5.267143250E-3,-1.107037067E-2,8.920860291E-2
6.222657770E0,-4.749059677E-3,-1.348865032E-2,7.478713989E-2
6.230654096E0,-2.690434456E-3,-6.318271160E-3,6.037902832E-2
6.238648960E0,1.388835907E-2,1.526637375E-2,7.711696625E-2
6.246644901E0,2.098226547E-2,3.432214260E-3,6.992626190E-2
6.254671766E0,2.576863766E-2,-2.522084117E-2,6.992816925E-2
6.262665937E0,1.142179966E-2,-1.208320260E-3,6.274890900E-2
6.270661032E0,-4.891157150E-4,-3.532439470E-3,7.472896576E-2
6.278656973E0,-5.313396454E-3,-2.745360136E-2,8.430194855E-2
6.286653376E0,-5.405068398E-3,-2.521388233E-2,9.625816345E-2
6.294650548E0,-7.943749428E-3,-1.110351086E-2,8.186912537E-2
6.302643874E0,-2.976298332E-2,-6.596192718E-3,8.182907104E-2
6.310670661E0,-2.287447453E-2,-9.348124266E-3,6.981277466E-2
6.318666294E0,-2.559125423E-2,-2.499595284E-3,4.821586609E-2
6.326661159E0,-4.042530060E-2,-9.868785739E-3,5.772972107E-2
6.334658715E0,-3.860247135E-2,1.154093444E-2,5.765533447E-2
6.342652887E0,-4.650843143E-2,1.629649103E-2,5.756282806E-2
6.350647982E0,-3.536224365E-2,-1.952938735E-2,7.182598114E-2
6.358644538E0,-5.307555199E-3,4.533767700E-3,7.887744904E-2
6.366640018E0,-6.355285645E-3,-7.241338491E-3,9.072113037E-2
6.374666420E0,-4.907727242E-3,-1.199355721E-2,1.001796722E-1
6.382661593E0,-5.686998367E-3,-2.407762408E-2,8.810806274E-2
6.390657611E0,1.521527767E-2,-1.459677517E-2,7.605361938E-2
6.398653014E0,2.421677113E-2,1.408050954E-2,7.837486267E-2
6.406649032E0,-4.940032959E-3,-3.864181042E-2,6.874465942E-2
6.414645358E0,3.065741062E-2,-9.977504611E-3,7.827949524E-2
6.422670222E0,2.810287476E-2,-1.223649085E-2,4.474449158E-2
6.430664701E0,4.017579556E-2,-2.179957926E-2,5.912303925E-2
6.438661719E0,4.531407356E-2,-2.901260555E-2,6.874179840E-2
6.446657045E0,3.161942959E-2,-1.705454290E-2,5.685520172E-2
6.454653371E0,1.332354546E-2,-1.232010126E-2,8.569240570E-2
6.462647927E0,-4.895329475E-3,1.902982593E-3,9.298896790E-2
6.470644253E0,-3.998291492E-2,-1.022167504E-2,7.872295380E-2
6.478669810E0,-3.693473339E-2,-5.629599094E-3,7.401371002E-2
6.486665828E0,-6.759881973E-2,6.264239550E-3,8.364582062E-2
6.494662153E0,-4.131948948E-2,-3.438195586E-2,7.645702362E-2
6.502657248E0,-6.086874008E-2,-1.041527092E-2,8.119773865E-2
6.510652036E0,-2.565550804E-2,-2.711749077E-2,8.111095428E-2
6.518648054E0,-1.686000824E-2,-2.231915295E-2,5.946445465E-2
6.526644687E0,-8.094072342E-3,-3.218889236E-3,6.654357910E-2
6.534670859E0,5.517840385E-3,-5.670905113E-3,5.687141418E-2
6.542666185E0,3.830051422E-2,-1.063880324E-2,7.114028931E-2
6.550661588E0,8.947610855E-3,-2.016498148E-2,7.106304169E-2
6.558656991E0,3.014671803E-2,-1.539449394E-2,8.538532257E-2
6.566651855E0,2.528560162E-2,8.556202054E-3,9.495353699E-2
6.574648719E0,3.861188889E-3,-1.778729260E-2,9.496879578E-2
6.582643814E0,6.463885307E-3,-1.058219373E-2,9.978389740E-2
6.590669447E0,-5.341172218E-3,-1.544192433E-2,9.022617340E-2
6.598665696E0,-2.899348736E-2,-1.059368253E-3,6.392574310E-2
6.606660868E0,-2.646708488E-2,-8.356794715E-3,7.112216949E-2
6.614656809E0,-4.068934917E-2,-1.081354916E-2,6.874465942E-2
6.622652289E0,-2.149009705E-2,-6.159096956E-3,7.832431793E-2
6.630648845E0,-1.197385788E-2,-1.425936818E-3,6.155586243E-2
6.638643402E0,-2.396726608E-2,-2.062104642E-2,6.394672394E-2
6.646669881E0,-2.648234367E-2,9.455680847E-4,7.111454010E-2
6.654666745E0,-5.011320114E-3,-2.063894272E-2,6.392192841E-2
6.662661225E0,-2.834916115E-3,-1.594752073E-2,9.262275696E-2
6.670655782E0,1.797437668E-3,-1.121960580E-2,7.823657990E-2
6.678652723E0,6.417751312E-3,-4.066705704E-3,8.300399780E-2
6.686647818E0,1.829409599E-2,1.981408894E-2,7.580757141E-2
6.694644682E0,-1.522433758E-2,1.006765664E-2,7.340908051E-2
6.702670007E0,-1.033043861E-2,-1.882106066E-2,8.539104462E-2
6.710665641E0,-2.976059914E-3,-4.290150106E-2,9.498596191E-2
6.718660814E0,1.642894745E-2,-2.857430279E-2,7.346820831E-2
6.726657370E0,-1.502037048E-4,-2.626620233E-2,6.151771545E-2
6.734652465E0,-2.391576767E-2,-7.195547223E-3,6.872177124E-2
6.742647560E0,-2.364706993E-2,-7.320642471E-3,5.917549133E-2
6.750642347E0,-2.581405640E-2,-1.697006822E-2,4.962539673E-2
6.758670365E0,-2.086460590E-2,-1.697346568E-2,7.598114014E-2
6.766665460E0,-1.847553253E-2,-1.451197267E-2,6.640529633E-2
6.774662786E0,-3.064656258E-2,-2.158223093E-2,7.356643677E-2
6.782656035E0,-2.846550941E-2,-9.501338005E-3,9.748363495E-2
6.790652899E0,4.767298698E-3,-7.111981511E-3,8.068847656E-2
6.798647455E0,9.225010872E-3,-7.094010711E-3,8.543682098E-2
6.806643089E0,1.621210575E-2,-2.629859746E-2,9.019947052E-2
6.814671107E0,2.554202080E-2,-2.634268999E-2,8.537864685E-2
6.822664433E0,1.342785358E-2,-7.269322872E-3,8.775234222E-2
6.830660374E0,1.119625568E-2,6.971821189E-3,6.622219086E-2
6.838656084E0,1.402282715E-2,-9.915530682E-3,7.345676422E-2
6.846652487E0,2.623558044E-3,-3.899484873E-4,6.873893738E-2
6.854648505E0,-3.047418594E-2,1.629824936E-2,8.315563202E-2
6.862642907E0,-3.230929375E-2,1.779466867E-3,9.519290924E-2
6.870669464E0,-2.940583229E-2,-1.032309234E-2,7.609939575E-2
6.878665406E0,-5.088496208E-2,-2.953030169E-2,8.089637756E-2
6.886660578E0,-5.588579178E-2,-8.047908545E-3,6.889629364E-2
6.894657134E0,-3.719055653E-2,1.545101404E-3,5.208015442E-2
6.902651921E0,-3.293788433E-2,1.610830426E-3,4.722595215E-2
6.910646401E0,-5.072832108E-3,-1.974312961E-2,7.106304169E-2
6.918642727E0,-4.218983650E-2,-4.076361656E-4,5.176258087E-2
6.926669591E0,-3.147280216E-2,-1.347362995E-4,6.597709656E-2
6.934665840E0,-1.826941967E-2,-1.201127470E-2,7.541084290E-2
6.942660088E0,6.972193718E-3,-2.148139477E-2,1.111898422E-1
6.950656030E0,2.520596981E-2,-2.855505049E-2,1.015014648E-1
6.958651509E0,1.246368885E-2,-1.655274630E-2,8.704090118E-2
6.966647450E0,1.191723347E-2,-1.888030767E-2,1.013393402E-1
6.974643853E0,2.365267277E-2,-3.066790104E-2,1.132850647E-1
6.982669025E0,3.791630268E-2,-1.612663269E-2,9.172821045E-2
6.990664120E0,3.559541702E-2,-1.355050504E-2,7.498168945E-2
6.998659522E0,2.871894836E-2,-6.183058023E-3,5.587005615E-2
7.006656463E0,3.668177128E-2,-1.566369832E-2,4.399967194E-2
7.014652251E0,2.327537537E-2,-1.074844599E-2,6.806278229E-2
7.022647653E0,-1.393401623E-2,1.324594021E-2,7.298946381E-2
7.030642671E0,-1.766705513E-2,-5.922853947E-3,6.593799591E-2
7.038669151E0,-5.270206928E-2,-3.622040153E-3,7.322788239E-2
7.046664631E0,-4.235816002E-2,-6.089076400E-3,8.529472351E-2
7.054660649E0,-3.953874111E-2,-1.101751626E-2,7.337284088E-2
7.062656360E0,-3.458547592E-2,-2.064301074E-2,9.015274048E-2
7.070651147E0,-4.417562485E-2,3.269374371E-3,7.817935944E-2
7.078647088E0,-3.244435787E-2,-2.308021486E-2,8.054351807E-2
7.086642491E0,-3.533923626E-2,-1.103003323E-2,6.611633301E-2
7.094670509E0,-3.118526936E-2,1.134812832E-3,7.322406769E-2
7.102664758E0,1.119041443E-2,-2.489927411E-2,5.638122559E-2
7.110660083E0,-1.498103142E-3,-1.505027711E-2,5.390357971E-2
7.118655486E0,7.555365562E-3,4.319161177E-3,7.778549194E-2
7.126651196E0,9.557604790E-3,-1.227916777E-2,8.492279053E-2
7.134647599E0,2.864074707E-2,-9.828627110E-3,8.491516113E-2
7.142642694E0,3.600490093E-2,-2.473846078E-3,1.040954590E-1
7.150667635E0,3.655672073E-2,-2.471059561E-3,1.089515686E-1
7.158664268E0,3.699660301E-3,-7.296159863E-3,1.018514633E-1
7.166660286E0,-1.235938072E-2,-1.444546878E-2,7.320880890E-2
7.174656227E0,-1.651895046E-2,-4.886969924E-3,7.807540894E-2
7.182651092E0,1.060712337E-2,-2.388677001E-2,6.620597839E-2
7.190647110E0,2.086889744E-2,-6.999462843E-3,4.953575134E-2
7.198673205E0,1.442313194E-2,-4.547983408E-3,5.441761017E-2
7.206668607E0,-6.193041801E-3,7.473587990E-3,5.932331085E-2
7.214665242E0,-3.398251534E-2,7.598206401E-3,6.662654877E-2
7.222660337E0,-3.558051586E-2,4.971027374E-4,7.391166687E-2
7.230654893E0,-6.862473488E-2,-1.379156113E-2,7.876110077E-2
7.238650834E0,-7.109820843E-2,-1.112999022E-2,9.312152863E-2
7.246646621E0,-6.181752682E-2,-3.011830151E-2,1.026649475E-1
7.254674255E0,-4.819965363E-2,-3.001172841E-2,9.778594971E-2
7.262668196E0,-2.271103859E-2,-3.702309728E-2,1.000776291E-1
7.270664214E0,-4.446983337E-3,-2.984644473E-2,6.884193420E-2
7.278659309E0,6.819009781E-3,-8.325308561E-3,6.635761261E-2
7.286655942E0,3.038167953E-2,-3.586217761E-3,4.955101013E-2
7.294651960E0,4.696106911E-2,1.160219312E-3,4.952621460E-2
7.302647055E0,3.031980991E-2,1.085008681E-2,3.757286072E-2
7.310672535E0,4.029071331E-2,-1.536060870E-2,6.635475159E-2
7.318669476E0,3.131294250E-2,-1.758500934E-2,9.276962280E-2
7.326664032E0,8.036613464E-3,-2.697579563E-2,1.048297882E-1
7.334660281E0,-1.271831989E-2,-2.923305333E-2,1.169023514E-1
7.342655145E0,-2.399098873E-2,-2.668409050E-2,1.122055054E-1
7.350650856E0,-4.024362564E-2,-3.381973505E-2,9.072208405E-2
7.358646181E0,-3.993475437E-2,-7.479369640E-3,6.921291351E-2
7.366672353E0,-3.526568413E-2,-2.624556422E-3,6.919956207E-2
7.374669680E0,-3.070545197E-2,-3.125329316E-2,6.199073792E-2
7.382664083E0,-2.393376827E-2,-4.839539528E-3,6.194114685E-2
7.390658562E0,-5.353689194E-3,-4.706323147E-3,6.905460358E-2
7.398655580E0,-3.372669220E-3,-1.421105862E-2,5.703258514E-2
7.406650367E0,-2.306199074E-2,1.217636466E-2,7.851505280E-2
7.414647232E0,-1.811981201E-3,5.045682192E-3,7.847881317E-2
7.422672480E0,1.941394806E-2,-1.164664328E-2,9.998798370E-2
7.430668191E0,7.151007652E-3,-3.069196641E-2,1.167135239E-1
7.438663593E0,2.119076252E-2,-2.106346190E-2,8.794212341E-2
7.446659073E0,-1.258981228E-2,-9.132862091E-3,9.748554230E-2
7.454655937E0,4.100561142E-3,-1.626789570E-2,6.635284424E-2
7.462650801E0,6.667137146E-3,-1.634833217E-2,6.158447266E-2
7.470645588E0,-1.997947693E-4,-4.309818149E-3,6.880855560E-2
7.478672683E0,-6.919622421E-3,-9.066849947E-3,6.647300720E-2
7.486668086E0,-1.833224297E-2,-1.378865540E-2,6.415081024E-2
7.494664412E0,-1.784694195E-2,6.077587605E-4,7.857704163E-2
7.502658814E0,-2.462649345E-2,-1.375143230E-2,7.623291016E-2
7.510655448E0,-2.449774742E-2,-8.970916271E-3,8.343219757E-2
7.518650004E0,-1.731503010E-2,-3.290110826E-2,7.385540009E-2
7.526646330E0,-2.949738503E-2,-8.963406086E-3,6.904029846E-2
7.534673117E0,-9.713172913E-4,7.809460163E-3,7.140922546E-2
7.542667829E0,-1.270413399E-3,5.488619208E-3,5.940246582E-2
7.550663308E0,-1.111125946E-2,7.879734039E-4,4.740047455E-2
7.558659326E0,-4.074931145E-3,-2.299250662E-2,8.808708191E-2
7.566654959E0,2.452468872E-2,-8.463695645E-3,8.328628540E-2
7.574651362E0,5.513906479E-3,-2.751867473E-2,8.330631256E-2
7.582646380E0,-3.795027733E-3,-1.076558232E-2,1.000995636E-1
7.590672321E0,-8.309721947E-3,-3.563731909E-3,9.295082092E-2
7.598668262E0,-1.290130615E-2,-8.453667164E-3,8.818531036E-2
7.606663973E0,-2.003920078E-2,-3.859668970E-3,8.339786530E-2
7.614660375E0,-2.958619595E-2,9.018629789E-4,5.467128754E-2
7.622654778E0,-2.235937119E-2,-1.346935332E-2,6.425285339E-2
7.630649642E0,-3.291368484E-3,-6.238400936E-3,5.466651917E-2
7.638646199E0,-3.350973129E-3,-1.569342613E-2,7.142066956E-2
7.646672447E0,-5.795717239E-3,-1.072271168E-2,6.902503967E-2
7.654669004E0,1.480221748E-3,-2.029167116E-2,7.382488251E-2
7.662662945E0,8.770465851E-3,-3.934690356E-2,9.060001373E-2
7.670658578E0,3.941297531E-3,-2.503180504E-2,8.341121674E-2
7.678654366E0,-8.153915405E-4,-8.326590061E-3,7.383728027E-2
7.686651230E0,4.094243050E-3,-8.391112089E-3,9.061145782E-2
7.694645786E0,4.155755043E-3,-1.081271470E-2,6.428146362E-2
7.702671882E0,-5.038261414E-3,-6.011411548E-3,5.954074860E-2
7.710666669E0,-4.628658295E-3,-3.569811583E-3,5.480480194E-2
7.718662995E0,7.055997849E-4,-1.785376668E-2,8.121204376E-2
7.726658475E0,-2.516520023E-2,-5.848839879E-3,6.211757660E-2
7.734655954E0,-2.243876457E-2,1.427516341E-3,7.892036438E-2
7.742649588E0,-3.901016712E-2,-5.626827478E-3,6.937026978E-2
7.750645606E0,-2.223932743E-2,-7.887691259E-3,8.852863312E-2
7.758672316E0,-1.275956631E-2,-2.203042805E-2,8.133888245E-2
7.766668026E0,-3.219068050E-2,-7.473558187E-3,9.088516235E-2
7.774663737E0,-1.081216335E-2,-1.457753778E-2,9.086513519E-2
7.782658832E0,-3.503811359E-2,-2.551689744E-3,8.604335785E-2
7.790653696E0,-2.576136589E-2,-4.977464676E-3,7.642650604E-2
7.798650329E0,-1.168906689E-2,-1.459042728E-2,7.399559021E-2
7.806645655E0,7.105469704E-3,-1.852214336E-4,7.634544373E-2
7.814672442E0,-2.760171890E-3,7.053196430E-3,6.673336029E-2
7.822667306E0,8.877515793E-3,-1.203684509E-2,5.951023102E-2
7.830663632E0,3.849983215E-3,-9.564027190E-3,6.187629700E-2
7.838658958E0,1.590096951E-2,-2.636270225E-2,7.864475250E-2
7.846654053E0,-1.278603077E-2,-2.874873579E-2,8.104515076E-2
7.854651301E0,-3.414332867E-2,-1.667805016E-2,8.346557617E-2
7.862645550E0,-3.636157513E-2,-2.850872278E-2,9.306716919E-2
7.870671031E0,-3.877580166E-2,-1.641763747E-2,1.002502441E-1
7.878667049E0,-1.738512516E-2,-1.625509560E-2,1.098108292E-1
7.886662528E0,-1.275885105E-2,-1.851220429E-2,8.106327057E-2
7.894660085E0,1.806008816E-2,3.137275577E-3,8.342075348E-2
7.902654180E0,1.551306248E-2,5.568772554E-3,6.424903870E-2
7.910648967E0,2.257514000E-2,8.105799556E-3,6.423759460E-2
7.918645677E0,5.803108215E-3,1.538811624E-2,6.184291840E-2
7.926671772E0,1.038312912E-3,-3.612279892E-3,5.466747284E-2
7.934668406E0,-1.079046726E-2,-5.930051208E-3,6.905269623E-2
7.942662347E0,-2.021241188E-2,-8.270308375E-3,6.907272339E-2
7.950657980E0,-1.273441315E-2,-3.467704356E-2,7.868576050E-2
7.958653998E0,-2.212560177E-2,-3.242246807E-2,9.307003021E-2
7.966649709E0,-1.476788521E-2,-2.790382504E-2,9.069252014E-2
7.974646650E0,-2.909708023E-2,-8.993029594E-3,7.872009277E-2
7.982670975E0,-2.205908298E-2,-1.880590618E-2,7.151412964E-2
7.990666763E0,1.778721809E-3,-2.604696155E-2,7.389450073E-2
7.998662473E0,-8.540153503E-4,-1.180244982E-2,8.583354950E-2
8.006658183E0,-5.871057510E-3,9.600818157E-5,8.819580078E-2
8.014655124E0,-1.077914238E-2,-1.668228209E-2,6.902790070E-2
8.022649527E0,-1.333785057E-2,-9.490996599E-3,6.182384491E-2
8.030645007E0,-2.068650723E-2,-1.171492040E-2,8.096218109E-2
8.038671487E0,-1.611626148E-2,-1.873356104E-2,7.375526428E-2
8.046666813E0,-1.637983322E-2,-2.808944881E-2,9.288024902E-2
8.054663446E0,2.506256104E-3,-2.314206958E-2,8.327388763E-2
8.062657695E0,1.667535305E-2,-2.542199194E-2,8.564662933E-2
8.070653713E0,9.430408478E-3,-3.261548281E-2,8.085060120E-2
8.078648731E0,3.598773479E-2,-3.988450766E-2,7.608604431E-2
8.086645364E0,3.636395931E-2,-1.848505437E-2,6.415939331E-2
8.094671613E0,3.946173191E-2,-1.385535300E-2,5.706119537E-2
8.102666401E0,1.636171341E-2,-2.052262425E-3,6.195163727E-2
8.110661726E0,-3.064393997E-2,2.601593733E-3,5.487632751E-2
8.118657513E0,-3.230333328E-2,1.214326918E-2,5.975627899E-2
8.126652839E0,-5.102515221E-2,-1.175940037E-2,9.572505951E-2
8.134650088E0,-7.244813442E-2,-1.655146480E-2,7.658576965E-2
8.142644875E0,-4.396092892E-2,-2.840909362E-2,8.852958679E-2
8.150671047E0,-3.251051903E-2,-2.839845419E-2,7.409954071E-2
8.158666757E0,-2.601993084E-2,-3.308624029E-2,8.359146118E-2
8.166663160E0,1.153826714E-2,-1.627305150E-2,7.392120361E-2
8.174658255E0,3.589510918E-3,-1.390534639E-2,8.340167999E-2
8.182653273E0,2.692663670E-2,-1.378506422E-2,6.896305084E-2
8.190648983E0,2.166175842E-2,3.036409616E-3,8.327007294E-2
8.198645309E0,1.893723011E-2,-4.143685102E-3,8.562374115E-2
8.206670559E0,-2.355575562E-4,6.162673235E-4,9.759140015E-2
8.214667192E0,7.053017616E-3,-9.044513106E-3,8.802604675E-2
8.222661672E0,2.517342567E-3,-1.926615834E-3,8.566284180E-2
8.230658382E0,-1.856076717E-2,-1.168429852E-2,8.811092377E-2
8.238653400E0,-3.029346466E-2,-3.088536859E-2,8.574581146E-2
8.246650034E0,-4.445886612E-2,2.535760403E-3,7.379722595E-2
8.254676205E0,-3.000986576E-2,2.516403794E-3,8.338451385E-2
8.262670685E0,-4.207575321E-2,7.291123271E-3,6.421756744E-2
8.270665857E0,-8.794188499E-3,-1.910963655E-2,5.700492859E-2
8.278662183E0,-1.872205734E-2,-3.350588679E-2,7.850742340E-2
8.286657893E0,-1.183748245E-2,2.388194203E-3,7.607460022E-2
8.294654142E0,2.094626427E-3,-1.440240443E-2,8.559799194E-2
8.302649314E0,-4.141688347E-2,-7.312208414E-3,8.554363251E-2
8.310674793E0,8.478999138E-3,4.505932331E-3,9.267520905E-2
8.318670580E0,8.895397186E-4,1.153653860E-2,8.065032959E-2
8.326666598E0,-4.115462303E-3,-1.735787094E-2,9.019565582E-2
8.334662847E0,5.294561386E-3,-1.509456336E-2,7.341289520E-2
8.342657096E0,2.919197083E-3,-4.144792259E-2,9.496212006E-2
8.350652499E0,2.219903469E-2,-3.195101023E-2,6.624507904E-2
8.358648747E0,3.366589546E-3,-1.284503937E-2,6.389045715E-2
8.366643842E0,1.289606094E-3,-1.769784093E-2,8.308219910E-2
8.374672246E0,-7.081031799E-4,-2.980969846E-2,8.552360535E-2
8.382665726E0,-5.184769630E-3,-1.554089785E-2,7.598304749E-2
8.390662436E0,-2.633273602E-2,-1.337759197E-2,7.363414764E-2
8.398657454E0,-2.365005016E-2,-3.930389881E-3,7.127285004E-2
8.406653241E0,-3.059577942E-2,1.261226833E-2,5.453872681E-2
8.414648875E0,-6.560921669E-3,3.353208303E-4,7.130241394E-2
8.422675046E0,-1.860499382E-2,2.608060837E-3,8.086776733E-2
8.430669295E0,-1.876187325E-2,-2.141402662E-2,8.084678650E-2
8.438666467E0,-2.385735512E-3,-1.435609162E-2,7.840156555E-2
8.446661639E0,-3.957748413E-4,-2.399638295E-2,9.032058716E-2
8.454658272E0,4.052281380E-3,-2.633892000E-2,8.070278168E-2
8.462652752E0,-5.888819695E-3,-2.392634749E-2,6.868553162E-2
8.470648462E0,-2.062487602E-2,1.031905413E-4,7.103538513E-2
8.478674865E0,-2.330303192E-2,-1.188202202E-2,6.860542297E-2
8.486670037E0,-1.158607006E-2,-1.914444566E-2,6.378364563E-2
8.494666901E0,-2.385699749E-2,-2.154700458E-2,8.050537109E-2
8.502660765E0,-9.886384010E-3,-2.148418128E-2,7.806301117E-2
8.510656783E0,-2.226829529E-2,4.778534174E-3,8.519363403E-2
8.518652570E0,3.754973412E-3,2.303257585E-3,8.754539490E-2
8.526648511E0,2.263545990E-2,-7.275447249E-3,9.469509125E-2
8.534675607E0,2.492511272E-2,-1.691946387E-2,9.228610992E-2
8.542670164E0,1.303088665E-2,-2.175070345E-2,8.511257172E-2
8.550665874E0,3.562808037E-3,-7.501929998E-3,8.991146088E-2
8.558661200E0,1.569807529E-2,-5.203634501E-3,8.514118195E-2
8.566657295E0,-8.029699326E-3,-1.239223778E-2,9.713840485E-2
8.574654236E0,-7.922410965E-3,-1.725199819E-2,8.278560638E-2
8.582648408E0,9.061694145E-3,-1.247738302E-2,7.323646545E-2
8.590673657E0,6.992936134E-3,-3.170435131E-2,8.285236359E-2
8.598669598E0,7.439851761E-3,-1.274159551E-2,7.093143463E-2
8.606665385E0,1.041436195E-2,8.648559451E-3,6.621360779E-2
8.614662326E0,-1.058876514E-2,-1.020386815E-3,7.346248627E-2
8.622656729E0,-1.965355873E-2,-5.896136165E-3,7.831287384E-2
8.630652439E0,-4.327070713E-2,-2.273482084E-2,7.835197449E-2
8.638648149E0,-1.441967487E-2,-3.232569993E-2,9.512615204E-2
8.646674706E0,-2.400648594E-2,-2.031590044E-2,8.076095581E-2
8.654670724E0,-1.929330826E-2,-1.555694640E-2,7.117366791E-2
8.662665511E0,-5.205631256E-3,-1.077696681E-2,8.550453186E-2
8.670660837E0,-2.477490902E-2,-2.981182933E-2,8.066654205E-2
8.678656239E0,-1.327621937E-2,-2.487432957E-2,7.582092285E-2
8.686652873E0,-1.371192932E-2,-7.931381464E-3,8.534812927E-2
8.694649198E0,7.331371307E-5,-5.479246378E-3,7.809352875E-2
8.702674141E0,-5.198001862E-3,-7.922574878E-3,6.845569611E-2
8.710669620E0,3.045535088E-2,-2.948890626E-2,6.602859497E-2
8.718665254E0,1.361286640E-2,-3.435575962E-2,8.995914459E-2
8.726661272E0,-2.970695496E-3,-2.481976151E-2,8.758544922E-2
8.734657674E0,-1.250290871E-2,-2.243211865E-2,1.067447662E-1
8.742652154E0,-2.673161030E-2,-3.450070322E-2,1.067590714E-1
8.750646941E0,-3.876411915E-2,-3.446199000E-2,1.067523956E-1
8.758673421E0,-4.142510891E-2,-2.243657410E-2,1.115093231E-1
8.766670362E0,-1.056957245E-2,-3.906403482E-2,8.753585815E-2
8.774666610E0,-1.384139061E-3,-5.371794105E-3,7.791423798E-2
8.782661398E0,5.855560303E-4,-7.564470172E-3,7.068252563E-2
8.790656185E0,5.016326904E-3,6.853550673E-3,5.387973785E-2
8.798652280E0,1.198184490E-2,1.159988344E-2,7.061195374E-2
8.806648298E0,2.647531033E-2,-2.838984132E-3,7.062530518E-2
8.814675316E0,1.231384277E-2,-5.178153515E-4,8.022689819E-2
8.822669795E0,1.752805710E-2,-1.988156140E-2,7.548618317E-2
8.830664275E0,1.230716705E-3,-2.009540796E-2,7.553958893E-2
8.838660985E0,-7.772326469E-3,-6.031200290E-3,1.043357849E-1
8.846656080E0,-2.402162552E-2,-2.317455411E-2,8.763122559E-2
8.854653329E0,-1.394641399E-2,-1.162271202E-2,8.289527893E-2
8.862648039E0,-5.202031136E-2,-1.675331593E-2,6.136894226E-2
8.870673366E0,-3.498446941E-2,-1.376867294E-4,9.013175964E-2
8.878669307E0,-4.450213909E-2,9.264379740E-3,7.098197937E-2
8.886664479E0,-3.731262684E-2,-1.241444051E-2,7.337379456E-2
8.894660805E0,-1.354289055E-2,1.996666193E-3,7.335376740E-2
8.902656207E0,-8.900642395E-3,-2.501159906E-4,1.092519760E-1
8.910651302E0,-1.879286766E-2,-4.327152669E-2,8.766555786E-2
8.918647013E0,-9.721279144E-3,-3.374437988E-2,8.281326294E-2
8.926674031E0,6.821155548E-3,-2.417348325E-2,9.715080261E-2
8.934670049E0,1.859867573E-2,-4.351022840E-2,8.036327362E-2
8.942665221E0,1.621353626E-2,-2.203239501E-2,7.557392120E-2
8.950660239E0,6.661534309E-3,-2.206072211E-2,8.275985718E-2
8.958655718E0,-2.686738968E-3,-1.249718666E-2,6.842231750E-2
8.966652044E0,-4.709601402E-3,-2.212524414E-2,8.043956757E-2
8.974648985E0,5.083644390E-2,-5.427792668E-3,6.134319305E-2
8.982673311E0,2.995610237E-2,-1.030625403E-2,7.579040527E-2
8.990668713E0,6.981849670E-3,1.112560928E-2,7.830333710E-2
8.998664654E0,-2.086687088E-2,-5.850881338E-3,8.559226990E-2
9.006660365E0,-2.249491215E-2,-1.552078128E-2,8.329105377E-2
9.014656690E0,-4.116606712E-2,-1.331453025E-2,9.053134918E-2
9.022652170E0,-5.771553516E-2,-2.523876727E-2,8.098220825E-2
9.030646880E0,-4.600906372E-2,-2.277739346E-2,8.573913574E-2
9.038673130E0,-7.041311264E-2,-2.747677267E-2,9.047126770E-2
9.046669379E0,-5.429410934E-2,-2.980068326E-2,7.842063904E-2
9.054666320E0,-4.063594341E-2,-8.198201656E-3,6.875610352E-2
9.062660261E0,4.042744637E-3,-1.773343980E-2,6.147289276E-2
9.070655279E0,5.566477776E-3,-2.725706995E-2,5.657672882E-2
9.078651989E0,2.642452717E-2,-3.273755312E-3,7.085609436E-2
9.086647007E0,2.592968941E-2,-5.641803145E-3,7.797813416E-2
9.094673487E0,2.569317818E-2,-3.255829215E-3,9.470844269E-2
9.102668967E0,3.768432140E-2,-1.036196947E-2,1.018953323E-1
9.110665215E0,9.131073952E-3,-1.994983852E-2,1.067047119E-1
9.118659772E0,4.654884338E-3,-1.518648863E-2,1.163196564E-1
9.126655790E0,-1.895570755E-2,-1.287709177E-2,1.043891907E-1
9.134653577E0,-3.530156612E-2,-1.097023487E-3,7.331180573E-2
9.142647211E0,-4.215610027E-2,-1.553601027E-2,7.335090637E-2
9.150672767E0,-4.448497295E-2,-2.751323581E-2,6.857109070E-2
9.158669324E0,-3.262853622E-2,-1.319204271E-2,5.658435822E-2
9.166663803E0,-4.720306396E-2,5.962133408E-3,7.571125031E-2
9.174661052E0,-2.347230911E-2,-6.065726280E-3,6.610679626E-2
9.182655224E0,-2.120375633E-3,-8.503302932E-3,6.129264832E-2
9.190651319E0,-1.209664345E-2,-1.089407504E-2,6.124305725E-2
9.198647029E0,-2.446186543E-2,-1.332502067E-2,6.837654114E-2
9.206673433E0,-3.277778625E-3,-5.924016237E-3,8.509540558E-2
9.214670066E0,5.838155746E-3,-2.262398601E-2,9.222126007E-2
9.222664546E0,1.029300690E-2,-8.253738284E-3,1.089391708E-1
9.230659333E0,1.976776123E-2,-1.300726831E-2,8.019733429E-2
9.238655659E0,1.738131046E-2,-2.018620074E-2,8.019828796E-2
9.246651369E0,7.924437523E-3,-3.465339541E-3,1.041545868E-1
9.254647772E0,8.206248283E-3,-8.294254541E-3,6.827545166E-2
9.262672943E0,6.141066551E-3,-1.320391893E-2,7.310199738E-2
9.270668731E0,-1.499521732E-2,-3.754496574E-3,5.160331726E-2
9.278664364E0,-7.368087769E-3,-1.819184422E-2,7.080936432E-2
9.286659767E0,-1.885414124E-2,-2.072441578E-2,7.565689087E-2
9.294655862E0,-2.084589005E-2,-1.847457886E-2,7.091522217E-2
9.302651187E0,-4.201209545E-2,-2.091671526E-2,7.814502716E-2
9.310645975E0,-3.944325447E-2,2.972066402E-3,8.295345306E-2
9.318672146E0,-3.226780891E-2,-2.328494191E-2,7.816600800E-2
9.326668472E0,-3.724539280E-2,-1.361992955E-2,8.053874969E-2
9.334664259E0,-4.480230808E-2,-1.351363957E-2,9.485912323E-2
9.342659047E0,-1.181912422E-2,-3.883495927E-3,8.761024475E-2
9.350655911E0,-2.202570438E-2,-1.340912282E-2,5.640792847E-2
9.358650775E0,3.671646118E-3,-1.813584566E-2,7.069492340E-2
9.366677179E0,6.897449493E-4,1.008808613E-3,7.062149048E-2
9.374673581E0,2.435052395E-2,-1.335453987E-2,8.974075317E-2
9.382667753E0,1.704216003E-2,-2.060855925E-2,8.493518829E-2
9.390662848E0,2.663993835E-2,-1.584857702E-3,6.817531586E-2
9.398659481E0,-1.900196075E-3,-2.562981844E-2,7.777309418E-2
9.406654884E0,-2.321195602E-2,5.474880338E-3,8.498573303E-2
9.414651441E0,-6.321787834E-3,-1.364286244E-2,8.021354675E-2
9.422677305E0,-1.098644733E-2,-1.608443260E-2,7.783412933E-2
9.430673092E0,-3.478658199E-2,-1.785978675E-3,7.306194305E-2
9.438668110E0,1.393795013E-3,-1.626364887E-2,9.703540802E-2
9.446663897E0,-1.037895679E-2,-3.078417480E-2,6.114292145E-2
9.454659531E0,-2.205419540E-2,-9.301349521E-3,6.836128235E-2
9.462655010E0,-2.663052082E-2,9.763121605E-3,7.077980042E-2
9.470649721E0,-2.416658401E-2,7.306560874E-3,6.839275360E-2
9.478677431E0,-4.583740234E-2,-2.203717828E-3,7.316780090E-2
9.486672526E0,-2.698409557E-2,5.081400275E-3,8.510398865E-2
9.494669236E0,-8.115887642E-3,-6.832480431E-3,8.028125763E-2
9.502663946E0,-1.204729080E-3,-2.349460125E-2,7.306575775E-2
9.510659118E0,1.529359818E-2,-2.826485038E-2,7.303333282E-2
9.518654444E0,5.681037903E-3,-2.112501860E-2,8.021163940E-2
9.526650231E0,2.492022514E-2,-1.639704406E-2,8.500957489E-2
9.534677943E0,2.032077312E-2,-9.301438928E-3,8.263683319E-2
9.542672422E0,2.309834957E-2,-6.996035576E-3,8.268260956E-2
9.550667440E0,-7.665872574E-3,-1.912194490E-2,6.357097626E-2
9.558663843E0,-2.147150040E-2,4.655107856E-3,6.842517853E-2
9.566659476E0,-5.930745602E-2,-1.464118063E-2,6.369304657E-2
9.574654956E0,-5.913460255E-2,6.841376424E-3,6.131839752E-2
9.582650666E0,-6.406116486E-2,-7.519245148E-3,7.806110382E-2
9.590676453E0,-4.540455341E-2,-2.618327737E-3,8.278942108E-2
9.598671933E0,-5.566322803E-2,-2.473771572E-3,7.073593140E-2
9.606667951E0,-1.107156277E-2,-3.828263283E-2,6.583786011E-2
9.614664507E0,-1.210272312E-2,-1.427927613E-2,6.571006775E-2
9.622658987E0,3.250062466E-2,-1.665446162E-2,6.799411774E-2
9.630653851E0,1.014804840E-2,-1.906298101E-2,7.507610321E-2
9.638650100E0,2.879536152E-2,-3.333736956E-2,7.980442047E-2
9.646677272E0,9.364843369E-3,-1.651434600E-2,9.652996063E-2
9.654672905E0,2.137720585E-2,-2.827715874E-2,9.654045105E-2
9.662667769E0,1.685416698E-2,-3.281059861E-2,9.179019928E-2
9.670662787E0,5.323410034E-3,-2.787037194E-2,7.269477844E-2
9.678659113E0,3.572702408E-3,5.855888128E-3,6.080818176E-2
9.686655131E0,3.564202785E-2,-5.866959691E-3,5.374908447E-2
9.694650919E0,4.645156860E-2,-5.475610495E-3,6.109333038E-2
9.702676476E0,6.703603268E-2,-1.215389371E-2,6.367778778E-2
9.710671186E0,4.717278481E-2,-2.614863217E-2,5.671405792E-2
9.718668127E0,3.006660938E-2,-1.135548949E-2,6.895160675E-2
9.726663607E0,6.359577179E-3,1.058512926E-2,9.802055359E-2
9.734659625E0,-7.729530334E-3,-5.894348025E-3,7.441997528E-2
9.742655335E0,-3.652465343E-2,-1.533515751E-2,7.232284546E-2
9.750650353E0,-3.893399239E-2,-8.075088263E-3,6.783580780E-2
9.758676294E0,-3.397607803E-2,2.295118570E-2,7.294750214E-2
9.766672005E0,-2.464532852E-3,1.105803251E-2,5.893707275E-2
9.774669869E0,-2.107143402E-3,1.129961014E-2,7.844543457E-2
9.782663118E0,-2.596604824E-2,-1.698967814E-2,8.116626740E-2
9.790658213E0,-9.081912041E-2,-3.082315624E-2,8.863925934E-2
9.798654231E0,-6.497216225E-2,-4.462692142E-2,8.650016785E-2
9.806649864E0,-8.260512352E-2,-2.971807122E-2,8.431339264E-2
9.814677344E0,-5.486178398E-2,1.384119689E-2,8.929347992E-2
9.822671515E0,-5.368828773E-2,1.928630471E-2,6.791019440E-2
9.830667149E0,-5.291020870E-2,2.000424266E-2,5.605506897E-2
9.838663244E0,-3.102838993E-2,8.757516742E-3,6.090164185E-2
9.846659185E0,-2.352750301E-2,1.440158486E-2,7.053947449E-2
9.854655280E0,-8.924245834E-3,-1.121115685E-2,8.974075317E-2
9.862649991E0,1.027059555E-2,-3.216335177E-2,8.257675171E-2
9.870675855E0,-1.146161556E-2,-4.145021737E-2,9.453105927E-2
9.878670950E0,-4.447579384E-3,-3.167070448E-2,7.535934448E-2
9.886667045E0,-6.962776184E-3,-5.211055279E-3,5.619335175E-2
9.894664294E0,1.701557636E-2,-9.975746274E-3,5.380439758E-2
9.902658389E0,1.938772202E-2,1.644867659E-2,4.901504517E-2
9.910654176E0,2.429318428E-2,2.359613776E-3,4.185390472E-2
9.918648963E0,7.742881775E-3,7.437422872E-3,6.104087830E-2
9.926675443E0,-3.750419617E-2,5.416542292E-3,7.544612885E-2
9.934672307E0,-3.486692905E-2,-2.523665130E-2,1.042194366E-1
9.942667710E0,-5.389487743E-2,-4.398766160E-2,8.987903595E-2
9.950661882E0,-6.350839138E-2,-4.122780263E-2,8.509445190E-2
9.958658515E0,-6.383800507E-2,-7.326960564E-3,8.027172089E-2
9.966653379E0,-4.297888279E-2,-1.418140531E-2,6.343173981E-2
9.974650320E0,-2.231574059E-2,3.039106727E-3,5.375194550E-2
9.982675877E0,-8.744001389E-3,1.067654788E-2,4.408454895E-2
9.990671895E0,4.569590092E-2,-1.513433456E-2,3.443908691E-2
9.998667528E0,5.253708363E-2,-1.437516510E-2,2.962493896E-2
1.000666270E1,5.052733421E-2,-1.594544947E-2,6.321239471E-2
1.001465956E1,3.703558445E-2,-1.740011573E-2,9.207725525E-2
1.002265381E1,2.642369270E-2,-4.047609866E-2,9.945487976E-2
1.003064860E1,8.760094643E-3,-8.446350694E-3,7.811927795E-2
1.003867624E1,-1.355242729E-2,-5.325824022E-3,9.031867981E-2
1.004667141E1,-3.819632530E-2,4.998683929E-3,1.025247574E-1
1.005466766E1,-2.720725536E-2,-1.352563500E-2,1.099052429E-1
1.006266275E1,-2.371346951E-2,-1.295776665E-2,7.893562317E-2
1.007065823E1,-6.340694427E-2,-1.483373344E-2,7.189655304E-2
1.007865363E1,-7.478213310E-2,7.141247392E-3,6.001186371E-2
1.008664996E1,-8.669304848E-2,7.522001863E-3,5.045318604E-2
1.009467636E1,-1.184760332E-1,7.806137204E-3,2.882671356E-2
1.010267084E1,-1.148239374E-1,8.762031794E-4,3.347301483E-2
1.011066624E1,-1.020519733E-1,-2.508528531E-2,3.327655792E-2
1.011866234E1,-5.143034458E-2,-1.742421091E-2,4.738903046E-2
1.012665889E1,-3.256082535E-2,-1.931062341E-2,4.945182800E-2
1.013465468E1,-1.962304115E-3,-2.603089809E-2,7.063484192E-2
1.014264885E1,-2.149951458E-2,-4.130855203E-3,5.831623077E-2
1.015067556E1,1.648151875E-2,-3.879323602E-3,6.994533539E-2
1.015867104E1,1.630878448E-2,-1.089173555E-2,6.483364105E-2
1.016666729E1,2.812790871E-2,-1.308111846E-2,7.648563385E-2
1.017466300E1,1.849532127E-2,2.296195924E-2,7.378292084E-2
1.018265840E1,6.671547890E-3,3.877788782E-3,6.153011322E-2
1.019065266E1,-1.937258244E-2,2.783705294E-2,8.281230927E-2
1.019864921E1,-1.651632786E-2,1.342134178E-2,8.495998383E-2
1.020667546E1,-1.131856441E-2,-1.298347116E-2,7.991981506E-2
1.021467140E1,-6.602966785E-2,-1.785917580E-2,6.768989563E-2
1.022266711E1,-1.161619425E-1,-2.279533446E-2,6.979751587E-2
1.023066198E1,-1.213414669E-1,-4.456630349E-2,4.789447784E-2
1.023865792E1,-1.341356039E-1,-2.320989966E-2,5.706310272E-2
1.024665401E1,-1.259311438E-1,-1.855617762E-2,4.701328278E-2
1.025468072E1,-9.198999405E-2,2.952292562E-3,4.646968842E-2
1.026267520E1,-4.173898697E-2,-1.773402095E-3,3.390312195E-2
1.027066976E1,-3.008997440E-2,-2.084784210E-2,5.242824554E-2
1.027866639E1,-1.139891148E-2,8.433461189E-4,5.896854401E-2
1.028666210E1,1.186513901E-2,-1.324069500E-2,9.182643890E-2
1.029465843E1,1.588046551E-2,-1.778076589E-2,6.242465973E-2
1.030265352E1,1.489865780E-2,1.614928246E-3,8.088684082E-2
1.031067900E1,4.727649689E-2,1.625049114E-2,9.214878082E-2
1.031867502E1,5.316662788E-2,-2.900695801E-2,7.227230072E-2
1.032667073E1,6.409060955E-2,-2.645280957E-2,7.636737823E-2
1.033466767E1,5.402147770E-2,-1.911005378E-2,5.180358887E-2
1.034266215E1,4.438459873E-2,-1.406238973E-2,5.123710632E-2
1.035065671E1,1.583993435E-2,-2.337312698E-2,2.915287018E-2
1.035865327E1,1.807928085E-3,-1.349240541E-2,1.187896729E-2
1.036667974E1,2.623319626E-2,-1.793624461E-2,4.011535645E-2
1.037467646E1,3.637504578E-2,-1.772060990E-2,4.202365875E-2
1.038267024E1,3.233110905E-2,-1.036038995E-2,5.592441559E-2
1.039066603E1,4.527270794E-2,-1.037719846E-2,5.548381805E-2
1.039866236E1,1.299059391E-2,-8.023217320E-3,7.183361053E-2
1.040665776E1,2.162814140E-2,1.474857330E-3,5.468940735E-2
1.041465347E1,-2.966964245E-2,6.336584687E-3,5.908870697E-2
1.042267841E1,-2.597701550E-2,2.329835296E-2,8.503246307E-2
1.043067435E1,-4.641330242E-2,-1.084655523E-4,8.941650391E-2
1.043867075E1,-5.765962601E-2,-4.363313317E-3,9.615230560E-2
1.044666616E1,-5.013918877E-2,2.745108306E-2,7.172584534E-2
1.045466302E1,-1.876318455E-2,4.481852055E-3,1.071529388E-1
1.046265781E1,2.198135853E-2,-3.999903798E-2,1.162242889E-1
1.047065321E1,3.144133091E-2,-4.860125482E-2,1.013374329E-1
1.047867938E1,3.841960430E-2,-4.272389412E-2,7.926464081E-2
1.048667417E1,7.178926468E-2,-3.460521996E-2,9.071350098E-2
1.049467203E1,7.188796997E-2,-6.003722548E-2,7.346343994E-2
1.050266620E1,1.014099121E-1,-6.197084486E-2,7.543087006E-2
1.051066130E1,1.437298656E-1,-4.969003797E-2,4.875659943E-2
1.051865732E1,1.345573068E-1,-3.522983193E-2,4.375457764E-2
1.052665272E1,1.266035438E-1,2.221603692E-2,4.606533051E-2
1.053468051E1,1.051927805E-1,5.390971899E-3,6.044387817E-2
1.054267406E1,6.274592876E-2,7.858559489E-3,7.248783112E-2
1.055067039E1,3.244113922E-2,3.199145198E-3,1.084928513E-1
1.055866602E1,2.377235889E-2,1.140952110E-3,1.253595352E-1
1.056666150E1,1.030743122E-2,-2.951610088E-2,1.063156128E-1
1.057465783E1,1.119780540E-2,-3.144547343E-2,9.924221039E-2
1.058265293E1,1.481914520E-2,-3.820812702E-2,9.220409393E-2
1.059067817E1,1.641690731E-2,-9.133487940E-3,6.126213074E-2
1.059867481E1,-2.230203152E-2,-1.371431351E-2,3.993701935E-2
1.060667013E1,-3.682482243E-2,7.099807262E-4,3.300094604E-2
1.061466715E1,-2.987170219E-2,3.038316965E-3,-5.069732666E-3
1.062266040E1,-4.462862015E-2,1.972918212E-2,-1.203441620E-2
1.063065726E1,-7.167887688E-2,1.969443262E-2,2.514839172E-3
1.063865267E1,-5.110871792E-2,2.919316292E-3,9.854316711E-3
1.064667915E1,-7.884049416E-2,-2.313968539E-2,4.109573364E-2
1.065467555E1,-8.063662052E-2,-1.103290915E-2,7.468509674E-2
1.066267034E1,-9.959435463E-2,-1.802510023E-2,1.010475159E-1
1.067066505E1,-7.361960411E-2,-3.921595216E-2,9.862327576E-2
1.067866199E1,-8.421826363E-2,-7.696986198E-3,1.152791977E-1
1.068665685E1,-6.439304352E-2,-1.691266894E-2,9.834003448E-2
1.069465402E1,-2.588617802E-2,-9.336262941E-3,9.331989288E-2
1.070267812E1,-9.385108948E-3,-1.831322908E-3,5.712318420E-2
1.071067406E1,-3.122091293E-4,1.516091824E-2,5.681133270E-2
1.071866946E1,2.328765392E-2,2.492095530E-2,3.975677490E-2
1.072666548E1,3.007817268E-2,2.982978523E-2,5.382061005E-2
1.073466250E1,2.514255047E-2,2.040563524E-2,4.875946045E-2
1.074265606E1,3.601312637E-3,-1.300394535E-2,7.244586945E-2
1.075065146E1,6.131410599E-3,-1.543113589E-2,7.220077515E-2
1.075867886E1,2.105367184E-2,-1.321732998E-3,9.593772888E-2
1.076667396E1,4.096877575E-2,-1.128327847E-2,8.617401123E-2
1.077467082E1,5.414199829E-2,-3.789830208E-2,1.195573807E-1
1.078266530E1,2.925789356E-2,-2.862203121E-2,1.194486618E-1
1.079066139E1,2.126932144E-2,-3.129529953E-2,8.822917938E-2
1.079865649E1,1.829063892E-2,-3.627046943E-2,1.049213409E-1
1.080665251E1,2.268373966E-2,-2.943545580E-3,8.811378479E-2
1.081467929E1,4.652941227E-2,-1.036253572E-2,7.133865356E-2
1.082267431E1,3.938472271E-2,3.899782896E-3,4.739761353E-2
1.083066918E1,3.494954109E-2,-8.771717548E-4,3.306961060E-2
1.083866550E1,2.377557755E-2,2.527280152E-2,3.315162659E-2
1.084666052E1,3.212070465E-2,-6.204515696E-3,1.890182495E-2
1.085465754E1,1.916968822E-2,7.917672396E-3,1.904773712E-2
1.086265202E1,1.828098297E-2,5.324929953E-3,2.878189087E-2
1.087067842E1,1.032507420E-2,-1.634219289E-2,7.205104828E-2
1.087867382E1,2.375721931E-3,-2.849501371E-2,7.701110840E-2
1.088666984E1,1.553416252E-3,-4.542765021E-2,7.957077026E-2
1.089466655E1,-3.051090240E-2,-2.653020620E-2,8.450984955E-2
1.090266042E1,-5.800402164E-2,-5.523264408E-4,7.266426086E-2
1.091065644E1,-6.677556038E-2,-2.003049850E-2,7.753276825E-2
1.091865245E1,-6.654596329E-2,-1.783427596E-2,6.318664551E-2
1.092667770E1,-7.884860039E-2,-2.528145909E-2,3.201866150E-2
1.093467557E1,-2.928280830E-2,-8.669123054E-3,3.193759918E-2
1.094266943E1,-1.838040352E-2,-1.366974413E-2,1.984500885E-2
1.095066506E1,-1.480650902E-2,-2.578578889E-2,2.928543091E-2
1.095866139E1,3.119111061E-3,-1.625907421E-2,1.718044281E-2
1.096665679E1,1.627528667E-2,9.838521481E-3,3.859043121E-2
1.097465343E1,2.458691597E-2,9.693503380E-3,5.042171478E-2
1.098267875E1,8.998394012E-3,-4.706293344E-3,6.944274902E-2
1.099067292E1,2.219080925E-2,1.220256090E-4,8.847045898E-2
1.099866956E1,9.225368500E-3,-2.281248569E-3,8.357524872E-2
1.100666457E1,2.266395092E-2,-1.190301776E-2,1.098098755E-1
1.101466159E1,2.439916134E-2,-2.472296357E-3,1.169176102E-1
1.102265577E1,1.190042496E-2,-2.661108971E-2,1.024904251E-1
1.103065178E1,-2.911090851E-3,-2.459277213E-2,6.891441345E-2
1.103867788E1,-2.956831455E-2,-8.328154683E-3,4.013633728E-2
1.104667397E1,-2.262485027E-2,7.778853178E-4,3.052234650E-2
1.105467114E1,-2.520215511E-2,-6.878167391E-3,2.330780029E-2
1.106266562E1,-2.546203136E-2,2.385325730E-2,3.524112701E-2
1.107065980E1,-9.044170380E-3,-2.807527781E-3,3.998470306E-2
1.107865612E1,-2.387154102E-2,1.768112183E-3,7.105541229E-2
1.108665183E1,-1.720678806E-2,-1.753917336E-2,9.493732452E-2
1.109467862E1,-1.055777073E-2,-1.278224587E-2,1.140327454E-1
1.110267379E1,-4.076838493E-3,-5.684286356E-3,1.163492203E-1
1.111066942E1,2.613031864E-2,-2.484357357E-2,1.162500381E-1
1.111866514E1,1.790821552E-2,-1.047670841E-2,1.017742157E-1
1.112665992E1,3.854870796E-2,-5.782008171E-3,8.252143860E-2
1.113465632E1,7.879734039E-2,3.553539515E-3,5.373668671E-2
1.114265134E1,4.989528656E-2,-2.312804759E-2,3.694915771E-2
1.115067721E1,4.300034046E-2,-1.633711159E-2,2.499961853E-2
1.115867361E1,5.562603474E-2,-3.121191263E-2,2.026844025E-2
1.116666901E1,2.787697315E-2,-2.695529163E-2,8.388519287E-3
1.117466595E1,1.481974125E-2,-1.565322280E-2,3.245353699E-2
1.118266013E1,-5.268931389E-3,-9.140744805E-3,4.217052460E-2
1.119065607E1,1.152515411E-3,4.622966051E-3,6.387901306E-2
1.119865155E1,-1.874685287E-3,-6.629675627E-4,6.405639648E-2
1.120667733E1,-2.900850773E-2,-1.788608730E-2,9.055328369E-2
1.121467374E1,-2.042090893E-2,-6.245464087E-3,9.309101105E-2
1.122266914E1,-1.915156841E-2,-1.815050840E-3,9.800815582E-2
1.123066423E1,-1.562547684E-2,-2.202019095E-3,7.178497314E-2
1.123866018E1,-2.192962170E-2,1.179747283E-2,6.468772888E-2
1.124665558E1,-9.330749512E-3,-5.499362946E-3,4.558849335E-2
1.125468275E1,8.181333542E-4,3.652095795E-3,1.691055298E-2
1.126267746E1,-1.077151299E-2,1.284362376E-2,2.576828003E-3
1.127067286E1,-3.212726116E-2,-4.366964102E-3,9.769439697E-3
1.127866865E1,-2.489066124E-2,2.490803599E-3,2.892017365E-2
1.128666521E1,-8.039951324E-3,-3.183335066E-4,2.413177490E-2
1.129466099E1,4.296541214E-3,-7.126033306E-4,5.528736115E-2
1.130265570E1,7.257103920E-3,-1.066578925E-2,7.209968567E-2
1.131068126E1,7.703304291E-3,-1.590929925E-2,8.889579773E-2
1.131867705E1,-3.493428230E-2,-2.115215361E-2,9.132862091E-2
1.132667307E1,-3.269910812E-3,-1.925691962E-2,1.105298996E-1
1.133466993E1,6.968021393E-3,-5.265191197E-3,1.081972122E-1
1.134266410E1,5.244612694E-3,-1.529109478E-2,8.192443848E-2
1.135065958E1,-8.358240128E-3,-1.196682453E-3,7.721233368E-2
1.135865522E1,-5.387663841E-3,9.277164936E-4,6.529712677E-2
1.136668108E1,-2.382290363E-2,3.101944923E-3,6.058120728E-2
1.137467810E1,-8.869409561E-3,-2.110140026E-2,4.866886139E-2
1.138267227E1,-5.753636360E-3,-2.143780887E-2,4.873847961E-2
1.139066760E1,9.379506111E-3,-4.869133234E-3,5.839538574E-2
1.139866454E1,-1.727104187E-3,-7.535114884E-3,3.693580627E-2
1.140665909E1,-3.253459930E-3,-2.913177013E-3,7.772827148E-2
1.141465657E1,-2.158081532E-2,-5.510494113E-3,7.302665710E-2
1.142268159E1,-8.968949318E-3,-1.754085720E-2,7.070064545E-2
1.143067669E1,-3.560662270E-3,-2.949294448E-2,1.042871475E-1
1.143867240E1,-7.693052292E-3,-2.716286480E-2,8.520412445E-2
1.144666895E1,9.757637978E-3,-3.214393556E-2,9.485244751E-2
1.145466589E1,2.257227898E-2,-2.522470057E-2,5.423736572E-2
1.146265953E1,3.798186779E-2,-1.115804911E-2,3.997993469E-2
1.147065431E1,5.363106728E-2,3.157994151E-2,4.011249542E-2
1.147868172E1,4.056012630E-2,2.628087997E-3,1.391410828E-2
1.148667712E1,1.069545746E-3,1.928973198E-2,3.798770905E-2
1.149467306E1,-1.760721207E-4,2.591699362E-3,4.050922394E-2
1.150266792E1,-2.321159840E-2,-2.129113674E-2,5.018806458E-2
1.151066448E1,-2.476167679E-2,-3.569680452E-2,6.464672089E-2
1.151865965E1,-2.620160580E-2,-2.634903789E-2,7.432365417E-2
1.152665506E1,-4.679751396E-2,-4.106153548E-2,6.963253021E-2
1.153468246E1,-5.559265614E-2,-1.519419253E-2,6.013107300E-2
1.154267571E1,-7.679831982E-2,-2.756300569E-2,4.340076447E-2
1.155067165E1,-6.254601479E-2,3.209426999E-3,2.661991119E-2
1.155866805E1,-4.148161411E-2,1.738175750E-2,3.374481201E-2
1.156666399E1,8.292198181E-4,-1.621636748E-2,2.647209167E-2
1.157465978E1,5.002808571E-2,-1.375848055E-2,3.593158722E-2
1.158265549E1,3.937375546E-2,5.420446396E-3,4.778385162E-2
1.159068189E1,2.896368504E-2,-4.141777754E-3,7.163429260E-2
1.159867645E1,3.329992294E-2,-1.854720712E-2,6.679534912E-2
1.160667239E1,2.605462074E-2,-1.134958863E-2,7.157611847E-2
1.161466910E1,2.124929428E-2,-8.990809321E-3,8.354568481E-2
1.162266327E1,-7.386088371E-3,-9.064301848E-3,5.721759796E-2
1.163065837E1,-1.451933384E-2,2.978205681E-3,6.919574738E-2
1.163865469E1,-2.625405788E-2,7.810294628E-3,5.964565277E-2
1.164668087E1,-1.637744904E-2,-1.144778728E-2,6.207084656E-2
1.165467773E1,-1.362407207E-2,5.481690168E-4,3.816890717E-2
1.166267221E1,-1.307201385E-2,-4.299148917E-3,5.738258362E-2
1.167066792E1,-1.965522766E-2,-1.874317229E-2,7.181167603E-2
1.167866363E1,-1.684272289E-2,-2.840502560E-2,3.594398499E-2
1.168665942E1,-4.069232941E-2,-1.176655293E-2,6.468200684E-2
1.169465574E1,-5.303931236E-2,-1.665322483E-2,6.703186035E-2
1.170268092E1,-3.236567974E-2,-2.148956060E-2,6.932830811E-2
1.171067601E1,-3.105187416E-2,-9.659454226E-3,5.723476410E-2
1.171867211E1,1.260280609E-3,2.100035548E-3,8.582687378E-2
1.172666782E1,-2.032995224E-3,4.173547029E-3,6.177711487E-2
1.173466445E1,-9.974122047E-3,-1.512691379E-2,7.845020294E-2
1.174265978E1,8.476376534E-3,1.475006342E-3,6.639862061E-2
1.175065456E1,1.269447803E-2,2.062588930E-2,7.112312317E-2
1.175868135E1,4.930496216E-3,-3.324523568E-3,5.669403076E-2
1.176667644E1,1.624822617E-2,-1.523140073E-2,4.225826263E-2
1.177467285E1,4.199159145E-2,-2.949975431E-2,6.853199005E-2
1.178266763E1,5.842256546E-2,-2.937972546E-2,3.737354279E-2
1.179066304E1,7.272911072E-2,-3.663897514E-2,4.694271088E-2
1.179865898E1,5.885624886E-2,-3.673151135E-2,4.459953308E-2
1.180665446E1,3.359460831E-2,-1.056058705E-2,5.189704895E-2
1.181468186E1,1.115202904E-2,-6.022498012E-3,5.445003510E-2
1.182267657E1,-4.457938671E-2,-1.830244064E-2,6.660556793E-2
1.183067136E1,-6.229007244E-2,5.815923214E-4,4.999923706E-2
1.183866707E1,-7.562577724E-2,1.468351483E-2,5.728912354E-2
1.184666309E1,-4.881131649E-2,4.983544350E-3,5.494499207E-2
1.185466003E1,-2.953767776E-2,-2.178803086E-3,5.495834351E-2
1.186265420E1,-5.604505539E-3,-4.479989409E-3,6.453800201E-2
1.187067976E1,3.834009171E-3,-3.319531679E-2,7.409954071E-2
1.187867678E1,6.234288216E-3,-3.084707260E-2,6.212806702E-2
1.188667210E1,3.032159805E-2,-4.530344903E-2,3.101634979E-2
1.189466820E1,9.053587914E-3,-1.427465677E-2,4.062175751E-2
1.190266321E1,1.684319973E-2,1.183590293E-2,4.068374634E-2
1.191065900E1,-4.218339920E-3,-9.904250503E-3,3.833961487E-2
1.191865410E1,-8.536338806E-3,1.869973540E-2,3.838920593E-2
1.192668027E1,-5.566477776E-3,1.887717843E-2,8.634090424E-2
1.193467652E1,-1.714098454E-2,-2.154549956E-2,6.723785400E-2
1.194267169E1,-6.519925594E-2,-3.096522391E-2,8.158779144E-2
1.195066678E1,-6.106519699E-2,-1.166015863E-2,8.151817322E-2
1.195866365E1,-2.816629410E-2,-1.875384152E-2,5.750942230E-2
1.196665851E1,-1.943337917E-2,-6.664499640E-3,5.023479462E-2
1.197465484E1,1.795673370E-2,-1.137307286E-2,4.774284363E-2
1.198268009E1,4.096877575E-2,7.813856006E-3,2.369785309E-2
1.199067610E1,3.320157528E-2,-3.773768246E-2,4.278564453E-2
1.199867120E1,4.984951019E-2,-3.540220857E-2,3.319549561E-2
1.200666683E1,6.699979305E-2,-3.313054144E-2,4.281234741E-2
1.201466439E1,4.859936237E-2,-1.180602610E-2,4.289054871E-2
1.202265887E1,2.565860748E-2,1.671802998E-2,6.215000153E-2
1.203065366E1,-1.637792587E-2,6.961733103E-3,5.508041382E-2
1.203867983E1,-1.762783527E-2,-2.499222755E-4,6.957244873E-2
1.204667562E1,-3.097569942E-2,1.888366044E-2,5.531883240E-2
1.205467186E1,-5.408501625E-2,4.531189799E-3,7.217121124E-2
1.206266665E1,-7.036125660E-2,1.183092594E-2,8.419895172E-2
1.207066336E1,-8.709025383E-2,-4.730924964E-3,4.829406738E-2
1.207865776E1,-5.389833450E-2,-1.890088618E-2,4.826259613E-2
1.208665348E1,-4.502475262E-2,-2.107825875E-2,5.058288574E-2
1.209468096E1,1.888275146E-3,-3.764234483E-2,4.090309143E-2
1.210267574E1,2.965366840E-2,-1.822905242E-2,2.643585205E-2
1.211067076E1,5.048596859E-2,-2.037543058E-2,5.030441284E-2
1.211866686E1,5.968809128E-2,-1.534093916E-2,3.351020813E-2
1.212666256E1,6.214988232E-2,1.103170216E-2,2.872943878E-2
1.213465920E1,5.556511879E-2,1.347023249E-2,4.555606842E-2
1.214265399E1,4.712593555E-2,1.117292047E-2,6.723308563E-2
1.215068008E1,1.739597321E-2,1.353390515E-2,7.217597961E-2
1.215867579E1,-2.471208572E-3,-3.149077296E-3,9.391212463E-2
1.216667096E1,-4.133796692E-2,-1.023808122E-2,8.214759827E-2
1.217466783E1,-5.891716480E-2,-6.077289581E-4,8.950710297E-2
1.218266269E1,-6.967520714E-2,-1.491038501E-2,5.612373352E-2
1.219065771E1,-7.368159294E-2,-1.721942425E-2,5.860900879E-2
1.219865411E1,-7.113099098E-2,-2.674245834E-2,4.426193237E-2
1.220667998E1,-4.499304295E-2,-1.930569112E-2,3.466892242E-2
1.221467692E1,-3.577947617E-2,-1.430755854E-2,2.026748657E-2
1.222267070E1,-1.701354980E-2,-1.407504082E-2,4.656600952E-2
1.223066711E1,1.122069359E-2,-8.940964937E-3,3.933620453E-2
1.223866305E1,1.078784466E-2,-3.915235400E-3,5.126476288E-2
1.224665814E1,2.004551888E-2,-6.058454514E-3,7.517719269E-2
1.225465447E1,3.428483009E-2,1.271918416E-3,7.037830353E-2
1.226267980E1,5.840098858E-2,-3.204712272E-2,7.519149780E-2
1.227067458E1,5.405867100E-2,-1.513747871E-2,6.806087494E-2
1.227867091E1,4.294443130E-2,1.587882638E-3,5.379104614E-2
1.228666631E1,3.693985939E-2,-1.047201455E-2,3.716087341E-2
1.229466348E1,2.640724182E-2,-2.015043795E-2,3.731918335E-2
1.230265796E1,1.357424259E-2,3.766000271E-3,3.030872345E-2
1.231068413E1,-3.258752823E-2,1.563142240E-2,1.134586334E-2
1.231867954E1,-6.814002991E-3,-1.070332527E-2,1.873493195E-2
1.232667525E1,-4.593241215E-2,-3.683820367E-2,4.764842987E-2
1.233467250E1,-6.636202335E-2,1.684844494E-3,5.496215820E-2
1.234266636E1,-7.277166843E-2,6.655216217E-3,5.505371094E-2
1.235066123E1,-5.326259136E-2,-1.954984665E-2,6.227874756E-2
1.235865840E1,-3.419113159E-2,-3.377346694E-2,1.029748917E-1
1.236668426E1,-2.697336674E-2,-7.333800197E-3,7.664585114E-2
1.237468036E1,4.384636879E-3,7.109567523E-3,5.273056030E-2
1.238267514E1,2.322673798E-3,7.220402360E-3,4.798316956E-2
1.239067085E1,4.914999008E-3,-2.846908569E-2,6.477069855E-2
1.239866626E1,-2.868175507E-2,2.853453159E-3,5.279445648E-2
1.240666166E1,-2.631616592E-2,1.490534842E-2,3.363990784E-2
1.241465914E1,-5.376338959E-5,1.267956197E-2,5.039501190E-2
1.242268354E1,7.103919983E-3,-1.105256379E-2,6.236839294E-2
1.243067864E1,-1.190102100E-2,-1.257553697E-3,5.520820618E-2
1.243867404E1,-4.528403282E-2,-1.312628388E-2,5.283069611E-2
1.244667060E1,-4.761672020E-2,-2.735295892E-2,9.114933014E-2
1.245466792E1,-5.262982845E-2,-1.291869581E-2,8.633708954E-2
1.246266240E1,-5.819749832E-2,-2.241629362E-2,6.949138641E-2
1.247065742E1,-3.525149822E-2,-1.018087566E-2,5.262565613E-2
1.247868336E1,-2.452945709E-2,-1.452429593E-2,6.686019897E-2
1.248667938E1,-4.540681839E-3,-2.125591040E-2,6.669616699E-2
1.249467601E1,3.222143650E-2,-9.014189243E-3,4.019165039E-2
1.250267042E1,5.967843533E-2,-1.358503103E-2,1.611232758E-2
1.251066551E1,6.377494335E-2,-6.383791566E-3,2.321720123E-2
1.251866060E1,7.783794403E-2,1.528973877E-2,2.079200745E-2
1.252665755E1,6.356585026E-2,-3.785103559E-3,1.601600647E-2
1.253468533E1,5.207026005E-2,-3.696516156E-3,2.085971832E-2
1.254267881E1,4.570376873E-2,-8.383676410E-3,4.250144958E-2
1.255067552E1,2.287185192E-2,-3.624171019E-3,6.417369843E-2
1.255867023E1,-6.966590881E-3,-1.327164471E-2,6.192207336E-2
1.256666625E1,-3.438091278E-2,-2.045318484E-2,7.643604279E-2
1.257466196E1,-2.848505974E-2,-8.518353105E-3,5.980110168E-2
1.258265767E1,-4.422605038E-2,-2.294060588E-2,7.427883148E-2
1.259068269E1,-2.906644344E-2,-4.020705819E-3,5.042171478E-2
1.259867932E1,-3.813242912E-2,5.308896303E-3,4.089641571E-2
1.260667442E1,-7.138955593E-2,-4.444897175E-3,2.895069122E-2
1.261467136E1,-5.709683895E-2,4.952728748E-3,3.372669220E-2
1.262266607E1,-4.057812691E-2,4.840344191E-3,4.566764832E-2
1.263066147E1,-3.138315678E-2,7.155895233E-3,4.083442688E-2
1.263865664E1,-1.980650425E-2,-1.444458961E-2,6.951904297E-2
1.264668336E1,-2.031064034E-2,-3.360855579E-2,6.467342377E-2
1.265468037E1,-2.321362495E-2,-1.697628200E-2,6.940174103E-2
1.266267455E1,2.439022064E-4,-2.910707891E-2,6.215953827E-2
1.267066902E1,1.660335064E-2,-3.044173121E-3,5.013751984E-2
1.267866597E1,1.388609409E-2,-8.865743876E-4,4.051876068E-2
1.268666168E1,-1.263737679E-2,-8.248999715E-3,3.570556641E-2
1.269465823E1,1.662254333E-3,-8.388370275E-3,4.287624359E-2
1.270268348E1,-1.046490669E-2,5.735293031E-3,5.003643036E-2
1.271067835E1,-4.189562798E-2,-3.035688400E-2,4.042053223E-2
1.271867490E1,-7.586276531E-2,5.241841078E-3,4.515171051E-2
1.272667030E1,-5.997002125E-2,2.498865128E-3,1.152610779E-2
1.273466702E1,-6.839811802E-2,9.367734194E-3,2.813816071E-2
1.274266142E1,-7.479429245E-2,6.698653102E-3,2.316284180E-2
1.275065598E1,-4.789590836E-2,1.849995553E-2,4.689502716E-2
1.275868330E1,-2.150809765E-2,-7.538944483E-4,6.099605560E-2
1.276667878E1,-2.414643764E-2,-5.499035120E-3,7.267379761E-2
1.277467541E1,-2.448141575E-2,1.693561673E-3,8.434104919E-2
1.278266951E1,-2.020001411E-2,-1.275917888E-2,5.528545380E-2
1.279066653E1,1.502895355E-2,-3.207392991E-2,6.691169739E-2
1.279866101E1,4.744291306E-3,-2.273249626E-2,3.304576874E-2
1.280665664E1,-1.233661175E-2,3.431674838E-2,3.273677826E-2
1.281468343E1,5.980002880E-2,2.346485853E-4,-5.812644958E-3
1.282267821E1,7.679557800E-2,-4.326134920E-2,3.943061829E-2
1.283067369E1,4.609775543E-2,4.269778728E-3,8.082389832E-3
1.283866964E1,-5.854129791E-3,2.553977072E-2,4.141139984E-2
1.284666542E1,-3.871655464E-2,8.529543877E-3,7.473564148E-2
1.285466167E1,-2.860164642E-2,-2.760824561E-2,8.889293671E-2
1.286265646E1,-3.565609455E-2,-3.012536466E-2,8.146190643E-2
1.287068263E1,-3.812837601E-2,-1.347085834E-2,6.203746796E-2
1.287867834E1,-1.910424232E-2,3.113746643E-3,2.824020386E-2
1.288667467E1,-7.456898689E-3,-1.592653990E-2,6.146907806E-2
1.289467107E1,1.373100281E-2,-1.577833295E-2,4.681015015E-2
1.290266609E1,3.994071484E-2,-3.726075590E-2,4.654121399E-2
1.291066057E1,3.269696236E-2,-3.240121901E-2,1.754951477E-2
1.291865728E1,3.779089451E-2,-3.014262021E-2,2.211189270E-2
1.292668306E1,4.785919189E-2,2.479772270E-2,3.387737274E-2
1.293467916E1,4.876518250E-2,3.133609891E-3,2.892780304E-2
1.294267387E1,2.871978283E-2,-1.146996021E-2,7.671165466E-2
1.295066966E1,2.792036533E-2,-3.332869709E-2,7.661914825E-2
1.295866468E1,-8.639931679E-3,7.043272257E-3,6.217765808E-2
1.296666100E1,-1.630663872E-2,2.579167485E-2,5.972290039E-2
1.297465702E1,-1.686155796E-2,-1.525777578E-2,6.204986572E-2
1.298268265E1,-3.674829006E-2,-1.557140052E-2,7.872486115E-2
1.299067767E1,-4.728746414E-2,-1.533895731E-3,3.791332245E-2
1.299867307E1,-3.883993626E-2,7.743448019E-3,3.060436249E-2
1.300667040E1,-2.575826645E-2,5.099773407E-3,4.722213745E-2
1.301466611E1,-3.275513649E-3,4.988476634E-3,2.312374115E-2
1.302266028E1,-4.723072052E-3,5.022704601E-3,3.733730316E-2
1.303065599E1,-3.771781921E-3,5.474090576E-4,3.240394592E-2
1.303868155E1,3.089427948E-2,-1.358249784E-2,3.227806091E-2
1.304667818E1,2.272832394E-2,-5.159194767E-2,9.682559967E-2
1.305467512E1,4.338610172E-2,-6.351681054E-2,7.039642334E-2
1.306266930E1,3.314840794E-2,-3.955534101E-2,5.596256256E-2
1.307066462E1,4.725074768E-2,1.550473273E-2,6.790637970E-2
1.307866125E1,5.941355228E-2,-1.814104617E-2,5.116367340E-2
1.308665643E1,5.035948753E-2,-2.056637406E-2,2.727603912E-2
1.309468383E1,8.123755455E-3,-3.901094198E-3,3.215217590E-2
1.310267769E1,-1.719927788E-2,5.459398031E-3,3.943634033E-2
1.311067394E1,-3.289806843E-2,-1.391062140E-2,4.193687439E-2
1.311866911E1,-8.042097092E-3,2.759218216E-3,3.484821320E-2
1.312666444E1,2.335667610E-3,-4.407674074E-3,3.014469147E-2
1.313466176E1,-4.118800163E-3,-1.388959587E-2,5.416584015E-2
1.314265563E1,-1.532316208E-2,-1.147642732E-2,4.945850372E-2
1.315068149E1,-7.483839989E-3,-2.580514550E-2,5.431652069E-2
1.315867774E1,-4.648089409E-3,-9.013727307E-3,7.351875305E-2
1.316667345E1,-1.392626762E-2,-3.778259456E-2,4.721260071E-2
1.317467047E1,-2.814602852E-2,-1.871339977E-2,2.807235718E-2
1.318266495E1,-2.351379395E-2,4.167556763E-4,2.805519104E-2
1.319066035E1,-2.135086060E-2,7.634550333E-3,4.479026794E-2
1.319865568E1,-1.680421829E-2,-1.923084259E-3,2.800655365E-2
1.320668247E1,3.324890137E-2,5.400478840E-4,6.868553162E-2
1.321467848E1,3.083026409E-2,-1.374046504E-2,7.107925415E-2
1.322267327E1,3.093039989E-2,-2.330870926E-2,6.151294708E-2
1.323066806E1,2.899146080E-2,-1.618240774E-2,6.155967712E-2
1.323866469E1,5.126714706E-2,-3.538805246E-2,6.881904602E-2
1.324666017E1,3.306674957E-2,-1.399576664E-2,4.736804962E-2
1.325465642E1,2.005684376E-2,-3.555034101E-2,5.708789825E-2
1.326268228E1,1.932370663E-2,-9.198725224E-3,5.247592926E-2
1.327067746E1,3.323471546E-2,-9.340107441E-3,5.746746063E-2
1.327867347E1,8.983373642E-3,9.610235691E-3,4.571342468E-2
1.328666880E1,1.602411270E-3,2.216875553E-3,2.918338776E-2
1.329466582E1,-2.006959915E-2,6.582304835E-3,2.941703796E-2
1.330266022E1,-1.288008690E-2,1.331524551E-2,3.205680847E-2
1.331065501E1,-2.475619316E-2,-6.371438503E-3,4.907226562E-2
1.331868118E1,-4.360568523E-2,7.451683283E-3,3.977298737E-2
1.332667697E1,-6.020176411E-2,2.620206773E-2,6.158828735E-2
1.333467360E1,-7.971906662E-2,-5.101889372E-3,5.941009521E-2
1.334266839E1,-8.789980412E-2,-3.953129053E-4,7.631874084E-2
1.335066464E1,-9.195113182E-2,-2.746835351E-3,6.442832947E-2
1.335866004E1,-2.470791340E-2,-1.465186477E-2,5.248069763E-2
1.336668621E1,6.494760513E-3,-2.415867150E-2,4.291343689E-2
1.337468315E1,1.383745670E-2,-2.185286582E-2,2.138137817E-2
1.338267740E1,3.099179268E-2,-1.000982523E-2,2.620983124E-2
1.339067281E1,1.709342003E-2,8.870586753E-3,1.907157898E-2
1.339866852E1,8.350610733E-4,3.737664223E-2,1.433277130E-2
1.340666446E1,-3.236496449E-2,1.318384707E-2,1.675605774E-2
1.341466117E1,-4.207539558E-2,1.067154109E-2,1.434421539E-2
1.342268542E1,-1.352620125E-2,8.253097534E-3,3.826618195E-2
1.343068090E1,-1.356208324E-2,5.955874920E-3,4.544734955E-2
1.343867722E1,2.009093761E-2,-1.799494028E-2,5.982685089E-2
1.344667285E1,1.564919949E-2,-2.749624848E-2,7.183742523E-2
1.345466987E1,8.742094040E-3,-2.990886569E-2,6.707859039E-2
1.346266458E1,-7.764935493E-3,-2.515478432E-2,2.879810333E-2
1.347065968E1,-1.420974731E-4,-1.082731783E-2,2.645111084E-2
1.347868623E1,5.072605610E-2,1.034423709E-3,2.172470093E-2
1.348668164E1,4.931557178E-2,-1.343086362E-2,1.943397522E-2
1.349467735E1,2.922689915E-2,-2.315533161E-2,2.677345276E-2
1.350267267E1,2.152681351E-3,2.998992801E-3,3.652667999E-2
1.351066846E1,-1.751649380E-2,-4.384994507E-3,3.912067413E-2
1.351866417E1,-3.973960876E-2,2.596482635E-3,4.648876190E-2
1.352665957E1,-4.325389862E-2,2.648559213E-2,5.859756470E-2
1.353468721E1,-5.915713310E-2,7.272452116E-3,6.826782227E-2
1.354268138E1,-6.351780891E-2,-4.635095596E-3,7.071018219E-2
1.355067624E1,-1.785039902E-2,-6.952419877E-3,5.875968933E-2
1.355867249E1,-1.080930233E-2,-3.807123005E-2,5.156230927E-2
1.356666851E1,-6.012320518E-3,-3.803607821E-2,4.916954041E-2
1.357466514E1,-1.161694527E-3,-2.840927243E-2,3.481292725E-2
1.358265908E1,-5.870223045E-3,-1.164254546E-2,1.087951660E-2
1.359068549E1,6.045579910E-3,5.102351308E-3,1.087284088E-2
1.359868181E1,1.558566093E-2,4.031062126E-4,2.044773102E-2
1.360667698E1,8.426189423E-3,-1.154056191E-2,2.523899078E-2
1.361467385E1,3.492832184E-2,4.684925079E-4,4.441165924E-2
1.362266810E1,1.375722885E-2,-4.310905933E-3,4.445362091E-2
1.363066319E1,-9.729981422E-3,-1.158364117E-2,5.407810211E-2
1.363865944E1,-9.253025055E-3,-1.876676083E-2,4.934215546E-2
1.364668569E1,-1.352536678E-2,-2.063870430E-3,4.700469971E-2
1.365468232E1,-1.546370983E-2,-1.171624660E-2,4.465770721E-2
1.366267673E1,-2.000200748E-2,-1.170274615E-2,3.989696503E-2
1.367067190E1,8.978962898E-3,-1.408813894E-2,5.429077148E-2
1.367866853E1,9.302616119E-3,-2.123126388E-2,5.911540985E-2
1.368666424E1,2.559065819E-3,-1.635693014E-2,3.761768341E-2
1.369465934E1,-6.389498711E-3,1.476611197E-2,4.486942291E-2
1.370268543E1,-2.976179123E-2,-9.238138795E-3,4.493141174E-2
1.371068053E1,-3.166973591E-2,2.729117870E-3,4.498481750E-2
1.371867662E1,-4.098629951E-2,9.921088815E-3,3.304386139E-2
1.372667256E1,-4.333937168E-2,2.721786499E-3,4.262447357E-2
1.373466920E1,-6.753218174E-2,-1.162424684E-2,3.541374207E-2
1.374266314E1,-3.685450554E-2,-9.154155850E-3,5.691528320E-2
1.375065908E1,-4.471242428E-2,-2.350199223E-2,4.486942291E-2
1.375868564E1,-1.432478428E-2,-9.037584066E-3,5.197334290E-2
1.376668127E1,1.689076424E-3,-3.049454093E-2,4.949760437E-2
1.377467644E1,2.977740765E-2,-2.568694949E-2,4.224586487E-2
1.378267238E1,3.402161598E-2,-1.123706996E-2,4.697608948E-2
1.379066694E1,3.605568409E-2,-1.854154468E-2,5.650997162E-2
1.379866350E1,2.650320530E-2,5.345419049E-3,4.214668274E-2
1.380665920E1,3.404140472E-2,-1.388081908E-2,3.979015350E-2
1.381468630E1,3.951096535E-2,-9.166076779E-3,4.465103149E-2
1.382268055E1,1.641702652E-2,-1.163463295E-2,4.234886169E-2
1.383067626E1,-2.097356319E-2,-1.883913577E-2,4.244995117E-2
1.383867259E1,-4.156208038E-2,-1.884645224E-2,4.973793030E-2
1.384666830E1,-3.133559227E-2,-1.407784224E-2,4.023265839E-2
1.385466401E1,-4.774498940E-2,2.638146281E-3,4.745292664E-2
1.386265879E1,-2.601933479E-2,2.651393414E-3,4.268550873E-2
1.387068489E1,-1.866865158E-2,-1.648339629E-2,2.594375610E-2
1.387868068E1,-1.392710209E-2,-9.372785687E-3,4.509162903E-2
1.388667662E1,-6.779909134E-3,-9.396106005E-3,3.072071075E-2
1.389467271E1,-2.128934860E-2,1.221504807E-2,4.267787933E-2
1.390266750E1,-1.676070690E-2,-2.092763782E-3,4.983329773E-2
1.391066313E1,2.046346664E-3,-1.883098483E-2,5.218982697E-2
1.391865923E1,-2.715611458E-2,-9.204581380E-3,5.213832855E-2
1.392668532E1,-8.492708206E-3,-9.198546410E-3,4.968929291E-2
1.393468203E1,5.208253860E-4,5.139008164E-3,3.286838531E-2
1.394267613E1,4.231929779E-5,9.996920824E-3,3.760623932E-2
1.395067068E1,-7.593631744E-3,5.239292979E-3,3.037261963E-2
1.395866732E1,-7.943034172E-3,-6.632313132E-3,4.230785370E-2
1.396666272E1,-3.491044044E-3,-3.526774049E-2,3.748512268E-2
1.397465935E1,5.842089653E-3,-3.047904372E-2,3.985118866E-2
1.398268483E1,1.531159878E-2,-1.369260252E-2,4.941749573E-2
1.399068031E1,1.290380955E-2,1.009172201E-2,5.180644989E-2
1.399867602E1,1.065182686E-2,2.746582031E-3,4.224205017E-2
1.400667143E1,3.646016121E-3,-1.408994198E-2,6.620216370E-2
1.401466806E1,1.357579231E-2,-1.167078316E-2,4.469299316E-2
1.402266285E1,1.401364803E-2,-4.416331649E-3,6.629085541E-2
1.403065794E1,-4.665732384E-3,-3.551745415E-2,3.761386871E-2
1.403868558E1,-1.134014130E-2,-1.885217428E-2,2.809143066E-2
1.404668075E1,-1.559090614E-2,2.488896251E-3,2.814579010E-2
1.405467677E1,4.160046577E-3,-1.197068393E-2,2.581501007E-2
1.406267186E1,-2.646064758E-2,2.144256234E-2,4.262828827E-2
1.407066688E1,-1.641058922E-2,-5.001962185E-3,3.788948059E-2
1.407866297E1,-6.642067432E-2,-5.024418235E-3,4.031276703E-2
1.408665861E1,-6.389153004E-2,2.175927162E-3,4.272174835E-2
1.409468609E1,-6.656134129E-2,-2.588912845E-3,4.269218445E-2
1.410268026E1,-4.802954197E-2,1.906451583E-2,4.262542725E-2
1.411067474E1,-4.173541069E-2,-9.556174278E-3,4.253005981E-2
1.411867099E1,-1.406884193E-2,-2.607560158E-2,3.763008118E-2
1.412666739E1,-9.577274323E-4,-9.246990085E-3,4.467582703E-2
1.413466433E1,2.408051491E-2,-1.877272129E-2,3.016757965E-2
1.414265843E1,2.307236195E-2,-1.873786747E-2,3.963470459E-2
1.415068437E1,4.158306122E-2,-2.032175660E-3,2.998638153E-2
1.415868000E1,2.915441990E-2,-2.589184046E-2,3.712081909E-2
1.416667579E1,2.670407295E-3,-1.864850521E-2,5.386447906E-2
1.417467265E1,5.115628242E-3,-1.840874553E-2,5.627059937E-2
1.418266690E1,-1.156520844E-2,-3.020638227E-2,6.107139587E-2
1.419066200E1,4.376173019E-4,-1.326452196E-2,5.868434906E-2
1.419868909E1,2.752542496E-3,-2.263298631E-2,4.431533813E-2
1.420668442E1,2.757191658E-3,-1.999138296E-2,2.037906647E-2
1.421468105E1,1.960623264E-2,-2.449756861E-2,3.715610504E-2
1.422267591E1,1.490366459E-2,-7.456347346E-3,2.998828888E-2
1.423067132E1,-1.610279083E-3,-7.290080190E-3,3.001880646E-2
1.423866734E1,1.158237457E-3,-2.299696207E-3,3.964138031E-2
1.424666274E1,4.044890404E-3,-4.538401961E-3,4.448795319E-2
1.425468891E1,2.133119106E-2,-3.316514194E-2,4.454803467E-2
1.426268400E1,-9.112119675E-3,-2.598722279E-2,4.462242126E-2
1.427067941E1,-3.492355347E-3,-2.363912761E-2,4.231834412E-2
1.427867543E1,-5.069851875E-3,-1.414015889E-2,3.522491455E-2
1.428667106E1,-1.705169678E-3,1.203665137E-2,2.575111389E-2
1.429466800E1,-7.169246674E-4,2.520665526E-3,1.628494263E-2
1.430266286E1,2.705454826E-3,3.000497818E-4,4.752731323E-2
1.431065765E1,-1.775562763E-2,-1.864987612E-2,4.286384583E-2
1.431868475E1,7.292628288E-3,-2.553428710E-2,4.778194427E-2
1.432667923E1,2.297055721E-2,-2.517756820E-2,6.230068207E-2
1.433467586E1,1.004111767E-2,-3.695288301E-2,6.964778900E-2
1.434267088E1,-3.200769424E-4,-4.643921554E-2,5.785751343E-2
1.435066574E1,6.212949753E-3,-1.772423089E-2,6.044483185E-2
1.435866261E1,1.762413979E-2,-1.029133797E-3,2.952384949E-2
1.436665832E1,9.719133377E-3,-1.065522432E-3,2.013301849E-2
1.437468518E1,-1.017808914E-2,-8.288994431E-3,1.552772522E-2
1.438267966E1,-2.528667450E-2,-1.299135387E-2,1.810932159E-2
1.439067529E1,-1.176261902E-2,-8.116975427E-3,3.504467010E-2
1.439867100E1,-1.002156734E-2,1.102353632E-2,3.524017334E-2
1.440666641E1,-1.800811291E-2,-2.000510693E-2,7.612419128E-2
1.441466281E1,-9.339690208E-3,-1.039659977E-2,6.910896301E-2
1.442268798E1,-1.530158520E-2,-1.758190989E-2,5.488204956E-2
1.443068338E1,-3.583228588E-2,-8.007586002E-3,4.063129425E-2
1.443867917E1,-4.931378365E-2,-1.044255495E-2,3.594207764E-2
1.444667511E1,-7.901430130E-3,6.308048964E-3,2.883911133E-2
1.445467182E1,-2.425777912E-2,-5.647554994E-3,4.085731506E-2
1.446266684E1,-3.343653679E-2,-3.103464842E-3,4.090499878E-2
1.447066140E1,-3.321719170E-2,-1.490344107E-2,5.051136017E-2
1.447868757E1,-2.825534344E-2,-1.701824367E-2,6.011295319E-2
1.448668413E1,-3.548133373E-2,-1.911298931E-2,4.814434052E-2
1.449468014E1,-3.083133698E-2,-2.078413963E-3,5.771160126E-2
1.450267439E1,-1.669943333E-2,-1.134125888E-2,3.374958038E-2
1.451066972E1,-1.699507236E-2,-2.532808483E-2,3.133201599E-2
1.451866612E1,-1.012635231E-2,-1.063384116E-2,4.088020325E-2
1.452666152E1,3.831624985E-3,-7.147639990E-4,3.844738007E-2
1.453468831E1,3.369927406E-3,-2.679327130E-2,3.840160370E-2
1.454268394E1,-4.264628887E-2,-1.229737699E-2,2.876758575E-2
1.455067966E1,-1.456344128E-2,-2.765268087E-3,4.545402527E-2
1.455867506E1,-2.951622009E-3,1.171429455E-2,4.780960083E-2
1.456667054E1,8.694291115E-3,4.760429263E-3,5.974960327E-2
1.457466617E1,3.225135803E-2,-2.135232091E-2,5.013370514E-2
1.458266196E1,5.397796631E-3,-3.549613059E-2,4.768562317E-2
1.459068721E1,2.241134644E-4,-1.614654064E-2,5.243492126E-2
1.459868384E1,2.532601357E-3,-2.807076275E-2,3.087997437E-2
1.460667894E1,5.149841309E-5,-6.427332759E-3,1.650619507E-2
1.461467549E1,4.909515381E-3,2.242065966E-2,2.369976044E-2
1.462267028E1,-1.417553425E-2,1.196846366E-3,1.892662048E-2
1.463066599E1,-2.867519855E-2,-2.235566080E-2,4.765129089E-2
1.463866178E1,-4.674911499E-3,-1.002396643E-2,5.963706970E-2
1.464668818E1,-1.416039467E-2,-3.846600652E-2,4.528903961E-2
1.465468366E1,7.379770279E-3,-1.903630793E-2,6.684207916E-2
1.466267899E1,2.913880348E-2,-4.754368961E-2,7.884216309E-2
1.467067385E1,3.659057617E-2,-2.830567956E-2,7.169246674E-2
1.467867041E1,3.470051289E-2,-1.154205203E-2,4.301834106E-2
1.468666642E1,2.577054501E-2,5.114346743E-3,3.111839294E-2
1.469466244E1,1.222538948E-2,3.383530676E-2,3.839302063E-2
1.470268715E1,3.499269485E-3,2.674424648E-2,3.130912781E-2
1.471068286E1,-2.183794975E-2,-1.860842109E-3,3.142547607E-2
1.471867942E1,-1.128876209E-2,-1.128673553E-2,3.393268585E-2
1.472667421E1,-2.967095375E-2,-6.391018629E-3,4.599475861E-2
1.473467084E1,-5.788958073E-2,-8.670747280E-3,4.126644135E-2
1.474266624E1,-6.250143051E-2,-1.093807817E-2,3.410625458E-2
1.475066041E1,-4.337036610E-2,-1.082180440E-2,5.086612701E-2
1.475868759E1,-2.454340458E-2,-2.736978233E-2,5.322837830E-2
1.476668360E1,-1.309537888E-2,-2.468284965E-2,2.205085754E-2
1.477467901E1,-6.444454193E-3,-9.995132685E-3,2.439308167E-2
1.478267464E1,1.329183578E-4,2.385139465E-3,4.348754883E-2
1.479067035E1,6.842374802E-3,-2.131897211E-2,3.146934509E-2
1.479866522E1,6.445288658E-3,-1.618480682E-2,3.861427307E-2
1.480666185E1,2.522492409E-2,1.267868280E-2,4.096984863E-2
1.481468918E1,8.330106735E-3,-1.115567982E-2,4.813861847E-2
1.482268312E1,-3.753185272E-3,-1.102426648E-2,4.813003540E-2
1.483067821E1,-3.733515739E-3,-1.105345786E-2,5.291938782E-2
1.483867446E1,-6.181478500E-3,-3.013573587E-2,4.812717438E-2
1.484667056E1,-3.500688076E-2,-1.320408285E-2,4.572582245E-2
1.485466742E1,-2.794361115E-2,8.450284600E-3,3.374385834E-2
1.486266128E1,-2.818059921E-2,-3.212106228E-2,4.808425903E-2
1.487068815E1,-2.853035927E-2,-1.277026534E-2,4.326152802E-2
1.487868317E1,-3.854811192E-2,-3.182682395E-2,4.321384430E-2
1.488667888E1,-2.461194992E-2,-7.832422853E-3,3.598499298E-2
1.489467551E1,-1.787066460E-2,1.839131117E-3,4.072570801E-2
1.490267060E1,3.193020821E-3,-2.196177840E-2,4.785633087E-2
1.491066485E1,1.465439796E-2,-2.659153938E-2,5.737876892E-2
1.491866079E1,1.648128033E-2,-1.202233136E-2,4.056167603E-2
1.492668727E1,1.842296124E-2,-9.486228228E-3,2.854251862E-2
1.493468398E1,6.225109100E-3,-1.652306318E-2,3.330898285E-2
1.494267869E1,1.574707031E-2,-2.108007669E-2,5.964469910E-2
1.495067356E1,3.770947456E-3,7.810994983E-3,5.964756012E-2
1.495866950E1,3.809809685E-3,-1.597286761E-2,4.529094696E-2
1.496666521E1,-5.669355392E-3,-6.316855550E-3,3.812122345E-2
1.497466131E1,-2.241861820E-2,3.458529711E-3,3.812599182E-2
1.498268648E1,-3.194260597E-2,1.059725881E-3,4.531478882E-2
1.499068226E1,-1.518917084E-2,-2.522753179E-2,3.573894501E-2
1.499867859E1,-2.485549450E-2,-1.071240008E-2,4.291534424E-2
1.500667392E1,-2.260911465E-2,-2.971513569E-2,4.529666901E-2
1.501467055E1,-1.575469971E-2,-3.270655870E-3,3.568553925E-2
1.502266449E1,-1.131105423E-2,-1.031781733E-2,4.283142090E-2
1.503066012E1,-4.626870155E-3,-3.647989035E-2,4.996299744E-2
1.503868722E1,6.845474243E-3,-4.683285952E-4,5.469703674E-2
1.504668331E1,-6.872415543E-4,-2.906766534E-2,5.705547333E-2
1.505467964E1,3.830909729E-3,-2.672170103E-2,4.744720459E-2
1.506267381E1,-3.470301628E-3,-9.924709797E-3,5.461788177E-2
1.507066914E1,3.724694252E-3,-1.936507225E-2,4.025650024E-2
1.507866516E1,1.281619072E-3,1.421484351E-2,4.743480682E-2
1.508666117E1,6.089568138E-3,-1.198674738E-2,4.983520508E-2
1.509468765E1,-1.127958298E-3,7.486343384E-5,5.701541901E-2
1.510268336E1,3.755688667E-3,4.908844829E-3,4.505634308E-2
1.511067761E1,6.305336952E-3,-4.517376423E-3,5.225944519E-2
1.511867425E1,3.050816059E-2,2.701953053E-3,3.553104401E-2
1.512666996E1,2.627909184E-2,2.188453078E-2,3.559494019E-2
1.513466659E1,5.851984024E-4,-9.180724621E-3,4.524517059E-2
1.514266068E1,-1.310193539E-2,-9.119376540E-3,3.095817566E-2
1.515068601E1,1.918315887E-3,-1.391720772E-2,6.455039978E-2
1.515868226E1,-1.424634457E-2,-9.282976389E-3,4.067230225E-2
1.516667797E1,-2.080047131E-2,-1.658736169E-2,3.355693817E-2
1.517467407E1,-2.989065647E-2,2.402007580E-3,2.642536163E-2
1.518266916E1,-4.877281189E-2,-4.984691739E-3,2.884483337E-2
1.519066487E1,-5.096161366E-2,-7.497355342E-3,3.365421295E-2
1.519866027E1,-4.847276211E-2,-3.391091526E-2,3.605747223E-2
1.520668644E1,-4.386258125E-2,-2.194195986E-2,2.885437012E-2
1.521468362E1,-3.216707706E-2,-1.706823707E-2,3.600788116E-2
1.522267779E1,-1.101171970E-2,-5.000159144E-3,4.793643951E-2
1.523067288E1,-6.750345230E-3,-9.690687060E-3,4.309082031E-2
1.523866890E1,1.189613342E-2,-2.151127160E-2,6.219196320E-2
1.524666438E1,1.931905746E-3,-9.532675147E-3,5.496597290E-2
1.525469201E1,1.375031471E-2,-1.189865172E-2,4.297733307E-2
1.526268657E1,3.292918205E-2,-7.035762072E-3,4.777050018E-2
1.527068228E1,3.078532219E-2,-2.144518495E-2,5.737400055E-2
1.527867768E1,1.938903332E-2,4.879102111E-3,4.067993164E-2
1.528667339E1,2.719557285E-2,-7.140338421E-3,2.159595490E-2
1.529466934E1,1.366305351E-2,-1.677127182E-2,1.929378510E-2
1.530266451E1,3.854799271E-2,7.143184543E-3,2.658271790E-2
1.531065983E1,-1.551330090E-2,-1.340657473E-4,2.908802032E-2
1.531868608E1,-5.265641212E-2,-3.270655870E-4,4.118633270E-2
1.532668179E1,-5.411267281E-2,-4.233121872E-4,2.931880951E-2
1.533467843E1,-6.316959858E-2,-1.485419273E-2,3.656005859E-2
1.534267321E1,-5.347025394E-2,-1.963466406E-2,6.051540375E-2
1.535066885E1,-5.619823933E-2,-2.198643982E-2,4.611396790E-2
1.535866487E1,-3.047478199E-2,-1.229947805E-2,4.365253448E-2
1.536669081E1,-1.455390453E-2,-2.423129976E-2,4.834651947E-2
1.537468744E1,1.093649864E-2,-1.228509843E-2,4.106807709E-2
1.538268192E1,3.424990177E-2,-1.233889163E-2,2.663040161E-2
1.539067732E1,1.695561409E-2,2.046272159E-3,7.416725159E-3
1.539867357E1,3.335452080E-2,9.118780494E-3,2.173805237E-2
1.540666836E1,3.084135056E-2,1.875942945E-2,3.848552704E-2
1.541466507E1,2.614521980E-2,-1.467345655E-2,4.807472229E-2
1.542269055E1,-4.749059677E-3,-2.183583379E-2,6.246662140E-2
1.543068595E1,-2.355027199E-2,-1.951372623E-2,6.011104584E-2
1.543868197E1,-2.329742908E-2,-2.424810827E-2,8.168888092E-2
1.544667745E1,-2.319371700E-2,-4.345309734E-2,6.015110016E-2
1.545467400E1,-2.567899227E-2,-3.150658309E-2,6.014060974E-2
1.546266848E1,-3.070187569E-2,-5.234122276E-3,2.419853210E-2
1.547066358E1,-3.104746342E-2,-1.964837313E-2,-4.571914673E-3
1.547869044E1,-3.407871723E-2,-1.476366818E-2,1.451206207E-2
1.548668585E1,-1.564574242E-2,-2.348572016E-4,1.682949066E-2
1.549468333E1,-1.403629780E-2,-1.197981834E-2,2.632331848E-2
1.550267750E1,-5.338191986E-3,-1.171623170E-2,4.777812958E-2
1.551067298E1,1.056909561E-3,2.798750997E-3,5.008697510E-2
1.551866830E1,2.437210083E-2,-1.145885885E-2,6.917285919E-2
1.552666378E1,2.861487865E-2,-1.859714091E-2,8.108425140E-2
1.553469172E1,3.303682804E-2,-2.346365154E-2,6.906986237E-2
1.554268559E1,4.019165039E-2,-2.369424701E-2,4.032993317E-2
1.555068138E1,3.550732136E-2,-3.091198206E-2,4.273509979E-2
1.555867762E1,7.141470909E-3,-1.667074859E-2,2.361965179E-2
1.556667249E1,5.342006683E-3,-1.199264824E-2,2.847194672E-2
1.557466912E1,3.616929054E-3,-1.207822561E-2,3.812217712E-2
1.558266476E1,-1.480400562E-2,-4.962801933E-3,3.580951691E-2
1.559069000E1,-3.087151051E-2,-1.215675473E-2,2.631092072E-2
1.559868510E1,-4.956090450E-2,-7.501021028E-3,3.593635559E-2
1.560668112E1,-4.447591305E-2,-9.886160493E-3,4.554653168E-2
1.561467806E1,-3.004169464E-2,6.869375706E-3,4.555416107E-2
1.562267200E1,-3.975236416E-2,-1.711614430E-2,6.469154358E-2
1.563066763E1,-3.061485291E-2,-9.956687689E-3,5.506515503E-2
1.563866404E1,-9.777665138E-3,-2.795964479E-3,4.061889648E-2
1.564668990E1,-1.290857792E-2,-1.962812245E-2,3.813934326E-2
1.565468676E1,-6.702423096E-3,-2.786591649E-3,4.042625427E-2
1.566268124E1,-5.226135254E-4,2.354913950E-2,2.834224701E-2
1.567067665E1,-1.122093201E-2,-2.723276615E-3,4.258251190E-2
1.567867266E1,-2.437329292E-2,9.252518415E-3,5.920982361E-2
1.568666776E1,1.753282547E-2,-5.106747150E-3,3.034591675E-2
1.569466470E1,6.784558296E-3,-1.711007953E-2,3.979110718E-2
1.570268903E1,-1.826357841E-2,-3.622743487E-2,4.445648193E-2
1.571068504E1,2.136445045E-2,-3.855484724E-2,6.588649750E-2
1.571868106E1,-3.541469574E-3,-4.580754042E-2,6.098747253E-2
1.572667677E1,-4.444479942E-3,-3.398671746E-2,3.454780579E-2
1.573467371E1,-4.603862762E-4,-6.359517574E-4,4.642391205E-2
1.574266766E1,1.071166992E-2,1.356336474E-2,3.196620941E-2
1.575066360E1,-4.402279854E-3,-8.867532015E-4,1.990985870E-2
1.575869015E1,1.169955730E-2,1.586034894E-3,3.659725189E-2
1.576668494E1,3.931164742E-3,-1.262417436E-2,4.371833801E-2
1.577468180E1,5.954861641E-3,1.893594861E-3,4.846954346E-2
1.578267628E1,-8.660912514E-3,-2.190706134E-2,4.365730286E-2
1.579067146E1,-8.782267570E-3,-7.510229945E-3,6.279850006E-2
1.579866770E1,-1.128363609E-2,-3.289729357E-4,6.278610229E-2
1.580666403E1,-1.788496971E-3,1.643376052E-2,5.798912048E-2
1.581469028E1,1.733982563E-2,-1.949757338E-2,4.122543335E-2
1.582268530E1,1.248741150E-2,-1.951107383E-2,4.600620270E-2
1.583068047E1,5.354881287E-3,-1.483058929E-2,3.882789612E-2
1.583867649E1,1.752328873E-2,-1.015771925E-2,2.687454224E-2
1.584667189E1,-1.566088200E-2,-1.995666325E-2,2.451324463E-2
1.585466875E1,-1.528799534E-2,-3.324702382E-3,4.131031036E-2
1.586266331E1,-4.147219658E-2,3.797456622E-3,3.893184662E-2
1.587068856E1,-3.680419922E-2,2.777275443E-2,3.652477264E-2
1.587868512E1,-1.570725441E-2,1.351194084E-2,2.211189270E-2
