"Time (s)","Gyroscope x (rad/s)","Gyroscope y (rad/s)","Gyroscope z (rad/s)"
6.624238000E-3,2.321287990E-2,1.588249579E-2,2.443460980E-3
8.728856000E-3,2.321287990E-2,1.588249579E-2,2.443460980E-3
1.071232100E-2,2.321287990E-2,1.588249579E-2,2.443460980E-3
1.272740100E-2,2.321287990E-2,1.588249579E-2,2.443460980E-3
1.471009700E-2,2.321287990E-2,1.588249579E-2,2.443460980E-3
1.672433100E-2,2.321287990E-2,1.588249579E-2,2.443460980E-3
1.870856500E-2,2.321287990E-2,1.588249579E-2,2.443460980E-3
2.072210800E-2,2.321287990E-2,1.588249579E-2,2.443460980E-3
2.270611100E-2,2.321287990E-2,1.588249579E-2,2.443460980E-3
2.472026800E-2,2.321287990E-2,1.588249579E-2,2.443460980E-3
2.670404100E-2,2.321287990E-2,1.588249579E-2,2.443460980E-3
2.871819800E-2,2.321287990E-2,1.588249579E-2,2.443460980E-3
3.070120200E-2,2.321287990E-2,1.588249579E-2,2.443460980E-3
3.271658900E-2,2.321287990E-2,1.588249579E-2,2.443460980E-3
3.469997700E-2,2.321287990E-2,1.588249579E-2,2.443460980E-3
3.671382700E-2,2.321287990E-2,1.588249579E-2,2.443460980E-3
3.872798400E-2,2.321287990E-2,1.588249579E-2,2.443460980E-3
4.071114200E-2,2.321287990E-2,1.588249579E-2,2.443460980E-3
4.272622200E-2,2.321287990E-2,1.588249579E-2,2.443460980E-3
4.470930200E-2,2.321287990E-2,1.588249579E-2,2.443460980E-3
4.672369000E-2,2.321287990E-2,1.588249579E-2,2.443460980E-3
4.870715500E-2,2.321287990E-2,1.588249579E-2,2.443460980E-3
5.072123600E-2,2.321287990E-2,1.588249579E-2,2.443460980E-3
5.270654600E-2,2.321287990E-2,1.588249579E-2,2.443460980E-3
5.471970300E-2,2.321287990E-2,1.588249579E-2,2.443460980E-3
5.670340000E-2,2.321287990E-2,1.588249579E-2,2.443460980E-3
5.871694100E-2,2.321287990E-2,1.588249579E-2,2.443460980E-3
6.070094400E-2,2.321287990E-2,1.588249579E-2,2.443460980E-3
6.271425600E-2,2.321287990E-2,1.588249579E-2,2.443460980E-3
6.472802800E-2,2.321287990E-2,1.588249579E-2,2.443460980E-3
6.671303200E-2,2.321287990E-2,1.588249579E-2,2.443460980E-3
6.872742000E-2,2.321287990E-2,1.588249579E-2,2.443460980E-3
7.070957600E-2,6.108652451E-4,-8.979719132E-2,-9.773843922E-3
7.272465700E-2,-3.665191587E-3,-8.552113175E-2,-6.719517522E-3
7.470835300E-2,-3.665191587E-3,-8.368854225E-2,-6.719517522E-3
7.672135700E-2,-5.497787148E-3,-7.819075137E-2,-7.941247895E-3
7.870589800E-2,-7.330383174E-3,-7.452555746E-2,-6.719517522E-3
8.071944000E-2,-6.108652335E-3,-7.208210230E-2,-7.941247895E-3
8.270375100E-2,-7.941247895E-3,-6.841690838E-2,-8.552113548E-3
8.471798500E-2,-4.276056774E-3,-6.352998316E-2,-8.552113548E-3
8.670106600E-2,-7.941247895E-3,-5.803219974E-2,-7.330383174E-3
8.871553100E-2,-9.162978269E-3,-5.192354694E-2,-7.330383174E-3
9.072999500E-2,-7.941247895E-3,-4.520402849E-2,-7.941247895E-3
9.271399900E-2,-8.552113548E-3,-4.398229718E-2,-6.719517522E-3
9.472746400E-2,-5.497787148E-3,-3.787364438E-2,-6.108652335E-3
9.671085200E-2,-6.719517522E-3,-3.115412779E-2,-6.719517522E-3
9.872562500E-2,-7.330383174E-3,-2.871066704E-2,-6.719517522E-3
1.007099350E-1,-5.497787148E-3,-2.015855350E-2,-4.276056774E-3
1.027240930E-1,-5.497787148E-3,-1.404990070E-2,-2.443460980E-3
1.047062500E-1,-5.497787148E-3,-1.282817032E-2,-3.054326167E-3
1.067201760E-1,-3.665191587E-3,-4.276056774E-3,6.108652451E-4
1.087047180E-1,-1.221730490E-3,-3.665191587E-3,-1.221730490E-3
1.107183370E-1,6.108652451E-4,1.832595794E-3,0.000000000E0
1.127041100E-1,6.108652451E-4,6.108652335E-3,1.221730490E-3
1.147174210E-1,1.221730490E-3,9.162978269E-3,6.108652451E-4
1.167007310E-1,4.276056774E-3,1.343903504E-2,1.832595794E-3
1.187149660E-1,4.886921961E-3,1.649336144E-2,2.443460980E-3
1.207281230E-1,6.719517522E-3,2.138028294E-2,-6.108652451E-4
1.227115890E-1,7.330383174E-3,2.260201424E-2,3.054326167E-3
1.247272840E-1,9.773843922E-3,2.565634064E-2,6.108652451E-4
1.267100560E-1,9.773843922E-3,2.871066704E-2,2.443460980E-3
1.287244450E-1,9.773843922E-3,3.054326214E-2,-1.221730490E-3
1.307078320E-1,1.282817032E-2,3.054326214E-2,6.108652451E-4
1.327226060E-1,1.466076635E-2,3.176499158E-2,0.000000000E0
1.347056860E-1,1.221730467E-2,3.237585723E-2,-1.832595794E-3
1.367193040E-1,1.282817032E-2,3.420845419E-2,0.000000000E0
1.387030000E-1,1.282817032E-2,3.359758854E-2,-1.832595794E-3
1.407171570E-1,1.527163107E-2,3.481931984E-2,0.000000000E0
1.427005450E-1,1.954768784E-2,3.420845419E-2,0.000000000E0
1.447150100E-1,1.588249579E-2,3.054326214E-2,0.000000000E0
1.467303210E-1,1.527163107E-2,2.993239649E-2,-3.054326167E-3
1.487140940E-1,1.588249579E-2,2.871066704E-2,1.221730490E-3
1.507263280E-1,1.343903504E-2,2.321287990E-2,-3.054326167E-3
1.527118690E-1,1.221730467E-2,1.893682219E-2,6.108652451E-4
1.547251040E-1,1.221730467E-2,1.893682219E-2,0.000000000E0
1.567088000E-1,1.343903504E-2,1.527163107E-2,-1.221730490E-3
1.587230340E-1,1.099557430E-2,1.282817032E-2,-2.443460980E-3
1.607069600E-1,1.160643995E-2,1.099557430E-2,-1.221730490E-3
1.627205790E-1,1.038470957E-2,6.719517522E-3,-1.221730490E-3
1.647045830E-1,1.038470957E-2,1.832595794E-3,-2.443460980E-3
1.667186630E-1,1.099557430E-2,6.108652451E-4,-1.221730490E-3
1.687020510E-1,8.552113548E-3,-2.443460980E-3,-3.054326167E-3
1.707165930E-1,7.941247895E-3,-4.276056774E-3,-3.054326167E-3
1.727312880E-1,7.941247895E-3,-9.162978269E-3,-4.276056774E-3
1.747137540E-1,4.886921961E-3,-1.099557430E-2,-4.276056774E-3
1.767282180E-1,5.497787148E-3,-1.343903504E-2,-3.054326167E-3
1.787119150E-1,4.886921961E-3,-1.649336144E-2,-4.886921961E-3
1.807260710E-1,2.443460980E-3,-1.649336144E-2,-5.497787148E-3
1.827095360E-1,2.443460980E-3,-1.832595654E-2,-4.886921961E-3
1.847236170E-1,1.221730490E-3,-1.954768784E-2,-5.497787148E-3
1.867073120E-1,-6.108652451E-4,-2.321287990E-2,-4.886921961E-3
1.887220850E-1,-1.832595794E-3,-2.199114859E-2,-6.108652335E-3
1.907057810E-1,-3.054326167E-3,-2.321287990E-2,-6.719517522E-3
1.927205530E-1,-4.276056774E-3,-2.382374369E-2,-3.665191587E-3
1.947037110E-1,-4.276056774E-3,-2.565634064E-2,-3.665191587E-3
1.967171750E-1,-6.108652335E-3,-2.443460934E-2,-1.221730490E-3
1.987012550E-1,-6.108652335E-3,-2.809980139E-2,-2.443460980E-3
2.007151050E-1,-6.108652335E-3,-2.871066704E-2,-2.443460980E-3
2.027295700E-1,-7.330383174E-3,-2.809980139E-2,-3.665191587E-3
2.047131890E-1,-6.719517522E-3,-2.871066704E-2,-1.832595794E-3
2.067277310E-1,-8.552113548E-3,-2.932153270E-2,-1.832595794E-3
2.087113490E-1,-8.552113548E-3,-2.748893574E-2,1.832595794E-3
2.107255070E-1,-7.941247895E-3,-2.565634064E-2,1.832595794E-3
2.127098950E-1,-7.330383174E-3,-2.504547499E-2,2.443460980E-3
2.147228220E-1,-6.719517522E-3,-2.138028294E-2,3.665191587E-3
2.167064400E-1,-6.108652335E-3,-2.138028294E-2,3.665191587E-3
2.187209820E-1,-4.276056774E-3,-1.893682219E-2,2.443460980E-3
2.207046780E-1,-5.497787148E-3,-1.466076635E-2,3.054326167E-3
2.227184500E-1,-3.665191587E-3,-1.404990070E-2,4.886921961E-3
2.247022230E-1,-4.276056774E-3,-9.773843922E-3,8.552113548E-3
2.267172260E-1,-3.665191587E-3,-8.552113548E-3,4.276056774E-3
2.287006910E-1,-6.108652451E-4,-9.162978269E-3,6.108652335E-3
2.307138490E-1,-1.221730490E-3,-3.054326167E-3,7.330383174E-3
2.327286980E-1,-4.276056774E-3,-1.832595794E-3,6.108652335E-3
2.347126250E-1,-6.108652451E-4,1.221730490E-3,4.886921961E-3
2.367258590E-1,2.443460980E-3,3.054326167E-3,6.719517522E-3
2.387098620E-1,1.221730490E-3,4.276056774E-3,4.276056774E-3
2.407243270E-1,3.054326167E-3,3.054326167E-3,6.108652335E-3
2.427080230E-1,3.665191587E-3,8.552113548E-3,3.665191587E-3
2.447228720E-1,1.832595794E-3,1.099557430E-2,5.497787148E-3
2.467053370E-1,1.221730490E-3,1.099557430E-2,4.276056774E-3
2.487197250E-1,6.108652451E-4,1.527163107E-2,3.665191587E-3
2.507028830E-1,3.054326167E-3,1.649336144E-2,4.276056774E-3
2.527185010E-1,3.054326167E-3,1.771509275E-2,3.665191587E-3
2.547006580E-1,1.832595794E-3,2.076941915E-2,3.054326167E-3
2.567148930E-1,3.665191587E-3,1.710422710E-2,3.054326167E-3
2.587287420E-1,2.443460980E-3,2.138028294E-2,1.832595794E-3
2.607127460E-1,3.665191587E-3,2.076941915E-2,3.054326167E-3
2.627265950E-1,3.665191587E-3,2.260201424E-2,3.665191587E-3
2.647102140E-1,2.443460980E-3,2.443460934E-2,1.221730490E-3
2.667244480E-1,3.665191587E-3,2.443460934E-2,1.221730490E-3
2.687083740E-1,3.054326167E-3,2.687807009E-2,2.443460980E-3
2.707228400E-1,4.276056774E-3,2.871066704E-2,6.108652451E-4
2.727071510E-1,3.665191587E-3,2.748893574E-2,3.665191587E-3
2.747206920E-1,4.276056774E-3,2.565634064E-2,4.886921961E-3
2.766320810E-1,5.497787148E-3,2.626720630E-2,4.276056774E-3
2.787789300E-1,6.108652335E-3,2.626720630E-2,5.497787148E-3
2.806985480E-1,6.108652335E-3,2.565634064E-2,3.665191587E-3
2.827160910E-1,9.162978269E-3,2.504547499E-2,2.443460980E-3
2.847309400E-1,8.552113548E-3,2.260201424E-2,3.054326167E-3
2.867142520E-1,7.941247895E-3,2.321287990E-2,1.832595794E-3
2.887278700E-1,8.552113548E-3,1.893682219E-2,1.832595794E-3
2.907115650E-1,7.941247895E-3,1.832595654E-2,3.054326167E-3
2.927274920E-1,1.099557430E-2,1.710422710E-2,1.832595794E-3
2.947102650E-1,9.162978269E-3,1.099557430E-2,1.832595794E-3
2.967241150E-1,9.162978269E-3,1.160643995E-2,2.443460980E-3
2.987075020E-1,1.099557430E-2,9.773843922E-3,3.665191587E-3
3.007214290E-1,1.160643995E-2,9.773843922E-3,1.832595794E-3
3.027047400E-1,9.162978269E-3,6.719517522E-3,1.221730490E-3
3.047192820E-1,8.552113548E-3,7.330383174E-3,3.665191587E-3
3.067047470E-1,1.038470957E-2,4.886921961E-3,3.665191587E-3
3.087170580E-1,1.038470957E-2,3.054326167E-3,3.054326167E-3
3.107001380E-1,1.038470957E-2,3.054326167E-3,3.054326167E-3
3.127161420E-1,8.552113548E-3,1.221730490E-3,3.054326167E-3
3.147300680E-1,7.941247895E-3,1.221730490E-3,3.665191587E-3
3.167122260E-1,9.773843922E-3,1.221730490E-3,3.054326167E-3
3.187269210E-1,7.941247895E-3,-1.221730490E-3,3.054326167E-3
3.207109240E-1,1.099557430E-2,-2.443460980E-3,3.665191587E-3
3.227250820E-1,7.941247895E-3,-2.443460980E-3,3.054326167E-3
3.247091620E-1,7.941247895E-3,-3.054326167E-3,6.108652451E-4
3.267227040E-1,8.552113548E-3,-4.886921961E-3,4.276056774E-3
3.287064000E-1,1.038470957E-2,-3.665191587E-3,5.497787148E-3
3.307202490E-1,7.330383174E-3,-4.276056774E-3,4.276056774E-3
3.327050990E-1,7.330383174E-3,-6.108652451E-4,2.443460980E-3
3.347183330E-1,7.941247895E-3,-1.832595794E-3,5.497787148E-3
3.367017970E-1,9.162978269E-3,-4.276056774E-3,2.443460980E-3
3.387161860E-1,1.099557430E-2,-3.054326167E-3,2.443460980E-3
3.407300350E-1,1.160643995E-2,-5.497787148E-3,3.054326167E-3
3.427135010E-1,1.221730467E-2,-5.497787148E-3,3.665191587E-3
3.447278880E-1,1.221730467E-2,-4.276056774E-3,1.832595794E-3
3.467107370E-1,1.160643995E-2,-4.886921961E-3,4.276056774E-3
3.487255110E-1,1.466076635E-2,-6.108652335E-3,2.443460980E-3
3.507092060E-1,1.527163107E-2,-6.108652335E-3,3.054326167E-3
3.527242100E-1,1.710422710E-2,-5.497787148E-3,2.443460980E-3
3.547069820E-1,1.832595654E-2,-7.330383174E-3,4.276056774E-3
3.567214470E-1,1.893682219E-2,-4.276056774E-3,6.108652335E-3
3.587046050E-1,1.832595654E-2,-4.886921961E-3,4.886921961E-3
3.607193000E-1,1.710422710E-2,-2.443460980E-3,4.276056774E-3
3.627026890E-1,1.710422710E-2,-3.665191587E-3,4.886921961E-3
3.647177680E-1,1.893682219E-2,-4.886921961E-3,6.108652335E-3
3.667006180E-1,1.954768784E-2,-4.886921961E-3,7.941247895E-3
3.687150060E-1,1.893682219E-2,-2.443460980E-3,5.497787148E-3
3.707292400E-1,1.954768784E-2,-2.443460980E-3,6.719517522E-3
3.727132440E-1,1.832595654E-2,-3.665191587E-3,6.719517522E-3
3.747267090E-1,1.893682219E-2,-6.108652335E-3,6.108652335E-3
3.767101730E-1,1.954768784E-2,-9.162978269E-3,3.665191587E-3
3.787243310E-1,1.710422710E-2,-9.773843922E-3,4.276056774E-3
3.807080260E-1,1.832595654E-2,-1.160643995E-2,3.665191587E-3
3.827218750E-1,1.710422710E-2,-1.282817032E-2,1.832595794E-3
3.847058020E-1,1.771509275E-2,-1.527163107E-2,1.221730490E-3
3.867215750E-1,1.771509275E-2,-1.649336144E-2,1.221730490E-3
3.887040400E-1,1.649336144E-2,-2.015855350E-2,-1.221730490E-3
3.907175050E-1,1.588249579E-2,-2.138028294E-2,1.832595794E-3
3.927022000E-1,1.466076635E-2,-2.199114859E-2,-4.886921961E-3
3.947159730E-1,1.343903504E-2,-2.443460934E-2,-2.443460980E-3
3.967298990E-1,1.282817032E-2,-2.871066704E-2,-4.276056774E-3
3.987135190E-1,1.160643995E-2,-3.115412779E-2,-5.497787148E-3
4.007279830E-1,8.552113548E-3,-3.298672289E-2,-4.276056774E-3
4.027116790E-1,1.160643995E-2,-3.604105115E-2,-5.497787148E-3
4.047256060E-1,9.773843922E-3,-3.970624134E-2,-7.941247895E-3
4.067101470E-1,6.108652335E-3,-4.214970022E-2,-8.552113548E-3
4.087231510E-1,6.108652335E-3,-4.276056588E-2,-1.038470957E-2
4.107065390E-1,7.330383174E-3,-4.337143153E-2,-9.773843922E-3
4.127224650E-1,5.497787148E-3,-4.825835302E-2,-1.099557430E-2
4.147046230E-1,2.443460980E-3,-4.764748737E-2,-9.773843922E-3
4.167191640E-1,3.054326167E-3,-5.314527452E-2,-1.160643995E-2
4.187024750E-1,3.054326167E-3,-5.253441259E-2,-1.221730467E-2
4.207167100E-1,3.054326167E-3,-5.436700583E-2,-1.221730467E-2
4.227310970E-1,2.443460980E-3,-5.497787148E-2,-1.343903504E-2
4.247139480E-1,6.108652451E-4,-5.558873713E-2,-1.527163107E-2
4.267284120E-1,2.443460980E-3,-5.864306539E-2,-1.221730467E-2
4.287126460E-1,6.108652451E-4,-6.108652428E-2,-1.466076635E-2
4.307265730E-1,1.221730490E-3,-6.169738993E-2,-1.588249579E-2
4.327111910E-1,0.000000000E0,-6.047565863E-2,-1.649336144E-2
4.347250410E-1,3.054326167E-3,-6.658431143E-2,-1.527163107E-2
4.367087370E-1,1.221730490E-3,-6.536258012E-2,-1.649336144E-2
4.387225860E-1,1.832595794E-3,-6.963863969E-2,-1.588249579E-2
4.407056670E-1,3.054326167E-3,-7.391469181E-2,-1.466076635E-2
4.427204390E-1,1.832595794E-3,-7.513642311E-2,-1.466076635E-2
4.447041350E-1,1.832595794E-3,-7.635815442E-2,-1.404990070E-2
4.467179850E-1,1.221730490E-3,-7.880161703E-2,-1.588249579E-2
4.487009880E-1,2.443460980E-3,-8.002334833E-2,-1.588249579E-2
4.507160680E-1,3.054326167E-3,-8.246681094E-2,-1.466076635E-2
4.527312250E-1,3.054326167E-3,-8.246681094E-2,-1.588249579E-2
4.547133060E-1,3.665191587E-3,-8.674286306E-2,-1.282817032E-2
4.567280790E-1,6.108652451E-4,-8.429940045E-2,-1.466076635E-2
4.587109280E-1,2.443460980E-3,-8.796459436E-2,-1.404990070E-2
4.607259320E-1,1.221730490E-3,-8.613199741E-2,-1.343903504E-2
4.627087040E-1,1.221730490E-3,-8.735372871E-2,-1.160643995E-2
4.647229390E-1,-6.108652451E-4,-8.796459436E-2,-1.466076635E-2
4.667084030E-1,6.108652451E-4,-8.796459436E-2,-1.221730467E-2
4.687213290E-1,0.000000000E0,-9.101892263E-2,-1.404990070E-2
4.707038720E-1,-1.832595794E-3,-9.162978828E-2,-1.282817032E-2
4.727195670E-1,-3.054326167E-3,-9.224065393E-2,-1.343903504E-2
4.747029550E-1,-1.832595794E-3,-9.346238524E-2,-1.038470957E-2
4.767168050E-1,-3.665191587E-3,-9.407325089E-2,-1.221730467E-2
4.787308850E-1,-2.443460980E-3,-9.285151958E-2,-1.221730467E-2
4.807146580E-1,6.108652451E-4,-9.101892263E-2,-1.160643995E-2
4.827290460E-1,-4.276056774E-3,-8.857546002E-2,-1.160643995E-2
4.847133560E-1,-6.108652451E-4,-9.224065393E-2,-1.221730467E-2
4.867266680E-1,-1.221730490E-3,-8.552113175E-2,-1.038470957E-2
4.887102860E-1,-6.108652451E-4,-8.429940045E-2,-1.038470957E-2
4.907244440E-1,-1.832595794E-3,-8.491026610E-2,-1.221730467E-2
4.927093700E-1,-3.054326167E-3,-8.185594529E-2,-9.162978269E-3
4.947220660E-1,-1.221730490E-3,-7.941248268E-2,-9.162978269E-3
4.967056850E-1,6.108652451E-4,-7.880161703E-2,-9.162978269E-3
4.987198420E-1,-1.221730490E-3,-7.635815442E-2,-7.941247895E-3
5.007039230E-1,0.000000000E0,-7.391469181E-2,-9.162978269E-3
5.027176950E-1,6.108652451E-4,-6.902777404E-2,-7.330383174E-3
5.047002370E-1,1.221730490E-3,-7.147123665E-2,-7.941247895E-3
5.067153170E-1,1.832595794E-3,-6.597344577E-2,-6.108652335E-3
5.087297050E-1,1.832595794E-3,-6.414084882E-2,-6.108652335E-3
5.107131700E-1,6.108652451E-4,-6.108652428E-2,-7.330383174E-3
5.127288660E-1,1.221730490E-3,-6.047565863E-2,-6.719517522E-3
5.147116380E-1,6.108652451E-4,-5.681046844E-2,-6.108652335E-3
5.167248730E-1,6.108652451E-4,-5.619960278E-2,-3.054326167E-3
5.187087990E-1,6.108652451E-4,-5.253441259E-2,-5.497787148E-3
5.207235710E-1,0.000000000E0,-5.009094998E-2,-2.443460980E-3
5.227067290E-1,-1.221730490E-3,-4.886921868E-2,-1.832595794E-3
5.247211940E-1,-1.221730490E-3,-4.459316283E-2,-6.108652451E-4
5.267045820E-1,-1.221730490E-3,-4.459316283E-2,-2.443460980E-3
5.287181240E-1,-4.886921961E-3,-4.276056588E-2,0.000000000E0
5.307020500E-1,-1.832595794E-3,-4.214970022E-2,-1.221730490E-3
5.327165920E-1,-3.665191587E-3,-3.970624134E-2,-1.221730490E-3
5.347310570E-1,-1.832595794E-3,-3.665191308E-2,3.665191587E-3
5.367150610E-1,-5.497787148E-3,-3.359758854E-2,3.054326167E-3
5.387288330E-1,-3.054326167E-3,-3.359758854E-2,3.054326167E-3
5.407119900E-1,-5.497787148E-3,-3.176499158E-2,2.443460980E-3
5.427255320E-1,-6.108652335E-3,-2.626720630E-2,3.054326167E-3
5.447095350E-1,-4.276056774E-3,-2.565634064E-2,4.886921961E-3
5.467255390E-1,-6.719517522E-3,-2.015855350E-2,6.108652335E-3
5.487085420E-1,-6.719517522E-3,-1.893682219E-2,3.054326167E-3
5.507218530E-1,-6.719517522E-3,-1.588249579E-2,5.497787148E-3
5.527058570E-1,-7.330383174E-3,-1.099557430E-2,4.276056774E-3
5.547197060E-1,-7.330383174E-3,-9.162978269E-3,3.665191587E-3
5.567033250E-1,-7.330383174E-3,-6.719517522E-3,4.886921961E-3
5.587177900E-1,-5.497787148E-3,-3.665191587E-3,4.886921961E-3
5.607011780E-1,-6.108652335E-3,-1.221730490E-3,5.497787148E-3
5.627151050E-1,-6.719517522E-3,4.886921961E-3,4.276056774E-3
5.647298000E-1,-6.108652335E-3,7.941247895E-3,5.497787148E-3
5.667138030E-1,-7.941247895E-3,9.773843922E-3,4.886921961E-3
5.687274230E-1,-3.665191587E-3,1.221730467E-2,4.886921961E-3
5.707110410E-1,-6.719517522E-3,1.710422710E-2,6.108652335E-3
5.727258910E-1,-3.665191587E-3,1.832595654E-2,4.886921961E-3
5.747088940E-1,-4.276056774E-3,2.260201424E-2,5.497787148E-3
5.767225130E-1,-3.665191587E-3,2.565634064E-2,6.108652335E-3
5.787065170E-1,-3.665191587E-3,2.748893574E-2,3.665191587E-3
5.807206730E-1,-1.221730490E-3,3.054326214E-2,4.276056774E-3
5.827039850E-1,-3.054326167E-3,3.054326214E-2,4.276056774E-3
5.847147570E-1,-1.221730490E-3,3.298672289E-2,6.108652335E-3
5.867322990E-1,0.000000000E0,3.481931984E-2,1.832595794E-3
5.887163030E-1,6.108652451E-4,3.543018550E-2,4.276056774E-3
5.907310750E-1,0.000000000E0,3.787364438E-2,2.443460980E-3
5.927151560E-1,1.832595794E-3,3.787364438E-2,0.000000000E0
5.947286970E-1,1.832595794E-3,3.604105115E-2,3.665191587E-3
5.967123160E-1,1.221730490E-3,3.665191308E-2,1.832595794E-3
5.987259350E-1,1.221730490E-3,3.604105115E-2,1.221730490E-3
6.007099380E-1,6.108652451E-4,3.848451003E-2,1.221730490E-3
6.027237880E-1,1.832595794E-3,3.481931984E-2,0.000000000E0
6.047086380E-1,6.108652451E-4,3.359758854E-2,1.832595794E-3
6.067216410E-1,1.832595794E-3,3.237585723E-2,1.832595794E-3
6.087053370E-1,1.221730490E-3,2.809980139E-2,6.108652451E-4
6.107200320E-1,0.000000000E0,2.687807009E-2,2.443460980E-3
6.127043430E-1,6.108652451E-4,2.687807009E-2,6.108652451E-4
6.147176550E-1,-6.108652451E-4,2.565634064E-2,0.000000000E0
6.167009650E-1,-3.665191587E-3,2.260201424E-2,-6.108652451E-4
6.187152000E-1,-3.054326167E-3,2.138028294E-2,1.832595794E-3
6.207295880E-1,-1.832595794E-3,2.076941915E-2,6.108652451E-4
6.227129750E-1,-3.665191587E-3,1.893682219E-2,-1.832595794E-3
6.247265950E-1,-4.276056774E-3,1.710422710E-2,0.000000000E0
6.267118280E-1,-4.276056774E-3,1.588249579E-2,2.443460980E-3
6.287265250E-1,-4.886921961E-3,1.588249579E-2,1.221730490E-3
6.307078350E-1,-5.497787148E-3,1.343903504E-2,4.276056774E-3
6.327244540E-1,-5.497787148E-3,1.160643995E-2,2.443460980E-3
6.347069190E-1,-6.108652335E-3,1.038470957E-2,4.276056774E-3
6.367213070E-1,-7.330383174E-3,7.941247895E-3,4.276056774E-3
6.387043880E-1,-6.108652335E-3,6.108652335E-3,5.497787148E-3
6.407192370E-1,-6.719517522E-3,6.719517522E-3,6.719517522E-3
6.427019320E-1,-7.330383174E-3,4.276056774E-3,7.941247895E-3
6.447170130E-1,-7.941247895E-3,6.719517522E-3,7.941247895E-3
6.467308630E-1,-9.162978269E-3,4.276056774E-3,9.162978269E-3
6.487140190E-1,-6.719517522E-3,3.665191587E-3,1.038470957E-2
6.507281770E-1,-8.552113548E-3,4.886921961E-3,1.160643995E-2
6.527124110E-1,-9.162978269E-3,3.665191587E-3,1.099557430E-2
6.547262610E-1,-7.941247895E-3,3.665191587E-3,1.221730467E-2
6.567096490E-1,-7.330383174E-3,1.832595794E-3,1.038470957E-2
6.587234980E-1,-1.099557430E-2,3.054326167E-3,1.099557430E-2
6.607075790E-1,-9.773843922E-3,1.832595794E-3,1.343903504E-2
6.627211200E-1,-7.330383174E-3,3.054326167E-3,1.038470957E-2
6.647045090E-1,-9.162978269E-3,6.108652451E-4,1.160643995E-2
6.667189730E-1,-9.773843922E-3,-6.108652451E-4,1.099557430E-2
6.687029000E-1,-9.162978269E-3,-1.221730490E-3,8.552113548E-3
6.707174420E-1,-7.330383174E-3,-1.221730490E-3,7.941247895E-3
6.727013680E-1,-7.330383174E-3,-6.108652451E-4,5.497787148E-3
6.747149870E-1,-4.886921961E-3,-6.108652451E-4,7.330383174E-3
6.767284520E-1,-6.108652335E-3,-1.221730490E-3,4.276056774E-3
6.787131470E-1,-4.886921961E-3,-3.054326167E-3,6.719517522E-3
6.807275360E-1,-5.497787148E-3,1.221730490E-3,3.665191587E-3
6.827106160E-1,-3.665191587E-3,-1.221730490E-3,2.443460980E-3
6.847256970E-1,-3.054326167E-3,-1.832595794E-3,2.443460980E-3
6.867078540E-1,-3.054326167E-3,-1.221730490E-3,1.221730490E-3
6.887229340E-1,-6.108652451E-4,-1.221730490E-3,-6.108652451E-4
6.907069380E-1,-6.108652451E-4,6.108652451E-4,1.832595794E-3
6.927220940E-1,0.000000000E0,-1.221730490E-3,0.000000000E0
6.947042510E-1,3.054326167E-3,-1.221730490E-3,0.000000000E0
6.967192550E-1,3.665191587E-3,-1.221730490E-3,-6.108652451E-4
6.987017970E-1,3.054326167E-3,-1.221730490E-3,-6.108652451E-4
7.007158780E-1,6.108652335E-3,-6.108652451E-4,-1.832595794E-3
7.027307270E-1,6.108652335E-3,-2.443460980E-3,-6.108652451E-4
7.047137300E-1,7.330383174E-3,-6.108652451E-4,-4.276056774E-3
7.067288110E-1,6.719517522E-3,-3.054326167E-3,-4.886921961E-3
7.087119680E-1,9.162978269E-3,-6.108652335E-3,-4.276056774E-3
7.107252020E-1,9.162978269E-3,-6.719517522E-3,-4.886921961E-3
7.127103590E-1,1.160643995E-2,-6.108652335E-3,-5.497787148E-3
7.147242850E-1,1.160643995E-2,-6.719517522E-3,-6.719517522E-3
7.167075970E-1,1.099557430E-2,-1.038470957E-2,-7.330383174E-3
7.187217540E-1,1.038470957E-2,-1.221730467E-2,-1.038470957E-2
7.207051430E-1,8.552113548E-3,-1.099557430E-2,-7.941247895E-3
7.227202220E-1,1.038470957E-2,-1.282817032E-2,-9.162978269E-3
7.247046100E-1,1.099557430E-2,-1.404990070E-2,-9.162978269E-3
7.267180760E-1,7.941247895E-3,-1.466076635E-2,-8.552113548E-3
7.287009250E-1,9.162978269E-3,-1.832595654E-2,-9.773843922E-3
7.307150060E-1,6.108652335E-3,-1.832595654E-2,-9.162978269E-3
7.327300860E-1,4.886921961E-3,-2.076941915E-2,-9.162978269E-3
7.347128580E-1,4.886921961E-3,-2.260201424E-2,-9.162978269E-3
7.367267850E-1,5.497787148E-3,-2.504547499E-2,-7.941247895E-3
7.387104030E-1,5.497787148E-3,-2.871066704E-2,-7.941247895E-3
7.407245600E-1,3.054326167E-3,-2.932153270E-2,-6.719517522E-3
7.427080260E-1,2.443460980E-3,-2.993239649E-2,-6.719517522E-3
7.447191060E-1,1.832595794E-3,-3.298672289E-2,-6.719517522E-3
7.467058790E-1,1.221730490E-3,-3.481931984E-2,-6.719517522E-3
7.487203430E-1,6.108652451E-4,-3.604105115E-2,-4.886921961E-3
7.507039620E-1,-1.221730490E-3,-3.787364438E-2,-6.719517522E-3
7.527193500E-1,-6.108652451E-4,-3.848451003E-2,-3.054326167E-3
7.547018920E-1,-1.832595794E-3,-4.092797264E-2,-3.054326167E-3
7.567156650E-1,1.221730490E-3,-4.337143153E-2,-1.832595794E-3
7.587304370E-1,-3.665191587E-3,-4.214970022E-2,-3.054326167E-3
7.607145170E-1,-6.108652335E-3,-4.520402849E-2,-1.221730490E-3
7.627282910E-1,-3.665191587E-3,-4.703662544E-2,-2.443460980E-3
7.647126780E-1,-4.886921961E-3,-4.581489414E-2,-1.221730490E-3
7.667258360E-1,-6.108652335E-3,-5.131268129E-2,-2.443460980E-3
7.687096080E-1,-4.886921961E-3,-5.192354694E-2,6.108652451E-4
7.707225340E-1,-5.497787148E-3,-4.948008433E-2,1.221730490E-3
7.727083840E-1,-1.832595794E-3,-5.436700583E-2,1.221730490E-3
7.747221570E-1,-4.276056774E-3,-5.436700583E-2,6.108652451E-4
7.767046220E-1,-4.276056774E-3,-5.619960278E-2,2.443460980E-3
7.787190870E-1,-3.665191587E-3,-5.436700583E-2,3.054326167E-3
7.807031670E-1,-1.832595794E-3,-5.558873713E-2,1.832595794E-3
7.827164020E-1,-3.054326167E-3,-5.436700583E-2,1.832595794E-3
7.847308660E-1,-4.276056774E-3,-5.497787148E-2,3.054326167E-3
7.867160230E-1,-1.832595794E-3,-5.436700583E-2,2.443460980E-3
7.887289500E-1,-1.221730490E-3,-5.253441259E-2,5.497787148E-3
7.907121070E-1,-3.054326167E-3,-4.886921868E-2,4.886921961E-3
7.927278030E-1,-3.054326167E-3,-4.703662544E-2,3.054326167E-3
7.947111910E-1,1.832595794E-3,-4.337143153E-2,1.832595794E-3
7.967240400E-1,4.276056774E-3,-3.909537569E-2,4.276056774E-3
7.987083520E-1,4.276056774E-3,-3.665191308E-2,3.665191587E-3
8.007225850E-1,6.719517522E-3,-2.993239649E-2,4.276056774E-3
8.027059740E-1,1.038470957E-2,-2.199114859E-2,3.665191587E-3
8.047207460E-1,9.162978269E-3,-2.015855350E-2,1.832595794E-3
8.067041340E-1,1.221730467E-2,-1.221730467E-2,6.108652451E-4
8.087173690E-1,1.282817032E-2,-3.665191587E-3,6.108652451E-4
8.107330640E-1,1.527163107E-2,-2.443460980E-3,0.000000000E0
8.127164530E-1,1.893682219E-2,3.054326167E-3,-1.221730490E-3
8.147302250E-1,1.954768784E-2,1.038470957E-2,6.108652451E-4
8.167139970E-1,2.199114859E-2,1.282817032E-2,-6.108652451E-4
8.187280780E-1,2.443460934E-2,1.771509275E-2,-3.665191587E-3
8.207115430E-1,2.443460934E-2,2.138028294E-2,-2.443460980E-3
8.227257000E-1,2.871066704E-2,2.443460934E-2,-4.886921961E-3
8.247087030E-1,2.932153270E-2,2.993239649E-2,-3.054326167E-3
8.267229370E-1,2.932153270E-2,3.176499158E-2,-1.832595794E-3
8.287077870E-1,2.932153270E-2,3.298672289E-2,-2.443460980E-3
8.307213290E-1,3.359758854E-2,3.359758854E-2,-2.443460980E-3
8.327059470E-1,3.176499158E-2,3.481931984E-2,-3.665191587E-3
8.347189510E-1,3.176499158E-2,3.787364438E-2,-2.443460980E-3
8.367026460E-1,3.115412779E-2,3.543018550E-2,-3.054326167E-3
8.387161890E-1,3.176499158E-2,3.481931984E-2,-3.054326167E-3
8.407318070E-1,2.993239649E-2,3.054326214E-2,-3.665191587E-3
8.427148870E-1,2.932153270E-2,2.748893574E-2,-2.443460980E-3
8.447294300E-1,2.809980139E-2,2.626720630E-2,-3.054326167E-3
8.467125100E-1,2.626720630E-2,2.076941915E-2,-4.276056774E-3
8.487272060E-1,2.443460934E-2,1.160643995E-2,-1.221730490E-3
8.507105940E-1,2.382374369E-2,9.773843922E-3,-4.886921961E-3
8.527256740E-1,2.076941915E-2,6.108652335E-3,-2.443460980E-3
8.547081390E-1,2.015855350E-2,4.276056774E-3,-3.665191587E-3
8.567219880E-1,1.649336144E-2,-4.886921961E-3,-2.443460980E-3
8.587059920E-1,1.649336144E-2,-1.099557430E-2,-4.886921961E-3
8.607196110E-1,1.649336144E-2,-1.527163107E-2,-4.886921961E-3
8.627032290E-1,1.099557430E-2,-1.893682219E-2,-4.276056774E-3
8.647180020E-1,9.162978269E-3,-2.871066704E-2,-6.108652335E-3
8.667023900E-1,1.038470957E-2,-3.298672289E-2,-3.665191587E-3
8.687162400E-1,6.108652335E-3,-3.543018550E-2,-4.886921961E-3
8.707291660E-1,4.886921961E-3,-4.092797264E-2,-1.832595794E-3
8.727155540E-1,3.054326167E-3,-4.153883830E-2,-3.054326167E-3
8.747279420E-1,3.054326167E-3,-4.703662544E-2,-1.832595794E-3
8.767112530E-1,1.832595794E-3,-4.703662544E-2,-1.832595794E-3
8.787251020E-1,-6.108652451E-4,-4.825835302E-2,-2.443460980E-3
8.807085680E-1,-4.276056774E-3,-5.009094998E-2,-6.108652451E-4
8.827238780E-1,-6.108652335E-3,-5.192354694E-2,3.054326167E-3
8.847079590E-1,-5.497787148E-3,-5.009094998E-2,3.054326167E-3
8.867211160E-1,-7.330383174E-3,-5.131268129E-2,3.665191587E-3
8.887048120E-1,-7.330383174E-3,-4.886921868E-2,4.886921961E-3
8.907189690E-1,-9.773843922E-3,-4.948008433E-2,6.108652335E-3
8.927032800E-1,-1.160643995E-2,-4.642575979E-2,4.886921961E-3
8.947171300E-1,-1.160643995E-2,-4.398229718E-2,4.886921961E-3
8.967309790E-1,-1.527163107E-2,-4.276056588E-2,6.108652335E-3
8.987149820E-1,-1.343903504E-2,-4.092797264E-2,6.719517522E-3
9.007291400E-1,-1.404990070E-2,-3.909537569E-2,3.665191587E-3
9.027126050E-1,-1.588249579E-2,-3.420845419E-2,6.108652335E-3
9.047227630E-1,-1.282817032E-2,-3.237585723E-2,4.886921961E-3
9.067092270E-1,-1.343903504E-2,-2.748893574E-2,8.552113548E-3
9.087242300E-1,-1.404990070E-2,-2.626720630E-2,7.941247895E-3
9.107076190E-1,-1.343903504E-2,-2.321287990E-2,9.773843922E-3
9.127230830E-1,-1.404990070E-2,-1.954768784E-2,1.038470957E-2
9.147061630E-1,-1.221730467E-2,-1.649336144E-2,9.773843922E-3
9.167199370E-1,-1.343903504E-2,-1.404990070E-2,9.162978269E-3
9.187033240E-1,-1.099557430E-2,-8.552113548E-3,1.038470957E-2
9.207181740E-1,-9.162978269E-3,-5.497787148E-3,1.160643995E-2
9.227009470E-1,-1.038470957E-2,-1.832595794E-3,9.773843922E-3
9.247165650E-1,-1.038470957E-2,-1.221730490E-3,1.038470957E-2
9.267298770E-1,-9.162978269E-3,6.108652335E-3,1.038470957E-2
9.287131870E-1,-7.941247895E-3,5.497787148E-3,9.773843922E-3
9.307289610E-1,-9.773843922E-3,1.160643995E-2,1.160643995E-2
9.327116560E-1,-7.330383174E-3,1.466076635E-2,1.160643995E-2
9.347258130E-1,-9.162978269E-3,1.771509275E-2,1.038470957E-2
9.367092780E-1,-6.719517522E-3,1.954768784E-2,1.038470957E-2
9.387227430E-1,-7.330383174E-3,2.443460934E-2,1.099557430E-2
9.407068240E-1,-6.719517522E-3,2.809980139E-2,1.038470957E-2
9.427209810E-1,-5.497787148E-3,3.115412779E-2,9.773843922E-3
9.447049840E-1,-4.886921961E-3,3.237585723E-2,9.773843922E-3
9.467200650E-1,-3.054326167E-3,3.481931984E-2,8.552113548E-3
9.487030680E-1,-1.221730490E-3,3.665191308E-2,1.038470957E-2
9.507157640E-1,-3.665191587E-3,3.848451003E-2,7.330383174E-3
9.527314590E-1,-6.108652451E-4,3.848451003E-2,4.276056774E-3
9.547148470E-1,-1.221730490E-3,3.970624134E-2,4.886921961E-3
9.567283120E-1,1.832595794E-3,3.848451003E-2,4.276056774E-3
9.587123150E-1,6.108652451E-4,4.092797264E-2,3.054326167E-3
9.607259350E-1,2.443460980E-3,3.970624134E-2,0.000000000E0
9.627099380E-1,3.054326167E-3,3.726277873E-2,-2.443460980E-3
9.647240950E-1,1.221730490E-3,3.604105115E-2,-6.108652451E-4
9.667077910E-1,4.886921961E-3,3.543018550E-2,-3.665191587E-3
9.687224860E-1,6.719517522E-3,3.176499158E-2,-3.054326167E-3
9.707055660E-1,6.108652335E-3,2.932153270E-2,-6.108652335E-3
9.727206470E-1,5.497787148E-3,2.443460934E-2,-5.497787148E-3
9.747034960E-1,6.108652335E-3,2.382374369E-2,-9.162978269E-3
9.767170390E-1,6.719517522E-3,1.771509275E-2,-7.941247895E-3
9.787318110E-1,1.038470957E-2,1.038470957E-2,-1.099557430E-2
9.807151990E-1,1.038470957E-2,8.552113548E-3,-9.773843922E-3
9.827292790E-1,1.282817032E-2,3.665191587E-3,-9.773843922E-3
9.847126670E-1,1.160643995E-2,-6.108652451E-4,-1.099557430E-2
9.867269020E-1,1.282817032E-2,-8.552113548E-3,-1.160643995E-2
9.887105200E-1,1.160643995E-2,-1.466076635E-2,-1.282817032E-2
9.907250620E-1,1.038470957E-2,-1.771509275E-2,-1.282817032E-2
9.927102200E-1,1.099557430E-2,-2.748893574E-2,-1.343903504E-2
9.947229150E-1,1.466076635E-2,-3.604105115E-2,-1.466076635E-2
9.967069190E-1,1.282817032E-2,-3.970624134E-2,-1.710422710E-2
9.987200760E-1,1.527163107E-2,-4.703662544E-2,-1.404990070E-2
1.000704156E0,1.343903504E-2,-5.497787148E-2,-1.466076635E-2
1.002718006E0,1.221730467E-2,-5.619960278E-2,-1.588249579E-2
1.004733701E0,1.221730467E-2,-6.169738993E-2,-1.221730467E-2
1.006716474E0,1.282817032E-2,-6.658431143E-2,-1.527163107E-2
1.008730862E0,1.221730467E-2,-7.086037099E-2,-1.221730467E-2
1.010714557E0,1.038470957E-2,-7.391469181E-2,-1.221730467E-2
1.012728715E0,1.038470957E-2,-8.124507964E-2,-1.221730467E-2
1.014711795E0,9.773843922E-3,-8.246681094E-2,-1.404990070E-2
1.016726644E0,7.941247895E-3,-8.491026610E-2,-1.282817032E-2
1.018709417E0,1.099557430E-2,-8.918632567E-2,-1.343903504E-2
1.020723805E0,9.773843922E-3,-9.346238524E-2,-1.404990070E-2
1.022707501E0,9.773843922E-3,-9.712757170E-2,-1.343903504E-2
1.024720812E0,7.330383174E-3,-9.773843735E-2,-1.221730467E-2
1.026706661E0,6.108652335E-3,-1.001819000E-1,-1.160643995E-2
1.028720204E0,4.886921961E-3,-1.050688252E-1,-1.038470957E-2
1.030702899E0,3.665191587E-3,-1.056796908E-1,-1.099557430E-2
1.032718903E0,1.832595794E-3,-1.069014147E-1,-9.773843922E-3
1.034701675E0,6.108652451E-4,-1.117883399E-1,-8.552113548E-3
1.036714678E0,-1.221730490E-3,-1.099557430E-1,-9.773843922E-3
1.038729452E0,-2.443460980E-3,-1.136209369E-1,-9.162978269E-3
1.040712839E0,-4.276056774E-3,-1.142318025E-1,-1.099557430E-2
1.042727612E0,-3.665191587E-3,-1.178969890E-1,-9.162978269E-3
1.044710385E0,-3.054326167E-3,-1.154535338E-1,-1.221730467E-2
1.046726080E0,-3.665191587E-3,-1.166752651E-1,-1.099557430E-2
1.048708545E0,-4.886921961E-3,-1.166752651E-1,-1.221730467E-2
1.050722933E0,-2.443460980E-3,-1.130100712E-1,-1.099557430E-2
1.052706705E0,-4.886921961E-3,-1.111774743E-1,-1.099557430E-2
1.054720479E0,-4.276056774E-3,-1.056796908E-1,-1.221730467E-2
1.056704251E0,-3.054326167E-3,-1.020144969E-1,-1.038470957E-2
1.058718639E0,-3.665191587E-3,-9.957103431E-2,-1.099557430E-2
1.060701796E0,-3.054326167E-3,-9.712757170E-2,-8.552113548E-3
1.062715953E0,-4.276056774E-3,-9.040805697E-2,-9.162978269E-3
1.064730034E0,-4.886921961E-3,-8.796459436E-2,-7.330383174E-3
1.066715345E0,-4.276056774E-3,-7.880161703E-2,-7.941247895E-3
1.068728195E0,-4.886921961E-3,-7.269296050E-2,-7.941247895E-3
1.070711352E0,-3.665191587E-3,-6.841690838E-2,-6.719517522E-3
1.072727355E0,-3.665191587E-3,-5.925392732E-2,-6.719517522E-3
1.074709513E0,-1.832595794E-3,-4.886921868E-2,-4.886921961E-3
1.076723669E0,-2.443460980E-3,-4.703662544E-2,-1.832595794E-3
1.078707366E0,-1.832595794E-3,-3.848451003E-2,-3.054326167E-3
1.080721446E0,-1.221730490E-3,-3.481931984E-2,-6.108652451E-4
1.082705833E0,-1.221730490E-3,-2.626720630E-2,-4.276056774E-3
1.084720222E0,-6.108652451E-4,-1.771509275E-2,6.108652451E-4
1.086703686E0,6.108652451E-4,-1.282817032E-2,0.000000000E0
1.088717229E0,1.832595794E-3,-4.886921961E-3,1.221730490E-3
1.090731617E0,1.221730490E-3,4.276056774E-3,1.832595794E-3
1.092715312E0,1.832595794E-3,6.108652335E-3,1.221730490E-3
1.094728931E0,3.665191587E-3,1.649336144E-2,2.443460980E-3
1.096712627E0,4.886921961E-3,2.015855350E-2,3.665191587E-3
1.098727015E0,1.832595794E-3,2.321287990E-2,3.054326167E-3
1.100710403E0,3.665191587E-3,3.115412779E-2,4.276056774E-3
1.102724944E0,4.886921961E-3,3.665191308E-2,4.886921961E-3
1.104707948E0,4.886921961E-3,3.848451003E-2,3.665191587E-3
1.106724259E0,4.276056774E-3,4.398229718E-2,3.665191587E-3
1.108707724E0,4.276056774E-3,4.886921868E-2,6.108652335E-3
1.110720266E0,1.832595794E-3,5.131268129E-2,4.886921961E-3
1.112705269E0,3.665191587E-3,5.253441259E-2,7.330383174E-3
1.114718196E0,3.665191587E-3,5.742133409E-2,3.665191587E-3
1.116731968E0,3.054326167E-3,5.742133409E-2,5.497787148E-3
1.118716279E0,2.443460980E-3,5.986479297E-2,6.108652335E-3
1.120730437E0,1.221730490E-3,5.986479297E-2,6.108652335E-3
1.122714132E0,1.221730490E-3,5.925392732E-2,6.719517522E-3
1.124728905E0,6.108652451E-4,5.986479297E-2,8.552113548E-3
1.126712062E0,1.221730490E-3,6.169738993E-2,6.719517522E-3
1.128726219E0,-1.221730490E-3,6.169738993E-2,5.497787148E-3
1.130709531E0,3.054326167E-3,6.108652428E-2,6.719517522E-3
1.132724072E0,3.054326167E-3,5.986479297E-2,6.719517522E-3
1.134707692E0,1.221730490E-3,6.108652428E-2,7.330383174E-3
1.136721925E0,1.221730490E-3,6.108652428E-2,7.941247895E-3
1.138705313E0,1.832595794E-3,5.803219974E-2,6.719517522E-3
1.140719471E0,0.000000000E0,5.864306539E-2,8.552113548E-3
1.142703089E0,2.443460980E-3,6.108652428E-2,7.941247895E-3
1.144716323E0,1.221730490E-3,5.314527452E-2,8.552113548E-3
1.146731481E0,6.108652451E-4,5.192354694E-2,9.773843922E-3
1.148715484E0,6.108652451E-4,5.192354694E-2,8.552113548E-3
1.150729565E0,0.000000000E0,4.825835302E-2,9.773843922E-3
1.152713337E0,0.000000000E0,4.642575979E-2,7.941247895E-3
1.154727186E0,-1.221730490E-3,4.642575979E-2,6.719517522E-3
1.156710498E0,6.108652451E-4,4.276056588E-2,8.552113548E-3
1.158725039E0,-6.108652451E-4,3.848451003E-2,6.719517522E-3
1.160708659E0,-1.221730490E-3,3.481931984E-2,6.719517522E-3
1.162722585E0,-2.443460980E-3,2.871066704E-2,6.719517522E-3
1.164706203E0,-3.665191587E-3,2.321287990E-2,7.330383174E-3
1.166720438E0,-4.886921961E-3,2.015855350E-2,4.886921961E-3
1.168703826E0,-5.497787148E-3,1.649336144E-2,5.497787148E-3
1.170718522E0,-3.665191587E-3,1.099557430E-2,6.108652335E-3
1.172702833E0,-1.221730490E-3,8.552113548E-3,6.719517522E-3
1.174716451E0,-4.886921961E-3,3.054326167E-3,2.443460980E-3
1.176729686E0,-5.497787148E-3,2.443460980E-3,3.665191587E-3
1.178714227E0,-3.665191587E-3,-3.054326167E-3,1.221730490E-3
1.180728385E0,-4.886921961E-3,-7.941247895E-3,6.108652451E-4
1.182711157E0,-3.665191587E-3,-6.719517522E-3,6.108652451E-4
1.184724776E0,-6.719517522E-3,-9.162978269E-3,1.221730490E-3
1.186710549E0,-3.665191587E-3,-1.466076635E-2,-6.108652451E-4
1.188723783E0,-5.497787148E-3,-1.282817032E-2,2.443460980E-3
1.190706863E0,-3.665191587E-3,-1.343903504E-2,0.000000000E0
1.192722636E0,-4.276056774E-3,-1.343903504E-2,1.221730490E-3
1.194705100E0,-3.665191587E-3,-1.343903504E-2,1.832595794E-3
1.196719797E0,-3.054326167E-3,-1.282817032E-2,6.108652451E-4
1.198702569E0,-2.443460980E-3,-1.527163107E-2,0.000000000E0
1.200717034E0,-3.054326167E-3,-1.404990070E-2,-6.108652451E-4
1.202730576E0,-1.832595794E-3,-1.343903504E-2,1.832595794E-3
1.204714964E0,-1.832595794E-3,-1.466076635E-2,0.000000000E0
1.206729045E0,-1.832595794E-3,-1.404990070E-2,-1.221730490E-3
1.208712817E0,-1.832595794E-3,-1.527163107E-2,-2.443460980E-3
1.210726897E0,-6.108652451E-4,-1.282817032E-2,-3.665191587E-3
1.212711285E0,-1.221730490E-3,-1.221730467E-2,-3.665191587E-3
1.214723904E0,-6.108652451E-4,-1.099557430E-2,-2.443460980E-3
1.216707600E0,-6.108652451E-4,-1.038470957E-2,-1.832595794E-3
1.218722295E0,-1.832595794E-3,-9.773843922E-3,-2.443460980E-3
1.220706606E0,-6.108652451E-4,-1.221730467E-2,-2.443460980E-3
1.222719610E0,1.221730490E-3,-1.099557430E-2,-4.886921961E-3
1.224703305E0,-6.108652451E-4,-1.221730467E-2,-4.886921961E-3
1.226716848E0,-1.221730490E-3,-1.099557430E-2,-3.665191587E-3
1.228732774E0,-1.832595794E-3,-1.038470957E-2,-4.886921961E-3
1.230715239E0,-2.443460980E-3,-1.099557430E-2,-3.054326167E-3
1.232730627E0,-1.832595794E-3,-9.162978269E-3,-2.443460980E-3
1.234712861E0,-1.832595794E-3,-1.038470957E-2,-1.832595794E-3
1.236727865E0,-1.221730490E-3,-1.099557430E-2,-1.221730490E-3
1.238711560E0,-3.054326167E-3,-9.773843922E-3,-1.221730490E-3
1.240725717E0,-1.221730490E-3,-1.099557430E-2,-1.221730490E-3
1.242708798E0,-4.276056774E-3,-1.160643995E-2,-1.221730490E-3
1.244723570E0,-5.497787148E-3,-1.160643995E-2,-2.443460980E-3
1.246707035E0,-6.108652335E-3,-7.941247895E-3,-6.108652451E-4
1.248721731E0,-3.665191587E-3,-9.162978269E-3,6.108652451E-4
1.250705119E0,-4.276056774E-3,-7.330383174E-3,0.000000000E0
1.252719584E0,-6.719517522E-3,-6.108652335E-3,-1.832595794E-3
1.254703049E0,-6.719517522E-3,-4.276056774E-3,-6.108652451E-4
1.256716590E0,-6.719517522E-3,-4.886921961E-3,-1.221730490E-3
1.258731056E0,-4.886921961E-3,-4.276056774E-3,-2.443460980E-3
1.260714443E0,-5.497787148E-3,0.000000000E0,-3.665191587E-3
1.262728601E0,-4.886921961E-3,-1.221730490E-3,-1.832595794E-3
1.264711912E0,-6.108652335E-3,3.054326167E-3,-1.832595794E-3
1.266727377E0,-6.108652335E-3,3.665191587E-3,-1.832595794E-3
1.268711381E0,-7.941247895E-3,6.108652335E-3,6.108652451E-4
1.270723922E0,-5.497787148E-3,7.941247895E-3,-6.108652451E-4
1.272708926E0,-6.719517522E-3,7.941247895E-3,6.108652451E-4
1.274722391E0,-4.886921961E-3,7.330383174E-3,6.108652451E-4
1.276705855E0,-6.719517522E-3,1.282817032E-2,2.443460980E-3
1.278719705E0,-6.108652335E-3,1.221730467E-2,1.221730490E-3
1.280703708E0,-4.886921961E-3,1.343903504E-2,2.443460980E-3
1.282717788E0,-6.719517522E-3,1.466076635E-2,2.443460980E-3
1.284732638E0,-4.276056774E-3,1.588249579E-2,3.054326167E-3
1.286716334E0,-6.108652335E-3,1.649336144E-2,3.054326167E-3
1.288729876E0,-6.719517522E-3,1.832595654E-2,4.886921961E-3
1.290713571E0,-3.665191587E-3,1.893682219E-2,4.276056774E-3
1.292728036E0,-4.276056774E-3,2.199114859E-2,5.497787148E-3
1.294711732E0,-5.497787148E-3,2.748893574E-2,5.497787148E-3
1.296725197E0,-4.276056774E-3,2.687807009E-2,3.665191587E-3
1.298708585E0,-4.886921961E-3,2.932153270E-2,4.886921961E-3
1.300723665E0,-4.886921961E-3,3.176499158E-2,4.276056774E-3
1.302706515E0,-3.054326167E-3,3.359758854E-2,4.276056774E-3
1.304718134E0,-7.941247895E-3,3.787364438E-2,6.108652335E-3
1.306734829E0,-6.719517522E-3,3.909537569E-2,6.108652335E-3
1.308719756E0,-7.941247895E-3,3.787364438E-2,4.276056774E-3
1.310702221E0,-9.162978269E-3,4.214970022E-2,4.276056774E-3
1.312717916E0,-1.038470957E-2,4.337143153E-2,4.276056774E-3
1.314731382E0,-1.282817032E-2,4.642575979E-2,4.886921961E-3
1.316714154E0,-1.282817032E-2,4.886921868E-2,9.162978269E-3
1.318728389E0,-1.588249579E-2,5.070181563E-2,5.497787148E-3
1.320712007E0,-1.649336144E-2,5.375614017E-2,5.497787148E-3
1.322726856E0,-2.138028294E-2,5.558873713E-2,6.108652335E-3
1.324711091E0,-2.015855350E-2,5.558873713E-2,7.941247895E-3
1.326725017E0,-2.076941915E-2,5.558873713E-2,5.497787148E-3
1.328707712E0,-2.199114859E-2,5.864306539E-2,9.162978269E-3
1.330722178E0,-2.504547499E-2,5.925392732E-2,6.719517522E-3
1.332706796E0,-2.626720630E-2,6.230825558E-2,7.330383174E-3
1.334720031E0,-2.565634064E-2,6.475171447E-2,6.108652335E-3
1.336703726E0,-2.809980139E-2,6.597344577E-2,5.497787148E-3
1.338717883E0,-2.871066704E-2,6.780604273E-2,4.276056774E-3
1.340731503E0,-3.115412779E-2,7.024950534E-2,6.108652335E-3
1.342716121E0,-3.115412779E-2,7.147123665E-2,4.886921961E-3
1.344728971E0,-3.176499158E-2,7.208210230E-2,4.886921961E-3
1.346714513E0,-3.115412779E-2,7.330382615E-2,3.665191587E-3
1.348728131E0,-3.298672289E-2,7.635815442E-2,3.054326167E-3
1.350710827E0,-3.115412779E-2,7.880161703E-2,3.054326167E-3
1.352726523E0,-3.054326214E-2,8.124507964E-2,3.665191587E-3
1.354709065E0,-3.115412779E-2,8.124507964E-2,4.276056774E-3
1.356723222E0,-2.871066704E-2,8.185594529E-2,1.221730490E-3
1.358706917E0,-2.687807009E-2,8.307767659E-2,1.221730490E-3
1.360720460E0,-2.565634064E-2,8.124507964E-2,-1.832595794E-3
1.362704463E0,-2.687807009E-2,8.307767659E-2,-2.443460980E-3
1.364719544E0,-2.565634064E-2,8.246681094E-2,-2.443460980E-3
1.366702547E0,-2.504547499E-2,8.429940045E-2,-1.832595794E-3
1.368716396E0,-2.321287990E-2,8.246681094E-2,-3.054326167E-3
1.370730554E0,-2.138028294E-2,8.307767659E-2,-5.497787148E-3
1.372714941E0,-2.076941915E-2,8.185594529E-2,-3.054326167E-3
1.374729638E0,-1.771509275E-2,8.307767659E-2,-6.108652335E-3
1.376711795E0,-1.771509275E-2,8.368854225E-2,-4.276056774E-3
1.378726336E0,-1.893682219E-2,8.552113175E-2,-6.108652335E-3
1.380709340E0,-1.588249579E-2,8.307767659E-2,-4.276056774E-3
1.382724189E0,-1.649336144E-2,8.246681094E-2,-4.886921961E-3
1.384707192E0,-1.343903504E-2,8.185594529E-2,-5.497787148E-3
1.386721350E0,-1.404990070E-2,8.002334833E-2,-5.497787148E-3
1.388705968E0,-1.343903504E-2,7.880161703E-2,-4.886921961E-3
1.390720203E0,-1.038470957E-2,7.757988572E-2,-2.443460980E-3
1.392704129E0,-9.773843922E-3,7.513642311E-2,-4.886921961E-3
1.394717671E0,-1.160643995E-2,6.902777404E-2,-4.276056774E-3
1.396731521E0,-9.773843922E-3,7.086037099E-2,-1.221730490E-3
1.398715216E0,-8.552113548E-3,6.963863969E-2,-2.443460980E-3
1.400729682E0,-9.773843922E-3,6.597344577E-2,-2.443460980E-3
1.402713146E0,-1.038470957E-2,6.352998316E-2,-1.832595794E-3
1.404727842E0,-1.038470957E-2,6.352998316E-2,6.108652451E-4
1.406711230E0,-1.160643995E-2,5.864306539E-2,6.108652451E-4
1.408725464E0,-1.221730467E-2,5.803219974E-2,3.054326167E-3
1.410709083E0,-1.221730467E-2,5.864306539E-2,4.886921961E-3
1.412723933E0,-1.404990070E-2,5.742133409E-2,4.276056774E-3
1.414706397E0,-1.343903504E-2,5.375614017E-2,6.719517522E-3
1.416720555E0,-1.588249579E-2,5.314527452E-2,9.162978269E-3
1.418705096E0,-1.771509275E-2,5.131268129E-2,9.162978269E-3
1.420718407E0,-1.771509275E-2,5.070181563E-2,9.162978269E-3
1.422732488E0,-1.954768784E-2,4.948008433E-2,8.552113548E-3
1.424715645E0,-1.954768784E-2,4.764748737E-2,1.221730467E-2
1.426731264E0,-2.260201424E-2,4.703662544E-2,1.099557430E-2
1.428714421E0,-2.382374369E-2,4.459316283E-2,1.343903504E-2
1.430727886E0,-2.626720630E-2,4.642575979E-2,1.466076635E-2
1.432712813E0,-2.565634064E-2,4.459316283E-2,1.282817032E-2
1.434726662E0,-3.115412779E-2,4.337143153E-2,1.771509275E-2
1.436710051E0,-3.054326214E-2,4.276056588E-2,1.649336144E-2
1.438724207E0,-3.237585723E-2,4.214970022E-2,1.527163107E-2
1.440708518E0,-3.237585723E-2,4.214970022E-2,1.832595654E-2
1.442721445E0,-3.237585723E-2,4.214970022E-2,1.771509275E-2
1.444706371E0,-3.359758854E-2,4.337143153E-2,1.588249579E-2
1.446719606E0,-3.298672289E-2,4.214970022E-2,1.771509275E-2
1.448703378E0,-3.481931984E-2,4.337143153E-2,1.588249579E-2
1.450717227E0,-3.481931984E-2,4.337143153E-2,1.221730467E-2
1.452732616E0,-3.298672289E-2,4.214970022E-2,1.588249579E-2
1.454716004E0,-3.420845419E-2,3.970624134E-2,1.466076635E-2
1.456729162E0,-3.359758854E-2,3.970624134E-2,1.282817032E-2
1.458712934E0,-3.298672289E-2,4.276056588E-2,1.343903504E-2
1.460727398E0,-3.359758854E-2,4.153883830E-2,1.099557430E-2
1.462710710E0,-2.932153270E-2,4.153883830E-2,1.282817032E-2
1.464721251E0,-2.748893574E-2,4.459316283E-2,1.160643995E-2
1.466708639E0,-2.932153270E-2,4.398229718E-2,9.162978269E-3
1.468722105E0,-2.565634064E-2,4.520402849E-2,6.719517522E-3
1.470706415E0,-2.626720630E-2,4.581489414E-2,8.552113548E-3
1.472721804E0,-2.199114859E-2,4.642575979E-2,3.665191587E-3
1.474704961E0,-2.076941915E-2,4.825835302E-2,3.665191587E-3
1.476718195E0,-2.138028294E-2,4.825835302E-2,1.832595794E-3
1.478732583E0,-1.771509275E-2,4.642575979E-2,6.108652451E-4
1.480716355E0,-1.588249579E-2,4.825835302E-2,0.000000000E0
1.482730821E0,-1.404990070E-2,4.703662544E-2,-3.054326167E-3
1.484714747E0,-1.282817032E-2,4.520402849E-2,-3.054326167E-3
1.486728596E0,-1.099557430E-2,4.459316283E-2,-4.886921961E-3
1.488711754E0,-9.773843922E-3,4.276056588E-2,-7.330383174E-3
1.490725911E0,-8.552113548E-3,4.092797264E-2,-7.941247895E-3
1.492709915E0,-6.108652335E-3,3.909537569E-2,-8.552113548E-3
1.494723764E0,-5.497787148E-3,3.665191308E-2,-1.099557430E-2
1.496707998E0,-1.221730490E-3,3.359758854E-2,-8.552113548E-3
1.498721540E0,-1.832595794E-3,2.626720630E-2,-1.038470957E-2
1.500705543E0,-6.108652451E-4,2.565634064E-2,-9.773843922E-3
1.502719393E0,-6.108652451E-4,2.015855350E-2,-8.552113548E-3
1.504702781E0,-1.221730490E-3,1.954768784E-2,-9.773843922E-3
1.506717938E0,1.221730490E-3,1.466076635E-2,-7.941247895E-3
1.508732096E0,0.000000000E0,1.160643995E-2,-6.108652335E-3
1.510713945E0,0.000000000E0,1.038470957E-2,-7.330383174E-3
1.512729948E0,0.000000000E0,3.665191587E-3,-7.330383174E-3
1.514713029E0,6.108652451E-4,-2.443460980E-3,-6.719517522E-3
1.516726801E0,-6.108652451E-4,-1.832595794E-3,-5.497787148E-3
1.518710190E0,-1.221730490E-3,-7.941247895E-3,-4.276056774E-3
1.520724654E0,-1.221730490E-3,-1.404990070E-2,-2.443460980E-3
1.522708427E0,-2.443460980E-3,-1.343903504E-2,-3.054326167E-3
1.524722584E0,-4.276056774E-3,-1.771509275E-2,-6.108652451E-4
1.526707434E0,-6.108652335E-3,-2.076941915E-2,-1.832595794E-3
1.528720438E0,-4.276056774E-3,-2.443460934E-2,-3.665191587E-3
1.530704133E0,-5.497787148E-3,-2.932153270E-2,-1.832595794E-3
1.532718597E0,-9.162978269E-3,-3.237585723E-2,-3.665191587E-3
1.534732448E0,-1.099557430E-2,-3.543018550E-2,-3.054326167E-3
1.536716143E0,-1.099557430E-2,-3.848451003E-2,-1.832595794E-3
1.538730301E0,-1.160643995E-2,-3.970624134E-2,-1.221730490E-3
1.540713996E0,-1.282817032E-2,-4.337143153E-2,-3.054326167E-3
1.542727845E0,-1.527163107E-2,-4.398229718E-2,-4.276056774E-3
1.544711465E0,-1.466076635E-2,-4.459316283E-2,-4.276056774E-3
1.546725698E0,-1.527163107E-2,-4.703662544E-2,-3.665191587E-3
1.548710241E0,-1.771509275E-2,-4.948008433E-2,-6.108652451E-4
1.550723552E0,-1.771509275E-2,-5.070181563E-2,-1.832595794E-3
1.552708170E0,-2.015855350E-2,-4.886921868E-2,-6.108652451E-4
1.554722020E0,-1.954768784E-2,-5.192354694E-2,-6.108652451E-4
1.556705331E0,-1.954768784E-2,-5.009094998E-2,1.221730490E-3
1.558719257E0,-2.076941915E-2,-5.009094998E-2,2.443460980E-3
1.560702876E0,-1.771509275E-2,-4.825835302E-2,1.221730490E-3
1.562717418E0,-2.076941915E-2,-4.642575979E-2,3.054326167E-3
1.564732191E0,-1.832595654E-2,-4.214970022E-2,5.497787148E-3
1.566715579E0,-1.832595654E-2,-4.153883830E-2,3.665191587E-3
1.568729043E0,-1.954768784E-2,-3.787364438E-2,3.665191587E-3
1.570712816E0,-1.649336144E-2,-3.298672289E-2,4.276056774E-3
1.572727896E0,-1.771509275E-2,-2.993239649E-2,3.665191587E-3
1.574711285E0,-1.588249579E-2,-2.748893574E-2,3.054326167E-3
1.576725134E0,-1.527163107E-2,-2.076941915E-2,3.054326167E-3
1.578709060E0,-1.099557430E-2,-2.015855350E-2,2.443460980E-3
1.580722603E0,-1.343903504E-2,-1.221730467E-2,3.054326167E-3
1.582706375E0,-1.099557430E-2,-6.719517522E-3,3.054326167E-3
1.584720148E0,-1.099557430E-2,-3.054326167E-3,1.221730490E-3
1.586705074E0,-7.330383174E-3,4.276056774E-3,1.221730490E-3
1.588719231E0,-4.886921961E-3,1.099557430E-2,2.443460980E-3
1.590700773E0,-5.497787148E-3,1.343903504E-2,2.443460980E-3
1.592716853E0,-4.276056774E-3,1.954768784E-2,1.221730490E-3
1.594730088E0,-3.665191587E-3,2.626720630E-2,2.443460980E-3
1.596713707E0,-1.832595794E-3,2.993239649E-2,3.665191587E-3
1.598727863E0,0.000000000E0,3.543018550E-2,6.108652451E-4
1.600710944E0,-1.221730490E-3,4.092797264E-2,3.054326167E-3
1.602725717E0,6.108652451E-4,4.398229718E-2,6.108652335E-3
1.604710104E0,1.832595794E-3,5.070181563E-2,4.276056774E-3
1.606723647E0,3.054326167E-3,5.253441259E-2,5.497787148E-3
1.608707034E0,2.443460980E-3,5.436700583E-2,4.276056774E-3
1.610721807E0,2.443460980E-3,5.925392732E-2,4.886921961E-3
1.612705734E0,4.276056774E-3,6.047565863E-2,4.276056774E-3
1.614719890E0,4.276056774E-3,6.536258012E-2,1.221730490E-3
1.616702741E0,6.108652335E-3,6.536258012E-2,4.276056774E-3
1.618717128E0,7.330383174E-3,6.597344577E-2,5.497787148E-3
1.620731286E0,6.719517522E-3,6.658431143E-2,3.054326167E-3
1.622714674E0,6.108652335E-3,6.719517708E-2,6.108652335E-3
1.624725138E0,4.276056774E-3,6.780604273E-2,3.665191587E-3
1.626712219E0,7.330383174E-3,6.230825558E-2,3.665191587E-3
1.628726991E0,6.108652335E-3,6.230825558E-2,4.276056774E-3
1.630710457E0,6.719517522E-3,6.475171447E-2,3.665191587E-3
1.632725460E0,7.330383174E-3,5.925392732E-2,4.276056774E-3
1.634708617E0,4.886921961E-3,5.742133409E-2,3.054326167E-3
1.636722467E0,7.330383174E-3,5.375614017E-2,2.443460980E-3
1.638705239E0,7.941247895E-3,4.825835302E-2,2.443460980E-3
1.640720012E0,6.719517522E-3,4.337143153E-2,3.054326167E-3
1.642703938E0,6.719517522E-3,3.726277873E-2,6.108652451E-4
1.644718711E0,6.108652335E-3,2.871066704E-2,1.221730490E-3
1.646732869E0,6.719517522E-3,2.321287990E-2,3.054326167E-3
1.648716333E0,7.941247895E-3,1.893682219E-2,1.221730490E-3
1.650730490E0,4.886921961E-3,1.221730467E-2,-2.443460980E-3
1.652714725E0,4.886921961E-3,9.162978269E-3,-1.832595794E-3
1.654728266E0,4.276056774E-3,1.221730490E-3,-1.221730490E-3
1.656711655E0,6.108652335E-3,-5.497787148E-3,0.000000000E0
1.658725812E0,5.497787148E-3,-9.773843922E-3,-1.832595794E-3
1.660709276E0,4.276056774E-3,-1.649336144E-2,-1.832595794E-3
1.662723126E0,3.665191587E-3,-2.138028294E-2,-2.443460980E-3
1.664706437E0,3.665191587E-3,-2.504547499E-2,-4.276056774E-3
1.666722441E0,3.054326167E-3,-3.298672289E-2,-3.054326167E-3
1.668705521E0,2.443460980E-3,-3.543018550E-2,-3.665191587E-3
1.670718447E0,1.221730490E-3,-3.970624134E-2,-3.665191587E-3
1.672733913E0,-1.832595794E-3,-4.459316283E-2,-6.108652335E-3
1.674717300E0,-1.832595794E-3,-4.703662544E-2,-4.886921961E-3
1.676730843E0,-1.832595794E-3,-5.131268129E-2,-5.497787148E-3
1.678714461E0,-2.443460980E-3,-5.375614017E-2,-9.162978269E-3
1.680728618E0,-1.221730490E-3,-5.619960278E-2,-6.108652335E-3
1.682712391E0,-1.221730490E-3,-5.864306539E-2,-6.719517522E-3
1.684726856E0,-4.276056774E-3,-6.108652428E-2,-6.108652335E-3
1.686710243E0,-4.276056774E-3,-6.108652428E-2,-6.108652335E-3
1.688724094E0,-4.886921961E-3,-5.986479297E-2,-9.162978269E-3
1.690707712E0,-6.108652335E-3,-6.108652428E-2,-4.886921961E-3
1.692722870E0,-4.276056774E-3,-5.925392732E-2,-6.719517522E-3
1.694706257E0,-4.276056774E-3,-5.681046844E-2,-4.276056774E-3
1.696719799E0,-3.665191587E-3,-5.803219974E-2,-5.497787148E-3
1.698703803E0,-2.443460980E-3,-5.681046844E-2,-5.497787148E-3
1.700719190E0,-4.276056774E-3,-5.436700583E-2,-4.886921961E-3
1.702731733E0,-1.221730490E-3,-5.497787148E-2,-5.497787148E-3
1.704715121E0,0.000000000E0,-5.497787148E-2,-3.665191587E-3
1.706729585E0,3.054326167E-3,-5.131268129E-2,-4.276056774E-3
1.708714820E0,0.000000000E0,-4.948008433E-2,-4.276056774E-3
1.710727823E0,1.221730490E-3,-4.703662544E-2,-4.276056774E-3
1.712712442E0,3.054326167E-3,-4.276056588E-2,-4.886921961E-3
1.714725599E0,6.108652335E-3,-4.214970022E-2,-5.497787148E-3
1.716708756E0,7.941247895E-3,-3.787364438E-2,-6.108652335E-3
1.718723452E0,7.941247895E-3,-3.237585723E-2,-6.719517522E-3
1.720706917E0,8.552113548E-3,-3.237585723E-2,-6.719517522E-3
1.722720459E0,8.552113548E-3,-2.809980139E-2,-2.443460980E-3
1.724705308E0,1.282817032E-2,-2.626720630E-2,-3.665191587E-3
1.726718850E0,9.773843922E-3,-2.138028294E-2,-5.497787148E-3
1.728733008E0,1.099557430E-2,-1.649336144E-2,-1.832595794E-3
1.730717318E0,1.221730467E-2,-1.832595654E-2,-4.886921961E-3
1.732731553E0,1.343903504E-2,-1.160643995E-2,-2.443460980E-3
1.734714556E0,1.404990070E-2,-1.038470957E-2,-2.443460980E-3
1.736728482E0,1.466076635E-2,-1.038470957E-2,-3.054326167E-3
1.738712409E0,1.527163107E-2,-6.719517522E-3,-3.665191587E-3
1.740726259E0,1.588249579E-2,-6.108652335E-3,-1.832595794E-3
1.742710262E0,1.527163107E-2,-3.665191587E-3,-3.665191587E-3
1.744723804E0,1.527163107E-2,-4.276056774E-3,-1.832595794E-3
1.746708730E0,1.527163107E-2,-4.276056774E-3,-4.276056774E-3
1.748722350E0,1.466076635E-2,-3.054326167E-3,-3.054326167E-3
1.750704814E0,1.527163107E-2,-2.443460980E-3,-3.054326167E-3
1.752720509E0,1.404990070E-2,-1.832595794E-3,-5.497787148E-3
1.754703590E0,1.466076635E-2,-3.665191587E-3,-4.886921961E-3
1.756717747E0,1.404990070E-2,-5.497787148E-3,-3.665191587E-3
1.758731597E0,1.282817032E-2,-7.941247895E-3,-5.497787148E-3
1.760714985E0,1.343903504E-2,-7.330383174E-3,-6.719517522E-3
1.762729373E0,1.221730467E-2,-7.330383174E-3,-5.497787148E-3
1.764713761E0,1.221730467E-2,-9.773843922E-3,-5.497787148E-3
1.766727841E0,1.221730467E-2,-1.038470957E-2,-5.497787148E-3
1.768710384E0,1.343903504E-2,-1.099557430E-2,-6.108652335E-3
1.770724848E0,1.221730467E-2,-1.466076635E-2,-5.497787148E-3
1.772710313E0,1.221730467E-2,-1.282817032E-2,-6.108652335E-3
1.774723317E0,1.221730467E-2,-1.527163107E-2,-3.054326167E-3
1.776706704E0,1.160643995E-2,-1.649336144E-2,-6.108652335E-3
1.778721093E0,1.282817032E-2,-1.954768784E-2,-7.330383174E-3
1.780704481E0,1.038470957E-2,-2.015855350E-2,-7.330383174E-3
1.782718945E0,9.773843922E-3,-2.076941915E-2,-6.108652335E-3
1.784731949E0,1.160643995E-2,-2.076941915E-2,-6.719517522E-3
1.786716798E0,1.038470957E-2,-2.626720630E-2,-8.552113548E-3
1.788731878E0,9.162978269E-3,-2.565634064E-2,-7.941247895E-3
1.790714728E0,9.162978269E-3,-2.748893574E-2,-7.941247895E-3
1.792728885E0,9.162978269E-3,-2.993239649E-2,-8.552113548E-3
1.794712581E0,1.099557430E-2,-3.298672289E-2,-4.886921961E-3
1.796726431E0,8.552113548E-3,-3.420845419E-2,-9.162978269E-3
1.798710049E0,9.162978269E-3,-3.604105115E-2,-8.552113548E-3
1.800723899E0,1.038470957E-2,-3.787364438E-2,-1.221730467E-2
1.802707594E0,7.941247895E-3,-4.214970022E-2,-1.099557430E-2
1.804723060E0,1.038470957E-2,-4.581489414E-2,-9.162978269E-3
1.806705832E0,9.162978269E-3,-4.581489414E-2,-1.099557430E-2
1.808720220E0,9.162978269E-3,-4.948008433E-2,-1.038470957E-2
1.810702993E0,9.773843922E-3,-4.825835302E-2,-1.282817032E-2
1.812717458E0,9.162978269E-3,-5.314527452E-2,-1.099557430E-2
1.814730769E0,9.162978269E-3,-5.803219974E-2,-1.221730467E-2
1.816715080E0,8.552113548E-3,-5.864306539E-2,-1.221730467E-2
1.818729468E0,9.162978269E-3,-6.108652428E-2,-1.343903504E-2
1.820713241E0,9.773843922E-3,-6.658431143E-2,-1.404990070E-2
1.822726475E0,8.552113548E-3,-6.597344577E-2,-1.466076635E-2
1.824710785E0,1.099557430E-2,-7.086037099E-2,-1.343903504E-2
1.826726174E0,7.330383174E-3,-7.208210230E-2,-1.466076635E-2
1.828709562E0,9.162978269E-3,-7.391469181E-2,-1.527163107E-2
1.830721796E0,9.162978269E-3,-7.819075137E-2,-1.771509275E-2
1.832707722E0,9.773843922E-3,-7.819075137E-2,-1.588249579E-2
1.834720572E0,8.552113548E-3,-8.002334833E-2,-1.771509275E-2
1.836704653E0,9.162978269E-3,-7.880161703E-2,-1.832595654E-2
1.838718425E0,1.038470957E-2,-8.002334833E-2,-1.893682219E-2
1.840733198E0,9.773843922E-3,-8.429940045E-2,-1.649336144E-2
1.842716278E0,8.552113548E-3,-8.246681094E-2,-1.832595654E-2
1.844730512E0,8.552113548E-3,-8.307767659E-2,-2.076941915E-2
1.846714131E0,7.330383174E-3,-8.124507964E-2,-1.954768784E-2
1.848728596E0,9.773843922E-3,-8.124507964E-2,-2.076941915E-2
1.850711984E0,9.162978269E-3,-8.124507964E-2,-2.138028294E-2
1.852727372E0,9.162978269E-3,-8.063421398E-2,-2.199114859E-2
1.854710221E0,8.552113548E-3,-7.819075137E-2,-2.260201424E-2
1.856724302E0,1.160643995E-2,-8.002334833E-2,-1.954768784E-2
1.858707997E0,8.552113548E-3,-7.696902007E-2,-1.954768784E-2
1.860721540E0,7.941247895E-3,-7.757988572E-2,-2.199114859E-2
1.862705620E0,7.941247895E-3,-7.819075137E-2,-2.076941915E-2
1.864716623E0,7.330383174E-3,-7.513642311E-2,-2.015855350E-2
1.866734242E0,7.330383174E-3,-7.513642311E-2,-1.893682219E-2
1.868718168E0,8.552113548E-3,-7.452555746E-2,-2.015855350E-2
1.870731172E0,9.773843922E-3,-7.208210230E-2,-1.649336144E-2
1.872716329E0,9.162978269E-3,-7.208210230E-2,-1.710422710E-2
1.874729255E0,1.099557430E-2,-7.147123665E-2,-1.527163107E-2
1.876713259E0,9.162978269E-3,-6.963863969E-2,-1.893682219E-2
1.878727493E0,8.552113548E-3,-6.780604273E-2,-1.649336144E-2
1.880711111E0,9.162978269E-3,-6.536258012E-2,-1.404990070E-2
1.882725038E0,7.941247895E-3,-6.169738993E-2,-1.649336144E-2
1.884709041E0,1.099557430E-2,-5.925392732E-2,-1.710422710E-2
1.886722892E0,1.221730467E-2,-5.864306539E-2,-1.588249579E-2
1.888707202E0,1.282817032E-2,-5.558873713E-2,-1.466076635E-2
1.890720359E0,1.099557430E-2,-5.558873713E-2,-1.649336144E-2
1.892704978E0,1.282817032E-2,-5.253441259E-2,-1.343903504E-2
1.894718212E0,1.466076635E-2,-5.131268129E-2,-1.588249579E-2
1.896732985E0,1.221730467E-2,-4.642575979E-2,-1.466076635E-2
1.898715758E0,1.221730467E-2,-4.642575979E-2,-1.649336144E-2
1.900730299E0,1.221730467E-2,-4.642575979E-2,-1.588249579E-2
1.902713919E0,1.221730467E-2,-4.153883830E-2,-1.710422710E-2
1.904727460E0,1.160643995E-2,-3.848451003E-2,-1.649336144E-2
1.906713003E0,1.160643995E-2,-3.848451003E-2,-1.588249579E-2
1.908726544E0,1.038470957E-2,-3.665191308E-2,-1.649336144E-2
1.910709316E0,1.404990070E-2,-3.420845419E-2,-1.527163107E-2
1.912724397E0,1.221730467E-2,-3.298672289E-2,-1.527163107E-2
1.914708169E0,1.099557430E-2,-2.871066704E-2,-1.649336144E-2
1.916721634E0,1.099557430E-2,-2.932153270E-2,-1.649336144E-2
1.918705023E0,1.221730467E-2,-2.871066704E-2,-1.771509275E-2
1.920719487E0,1.282817032E-2,-2.321287990E-2,-1.466076635E-2
1.922733030E0,1.099557430E-2,-2.199114859E-2,-1.404990070E-2
1.924718340E0,9.773843922E-3,-2.199114859E-2,-1.160643995E-2
1.926731266E0,1.038470957E-2,-2.199114859E-2,-1.343903504E-2
1.928714578E0,9.773843922E-3,-2.076941915E-2,-1.221730467E-2
1.930729350E0,1.038470957E-2,-1.893682219E-2,-1.160643995E-2
1.932713739E0,9.773843922E-3,-1.649336144E-2,-1.221730467E-2
1.934726896E0,1.099557430E-2,-1.649336144E-2,-1.160643995E-2
1.936710899E0,8.552113548E-3,-1.649336144E-2,-1.160643995E-2
1.938724826E0,9.773843922E-3,-1.343903504E-2,-9.773843922E-3
1.940708444E0,8.552113548E-3,-1.221730467E-2,-1.282817032E-2
1.942722064E0,7.941247895E-3,-1.404990070E-2,-8.552113548E-3
1.944705451E0,7.941247895E-3,-1.221730467E-2,-9.162978269E-3
1.946720762E0,6.108652335E-3,-1.282817032E-2,-1.160643995E-2
1.948703920E0,7.941247895E-3,-1.343903504E-2,-1.099557430E-2
1.950718384E0,6.719517522E-3,-1.527163107E-2,-1.038470957E-2
1.952733388E0,6.719517522E-3,-1.649336144E-2,-1.160643995E-2
1.954715622E0,7.941247895E-3,-1.893682219E-2,-1.099557430E-2
1.956730010E0,7.941247895E-3,-1.771509275E-2,-1.099557430E-2
1.958714321E0,8.552113548E-3,-1.954768784E-2,-1.038470957E-2
1.960727940E0,8.552113548E-3,-2.138028294E-2,-9.773843922E-3
1.962711635E0,7.941247895E-3,-2.382374369E-2,-1.038470957E-2
1.964726716E0,7.330383174E-3,-2.565634064E-2,-9.773843922E-3
1.966709488E0,8.552113548E-3,-2.871066704E-2,-9.162978269E-3
1.968723338E0,8.552113548E-3,-2.687807009E-2,-1.038470957E-2
1.970707265E0,6.719517522E-3,-3.054326214E-2,-6.719517522E-3
1.972722652E0,4.886921961E-3,-2.993239649E-2,-7.941247895E-3
1.974706041E0,7.941247895E-3,-2.993239649E-2,-3.054326167E-3
1.976719044E0,4.886921961E-3,-3.115412779E-2,-6.719517522E-3
1.978732817E0,6.108652335E-3,-3.298672289E-2,-3.665191587E-3
1.980716897E0,6.108652335E-3,-3.237585723E-2,-3.665191587E-3
1.982730669E0,7.330383174E-3,-3.481931984E-2,-1.832595794E-3
1.984714673E0,6.108652335E-3,-3.298672289E-2,-1.832595794E-3
1.986730676E0,6.719517522E-3,-3.359758854E-2,-1.832595794E-3
1.988712911E0,7.330383174E-3,-3.237585723E-2,-6.108652451E-4
1.990726375E0,5.497787148E-3,-3.237585723E-2,-1.221730490E-3
1.992712840E0,7.941247895E-3,-3.115412779E-2,-2.443460980E-3
1.994725152E0,9.162978269E-3,-3.237585723E-2,-6.108652451E-4
1.996708309E0,8.552113548E-3,-2.993239649E-2,0.000000000E0
1.998722159E0,8.552113548E-3,-3.176499158E-2,-2.443460980E-3
2.000706162E0,6.719517522E-3,-3.115412779E-2,-3.665191587E-3
2.002720626E0,7.941247895E-3,-2.932153270E-2,-4.276056774E-3
2.004704553E0,1.038470957E-2,-2.993239649E-2,-4.886921961E-3
2.006717787E0,9.162978269E-3,-2.932153270E-2,-4.276056774E-3
2.008731945E0,1.038470957E-2,-2.871066704E-2,-4.276056774E-3
2.010716256E0,1.160643995E-2,-2.932153270E-2,-6.719517522E-3
2.012731105E0,9.773843922E-3,-2.809980139E-2,-7.941247895E-3
2.014713878E0,1.221730467E-2,-2.748893574E-2,-6.108652335E-3
2.016728650E0,9.773843922E-3,-2.687807009E-2,-6.719517522E-3
2.018711115E0,1.099557430E-2,-2.748893574E-2,-7.941247895E-3
2.020725503E0,1.038470957E-2,-2.687807009E-2,-1.038470957E-2
2.022709276E0,1.099557430E-2,-2.504547499E-2,-9.773843922E-3
2.024720049E0,1.282817032E-2,-2.871066704E-2,-7.941247895E-3
2.026706744E0,1.221730467E-2,-2.626720630E-2,-9.162978269E-3
2.028721901E0,1.282817032E-2,-2.565634064E-2,-8.552113548E-3
2.030704982E0,1.404990070E-2,-2.565634064E-2,-9.162978269E-3
2.032720677E0,1.343903504E-2,-2.504547499E-2,-1.099557430E-2
2.034702758E0,1.160643995E-2,-2.504547499E-2,-1.038470957E-2
2.036717300E0,1.343903504E-2,-2.504547499E-2,-1.099557430E-2
2.038730764E0,1.099557430E-2,-2.382374369E-2,-1.160643995E-2
2.040714230E0,7.941247895E-3,-2.321287990E-2,-1.038470957E-2
2.042729541E0,1.099557430E-2,-2.504547499E-2,-1.160643995E-2
2.044713314E0,1.160643995E-2,-2.565634064E-2,-1.221730467E-2
2.046726778E0,9.773843922E-3,-2.382374369E-2,-1.221730467E-2
2.048710551E0,9.162978269E-3,-2.321287990E-2,-1.282817032E-2
2.050724324E0,8.552113548E-3,-2.443460934E-2,-9.773843922E-3
2.052708711E0,9.162978269E-3,-2.748893574E-2,-9.162978269E-3
2.054722791E0,8.552113548E-3,-2.626720630E-2,-9.773843922E-3
2.056705949E0,6.108652335E-3,-2.748893574E-2,-7.941247895E-3
2.058719414E0,7.330383174E-3,-2.809980139E-2,-6.108652335E-3
2.060733956E0,6.719517522E-3,-2.748893574E-2,-8.552113548E-3
2.062718267E0,7.941247895E-3,-3.115412779E-2,-5.497787148E-3
2.064731193E0,6.719517522E-3,-2.871066704E-2,-7.330383174E-3
2.066716735E0,5.497787148E-3,-3.115412779E-2,-5.497787148E-3
2.068730277E0,6.108652335E-3,-2.809980139E-2,-7.330383174E-3
2.070713050E0,7.941247895E-3,-2.809980139E-2,-6.719517522E-3
2.072728976E0,5.497787148E-3,-2.809980139E-2,-4.276056774E-3
2.074711441E0,5.497787148E-3,-2.932153270E-2,-4.276056774E-3
2.076725599E0,3.665191587E-3,-2.809980139E-2,-4.886921961E-3
2.078709063E0,5.497787148E-3,-2.809980139E-2,-4.886921961E-3
2.080723759E0,4.276056774E-3,-2.809980139E-2,-4.886921961E-3
2.082706609E0,3.665191587E-3,-2.748893574E-2,-5.497787148E-3
2.084721689E0,4.886921961E-3,-2.687807009E-2,-6.719517522E-3
2.086705385E0,6.108652335E-3,-2.809980139E-2,-3.665191587E-3
2.088718542E0,3.665191587E-3,-2.260201424E-2,-5.497787148E-3
2.090733392E0,4.276056774E-3,-2.138028294E-2,-2.443460980E-3
2.092717933E0,1.221730490E-3,-1.893682219E-2,-4.886921961E-3
2.094730936E0,2.443460980E-3,-1.832595654E-2,-1.221730490E-3
2.096714863E0,3.054326167E-3,-1.710422710E-2,-2.443460980E-3
2.098728482E0,4.276056774E-3,-1.893682219E-2,-1.221730490E-3
2.100712716E0,3.054326167E-3,-1.893682219E-2,-2.443460980E-3
2.102726335E0,3.665191587E-3,-1.832595654E-2,-2.443460980E-3
2.104709415E0,3.054326167E-3,-1.649336144E-2,-3.054326167E-3
2.106724111E0,3.054326167E-3,-1.771509275E-2,-4.276056774E-3
2.108708114E0,3.665191587E-3,-1.954768784E-2,-4.886921961E-3
2.110722656E0,2.443460980E-3,-1.954768784E-2,-6.108652335E-3
2.112707275E0,3.665191587E-3,-1.710422710E-2,-5.497787148E-3
2.114719817E0,2.443460980E-3,-1.343903504E-2,-5.497787148E-3
2.116734590E0,2.443460980E-3,-9.773843922E-3,-4.886921961E-3
2.118717439E0,2.443460980E-3,-7.941247895E-3,-8.552113548E-3
2.120731596E0,3.054326167E-3,-7.941247895E-3,-5.497787148E-3
2.122714984E0,3.665191587E-3,-8.552113548E-3,-3.665191587E-3
2.124730987E0,6.108652451E-4,-1.160643995E-2,-4.886921961E-3
2.126713684E0,-6.108652451E-4,-1.343903504E-2,-4.276056774E-3
2.128726687E0,4.276056774E-3,-1.527163107E-2,-4.886921961E-3
2.130711305E0,1.832595794E-3,-1.282817032E-2,-2.443460980E-3
2.132726001E0,3.665191587E-3,-1.221730467E-2,-3.054326167E-3
2.134709774E0,5.497787148E-3,-9.773843922E-3,0.000000000E0
2.136723316E0,5.497787148E-3,-9.773843922E-3,-2.443460980E-3
2.138706935E0,4.886921961E-3,-1.038470957E-2,-1.221730490E-3
2.140721091E0,3.054326167E-3,-1.099557430E-2,-1.832595794E-3
2.142705095E0,5.497787148E-3,-1.038470957E-2,-6.108652451E-4
2.144718714E0,5.497787148E-3,-1.038470957E-2,-2.443460980E-3
2.146734718E0,7.330383174E-3,-1.099557430E-2,-2.443460980E-3
2.148716798E0,7.330383174E-3,-9.162978269E-3,-1.832595794E-3
2.150730339E0,8.552113548E-3,-7.941247895E-3,-1.832595794E-3
2.152715266E0,7.330383174E-3,-1.099557430E-2,-1.221730490E-3
2.154728808E0,7.941247895E-3,-1.038470957E-2,-3.054326167E-3
2.156712811E0,6.108652335E-3,-9.162978269E-3,-1.221730490E-3
2.158726353E0,4.276056774E-3,-1.099557430E-2,-4.276056774E-3
2.160710125E0,1.832595794E-3,-1.282817032E-2,-1.832595794E-3
2.162724591E0,2.443460980E-3,-1.343903504E-2,-6.108652451E-4
2.164709132E0,2.443460980E-3,-1.649336144E-2,-3.054326167E-3
2.166722751E0,0.000000000E0,-1.893682219E-2,6.108652451E-4
2.168705755E0,1.832595794E-3,-1.832595654E-2,-6.108652451E-4
2.170719296E0,-2.443460980E-3,-1.771509275E-2,-6.108652451E-4
2.172735070E0,-6.108652451E-4,-1.893682219E-2,6.108652451E-4
2.174718380E0,-3.665191587E-3,-1.649336144E-2,1.832595794E-3
2.176732229E0,-4.276056774E-3,-1.404990070E-2,1.221730490E-3
2.178715310E0,-5.497787148E-3,-1.282817032E-2,6.108652451E-4
2.180729544E0,-5.497787148E-3,-1.466076635E-2,1.221730490E-3
2.182713548E0,-9.773843922E-3,-1.099557430E-2,3.054326167E-3
2.184727090E0,-9.773843922E-3,-8.552113548E-3,5.497787148E-3
2.186710477E0,-1.099557430E-2,-4.886921961E-3,4.276056774E-3
2.188724943E0,-9.162978269E-3,-3.665191587E-3,3.665191587E-3
2.190709561E0,-1.221730467E-2,-1.832595794E-3,4.886921961E-3
2.192724026E0,-1.221730467E-2,3.665191587E-3,8.552113548E-3
2.194706722E0,-1.160643995E-2,6.108652335E-3,7.941247895E-3
2.196721263E0,-1.282817032E-2,8.552113548E-3,7.330383174E-3
2.198704267E0,-1.404990070E-2,1.710422710E-2,6.719517522E-3
2.200718194E0,-1.404990070E-2,1.893682219E-2,7.330383174E-3
2.202732658E0,-1.404990070E-2,2.199114859E-2,7.330383174E-3
2.204717277E0,-1.404990070E-2,2.748893574E-2,7.330383174E-3
2.206731127E0,-1.527163107E-2,2.932153270E-2,7.941247895E-3
2.208714823E0,-1.588249579E-2,3.481931984E-2,4.276056774E-3
2.210728364E0,-1.343903504E-2,3.909537569E-2,8.552113548E-3
2.212712983E0,-1.466076635E-2,4.031710699E-2,8.552113548E-3
2.214726141E0,-1.282817032E-2,4.153883830E-2,7.330383174E-3
2.216709836E0,-1.343903504E-2,4.337143153E-2,8.552113548E-3
2.218723686E0,-1.038470957E-2,5.009094998E-2,6.719517522E-3
2.220707766E0,-1.038470957E-2,5.436700583E-2,8.552113548E-3
2.222721538E0,-7.941247895E-3,5.619960278E-2,7.941247895E-3
2.224705619E0,-8.552113548E-3,6.047565863E-2,6.108652335E-3
2.226720314E0,-6.719517522E-3,6.414084882E-2,1.038470957E-2
2.228704318E0,-3.665191587E-3,6.597344577E-2,1.038470957E-2
2.230716706E0,-2.443460980E-3,6.963863969E-2,9.162978269E-3
2.232732940E0,-6.108652451E-4,7.269296050E-2,9.162978269E-3
2.234715405E0,6.108652451E-4,7.391469181E-2,8.552113548E-3
2.236729255E0,0.000000000E0,7.757988572E-2,8.552113548E-3
2.238713258E0,1.832595794E-3,7.696902007E-2,9.162978269E-3
2.240726800E0,1.221730490E-3,7.880161703E-2,7.330383174E-3
2.242711188E0,3.665191587E-3,8.124507964E-2,7.941247895E-3
2.244726192E0,4.276056774E-3,8.429940045E-2,6.108652335E-3
2.246709272E0,3.665191587E-3,8.674286306E-2,6.108652335E-3
2.248722890E0,4.886921961E-3,8.674286306E-2,6.719517522E-3
2.250706586E0,4.276056774E-3,8.552113175E-2,6.108652335E-3
2.252721589E0,4.886921961E-3,8.368854225E-2,6.108652335E-3
2.254704978E0,4.886921961E-3,8.307767659E-2,6.108652335E-3
2.256718212E0,1.832595794E-3,8.368854225E-2,5.497787148E-3
2.258733061E0,5.497787148E-3,8.002334833E-2,4.886921961E-3
2.260716065E0,5.497787148E-3,7.819075137E-2,5.497787148E-3
2.262730222E0,4.276056774E-3,7.757988572E-2,4.276056774E-3
2.264713610E0,3.665191587E-3,7.330382615E-2,3.665191587E-3
2.266727536E0,2.443460980E-3,7.269296050E-2,6.719517522E-3
2.268712078E0,4.276056774E-3,6.841690838E-2,4.886921961E-3
2.270726313E0,3.665191587E-3,6.475171447E-2,5.497787148E-3
2.272710239E0,4.886921961E-3,5.925392732E-2,4.886921961E-3
2.274725089E0,4.886921961E-3,5.619960278E-2,6.719517522E-3
2.276708400E0,3.054326167E-3,5.131268129E-2,3.054326167E-3
2.278722633E0,1.832595794E-3,4.337143153E-2,3.054326167E-3
2.280705099E0,3.665191587E-3,3.970624134E-2,3.665191587E-3
2.282719563E0,1.832595794E-3,3.359758854E-2,1.832595794E-3
2.284734566E0,3.054326167E-3,2.993239649E-2,0.000000000E0
2.286717955E0,-6.108652451E-4,2.443460934E-2,2.443460980E-3
2.288731497E0,1.221730490E-3,1.649336144E-2,3.054326167E-3
2.290715501E0,2.443460980E-3,1.160643995E-2,2.443460980E-3
2.292729427E0,-1.221730490E-3,7.330383174E-3,6.108652451E-4
2.294712737E0,-1.832595794E-3,-2.443460980E-3,0.000000000E0
2.296726972E0,-2.443460980E-3,-6.108652335E-3,2.443460980E-3
2.298710360E0,-3.665191587E-3,-9.162978269E-3,-1.221730490E-3
2.300725364E0,-4.886921961E-3,-1.649336144E-2,6.108652451E-4
2.302708828E0,-5.497787148E-3,-2.138028294E-2,1.221730490E-3
2.304721754E0,-6.108652335E-3,-2.626720630E-2,-2.443460980E-3
2.306707605E0,-8.552113548E-3,-2.809980139E-2,1.832595794E-3
2.308720761E0,-9.162978269E-3,-2.993239649E-2,-1.221730490E-3
2.310703535E0,-9.773843922E-3,-3.665191308E-2,-6.108652451E-4
2.312718691E0,-1.099557430E-2,-3.909537569E-2,-6.108652451E-4
2.314732848E0,-7.941247895E-3,-4.031710699E-2,-1.221730490E-3
2.316716237E0,-9.773843922E-3,-4.276056588E-2,-3.054326167E-3
2.318730394E0,-8.552113548E-3,-4.153883830E-2,-2.443460980E-3
2.320713705E0,-9.162978269E-3,-4.337143153E-2,0.000000000E0
2.322728170E0,-8.552113548E-3,-4.276056588E-2,-1.221730490E-3
2.324712250E0,-1.160643995E-2,-4.153883830E-2,-3.054326167E-3
2.326725792E0,-9.773843922E-3,-4.153883830E-2,-2.443460980E-3
2.328709411E0,-6.719517522E-3,-4.153883830E-2,-1.832595794E-3
2.330723952E0,-7.330383174E-3,-3.909537569E-2,-2.443460980E-3
2.332707649E0,-8.552113548E-3,-3.787364438E-2,-3.054326167E-3
2.334723267E0,-7.330383174E-3,-3.420845419E-2,-1.221730490E-3
2.336705194E0,-7.330383174E-3,-3.298672289E-2,-3.665191587E-3
2.338719659E0,-6.719517522E-3,-2.871066704E-2,-2.443460980E-3
2.340733200E0,-6.719517522E-3,-2.626720630E-2,-1.832595794E-3
2.342716896E0,-6.719517522E-3,-2.199114859E-2,-3.054326167E-3
2.344728284E0,-5.497787148E-3,-1.893682219E-2,-1.832595794E-3
2.346714442E0,-4.276056774E-3,-2.076941915E-2,-1.832595794E-3
2.348729753E0,-6.108652451E-4,-1.588249579E-2,-6.108652451E-4
2.350712832E0,-4.276056774E-3,-1.160643995E-2,-6.108652451E-4
2.352727606E0,-3.665191587E-3,-1.038470957E-2,-6.108652451E-4
2.354710378E0,-2.443460980E-3,-3.665191587E-3,0.000000000E0
2.356724920E0,-1.832595794E-3,-1.221730490E-3,-6.108652451E-4
2.358708616E0,6.108652451E-4,-6.108652451E-4,1.221730490E-3
2.360722465E0,-2.443460980E-3,1.832595794E-3,6.108652451E-4
2.362706469E0,-6.108652451E-4,6.108652335E-3,3.054326167E-3
2.364720626E0,0.000000000E0,6.108652335E-3,-6.108652451E-4
2.366703706E0,-1.221730490E-3,1.099557430E-2,1.221730490E-3
2.368718094E0,1.221730490E-3,1.221730467E-2,6.108652451E-4
2.370733174E0,6.108652451E-4,1.588249579E-2,6.108652451E-4
2.372716947E0,-6.108652451E-4,1.893682219E-2,6.108652451E-4
2.374730412E0,6.108652451E-4,2.015855350E-2,1.221730490E-3
2.376714184E0,1.221730490E-3,2.260201424E-2,6.108652451E-4
2.378727727E0,0.000000000E0,2.260201424E-2,0.000000000E0
2.380711422E0,1.221730490E-3,2.565634064E-2,6.108652451E-4
2.382725811E0,1.832595794E-3,2.382374369E-2,0.000000000E0
2.384709275E0,-6.108652451E-4,2.687807009E-2,1.832595794E-3
2.386724586E0,6.108652451E-4,2.565634064E-2,-1.221730490E-3
2.388707359E0,0.000000000E0,2.687807009E-2,0.000000000E0
2.390720901E0,-6.108652451E-4,2.809980139E-2,6.108652451E-4
2.392706828E0,-1.832595794E-3,2.748893574E-2,6.108652451E-4
2.394720292E0,2.443460980E-3,2.565634064E-2,6.108652451E-4
2.396733834E0,0.000000000E0,2.199114859E-2,-6.108652451E-4
2.398716376E0,-1.221730490E-3,2.260201424E-2,1.221730490E-3
2.400731456E0,-6.108652451E-4,2.443460934E-2,1.832595794E-3
2.402714229E0,-1.832595794E-3,2.199114859E-2,3.054326167E-3
2.404730155E0,-2.443460980E-3,1.954768784E-2,3.054326167E-3
2.406713005E0,-2.443460980E-3,1.832595654E-2,1.832595794E-3
2.408726855E0,-2.443460980E-3,1.649336144E-2,1.221730490E-3
2.410710473E0,-1.832595794E-3,1.466076635E-2,2.443460980E-3
2.412725016E0,-3.054326167E-3,1.282817032E-2,2.443460980E-3
2.414708634E0,-2.443460980E-3,1.221730467E-2,2.443460980E-3
2.416722560E0,-3.665191587E-3,7.330383174E-3,1.221730490E-3
2.418705872E0,-3.054326167E-3,7.941247895E-3,0.000000000E0
2.420720644E0,-3.054326167E-3,4.886921961E-3,0.000000000E0
2.422703724E0,-2.443460980E-3,1.832595794E-3,1.221730490E-3
2.424717266E0,-4.276056774E-3,0.000000000E0,1.832595794E-3
2.426732654E0,-4.276056774E-3,0.000000000E0,3.054326167E-3
2.428716043E0,-3.665191587E-3,-1.832595794E-3,-6.108652451E-4
2.430729584E0,-6.108652335E-3,-4.276056774E-3,-6.108652451E-4
2.432714587E0,-5.497787148E-3,-2.443460980E-3,1.832595794E-3
2.434728437E0,-6.108652335E-3,-4.276056774E-3,0.000000000E0
2.436712133E0,-7.941247895E-3,-8.552113548E-3,1.221730490E-3
2.438725367E0,-6.108652335E-3,-7.330383174E-3,1.832595794E-3
2.440709370E0,-5.497787148E-3,-7.941247895E-3,0.000000000E0
2.442723450E0,-7.941247895E-3,-1.099557430E-2,1.832595794E-3
2.444708147E0,-5.497787148E-3,-1.099557430E-2,1.221730490E-3
2.446721611E0,-3.054326167E-3,-9.773843922E-3,0.000000000E0
2.448704769E0,-4.886921961E-3,-1.038470957E-2,-6.108652451E-4
2.450718926E0,-4.276056774E-3,-1.160643995E-2,-2.443460980E-3
2.452734929E0,-4.886921961E-3,-1.099557430E-2,-1.832595794E-3
2.454717317E0,-3.665191587E-3,-9.162978269E-3,6.108652451E-4
2.456731167E0,-6.108652451E-4,-8.552113548E-3,-1.221730490E-3
2.458714631E0,-4.276056774E-3,-7.941247895E-3,1.832595794E-3
2.460728712E0,-4.886921961E-3,-6.108652335E-3,6.108652451E-4
2.462712715E0,-1.832595794E-3,-4.276056774E-3,-6.108652451E-4
2.464726027E0,-1.221730490E-3,-4.276056774E-3,0.000000000E0
2.466711184E0,-3.054326167E-3,-4.276056774E-3,-1.832595794E-3
2.468724802E0,-1.832595794E-3,-3.665191587E-3,-6.108652451E-4
2.470707575E0,-1.221730490E-3,-4.276056774E-3,0.000000000E0
2.472723578E0,1.221730490E-3,-4.276056774E-3,-1.221730490E-3
2.474706659E0,0.000000000E0,-1.832595794E-3,-1.832595794E-3
2.476719508E0,-6.108652451E-4,-3.665191587E-3,-4.276056774E-3
2.478734357E0,-1.832595794E-3,-1.221730490E-3,-3.054326167E-3
2.480717669E0,6.108652451E-4,-1.221730490E-3,-1.832595794E-3
2.482732749E0,-1.221730490E-3,-1.221730490E-3,-2.443460980E-3
2.484716138E0,6.108652451E-4,-1.832595794E-3,-1.832595794E-3
2.486730064E0,6.108652451E-4,-2.443460980E-3,-2.443460980E-3
2.488713067E0,-1.221730490E-3,-6.108652451E-4,-3.054326167E-3
2.490727532E0,0.000000000E0,-3.054326167E-3,-2.443460980E-3
2.492712535E0,-1.832595794E-3,-3.665191587E-3,-3.665191587E-3
2.494725770E0,-2.443460980E-3,-4.276056774E-3,-3.054326167E-3
2.496708773E0,0.000000000E0,-4.886921961E-3,-4.276056774E-3
2.498723622E0,-1.221730490E-3,-7.330383174E-3,-1.221730490E-3
2.500707857E0,-3.054326167E-3,-6.719517522E-3,-2.443460980E-3
2.502720860E0,-3.054326167E-3,-7.941247895E-3,-6.108652451E-4
2.504703863E0,-4.276056774E-3,-1.038470957E-2,-2.443460980E-3
2.506718098E0,-2.443460980E-3,-1.221730467E-2,0.000000000E0
2.508733409E0,-1.832595794E-3,-1.038470957E-2,0.000000000E0
2.510716566E0,-3.054326167E-3,-1.160643995E-2,-1.221730490E-3
2.512731877E0,-4.276056774E-3,-1.282817032E-2,-1.221730490E-3
2.514715034E0,-4.276056774E-3,-1.527163107E-2,-2.443460980E-3
2.516728499E0,-4.886921961E-3,-1.588249579E-2,-1.221730490E-3
2.518711656E0,-3.665191587E-3,-1.588249579E-2,-1.221730490E-3
2.520726430E0,-3.054326167E-3,-1.649336144E-2,0.000000000E0
2.522710356E0,-4.276056774E-3,-1.832595654E-2,-1.221730490E-3
2.524724897E0,-4.886921961E-3,-2.015855350E-2,0.000000000E0
2.526708209E0,-3.054326167E-3,-1.954768784E-2,-1.221730490E-3
2.528722058E0,-6.108652335E-3,-2.076941915E-2,-2.443460980E-3
2.530705831E0,-2.443460980E-3,-2.015855350E-2,6.108652451E-4
2.532720527E0,-3.665191587E-3,-2.076941915E-2,2.443460980E-3
2.534734453E0,-6.108652335E-3,-1.893682219E-2,-1.832595794E-3
2.536717457E0,-3.665191587E-3,-1.893682219E-2,0.000000000E0
2.538731921E0,-3.665191587E-3,-1.832595654E-2,0.000000000E0
2.540715310E0,-3.665191587E-3,-2.076941915E-2,-1.221730490E-3
2.542729851E0,-5.497787148E-3,-1.649336144E-2,6.108652451E-4
2.544712854E0,-5.497787148E-3,-1.832595654E-2,0.000000000E0
2.546728858E0,-4.276056774E-3,-1.649336144E-2,-2.443460980E-3
2.548711938E0,-6.719517522E-3,-1.343903504E-2,6.108652451E-4
2.550724865E0,-4.276056774E-3,-1.343903504E-2,0.000000000E0
2.552710407E0,-4.276056774E-3,-1.160643995E-2,-2.443460980E-3
2.554723641E0,-4.276056774E-3,-1.221730467E-2,1.832595794E-3
2.556706721E0,-5.497787148E-3,-8.552113548E-3,0.000000000E0
2.558720648E0,-3.054326167E-3,-7.941247895E-3,-1.832595794E-3
2.560704881E0,-3.665191587E-3,-7.330383174E-3,0.000000000E0
2.562718501E0,-3.054326167E-3,-7.330383174E-3,-1.221730490E-3
2.564733811E0,-4.276056774E-3,-7.330383174E-3,0.000000000E0
2.566716969E0,-2.443460980E-3,-7.941247895E-3,0.000000000E0
2.568731741E0,-5.497787148E-3,-6.108652335E-3,-1.832595794E-3
2.570715052E0,-1.832595794E-3,-7.941247895E-3,-1.832595794E-3
2.572729825E0,-1.832595794E-3,-8.552113548E-3,6.108652451E-4
2.574712290E0,-2.443460980E-3,-7.941247895E-3,0.000000000E0
2.576726217E0,-1.221730490E-3,-6.108652335E-3,0.000000000E0
2.578709912E0,-6.108652451E-4,-6.719517522E-3,-1.832595794E-3
2.580724377E0,6.108652451E-4,-7.330383174E-3,-1.221730490E-3
2.582707996E0,0.000000000E0,-7.941247895E-3,-2.443460980E-3
2.584718845E0,6.108652451E-4,-8.552113548E-3,-1.221730490E-3
2.586735157E0,-6.108652451E-4,-1.099557430E-2,-1.832595794E-3
2.588719468E0,1.221730490E-3,-9.773843922E-3,-3.054326167E-3
2.590733548E0,1.221730490E-3,-1.038470957E-2,-2.443460980E-3
2.592717936E0,0.000000000E0,-1.038470957E-2,6.108652451E-4
2.594731786E0,-1.221730490E-3,-1.160643995E-2,-3.054326167E-3
2.596715404E0,0.000000000E0,-1.160643995E-2,-1.221730490E-3
2.598729331E0,1.221730490E-3,-1.221730467E-2,6.108652451E-4
2.600713949E0,1.221730490E-3,-1.404990070E-2,0.000000000E0
2.602726569E0,0.000000000E0,-1.221730467E-2,6.108652451E-4
2.604712033E0,-6.108652451E-4,-1.282817032E-2,6.108652451E-4
2.606725344E0,-6.108652451E-4,-1.221730467E-2,0.000000000E0
2.608709348E0,-1.832595794E-3,-1.221730467E-2,-2.443460980E-3
2.610723120E0,6.108652451E-4,-1.282817032E-2,-6.108652451E-4
2.612707817E0,-1.221730490E-3,-1.160643995E-2,6.108652451E-4
2.614720435E0,6.108652451E-4,-1.160643995E-2,0.000000000E0
2.616735207E0,-2.443460980E-3,-1.221730467E-2,0.000000000E0
2.618718519E0,-1.832595794E-3,-1.160643995E-2,1.832595794E-3
2.620732676E0,-6.108652451E-4,-1.282817032E-2,6.108652451E-4
2.622716064E0,-2.443460980E-3,-1.282817032E-2,0.000000000E0
2.624729990E0,-2.443460980E-3,-1.282817032E-2,0.000000000E0
2.626715455E0,-4.276056774E-3,-1.282817032E-2,-1.221730490E-3
2.628729074E0,-2.443460980E-3,-1.221730467E-2,0.000000000E0
2.630711231E0,-3.665191587E-3,-1.099557430E-2,-1.221730490E-3
2.632727466E0,-1.832595794E-3,-1.160643995E-2,6.108652451E-4
2.634710238E0,-1.221730490E-3,-1.160643995E-2,-1.832595794E-3
2.636724164E0,-3.054326167E-3,-1.282817032E-2,0.000000000E0
2.638707245E0,-1.832595794E-3,-1.282817032E-2,0.000000000E0
2.640721325E0,-2.443460980E-3,-1.160643995E-2,6.108652451E-4
2.642705328E0,-1.832595794E-3,-1.343903504E-2,-1.832595794E-3
2.644721024E0,0.000000000E0,-1.160643995E-2,1.221730490E-3
2.646703797E0,-3.054326167E-3,-1.221730467E-2,6.108652451E-4
2.648717339E0,6.108652451E-4,-1.527163107E-2,-1.221730490E-3
2.650732111E0,-2.443460980E-3,-1.282817032E-2,-1.832595794E-3
2.652716499E0,0.000000000E0,-1.527163107E-2,-6.108652451E-4
2.654729118E0,-1.832595794E-3,-1.527163107E-2,-1.832595794E-3
2.656712737E0,0.000000000E0,-1.466076635E-2,0.000000000E0
2.658727202E0,-2.443460980E-3,-1.343903504E-2,-2.443460980E-3
2.660710975E0,-2.443460980E-3,-1.527163107E-2,-3.054326167E-3
2.662725055E0,1.221730490E-3,-1.343903504E-2,-3.054326167E-3
2.664707828E0,-6.108652451E-4,-1.404990070E-2,-1.832595794E-3
2.666721754E0,1.221730490E-3,-1.527163107E-2,-1.221730490E-3
2.668707219E0,-1.832595794E-3,-1.221730467E-2,-6.108652451E-4
2.670721145E0,-6.108652451E-4,-1.160643995E-2,-1.832595794E-3
2.672705379E0,0.000000000E0,-1.282817032E-2,-4.276056774E-3
2.674717768E0,-3.054326167E-3,-1.160643995E-2,-2.443460980E-3
2.676732540E0,1.221730490E-3,-1.588249579E-2,-1.221730490E-3
2.678716467E0,-6.108652451E-4,-1.343903504E-2,-3.665191587E-3
2.680730701E0,0.000000000E0,-1.527163107E-2,1.221730490E-3
2.682714396E0,-1.221730490E-3,-1.588249579E-2,-4.276056774E-3
2.684729093E0,0.000000000E0,-1.404990070E-2,-3.054326167E-3
2.686712788E0,6.108652451E-4,-1.527163107E-2,0.000000000E0
2.688726022E0,0.000000000E0,-1.649336144E-2,-1.832595794E-3
2.690710333E0,0.000000000E0,-1.588249579E-2,-5.497787148E-3
2.692725183E0,1.221730490E-3,-1.649336144E-2,-4.276056774E-3
2.694707571E0,6.108652451E-4,-1.954768784E-2,-2.443460980E-3
2.696721497E0,0.000000000E0,-2.076941915E-2,-5.497787148E-3
2.698705193E0,1.221730490E-3,-2.199114859E-2,-3.665191587E-3
2.700719043E0,6.108652451E-4,-2.321287990E-2,-3.054326167E-3
2.702733123E0,-1.221730490E-3,-2.076941915E-2,-1.832595794E-3
2.704716819E0,-1.221730490E-3,-2.138028294E-2,-3.054326167E-3
2.706732514E0,-6.108652451E-4,-2.565634064E-2,-3.665191587E-3
2.708715979E0,-1.221730490E-3,-2.199114859E-2,-3.665191587E-3
2.710729137E0,6.108652451E-4,-2.504547499E-2,-7.330383174E-3
2.712714140E0,-6.108652451E-4,-2.321287990E-2,-4.886921961E-3
2.714727298E0,6.108652451E-4,-2.504547499E-2,-4.886921961E-3
2.716710762E0,0.000000000E0,-2.504547499E-2,-4.886921961E-3
2.718725227E0,-1.832595794E-3,-2.443460934E-2,-4.886921961E-3
2.720708615E0,-1.832595794E-3,-2.382374369E-2,-4.886921961E-3
2.722723080E0,-1.221730490E-3,-2.504547499E-2,-6.108652335E-3
2.724706699E0,-1.832595794E-3,-2.504547499E-2,-7.330383174E-3
2.726721241E0,-3.665191587E-3,-2.504547499E-2,-5.497787148E-3
2.728703705E0,-3.665191587E-3,-2.748893574E-2,-6.719517522E-3
2.730719017E0,-4.276056774E-3,-2.809980139E-2,-7.330383174E-3
2.732733789E0,-3.054326167E-3,-2.809980139E-2,-7.941247895E-3
2.734715946E0,-5.497787148E-3,-2.993239649E-2,-8.552113548E-3
2.736730411E0,-3.054326167E-3,-2.932153270E-2,-7.330383174E-3
2.738714184E0,-3.665191587E-3,-2.932153270E-2,-6.108652335E-3
2.740728957E0,-4.886921961E-3,-2.871066704E-2,-6.719517522E-3
2.742712037E0,-4.276056774E-3,-2.993239649E-2,-6.108652335E-3
2.744722809E0,-3.054326167E-3,-2.993239649E-2,-8.552113548E-3
2.746708659E0,-4.276056774E-3,-2.809980139E-2,-6.719517522E-3
2.748723662E0,-4.886921961E-3,-2.809980139E-2,-7.941247895E-3
2.750707666E0,-6.108652335E-3,-2.626720630E-2,-4.886921961E-3
2.752722515E0,-4.886921961E-3,-2.382374369E-2,-4.276056774E-3
2.754705595E0,-4.276056774E-3,-2.626720630E-2,-5.497787148E-3
2.756719369E0,-6.719517522E-3,-2.321287990E-2,-6.719517522E-3
2.758733295E0,-4.276056774E-3,-2.382374369E-2,-6.719517522E-3
2.760716991E0,-5.497787148E-3,-2.382374369E-2,-3.054326167E-3
2.762731456E0,-3.665191587E-3,-2.504547499E-2,-5.497787148E-3
2.764715997E0,-4.276056774E-3,-2.199114859E-2,-5.497787148E-3
2.766729309E0,-3.665191587E-3,-2.138028294E-2,-4.276056774E-3
2.768713850E0,-3.665191587E-3,-2.199114859E-2,-4.276056774E-3
2.770726239E0,-3.665191587E-3,-1.954768784E-2,-3.665191587E-3
2.772711088E0,0.000000000E0,-2.138028294E-2,-4.886921961E-3
2.774725014E0,-1.832595794E-3,-1.771509275E-2,-3.665191587E-3
2.776708403E0,-4.276056774E-3,-1.832595654E-2,-3.665191587E-3
2.778722560E0,-3.665191587E-3,-1.954768784E-2,-1.221730490E-3
2.780706255E0,-2.443460980E-3,-1.527163107E-2,-1.832595794E-3
2.782719720E0,-2.443460980E-3,-1.221730467E-2,-1.832595794E-3
2.784734800E0,-3.054326167E-3,-1.282817032E-2,-6.108652451E-4
2.786719420E0,-4.276056774E-3,-1.099557430E-2,-1.832595794E-3
2.788733269E0,-1.221730490E-3,-1.038470957E-2,6.108652451E-4
2.790715503E0,-4.276056774E-3,-8.552113548E-3,2.443460980E-3
2.792731199E0,-3.665191587E-3,-8.552113548E-3,0.000000000E0
2.794713663E0,-2.443460980E-3,-6.108652335E-3,1.221730490E-3
2.796727821E0,-1.832595794E-3,-6.719517522E-3,1.832595794E-3
2.798711747E0,-1.832595794E-3,-2.443460980E-3,2.443460980E-3
2.800725597E0,-1.221730490E-3,-4.276056774E-3,6.108652451E-4
2.802709677E0,-1.221730490E-3,-2.443460980E-3,3.054326167E-3
2.804724142E0,-1.832595794E-3,-1.221730490E-3,1.832595794E-3
2.806707531E0,-6.108652451E-4,0.000000000E0,0.000000000E0
2.808721611E0,-1.832595794E-3,2.443460980E-3,1.221730490E-3
2.810705075E0,-2.443460980E-3,4.276056774E-3,-1.221730490E-3
2.812720079E0,6.108652451E-4,4.276056774E-3,1.221730490E-3
2.814734313E0,6.108652451E-4,5.497787148E-3,-6.108652451E-4
2.816716778E0,-1.221730490E-3,6.719517522E-3,6.108652451E-4
2.818731243E0,6.108652451E-4,7.330383174E-3,0.000000000E0
2.820714631E0,-6.108652451E-4,7.941247895E-3,6.108652451E-4
2.822728712E0,0.000000000E0,7.330383174E-3,0.000000000E0
2.824712099E0,0.000000000E0,7.330383174E-3,-1.221730490E-3
2.826726564E0,1.832595794E-3,7.330383174E-3,1.221730490E-3
2.828710029E0,-6.108652451E-4,6.719517522E-3,0.000000000E0
2.830724725E0,6.108652451E-4,8.552113548E-3,-2.443460980E-3
2.832709113E0,1.832595794E-3,4.886921961E-3,-1.221730490E-3
2.834722578E0,1.221730490E-3,4.886921961E-3,-1.221730490E-3
2.836706042E0,-2.443460980E-3,5.497787148E-3,-1.832595794E-3
2.838720123E0,0.000000000E0,3.665191587E-3,-6.108652451E-4
2.840733742E0,0.000000000E0,4.886921961E-3,-2.443460980E-3
2.842717746E0,0.000000000E0,1.832595794E-3,-3.054326167E-3
2.844732133E0,6.108652451E-4,1.221730490E-3,-1.221730490E-3
2.846715598E0,-1.221730490E-3,-1.221730490E-3,-1.832595794E-3
2.848730602E0,6.108652451E-4,-3.665191587E-3,-4.276056774E-3
2.850713989E0,-1.832595794E-3,-3.665191587E-3,-4.886921961E-3
2.852728840E0,-2.443460980E-3,-7.330383174E-3,-3.665191587E-3
2.854711843E0,6.108652451E-4,-8.552113548E-3,-3.054326167E-3
2.856725076E0,0.000000000E0,-1.038470957E-2,-6.108652335E-3
2.858708542E0,-1.221730490E-3,-1.221730467E-2,-6.108652335E-3
2.860723622E0,6.108652451E-4,-1.649336144E-2,-6.108652335E-3
2.862706317E0,0.000000000E0,-1.771509275E-2,-6.719517522E-3
2.864720475E0,-6.108652451E-4,-2.015855350E-2,-7.330383174E-3
2.866736863E0,6.108652451E-4,-2.076941915E-2,-5.497787148E-3
2.868719559E0,0.000000000E0,-2.076941915E-2,-7.330383174E-3
2.870732870E0,-3.054326167E-3,-2.260201424E-2,-4.276056774E-3
2.872718334E0,-6.108652451E-4,-2.321287990E-2,-3.054326167E-3
2.874731261E0,-1.221730490E-3,-2.443460934E-2,-1.832595794E-3
2.876714110E0,-3.054326167E-3,-2.687807009E-2,-6.108652335E-3
2.878729191E0,-1.832595794E-3,-2.748893574E-2,-4.886921961E-3
2.880711964E0,-1.832595794E-3,-2.687807009E-2,-4.276056774E-3
2.882726736E0,-4.886921961E-3,-2.932153270E-2,-3.054326167E-3
2.884710432E0,-3.054326167E-3,-3.115412779E-2,-3.665191587E-3
2.886724512E0,-3.665191587E-3,-3.176499158E-2,-2.443460980E-3
2.888707978E0,-4.276056774E-3,-3.298672289E-2,-4.276056774E-3
2.890722673E0,-4.276056774E-3,-3.237585723E-2,-5.497787148E-3
2.892706676E0,-3.054326167E-3,-3.359758854E-2,-3.054326167E-3
2.894720218E0,-3.054326167E-3,-3.237585723E-2,-4.886921961E-3
2.896733837E0,-3.054326167E-3,-3.298672289E-2,-3.665191587E-3
2.898718148E0,-2.443460980E-3,-3.237585723E-2,-2.443460980E-3
2.900731613E0,-3.665191587E-3,-3.298672289E-2,-5.497787148E-3
2.902715924E0,-2.443460980E-3,-3.237585723E-2,-4.276056774E-3
2.904729543E0,-3.665191587E-3,-2.932153270E-2,-4.276056774E-3
2.906712931E0,-5.497787148E-3,-3.054326214E-2,-4.276056774E-3
2.908727935E0,-2.443460980E-3,-3.054326214E-2,-5.497787148E-3
2.910711938E0,-3.054326167E-3,-2.871066704E-2,-4.886921961E-3
2.912726710E0,-1.832595794E-3,-2.871066704E-2,-3.054326167E-3
2.914708945E0,-6.108652335E-3,-2.382374369E-2,-3.054326167E-3
2.916724025E0,-4.886921961E-3,-2.382374369E-2,-4.886921961E-3
2.918706412E0,-3.665191587E-3,-2.565634064E-2,-6.108652451E-4
2.920721185E0,-3.665191587E-3,-2.321287990E-2,-2.443460980E-3
2.922735650E0,-2.443460980E-3,-2.138028294E-2,-1.221730490E-3
2.924719654E0,-3.665191587E-3,-2.076941915E-2,-6.108652451E-4
2.926733580E0,-3.054326167E-3,-1.771509275E-2,-1.832595794E-3
2.928717506E0,-6.108652451E-4,-1.588249579E-2,-2.443460980E-3
2.930731049E0,-1.221730490E-3,-1.588249579E-2,-1.832595794E-3
2.932716052E0,-2.443460980E-3,-1.404990070E-2,-1.832595794E-3
2.934729517E0,-1.832595794E-3,-1.221730467E-2,-1.832595794E-3
2.936712674E0,-1.832595794E-3,-1.160643995E-2,-1.832595794E-3
2.938726139E0,-3.054326167E-3,-1.282817032E-2,-3.054326167E-3
2.940709912E0,-2.443460980E-3,-1.160643995E-2,-3.054326167E-3
2.942724299E0,-6.108652451E-4,-1.038470957E-2,-1.832595794E-3
2.944706842E0,-6.108652451E-4,-9.162978269E-3,-1.832595794E-3
2.946723076E0,-2.443460980E-3,-7.330383174E-3,-1.832595794E-3
2.948705925E0,-6.108652451E-4,-7.330383174E-3,-1.832595794E-3
2.950719160E0,0.000000000E0,-7.941247895E-3,-2.443460980E-3
2.952735778E0,-6.108652451E-4,-6.719517522E-3,6.108652451E-4
2.954718167E0,-3.665191587E-3,-3.054326167E-3,-2.443460980E-3
2.956731477E0,-3.054326167E-3,-3.054326167E-3,-2.443460980E-3
2.958715173E0,6.108652451E-4,-4.886921961E-3,-1.832595794E-3
2.960729869E0,-1.221730490E-3,-4.886921961E-3,-6.108652451E-4
2.962713641E0,-3.665191587E-3,-2.443460980E-3,0.000000000E0
2.964728029E0,-1.832595794E-3,-3.054326167E-3,-2.443460980E-3
2.966711494E0,-6.108652451E-4,-3.054326167E-3,0.000000000E0
2.968724959E0,-6.108652451E-4,-4.886921961E-3,-3.054326167E-3
2.970708732E0,-1.221730490E-3,-2.443460980E-3,-3.054326167E-3
2.972724427E0,-1.832595794E-3,-2.443460980E-3,-6.108652451E-4
2.974706892E0,-1.832595794E-3,-6.108652451E-4,-1.832595794E-3
2.976720973E0,-2.443460980E-3,-1.832595794E-3,0.000000000E0
2.978735514E0,-4.276056774E-3,0.000000000E0,-1.221730490E-3
2.980718595E0,-4.276056774E-3,-2.443460980E-3,-1.221730490E-3
2.982732675E0,-4.276056774E-3,0.000000000E0,6.108652451E-4
2.984716140E0,-4.886921961E-3,1.832595794E-3,1.221730490E-3
2.986730298E0,-4.886921961E-3,2.443460980E-3,0.000000000E0
2.988714531E0,-4.276056774E-3,1.221730490E-3,-6.108652451E-4
2.990728151E0,-6.108652335E-3,1.221730490E-3,1.221730490E-3
2.992713385E0,-6.719517522E-3,1.221730490E-3,0.000000000E0
2.994727464E0,-6.719517522E-3,1.221730490E-3,3.054326167E-3
2.996709930E0,-7.330383174E-3,4.886921961E-3,3.054326167E-3
2.998724471E0,-6.108652335E-3,5.497787148E-3,3.054326167E-3
3.000707244E0,-5.497787148E-3,4.276056774E-3,3.665191587E-3
3.002722248E0,-6.719517522E-3,6.108652335E-3,1.832595794E-3
3.004706251E0,-6.719517522E-3,6.719517522E-3,3.665191587E-3
3.006719178E0,-8.552113548E-3,8.552113548E-3,1.832595794E-3
3.008733719E0,-5.497787148E-3,7.330383174E-3,4.276056774E-3
3.010717953E0,-4.886921961E-3,7.941247895E-3,3.665191587E-3
3.012732419E0,-4.276056774E-3,1.221730467E-2,3.665191587E-3
3.014715268E0,-4.886921961E-3,1.038470957E-2,4.886921961E-3
3.016729656E0,-3.665191587E-3,1.221730467E-2,3.054326167E-3
3.018713352E0,-4.276056774E-3,1.160643995E-2,1.832595794E-3
3.020727509E0,-3.054326167E-3,1.099557430E-2,3.054326167E-3
3.022711205E0,-3.665191587E-3,1.282817032E-2,4.276056774E-3
3.024725131E0,-2.443460980E-3,1.160643995E-2,3.665191587E-3
3.026709443E0,-3.054326167E-3,1.221730467E-2,1.221730490E-3
3.028722907E0,-3.665191587E-3,1.221730467E-2,1.221730490E-3
3.030706602E0,-1.832595794E-3,1.221730467E-2,3.054326167E-3
3.032721991E0,-2.443460980E-3,1.160643995E-2,2.443460980E-3
3.034705071E0,-2.443460980E-3,1.343903504E-2,4.886921961E-3
3.036718075E0,-3.054326167E-3,1.221730467E-2,2.443460980E-3
3.038733155E0,-1.832595794E-3,1.160643995E-2,3.665191587E-3
3.040716543E0,-2.443460980E-3,1.282817032E-2,3.054326167E-3
3.042730393E0,-2.443460980E-3,1.282817032E-2,2.443460980E-3
3.044714627E0,-3.054326167E-3,1.160643995E-2,1.832595794E-3
3.046728784E0,-6.108652451E-4,1.160643995E-2,1.221730490E-3
3.048712557E0,-3.054326167E-3,1.038470957E-2,3.054326167E-3
3.050726021E0,-2.443460980E-3,1.282817032E-2,3.665191587E-3
3.052710717E0,-2.443460980E-3,1.404990070E-2,3.054326167E-3
3.054724490E0,-2.443460980E-3,1.404990070E-2,4.886921961E-3
3.056707647E0,-1.221730490E-3,1.466076635E-2,4.276056774E-3
3.058721804E0,-3.054326167E-3,1.404990070E-2,3.665191587E-3
3.060705192E0,-1.221730490E-3,1.404990070E-2,3.665191587E-3
3.062720196E0,-1.221730490E-3,1.343903504E-2,3.054326167E-3
3.064730737E0,-4.276056774E-3,1.588249579E-2,4.886921961E-3
3.066717125E0,-6.108652451E-4,1.282817032E-2,3.665191587E-3
3.068731591E0,-2.443460980E-3,1.343903504E-2,4.276056774E-3
3.070715055E0,-3.665191587E-3,1.343903504E-2,3.665191587E-3
3.072730675E0,-3.665191587E-3,1.221730467E-2,2.443460980E-3
3.074713447E0,-3.665191587E-3,9.773843922E-3,3.665191587E-3
3.076727373E0,0.000000000E0,9.773843922E-3,5.497787148E-3
3.078711377E0,-3.054326167E-3,1.221730467E-2,4.276056774E-3
3.080725149E0,-1.832595794E-3,9.773843922E-3,3.054326167E-3
3.082708230E0,-3.054326167E-3,1.038470957E-2,4.276056774E-3
3.084723310E0,-3.665191587E-3,7.330383174E-3,6.108652335E-3
3.086706775E0,-2.443460980E-3,6.719517522E-3,5.497787148E-3
3.088720548E0,-3.054326167E-3,5.497787148E-3,3.054326167E-3
3.090735628E0,-3.054326167E-3,5.497787148E-3,3.665191587E-3
3.092718786E0,-4.276056774E-3,3.665191587E-3,3.054326167E-3
3.094733173E0,-3.054326167E-3,3.054326167E-3,2.443460980E-3
3.096716253E0,-1.221730490E-3,2.443460980E-3,1.221730490E-3
3.098730411E0,-4.276056774E-3,3.054326167E-3,1.221730490E-3
3.100714183E0,-2.443460980E-3,3.054326167E-3,3.665191587E-3
3.102727725E0,-2.443460980E-3,2.443460980E-3,3.054326167E-3
3.104711421E0,-1.221730490E-3,2.443460980E-3,1.221730490E-3
3.106726732E0,-3.054326167E-3,3.665191587E-3,4.276056774E-3
3.108710428E0,-4.886921961E-3,3.054326167E-3,1.221730490E-3
3.110723354E0,-2.443460980E-3,1.221730490E-3,1.832595794E-3
3.112708588E0,-2.443460980E-3,4.886921961E-3,6.108652451E-4
3.114722746E0,-4.886921961E-3,3.665191587E-3,2.443460980E-3
3.116705518E0,-1.832595794E-3,4.886921961E-3,2.443460980E-3
3.118719137E0,-1.832595794E-3,3.054326167E-3,4.276056774E-3
3.120733294E0,-4.276056774E-3,6.108652335E-3,2.443460980E-3
3.122717528E0,-4.886921961E-3,7.330383174E-3,2.443460980E-3
3.124731993E0,-4.886921961E-3,6.108652335E-3,1.832595794E-3
3.126715073E0,-6.108652335E-3,9.162978269E-3,3.054326167E-3
3.128728924E0,-3.665191587E-3,5.497787148E-3,3.665191587E-3
3.130713234E0,-4.276056774E-3,7.330383174E-3,3.665191587E-3
3.132728007E0,-5.497787148E-3,7.330383174E-3,4.276056774E-3
3.134710780E0,-4.886921961E-3,7.941247895E-3,3.054326167E-3
3.136724629E0,-3.665191587E-3,6.719517522E-3,3.054326167E-3
3.138707786E0,-4.886921961E-3,7.941247895E-3,3.054326167E-3
3.140722790E0,-3.665191587E-3,7.330383174E-3,3.665191587E-3
3.142705870E0,-2.443460980E-3,9.773843922E-3,4.886921961E-3
3.144720028E0,-3.665191587E-3,8.552113548E-3,1.832595794E-3
3.146734877E0,-3.665191587E-3,8.552113548E-3,2.443460980E-3
3.148718803E0,-4.276056774E-3,1.160643995E-2,3.665191587E-3
3.150732653E0,-2.443460980E-3,1.221730467E-2,3.665191587E-3
3.152716964E0,-3.665191587E-3,1.099557430E-2,3.054326167E-3
3.154730506E0,-4.276056774E-3,1.099557430E-2,2.443460980E-3
3.156713894E0,-4.276056774E-3,1.038470957E-2,3.054326167E-3
3.158728435E0,-2.443460980E-3,1.282817032E-2,2.443460980E-3
3.160711516E0,-6.108652451E-4,9.773843922E-3,3.665191587E-3
3.162726211E0,-6.108652451E-4,9.773843922E-3,1.832595794E-3
3.164710292E0,-3.054326167E-3,1.160643995E-2,6.108652451E-4
3.166723834E0,-3.665191587E-3,1.160643995E-2,0.000000000E0
3.168708068E0,-1.221730490E-3,1.160643995E-2,-6.108652451E-4
3.170721379E0,-1.832595794E-3,8.552113548E-3,-1.221730490E-3
3.172736998E0,-1.221730490E-3,9.162978269E-3,-1.832595794E-3
3.174719771E0,-6.108652451E-4,7.330383174E-3,-2.443460980E-3
3.176733697E0,6.108652451E-4,9.773843922E-3,-1.832595794E-3
3.178717623E0,0.000000000E0,7.330383174E-3,-4.276056774E-3
3.180730935E0,0.000000000E0,7.330383174E-3,-6.108652451E-4
3.182714938E0,-6.108652451E-4,4.276056774E-3,-2.443460980E-3
3.184728711E0,1.221730490E-3,4.886921961E-3,-1.832595794E-3
3.186713637E0,1.832595794E-3,4.886921961E-3,-1.832595794E-3
3.188727871E0,0.000000000E0,5.497787148E-3,-6.108652451E-4
3.190709721E0,6.108652451E-4,6.108652335E-3,-1.832595794E-3
3.192725955E0,2.443460980E-3,4.886921961E-3,-1.221730490E-3
3.194708727E0,-1.832595794E-3,5.497787148E-3,-1.221730490E-3
3.196722654E0,0.000000000E0,5.497787148E-3,6.108652451E-4
3.198705734E0,-6.108652451E-4,4.886921961E-3,-1.221730490E-3
3.200720815E0,1.221730490E-3,3.665191587E-3,-6.108652451E-4
3.202734972E0,-1.832595794E-3,1.832595794E-3,-6.108652451E-4
3.204719283E0,-6.108652451E-4,4.276056774E-3,0.000000000E0
3.206733056E0,-6.108652451E-4,1.832595794E-3,-1.221730490E-3
3.208716136E0,-6.108652451E-4,2.443460980E-3,6.108652451E-4
3.210730294E0,-1.832595794E-3,1.221730490E-3,-1.221730490E-3
3.212714297E0,6.108652451E-4,0.000000000E0,-1.221730490E-3
3.214728530E0,-1.832595794E-3,1.832595794E-3,-1.221730490E-3
3.216711842E0,-6.108652451E-4,-6.108652451E-4,-2.443460980E-3
3.218725999E0,-2.443460980E-3,-1.221730490E-3,-1.221730490E-3
3.220709464E0,-1.221730490E-3,-3.054326167E-3,-1.832595794E-3
3.222723544E0,-1.832595794E-3,-3.665191587E-3,-1.832595794E-3
3.224707009E0,-1.832595794E-3,-3.054326167E-3,-1.221730490E-3
3.226720859E0,-1.221730490E-3,-6.108652335E-3,-1.221730490E-3
3.228735862E0,-2.443460980E-3,-6.108652335E-3,-1.221730490E-3
3.230719250E0,-2.443460980E-3,-6.719517522E-3,6.108652451E-4
3.232734638E0,-1.221730490E-3,-6.719517522E-3,-6.108652451E-4
3.234717411E0,0.000000000E0,-9.162978269E-3,0.000000000E0
3.236731030E0,-6.108652451E-4,-9.773843922E-3,-1.221730490E-3
3.238715033E0,-2.443460980E-3,-6.719517522E-3,-1.221730490E-3
3.240729113E0,-2.443460980E-3,-9.773843922E-3,0.000000000E0
3.242712809E0,0.000000000E0,-7.330383174E-3,0.000000000E0
3.244727889E0,-2.443460980E-3,-8.552113548E-3,-6.108652451E-4
3.246710047E0,-2.443460980E-3,-1.038470957E-2,6.108652451E-4
3.248723896E0,-6.108652451E-4,-7.941247895E-3,-1.832595794E-3
3.250708207E0,-6.108652451E-4,-1.038470957E-2,-1.832595794E-3
3.252723672E0,-1.221730490E-3,-9.773843922E-3,-4.276056774E-3
3.254705829E0,-1.832595794E-3,-1.038470957E-2,-1.832595794E-3
3.256719987E0,-1.221730490E-3,-9.162978269E-3,-2.443460980E-3
3.258734759E0,-1.832595794E-3,-1.099557430E-2,-3.665191587E-3
3.260718147E0,-1.832595794E-3,-1.099557430E-2,-3.665191587E-3
3.262732536E0,-1.832595794E-3,-1.099557430E-2,-4.276056774E-3
3.264715385E0,-6.108652451E-4,-1.099557430E-2,-3.665191587E-3
3.266731004E0,-6.108652451E-4,-1.160643995E-2,-4.886921961E-3
3.268714392E0,-6.108652451E-4,-1.221730467E-2,-2.443460980E-3
3.270727625E0,-3.054326167E-3,-1.282817032E-2,-3.054326167E-3
3.272712014E0,-3.665191587E-3,-1.282817032E-2,-2.443460980E-3
3.274725786E0,-1.221730490E-3,-1.099557430E-2,-3.665191587E-3
3.276709251E0,-6.108652451E-4,-1.038470957E-2,-4.276056774E-3
3.278723409E0,-3.054326167E-3,-1.099557430E-2,-1.832595794E-3
3.280707027E0,-1.832595794E-3,-1.038470957E-2,0.000000000E0
3.282721570E0,-6.108652451E-4,-9.773843922E-3,-1.832595794E-3
3.284736265E0,-4.276056774E-3,-7.941247895E-3,-3.054326167E-3
3.286719345E0,-6.108652451E-4,-9.162978269E-3,-1.221730490E-3
3.288732656E0,-1.221730490E-3,-7.330383174E-3,-1.221730490E-3
3.290716275E0,-1.832595794E-3,-4.276056774E-3,-3.054326167E-3
3.292731356E0,-3.054326167E-3,-6.108652335E-3,0.000000000E0
3.294715051E0,-3.665191587E-3,-3.665191587E-3,6.108652451E-4
3.296729208E0,-1.832595794E-3,-3.665191587E-3,0.000000000E0
3.298712981E0,-2.443460980E-3,-2.443460980E-3,1.221730490E-3
3.300727369E0,-3.054326167E-3,-2.443460980E-3,6.108652451E-4
3.302710527E0,-1.221730490E-3,-1.832595794E-3,-1.221730490E-3
3.304720376E0,-5.497787148E-3,-1.221730490E-3,1.832595794E-3
3.306738148E0,-3.054326167E-3,0.000000000E0,6.108652451E-4
3.308721844E0,-1.221730490E-3,0.000000000E0,1.221730490E-3
3.310737232E0,-1.832595794E-3,6.108652451E-4,2.443460980E-3
3.312721313E0,-1.832595794E-3,6.108652451E-4,6.108652451E-4
3.314734162E0,-4.276056774E-3,3.054326167E-3,0.000000000E0
3.316718165E0,-3.054326167E-3,4.886921961E-3,6.108652451E-4
3.318732092E0,0.000000000E0,3.054326167E-3,1.832595794E-3
3.320715711E0,-6.108652451E-4,3.665191587E-3,1.221730490E-3
3.322729945E0,6.108652451E-4,6.108652335E-3,1.221730490E-3
3.324713871E0,-1.221730490E-3,6.719517522E-3,6.108652451E-4
3.326728028E0,6.108652451E-4,6.108652335E-3,6.108652451E-4
3.328711417E0,6.108652451E-4,9.162978269E-3,1.832595794E-3
3.330726497E0,1.221730490E-3,8.552113548E-3,1.832595794E-3
3.332709884E0,6.108652451E-4,9.162978269E-3,6.108652451E-4
3.334723427E0,1.221730490E-3,7.941247895E-3,1.832595794E-3
3.336706276E0,6.108652451E-4,9.773843922E-3,-6.108652451E-4
3.338721280E0,1.832595794E-3,1.038470957E-2,-1.832595794E-3
3.340734898E0,1.832595794E-3,7.330383174E-3,-6.108652451E-4
3.342718286E0,1.832595794E-3,7.941247895E-3,1.221730490E-3
3.344733290E0,1.832595794E-3,7.941247895E-3,6.108652451E-4
3.346717678E0,3.054326167E-3,7.941247895E-3,-1.832595794E-3
3.348731451E0,4.276056774E-3,7.330383174E-3,-6.108652451E-4
3.350713608E0,1.221730490E-3,8.552113548E-3,6.108652451E-4
3.352729611E0,6.108652451E-4,8.552113548E-3,0.000000000E0
3.354712384E0,1.221730490E-3,7.941247895E-3,0.000000000E0
3.356726849E0,2.443460980E-3,3.665191587E-3,-6.108652451E-4
3.358710006E0,1.832595794E-3,4.886921961E-3,-1.221730490E-3
3.360724086E0,1.221730490E-3,3.665191587E-3,6.108652451E-4
3.362708166E0,1.832595794E-3,1.221730490E-3,6.108652451E-4
3.364723170E0,6.108652451E-4,1.221730490E-3,2.443460980E-3
3.366705635E0,6.108652451E-4,-2.443460980E-3,-1.221730490E-3
3.368720484E0,-1.221730490E-3,-1.832595794E-3,1.832595794E-3
3.370734334E0,-1.832595794E-3,-4.886921961E-3,1.832595794E-3
3.372718337E0,0.000000000E0,-3.665191587E-3,6.108652451E-4
3.374732110E0,0.000000000E0,-5.497787148E-3,1.221730490E-3
3.376715806E0,-1.221730490E-3,-6.719517522E-3,6.108652451E-4
3.378729039E0,-3.054326167E-3,-7.941247895E-3,4.276056774E-3
3.380712428E0,-1.832595794E-3,-9.773843922E-3,1.832595794E-3
3.382727200E0,-2.443460980E-3,-1.221730467E-2,-6.108652451E-4
3.384711204E0,-2.443460980E-3,-1.343903504E-2,1.221730490E-3
3.386724746E0,-3.665191587E-3,-1.282817032E-2,1.221730490E-3
3.388708826E0,-2.443460980E-3,-1.771509275E-2,6.108652451E-4
3.390723522E0,-1.832595794E-3,-1.832595654E-2,0.000000000E0
3.392707525E0,-3.054326167E-3,-1.588249579E-2,1.832595794E-3
3.394720529E0,-4.276056774E-3,-1.710422710E-2,1.832595794E-3
3.396734994E0,-3.054326167E-3,-1.832595654E-2,-6.108652451E-4
3.398718074E0,-6.108652451E-4,-1.832595654E-2,0.000000000E0
3.400732539E0,-3.054326167E-3,-1.710422710E-2,1.221730490E-3
3.402717081E0,-5.497787148E-3,-1.710422710E-2,1.832595794E-3
3.404731315E0,-6.719517522E-3,-1.527163107E-2,6.108652451E-4
3.406714934E0,-3.665191587E-3,-1.527163107E-2,0.000000000E0
3.408728860E0,-5.497787148E-3,-1.466076635E-2,-6.108652451E-4
3.410711941E0,-5.497787148E-3,-1.404990070E-2,1.832595794E-3
3.412727021E0,-3.665191587E-3,-1.282817032E-2,1.832595794E-3
3.414710947E0,-5.497787148E-3,-8.552113548E-3,1.832595794E-3
3.416723951E0,-1.221730490E-3,-9.162978269E-3,1.832595794E-3
3.418707646E0,-2.443460980E-3,-6.719517522E-3,3.054326167E-3
3.420721804E0,-2.443460980E-3,-6.719517522E-3,6.108652451E-4
3.422735345E0,-3.665191587E-3,-5.497787148E-3,1.832595794E-3
3.424718964E0,-1.221730490E-3,-4.886921961E-3,0.000000000E0
3.426734429E0,-4.276056774E-3,-2.443460980E-3,-6.108652451E-4
3.428717817E0,-1.832595794E-3,-1.221730490E-3,-6.108652451E-4
3.430730975E0,1.221730490E-3,-1.832595794E-3,1.832595794E-3
3.432716593E0,-1.832595794E-3,-1.832595794E-3,-3.054326167E-3
3.434729750E0,0.000000000E0,3.054326167E-3,-1.832595794E-3
3.436713216E0,0.000000000E0,4.276056774E-3,-6.108652451E-4
3.438726757E0,1.221730490E-3,2.443460980E-3,-1.221730490E-3
3.440710761E0,2.443460980E-3,4.276056774E-3,-1.832595794E-3
3.442725456E0,1.832595794E-3,6.719517522E-3,-6.108652451E-4
3.444709459E0,1.221730490E-3,7.941247895E-3,-3.054326167E-3
3.446722463E0,1.221730490E-3,6.719517522E-3,0.000000000E0
3.448706774E0,2.443460980E-3,1.099557430E-2,-1.221730490E-3
3.450720547E0,3.054326167E-3,8.552113548E-3,-6.108652451E-4
3.452736012E0,3.054326167E-3,8.552113548E-3,1.221730490E-3
3.454719630E0,2.443460980E-3,9.162978269E-3,0.000000000E0
3.456733788E0,3.665191587E-3,1.282817032E-2,1.832595794E-3
3.458716945E0,3.054326167E-3,9.773843922E-3,0.000000000E0
3.460730486E0,3.054326167E-3,6.719517522E-3,-1.832595794E-3
3.462713798E0,3.054326167E-3,1.038470957E-2,0.000000000E0
3.464727416E0,1.832595794E-3,7.941247895E-3,6.108652451E-4
3.466712267E0,2.443460980E-3,8.552113548E-3,-1.221730490E-3
3.468726808E0,6.108652451E-4,7.330383174E-3,0.000000000E0
3.470709811E0,3.665191587E-3,5.497787148E-3,1.221730490E-3
3.472724969E0,3.665191587E-3,6.108652335E-3,1.221730490E-3
3.474708357E0,2.443460980E-3,6.719517522E-3,6.108652451E-4
3.476722745E0,2.443460980E-3,4.886921961E-3,-1.221730490E-3
3.478704902E0,2.443460980E-3,1.832595794E-3,0.000000000E0
3.480719674E0,2.443460980E-3,1.832595794E-3,6.108652451E-4
3.482733601E0,3.054326167E-3,1.221730490E-3,1.221730490E-3
3.484718450E0,0.000000000E0,2.443460980E-3,6.108652451E-4
3.486731993E0,0.000000000E0,-2.443460980E-3,6.108652451E-4
3.488715073E0,2.443460980E-3,-1.221730490E-3,1.832595794E-3
3.490728999E0,6.108652451E-4,-3.054326167E-3,0.000000000E0
3.492714234E0,0.000000000E0,-1.832595794E-3,0.000000000E0
3.494726852E0,-3.054326167E-3,-2.443460980E-3,-6.108652451E-4
3.496711087E0,-4.276056774E-3,-3.054326167E-3,-1.832595794E-3
3.498725013E0,0.000000000E0,-6.719517522E-3,-2.443460980E-3
3.500708631E0,-6.108652451E-4,-8.552113548E-3,-1.221730490E-3
3.502722482E0,-3.665191587E-3,-9.162978269E-3,-6.108652451E-4
3.504706254E0,-1.832595794E-3,-1.099557430E-2,0.000000000E0
3.506721641E0,-6.108652451E-4,-1.160643995E-2,-6.108652451E-4
3.508735492E0,-1.832595794E-3,-9.773843922E-3,-1.832595794E-3
3.510717956E0,-2.443460980E-3,-1.160643995E-2,-6.108652451E-4
3.512734191E0,-1.221730490E-3,-1.160643995E-2,6.108652451E-4
3.514716040E0,-3.054326167E-3,-8.552113548E-3,0.000000000E0
3.516729966E0,-3.054326167E-3,-7.330383174E-3,-1.221730490E-3
3.518714201E0,-4.276056774E-3,-7.941247895E-3,-1.221730490E-3
3.520728050E0,-1.221730490E-3,-6.108652335E-3,-1.221730490E-3
3.522711823E0,-2.443460980E-3,-6.719517522E-3,-1.832595794E-3
3.524725980E0,-3.665191587E-3,-6.108652335E-3,1.221730490E-3
3.526709906E0,-4.276056774E-3,-4.276056774E-3,-3.054326167E-3
3.528724064E0,0.000000000E0,-6.719517522E-3,6.108652451E-4
3.530708067E0,-4.886921961E-3,-3.665191587E-3,1.221730490E-3
3.532722302E0,-1.221730490E-3,-4.276056774E-3,1.221730490E-3
3.534735459E0,-1.221730490E-3,-3.054326167E-3,1.832595794E-3
3.536720077E0,-2.443460980E-3,-3.054326167E-3,0.000000000E0
3.538734235E0,6.108652451E-4,-2.443460980E-3,1.221730490E-3
3.540716699E0,-1.221730490E-3,-1.832595794E-3,-6.108652451E-4
3.542730934E0,1.221730490E-3,1.221730490E-3,2.443460980E-3
3.544714860E0,-1.832595794E-3,1.832595794E-3,6.108652451E-4
3.546728709E0,-1.221730490E-3,6.108652451E-4,1.221730490E-3
3.548713098E0,-6.108652451E-4,3.665191587E-3,-6.108652451E-4
3.550727255E0,-6.108652451E-4,3.665191587E-3,6.108652451E-4
3.552712104E0,-3.054326167E-3,3.665191587E-3,2.443460980E-3
3.554725416E0,0.000000000E0,3.054326167E-3,1.832595794E-3
3.556708803E0,6.108652451E-4,3.665191587E-3,6.108652451E-4
3.558723269E0,1.221730490E-3,4.886921961E-3,1.221730490E-3
3.560706349E0,-1.221730490E-3,4.886921961E-3,1.221730490E-3
3.562720737E0,-6.108652451E-4,6.719517522E-3,1.832595794E-3
3.564735202E0,-6.108652451E-4,7.941247895E-3,0.000000000E0
3.566718667E0,1.221730490E-3,7.330383174E-3,4.276056774E-3
3.568732517E0,0.000000000E0,7.941247895E-3,2.443460980E-3
3.570716827E0,6.108652451E-4,9.162978269E-3,4.886921961E-3
3.572731830E0,-1.221730490E-3,9.162978269E-3,4.276056774E-3
3.574714065E0,0.000000000E0,9.162978269E-3,1.832595794E-3
3.576728145E0,-6.108652451E-4,9.773843922E-3,3.665191587E-3
3.578711611E0,6.108652451E-4,1.099557430E-2,3.665191587E-3
3.580726075E0,-1.221730490E-3,1.160643995E-2,1.221730490E-3
3.582709386E0,0.000000000E0,1.404990070E-2,6.108652451E-4
3.584722698E0,6.108652451E-4,1.160643995E-2,4.276056774E-3
3.586708547E0,1.221730490E-3,1.099557430E-2,2.443460980E-3
3.588722320E0,6.108652451E-4,9.162978269E-3,1.832595794E-3
3.590735554E0,6.108652451E-4,9.773843922E-3,6.108652451E-4
3.592719865E0,6.108652451E-4,7.941247895E-3,1.832595794E-3
3.594734022E0,3.665191587E-3,8.552113548E-3,1.221730490E-3
3.596716487E0,0.000000000E0,7.941247895E-3,1.221730490E-3
3.598731336E0,-1.221730490E-3,7.330383174E-3,-1.221730490E-3
3.600713802E0,6.108652451E-4,6.719517522E-3,0.000000000E0
3.602729189E0,1.832595794E-3,9.162978269E-3,0.000000000E0
3.604714039E0,0.000000000E0,6.719517522E-3,-1.832595794E-3
3.606727273E0,1.832595794E-3,7.330383174E-3,-1.832595794E-3
3.608710430E0,1.832595794E-3,5.497787148E-3,-3.054326167E-3
3.610724819E0,1.221730490E-3,5.497787148E-3,-1.221730490E-3
3.612709822E0,6.108652451E-4,3.054326167E-3,-4.276056774E-3
3.614722749E0,6.108652451E-4,1.832595794E-3,-1.221730490E-3
3.616706675E0,1.832595794E-3,6.108652451E-4,-1.832595794E-3
3.618720216E0,-1.221730490E-3,1.832595794E-3,-6.108652451E-4
3.620734682E0,-6.108652451E-4,-1.221730490E-3,-1.221730490E-3
3.622717762E0,6.108652451E-4,-1.221730490E-3,-1.832595794E-3
3.624728535E0,-1.221730490E-3,-1.832595794E-3,-6.108652451E-4
3.626715384E0,-1.832595794E-3,-1.832595794E-3,-1.221730490E-3
3.628730156E0,-1.832595794E-3,-3.054326167E-3,-4.276056774E-3
3.630713545E0,0.000000000E0,-5.497787148E-3,-3.054326167E-3
3.632728548E0,-1.832595794E-3,-7.330383174E-3,-2.443460980E-3
3.634711705E0,-1.221730490E-3,-5.497787148E-3,-1.832595794E-3
3.636725786E0,6.108652451E-4,-6.719517522E-3,-1.832595794E-3
3.638709558E0,6.108652451E-4,-7.941247895E-3,-3.665191587E-3
3.640723100E0,0.000000000E0,-1.038470957E-2,-6.108652451E-4
3.642707103E0,-1.221730490E-3,-9.162978269E-3,-3.665191587E-3
3.644722106E0,-1.832595794E-3,-7.941247895E-3,-3.054326167E-3
3.646735957E0,-1.221730490E-3,-1.343903504E-2,-1.832595794E-3
3.648719421E0,-1.221730490E-3,-1.160643995E-2,-1.832595794E-3
3.650733579E0,-1.832595794E-3,-1.160643995E-2,-3.054326167E-3
3.652717582E0,0.000000000E0,-1.282817032E-2,-2.443460980E-3
3.654732047E0,-2.443460980E-3,-1.404990070E-2,-1.832595794E-3
3.656715051E0,-1.832595794E-3,-1.343903504E-2,-2.443460980E-3
3.658728592E0,-1.832595794E-3,-1.282817032E-2,-2.443460980E-3
3.660712288E0,1.221730490E-3,-1.282817032E-2,-6.108652451E-4
3.662727368E0,6.108652451E-4,-1.282817032E-2,-1.832595794E-3
3.664709833E0,6.108652451E-4,-1.404990070E-2,-2.443460980E-3
3.666725221E0,-1.221730490E-3,-1.404990070E-2,-1.832595794E-3
3.668708917E0,1.832595794E-3,-1.099557430E-2,-6.108652451E-4
3.670722459E0,6.108652451E-4,-1.282817032E-2,-3.665191587E-3
3.672738770E0,1.221730490E-3,-1.221730467E-2,-2.443460980E-3
3.674720696E0,-6.108652451E-4,-9.162978269E-3,-4.886921961E-3
3.676734546E0,0.000000000E0,-9.773843922E-3,-1.832595794E-3
3.678717626E0,2.443460980E-3,-6.719517522E-3,-3.665191587E-3
3.680731707E0,6.108652451E-4,-7.941247895E-3,-2.443460980E-3
3.682716018E0,-1.832595794E-3,-4.276056774E-3,-4.276056774E-3
3.684730175E0,-6.108652451E-4,-5.497787148E-3,-3.665191587E-3
3.686713563E0,-1.221730490E-3,-4.276056774E-3,-6.108652451E-4
3.688727797E0,1.221730490E-3,-3.054326167E-3,-6.108652451E-4
3.690711415E0,1.221730490E-3,-1.832595794E-3,-1.221730490E-3
3.692726804E0,1.221730490E-3,-3.665191587E-3,-1.832595794E-3
3.694708961E0,1.221730490E-3,-3.054326167E-3,-3.054326167E-3
3.696723734E0,-6.108652451E-4,-1.221730490E-3,6.108652451E-4
3.698707122E0,6.108652451E-4,-3.054326167E-3,-6.108652451E-4
3.700721663E0,3.054326167E-3,-3.054326167E-3,-1.221730490E-3
3.702735129E0,-6.108652451E-4,-1.832595794E-3,-2.443460980E-3
3.704718824E0,-6.108652451E-4,-6.108652451E-4,6.108652451E-4
3.706732059E0,1.832595794E-3,-4.276056774E-3,6.108652451E-4
3.708716754E0,-6.108652451E-4,-1.221730490E-3,0.000000000E0
3.710730834E0,0.000000000E0,0.000000000E0,-1.832595794E-3
3.712715223E0,-1.832595794E-3,6.108652451E-4,-1.832595794E-3
3.714729610E0,-1.221730490E-3,1.221730490E-3,0.000000000E0
3.716712999E0,-1.832595794E-3,6.108652451E-4,-6.108652451E-4
3.718726540E0,-2.443460980E-3,6.108652451E-4,-1.221730490E-3
3.720710543E0,-1.832595794E-3,-2.443460980E-3,0.000000000E0
3.722724394E0,-2.443460980E-3,-2.443460980E-3,2.443460980E-3
3.724709320E0,-1.221730490E-3,-1.221730490E-3,-2.443460980E-3
3.726722324E0,-2.443460980E-3,-1.832595794E-3,1.832595794E-3
3.728736711E0,-6.108652451E-4,-3.054326167E-3,-3.054326167E-3
3.730719868E0,-1.221730490E-3,-1.832595794E-3,-1.221730490E-3
3.732734564E0,-1.221730490E-3,-4.276056774E-3,-2.443460980E-3
3.734717721E0,-2.443460980E-3,-3.665191587E-3,-1.221730490E-3
3.736732109E0,-6.108652451E-4,-3.665191587E-3,-2.443460980E-3
3.738715574E0,-1.221730490E-3,-3.665191587E-3,-2.443460980E-3
3.740729347E0,-1.221730490E-3,-4.886921961E-3,-3.054326167E-3
3.742713351E0,-1.221730490E-3,-4.276056774E-3,-3.054326167E-3
3.744728123E0,0.000000000E0,-3.054326167E-3,-2.443460980E-3
3.746712126E0,0.000000000E0,-4.886921961E-3,-1.221730490E-3
3.748725745E0,-1.832595794E-3,-4.276056774E-3,-3.054326167E-3
3.750708518E0,-6.108652451E-4,-4.886921961E-3,-2.443460980E-3
3.752724137E0,1.221730490E-3,-4.886921961E-3,-1.221730490E-3
3.754706678E0,6.108652451E-4,-4.276056774E-3,-3.054326167E-3
3.756720835E0,0.000000000E0,-5.497787148E-3,-2.443460980E-3
3.758735301E0,-1.221730490E-3,-3.665191587E-3,-3.054326167E-3
3.760719304E0,0.000000000E0,-3.665191587E-3,0.000000000E0
3.762733462E0,6.108652451E-4,-4.276056774E-3,-2.443460980E-3
3.764717388E0,1.221730490E-3,-2.443460980E-3,-1.221730490E-3
3.766731545E0,1.221730490E-3,-5.497787148E-3,0.000000000E0
3.768714318E0,-6.108652451E-4,-4.886921961E-3,6.108652451E-4
3.770728859E0,1.221730490E-3,-6.108652335E-3,-3.054326167E-3
3.772713170E0,6.108652451E-4,-4.886921961E-3,0.000000000E0
3.774726712E0,0.000000000E0,-6.719517522E-3,-2.443460980E-3
3.776710023E0,-1.221730490E-3,-4.886921961E-3,-3.054326167E-3
3.778723873E0,0.000000000E0,-4.276056774E-3,-6.108652451E-4
3.780708492E0,-6.108652451E-4,-6.719517522E-3,-1.221730490E-3
3.782721802E0,-1.221730490E-3,-3.665191587E-3,-1.221730490E-3
3.784735345E0,-1.221730490E-3,-6.719517522E-3,0.000000000E0
3.786721425E0,-6.108652451E-4,-7.941247895E-3,-6.108652451E-4
3.788734121E0,-1.221730490E-3,-6.108652335E-3,-6.108652451E-4
3.790718047E0,-1.832595794E-3,-6.108652335E-3,0.000000000E0
3.792733435E0,-4.276056774E-3,-7.941247895E-3,0.000000000E0
3.794715593E0,-1.832595794E-3,-7.941247895E-3,-1.221730490E-3
3.796730673E0,-1.221730490E-3,-7.330383174E-3,6.108652451E-4
3.798713138E0,-3.054326167E-3,-7.330383174E-3,6.108652451E-4
3.800727372E0,-3.054326167E-3,-7.941247895E-3,1.221730490E-3
3.802711375E0,-1.832595794E-3,-6.719517522E-3,1.221730490E-3
3.804725533E0,0.000000000E0,-6.108652335E-3,3.054326167E-3
3.806709766E0,0.000000000E0,-6.108652335E-3,1.221730490E-3
3.808723001E0,-1.221730490E-3,-5.497787148E-3,1.832595794E-3
3.810707312E0,-1.832595794E-3,-5.497787148E-3,6.108652451E-4
3.812721853E0,-1.832595794E-3,-4.276056774E-3,6.108652451E-4
3.814735627E0,-1.832595794E-3,-3.665191587E-3,1.221730490E-3
3.816717860E0,-6.108652451E-4,-4.886921961E-3,6.108652451E-4
3.818732326E0,-6.108652451E-4,-4.276056774E-3,6.108652451E-4
3.820716252E0,1.832595794E-3,-4.276056774E-3,1.221730490E-3
3.822731024E0,-6.108652451E-4,-4.886921961E-3,-1.221730490E-3
3.824714413E0,0.000000000E0,-2.443460980E-3,0.000000000E0
3.826730108E0,0.000000000E0,-1.221730490E-3,-6.108652451E-4
3.828712342E0,1.832595794E-3,6.108652451E-4,-1.832595794E-3
3.830726115E0,3.054326167E-3,1.221730490E-3,6.108652451E-4
3.832711426E0,3.054326167E-3,-6.108652451E-4,-1.221730490E-3
3.834724276E0,1.221730490E-3,1.221730490E-3,0.000000000E0
3.836708279E0,1.832595794E-3,6.108652451E-4,-6.108652451E-4
3.838722744E0,1.832595794E-3,1.221730490E-3,-6.108652451E-4
3.840736286E0,1.221730490E-3,1.832595794E-3,0.000000000E0
3.842719366E0,-1.221730490E-3,1.832595794E-3,1.221730490E-3
3.844734832E0,1.832595794E-3,3.054326167E-3,1.832595794E-3
3.846717604E0,1.221730490E-3,3.054326167E-3,1.221730490E-3
3.848731376E0,1.221730490E-3,3.665191587E-3,6.108652451E-4
3.850715149E0,0.000000000E0,4.276056774E-3,-1.221730490E-3
3.852730229E0,0.000000000E0,5.497787148E-3,-1.221730490E-3
3.854713541E0,1.221730490E-3,4.886921961E-3,0.000000000E0
3.856726852E0,1.221730490E-3,5.497787148E-3,6.108652451E-4
3.858710547E0,1.221730490E-3,5.497787148E-3,0.000000000E0
3.860725628E0,2.443460980E-3,6.719517522E-3,6.108652451E-4
3.862708631E0,-6.108652451E-4,6.108652335E-3,6.108652451E-4
3.864722172E0,-6.108652451E-4,6.108652335E-3,-1.832595794E-3
3.866737022E0,1.221730490E-3,4.886921961E-3,6.108652451E-4
3.868721256E0,6.108652451E-4,4.276056774E-3,-6.108652451E-4
3.870735183E0,0.000000000E0,6.108652335E-3,2.443460980E-3
3.872720648E0,0.000000000E0,2.443460980E-3,3.054326167E-3
3.874732343E0,0.000000000E0,4.276056774E-3,6.108652451E-4
3.876716424E0,6.108652451E-4,3.665191587E-3,1.832595794E-3
3.878729889E0,-6.108652451E-4,2.443460980E-3,6.108652451E-4
3.880714277E0,6.108652451E-4,3.054326167E-3,3.054326167E-3
3.882728742E0,-6.108652451E-4,2.443460980E-3,1.832595794E-3
3.884712437E0,-1.221730490E-3,3.054326167E-3,1.832595794E-3
3.886726287E0,0.000000000E0,2.443460980E-3,2.443460980E-3
3.888709675E0,6.108652451E-4,4.276056774E-3,-6.108652451E-4
3.890724140E0,-6.108652451E-4,4.276056774E-3,2.443460980E-3
3.892708682E0,-6.108652451E-4,3.665191587E-3,-6.108652451E-4
3.894722300E0,-6.108652451E-4,4.276056774E-3,0.000000000E0
3.896736381E0,6.108652451E-4,3.665191587E-3,-1.221730490E-3
3.898719538E0,-1.221730490E-3,3.054326167E-3,1.832595794E-3
3.900733696E0,-1.221730490E-3,1.221730490E-3,1.221730490E-3
3.902717007E0,-1.221730490E-3,1.832595794E-3,2.443460980E-3
3.904731240E0,0.000000000E0,1.832595794E-3,2.443460980E-3
3.906716398E0,6.108652451E-4,-1.221730490E-3,0.000000000E0
3.908729709E0,-3.054326167E-3,0.000000000E0,1.221730490E-3
3.910712789E0,0.000000000E0,-6.108652451E-4,6.108652451E-4
3.912728793E0,2.443460980E-3,-3.054326167E-3,2.443460980E-3
3.914711873E0,-6.108652451E-4,-4.276056774E-3,1.832595794E-3
3.916725108E0,6.108652451E-4,-2.443460980E-3,6.108652451E-4
3.918708495E0,6.108652451E-4,-4.276056774E-3,1.221730490E-3
3.920722575E0,-1.832595794E-3,-3.665191587E-3,1.221730490E-3
3.922737425E0,-1.832595794E-3,-4.276056774E-3,-1.221730490E-3
3.924721044E0,6.108652451E-4,-3.665191587E-3,-1.221730490E-3
3.926734894E0,-1.221730490E-3,-6.108652335E-3,-1.221730490E-3
3.928718897E0,0.000000000E0,-5.497787148E-3,-1.832595794E-3
3.930733054E0,-1.221730490E-3,-5.497787148E-3,-1.832595794E-3
3.932717058E0,1.221730490E-3,-3.665191587E-3,-6.108652451E-4
3.934730291E0,-2.443460980E-3,-1.038470957E-2,-6.108652451E-4
3.936713988E0,-6.108652451E-4,-6.108652335E-3,0.000000000E0
3.938727529E0,-2.443460980E-3,-7.941247895E-3,6.108652451E-4
3.940711917E0,-6.108652451E-4,-8.552113548E-3,-6.108652451E-4
3.942725767E0,-6.108652451E-4,-9.773843922E-3,6.108652451E-4
3.944709155E0,-6.108652451E-4,-8.552113548E-3,-6.108652451E-4
3.946723236E0,-1.221730490E-3,-6.719517522E-3,0.000000000E0
3.948707316E0,-3.054326167E-3,-7.330383174E-3,-6.108652451E-4
