"Time (s)","Gyroscope x (rad/s)","Gyroscope y (rad/s)","Gyroscope z (rad/s)"
6.327041000E-3,2.015855350E-2,-3.054326214E-2,-5.497787148E-3
8.432508000E-3,2.015855350E-2,-3.054326214E-2,-5.497787148E-3
1.041659100E-2,2.015855350E-2,-3.054326214E-2,-5.497787148E-3
1.243013400E-2,2.015855350E-2,-3.054326214E-2,-5.497787148E-3
1.441413900E-2,2.015855350E-2,-3.054326214E-2,-5.497787148E-3
1.642791500E-2,2.015855350E-2,-3.054326214E-2,-5.497787148E-3
1.841099600E-2,2.015855350E-2,-3.054326214E-2,-5.497787148E-3
2.042607900E-2,2.015855350E-2,-3.054326214E-2,-5.497787148E-3
2.240946900E-2,2.015855350E-2,-3.054326214E-2,-5.497787148E-3
2.442339700E-2,2.015855350E-2,-3.054326214E-2,-5.497787148E-3
2.640617200E-2,2.015855350E-2,-3.054326214E-2,-5.497787148E-3
2.842125400E-2,2.015855350E-2,-3.054326214E-2,-5.497787148E-3
3.040579800E-2,2.015855350E-2,-3.054326214E-2,-5.497787148E-3
3.241911100E-2,2.015855350E-2,-3.054326214E-2,-5.497787148E-3
3.443319300E-2,2.015855350E-2,-3.054326214E-2,-5.497787148E-3
3.641666000E-2,2.015855350E-2,-3.054326214E-2,-5.497787148E-3
3.843074300E-2,2.015855350E-2,-3.054326214E-2,-5.497787148E-3
4.041451700E-2,2.015855350E-2,-3.054326214E-2,-5.497787148E-3
4.242890800E-2,2.015855350E-2,-3.054326214E-2,-5.497787148E-3
4.441352800E-2,2.015855350E-2,-3.054326214E-2,-5.497787148E-3
4.642714800E-2,2.015855350E-2,-3.054326214E-2,-5.497787148E-3
4.840984700E-2,2.015855350E-2,-3.054326214E-2,-5.497787148E-3
5.042469800E-2,2.015855350E-2,-3.054326214E-2,-5.497787148E-3
5.240893400E-2,2.015855350E-2,-3.054326214E-2,-5.497787148E-3
5.442255500E-2,2.015855350E-2,-3.054326214E-2,-5.497787148E-3
5.640563700E-2,2.015855350E-2,-3.054326214E-2,-5.497787148E-3
5.841979700E-2,2.015855350E-2,-3.054326214E-2,-5.497787148E-3
6.043418600E-2,2.015855350E-2,-3.054326214E-2,-5.497787148E-3
6.241826800E-2,2.015855350E-2,-3.054326214E-2,-5.497787148E-3
6.443150500E-2,2.015855350E-2,-3.054326214E-2,-5.497787148E-3
6.641666400E-2,2.015855350E-2,-3.054326214E-2,-5.497787148E-3
6.842874600E-2,2.015855350E-2,-3.054326214E-2,-5.497787148E-3
7.041329000E-2,6.719517522E-3,2.199114859E-2,6.108652451E-4
7.242775700E-2,7.941247895E-3,1.771509275E-2,-6.108652451E-4
7.441176300E-2,6.108652335E-3,1.893682219E-2,-2.443460980E-3
7.642530600E-2,3.665191587E-3,1.527163107E-2,-2.443460980E-3
7.840961900E-2,2.443460980E-3,1.099557430E-2,-3.054326167E-3
8.042385600E-2,1.221730490E-3,7.941247895E-3,-4.886921961E-3
8.240686100E-2,-6.108652451E-4,6.719517522E-3,-6.719517522E-3
8.442163500E-2,0.000000000E0,3.054326167E-3,-7.330383174E-3
8.640479500E-2,1.221730490E-3,1.221730490E-3,-5.497787148E-3
8.841864600E-2,-3.054326167E-3,-6.108652451E-4,-6.108652335E-3
9.043403700E-2,-3.665191587E-3,-4.276056774E-3,-8.552113548E-3
9.241681100E-2,-4.276056774E-3,-5.497787148E-3,-6.719517522E-3
9.443089300E-2,-4.276056774E-3,-6.719517522E-3,-5.497787148E-3
9.641466800E-2,-4.886921961E-3,-6.719517522E-3,-5.497787148E-3
9.842875000E-2,-4.276056774E-3,-1.038470957E-2,-4.276056774E-3
1.004127550E-1,-5.497787148E-3,-9.162978269E-3,-5.497787148E-3
1.024266840E-1,-4.886921961E-3,-1.221730467E-2,-4.276056774E-3
1.044094580E-1,-3.665191587E-3,-9.773843922E-3,-2.443460980E-3
1.064235400E-1,-4.276056774E-3,-1.282817032E-2,-1.832595794E-3
1.084078540E-1,-2.443460980E-3,-1.404990070E-2,-1.832595794E-3
1.104235510E-1,-2.443460980E-3,-1.404990070E-2,-1.221730490E-3
1.124060960E-1,-2.443460980E-3,-1.160643995E-2,-6.108652451E-4
1.144198700E-1,-3.054326167E-3,-1.282817032E-2,6.108652451E-4
1.164337210E-1,-1.832595794E-3,-1.160643995E-2,2.443460980E-3
1.184180350E-1,-2.443460980E-3,-7.941247895E-3,6.108652451E-4
1.204325780E-1,-6.108652451E-4,-9.773843922E-3,3.665191587E-3
1.224161990E-1,-1.832595794E-3,-9.773843922E-3,2.443460980E-3
1.244300510E-1,-2.443460980E-3,-7.330383174E-3,3.054326167E-3
1.264131330E-1,-1.832595794E-3,-6.719517522E-3,3.054326167E-3
1.284276000E-1,-1.832595794E-3,-6.719517522E-3,4.276056774E-3
1.304122980E-1,-2.443460980E-3,-3.054326167E-3,0.000000000E0
1.324251490E-1,-1.221730490E-3,-3.054326167E-3,6.108652451E-4
1.344095390E-1,-1.221730490E-3,-2.443460980E-3,1.221730490E-3
1.364236210E-1,0.000000000E0,-1.221730490E-3,-1.221730490E-3
1.384064730E-1,-3.054326167E-3,0.000000000E0,6.108652451E-4
1.404211710E-1,-1.221730490E-3,1.221730490E-3,1.221730490E-3
1.424049450E-1,-1.832595794E-3,-6.108652451E-4,-6.108652451E-4
1.444184130E-1,-1.221730490E-3,1.832595794E-3,-1.221730490E-3
1.464335720E-1,-3.665191587E-3,3.054326167E-3,-3.054326167E-3
1.484169610E-1,0.000000000E0,3.054326167E-3,-2.443460980E-3
1.504308130E-1,0.000000000E0,1.832595794E-3,-4.276056774E-3
1.524150490E-1,0.000000000E0,7.941247895E-3,-2.443460980E-3
1.544283620E-1,-1.221730490E-3,7.330383174E-3,-4.276056774E-3
1.564119830E-1,6.108652451E-4,8.552113548E-3,-3.054326167E-3
1.584262190E-1,1.221730490E-3,9.773843922E-3,-1.832595794E-3
1.604105330E-1,1.832595794E-3,1.038470957E-2,-4.276056774E-3
1.624236910E-1,0.000000000E0,1.099557430E-2,-2.443460980E-3
1.644083890E-1,1.221730490E-3,1.404990070E-2,-3.054326167E-3
1.664224720E-1,2.443460980E-3,1.404990070E-2,-2.443460980E-3
1.684064770E-1,1.221730490E-3,1.404990070E-2,-1.832595794E-3
1.704207120E-1,2.443460980E-3,1.466076635E-2,-2.443460980E-3
1.724037180E-1,3.665191587E-3,1.527163107E-2,-3.054326167E-3
1.744178770E-1,6.108652335E-3,1.771509275E-2,-3.054326167E-3
1.764314220E-1,5.497787148E-3,1.954768784E-2,-1.832595794E-3
1.784163500E-1,3.665191587E-3,2.138028294E-2,-1.221730490E-3
1.804296630E-1,6.108652335E-3,2.015855350E-2,-4.276056774E-3
1.824133610E-1,3.665191587E-3,2.015855350E-2,-4.276056774E-3
1.844268270E-1,6.719517522E-3,2.138028294E-2,-4.886921961E-3
1.864114480E-1,3.665191587E-3,2.565634064E-2,-6.108652335E-3
1.884256850E-1,5.497787148E-3,2.504547499E-2,-4.276056774E-3
1.904096130E-1,5.497787148E-3,2.626720630E-2,-5.497787148E-3
1.924237720E-1,4.886921961E-3,2.504547499E-2,-4.886921961E-3
1.944062390E-1,4.276056774E-3,2.687807009E-2,-4.886921961E-3
1.964210900E-1,3.054326167E-3,2.809980139E-2,-5.497787148E-3
1.984044810E-1,1.221730490E-3,2.993239649E-2,-6.108652335E-3
2.004189470E-1,3.665191587E-3,2.871066704E-2,-3.665191587E-3
2.024331060E-1,3.665191587E-3,2.748893574E-2,-5.497787148E-3
2.044176510E-1,3.665191587E-3,2.626720630E-2,-3.665191587E-3
2.064312710E-1,3.665191587E-3,2.565634064E-2,-2.443460980E-3
2.084142760E-1,3.054326167E-3,2.504547499E-2,-2.443460980E-3
2.104294360E-1,1.832595794E-3,2.321287990E-2,-2.443460980E-3
2.124127490E-1,3.054326167E-3,2.138028294E-2,-6.108652451E-4
2.144262930E-1,2.443460980E-3,1.893682219E-2,-1.221730490E-3
2.164097600E-1,1.221730490E-3,1.649336144E-2,6.108652451E-4
2.184242260E-1,6.108652451E-4,1.343903504E-2,-2.443460980E-3
2.204073090E-1,6.108652451E-4,8.552113548E-3,-1.832595794E-3
2.224226220E-1,-6.108652451E-4,9.162978269E-3,-6.108652451E-4
2.244053960E-1,-1.832595794E-3,3.054326167E-3,-6.108652451E-4
2.264207870E-1,-1.221730490E-3,0.000000000E0,-6.108652451E-4
2.284036380E-1,-4.276056774E-3,1.221730490E-3,6.108652451E-4
2.304174130E-1,-6.108652451E-4,-4.886921961E-3,6.108652451E-4
2.324319570E-1,-3.054326167E-3,-6.108652335E-3,-1.221730490E-3
2.344152690E-1,-1.832595794E-3,-7.941247895E-3,6.108652451E-4
2.364297370E-1,-1.832595794E-3,-1.038470957E-2,6.108652451E-4
2.384132030E-1,-1.832595794E-3,-1.282817032E-2,-6.108652451E-4
2.404279010E-1,-4.276056774E-3,-1.404990070E-2,-1.221730490E-3
2.424112910E-1,-2.443460980E-3,-1.527163107E-2,-6.108652451E-4
2.444261420E-1,-4.276056774E-3,-1.404990070E-2,-1.221730490E-3
2.464089170E-1,-3.054326167E-3,-1.771509275E-2,-4.276056774E-3
2.484236150E-1,-6.719517522E-3,-1.893682219E-2,-5.497787148E-3
2.504085430E-1,-5.497787148E-3,-1.893682219E-2,-2.443460980E-3
2.524212410E-1,-5.497787148E-3,-1.649336144E-2,-5.497787148E-3
2.544039390E-1,-6.719517522E-3,-1.649336144E-2,-5.497787148E-3
2.564181740E-1,-6.108652335E-3,-1.649336144E-2,-4.276056774E-3
2.584325650E-1,-6.719517522E-3,-1.404990070E-2,-4.886921961E-3
2.604165700E-1,-3.665191587E-3,-1.343903504E-2,-4.886921961E-3
2.624307300E-1,-4.276056774E-3,-9.773843922E-3,-5.497787148E-3
2.644135040E-1,-5.497787148E-3,-9.162978269E-3,-6.719517522E-3
2.664282780E-1,-3.054326167E-3,-5.497787148E-3,-6.108652335E-3
2.684119770E-1,-3.665191587E-3,-4.886921961E-3,-4.886921961E-3
2.704267510E-1,-3.054326167E-3,-1.832595794E-3,-6.719517522E-3
2.724105250E-1,-3.054326167E-3,1.221730490E-3,-7.330383174E-3
2.744243770E-1,-3.665191587E-3,4.886921961E-3,-7.941247895E-3
2.764079980E-1,-3.054326167E-3,5.497787148E-3,-5.497787148E-3
2.784219260E-1,-1.221730490E-3,6.108652335E-3,-9.162978269E-3
2.804050090E-1,-4.276056774E-3,1.038470957E-2,-7.330383174E-3
2.824190910E-1,-1.221730490E-3,1.099557430E-2,-1.099557430E-2
2.844341740E-1,-1.221730490E-3,1.282817032E-2,-7.330383174E-3
2.864176400E-1,1.221730490E-3,1.282817032E-2,-1.038470957E-2
2.884314140E-1,-6.108652451E-4,1.588249579E-2,-7.941247895E-3
2.904166510E-1,-1.221730490E-3,1.588249579E-2,-7.941247895E-3
2.924301950E-1,-1.221730490E-3,1.771509275E-2,-9.773843922E-3
2.944130460E-1,-1.221730490E-3,1.710422710E-2,-8.552113548E-3
2.964278210E-1,-2.443460980E-3,1.710422710E-2,-1.038470957E-2
2.984109030E-1,0.000000000E0,1.466076635E-2,-9.773843922E-3
3.004249860E-1,0.000000000E0,1.527163107E-2,-9.162978269E-3
3.024078370E-1,-1.221730490E-3,1.588249579E-2,-9.162978269E-3
3.044219960E-1,-3.665191587E-3,1.282817032E-2,-9.773843922E-3
3.064068480E-1,-5.497787148E-3,1.527163107E-2,-8.552113548E-3
3.084203920E-1,-1.832595794E-3,1.404990070E-2,-1.099557430E-2
3.104346270E-1,-1.832595794E-3,1.221730467E-2,-1.038470957E-2
3.124188640E-1,-1.832595794E-3,9.773843922E-3,-1.160643995E-2
3.144324080E-1,-1.221730490E-3,7.330383174E-3,-9.162978269E-3
3.164164140E-1,-1.221730490E-3,8.552113548E-3,-1.099557430E-2
3.184300340E-1,-1.221730490E-3,8.552113548E-3,-1.099557430E-2
3.204140390E-1,-6.108652451E-4,6.108652335E-3,-1.282817032E-2
3.224284300E-1,6.108652451E-4,2.443460980E-3,-1.099557430E-2
3.244128190E-1,-1.221730490E-3,1.832595794E-3,-1.404990070E-2
3.264260550E-1,-6.108652451E-4,3.054326167E-3,-1.343903504E-2
3.284103690E-1,-1.221730490E-3,6.108652451E-4,-1.466076635E-2
3.304254510E-1,0.000000000E0,6.108652451E-4,-1.282817032E-2
3.324085320E-1,1.221730490E-3,-1.832595794E-3,-1.404990070E-2
3.344223850E-1,1.221730490E-3,6.108652451E-4,-1.282817032E-2
3.364056970E-1,6.108652451E-4,6.108652451E-4,-1.282817032E-2
3.384192420E-1,1.221730490E-3,0.000000000E0,-1.221730467E-2
3.404337080E-1,-6.108652451E-4,4.276056774E-3,-1.466076635E-2
3.424177900E-1,6.108652451E-4,1.221730490E-3,-1.466076635E-2
3.444318730E-1,2.443460980E-3,3.054326167E-3,-1.221730467E-2
3.464149550E-1,6.108652451E-4,5.497787148E-3,-1.221730467E-2
3.484301150E-1,6.108652451E-4,6.108652335E-3,-1.221730467E-2
3.504140430E-1,1.832595794E-3,9.162978269E-3,-1.466076635E-2
3.524275870E-1,6.108652451E-4,1.099557430E-2,-1.282817032E-2
3.544110540E-1,1.221730490E-3,1.221730467E-2,-1.282817032E-2
3.564252130E-1,1.832595794E-3,1.404990070E-2,-1.343903504E-2
3.584086030E-1,0.000000000E0,1.588249579E-2,-1.282817032E-2
3.604226850E-1,6.108652451E-4,1.588249579E-2,-1.466076635E-2
3.624061520E-1,0.000000000E0,1.832595654E-2,-1.343903504E-2
3.644214650E-1,-6.108652451E-4,1.893682219E-2,-1.282817032E-2
3.664043170E-1,1.221730490E-3,1.832595654E-2,-1.282817032E-2
3.684187070E-1,0.000000000E0,2.015855350E-2,-1.282817032E-2
3.704341740E-1,-2.443460980E-3,2.076941915E-2,-1.343903504E-2
3.724163330E-1,-6.108652451E-4,2.015855350E-2,-1.221730467E-2
3.744301070E-1,1.832595794E-3,2.076941915E-2,-1.160643995E-2
3.764141130E-1,6.108652451E-4,2.076941915E-2,-9.773843922E-3
3.784285800E-1,-1.221730490E-3,1.893682219E-2,-9.162978269E-3
3.804119690E-1,-1.221730490E-3,2.138028294E-2,-1.160643995E-2
3.824264370E-1,-3.054326167E-3,1.832595654E-2,-1.282817032E-2
3.844086730E-1,-3.054326167E-3,1.710422710E-2,-1.038470957E-2
3.864246020E-1,-4.276056774E-3,1.588249579E-2,-1.038470957E-2
3.884082990E-1,-4.886921961E-3,1.404990070E-2,-9.773843922E-3
3.904212270E-1,-7.330383174E-3,1.404990070E-2,-1.099557430E-2
3.924055410E-1,-6.108652335E-3,1.221730467E-2,-9.162978269E-3
3.944197000E-1,-7.330383174E-3,1.038470957E-2,-9.162978269E-3
3.964339350E-1,-6.108652335E-3,9.773843922E-3,-7.941247895E-3
3.984178640E-1,-7.330383174E-3,9.773843922E-3,-6.719517522E-3
4.004314080E-1,-7.330383174E-3,6.108652335E-3,-7.941247895E-3
4.024154910E-1,-9.162978269E-3,4.276056774E-3,-6.108652335E-3
4.044304960E-1,-8.552113548E-3,4.886921961E-3,-4.276056774E-3
4.064124240E-1,-1.038470957E-2,2.443460980E-3,-4.276056774E-3
4.084274300E-1,-9.773843922E-3,1.221730490E-3,-4.886921961E-3
4.104117430E-1,-1.038470957E-2,6.108652451E-4,-3.665191587E-3
4.124259020E-1,-9.162978269E-3,-1.832595794E-3,-3.054326167E-3
4.144084460E-1,-8.552113548E-3,-4.276056774E-3,-4.886921961E-3
4.164226050E-1,-1.099557430E-2,-3.665191587E-3,-2.443460980E-3
4.184059940E-1,-1.038470957E-2,-7.330383174E-3,0.000000000E0
4.204206930E-1,-7.941247895E-3,-6.719517522E-3,-3.665191587E-3
4.224348520E-1,-8.552113548E-3,-6.719517522E-3,-6.108652451E-4
4.244173960E-1,-1.038470957E-2,-8.552113548E-3,0.000000000E0
4.264315550E-1,-8.552113548E-3,-7.941247895E-3,6.108652451E-4
4.284164830E-1,-9.162978269E-3,-9.162978269E-3,-1.832595794E-3
4.304315660E-1,-6.719517522E-3,-1.160643995E-2,-2.443460980E-3
4.324142630E-1,-6.719517522E-3,-1.099557430E-2,-1.221730490E-3
4.344281920E-1,-5.497787148E-3,-1.099557430E-2,-4.276056774E-3
4.364115820E-1,-6.108652335E-3,-1.160643995E-2,-2.443460980E-3
4.384250490E-1,-6.108652335E-3,-1.282817032E-2,-2.443460980E-3
4.404097470E-1,-3.665191587E-3,-1.160643995E-2,-4.276056774E-3
4.424232900E-1,-3.665191587E-3,-1.099557430E-2,-3.665191587E-3
4.444072180E-1,-6.719517522E-3,-1.160643995E-2,-5.497787148E-3
4.464217630E-1,-7.330383174E-3,-9.162978269E-3,-4.276056774E-3
4.484051520E-1,-5.497787148E-3,-1.038470957E-2,-5.497787148E-3
4.504199270E-1,-6.719517522E-3,-1.160643995E-2,-6.108652335E-3
4.524340100E-1,-1.099557430E-2,-1.038470957E-2,-7.330383174E-3
4.544173990E-1,-7.330383174E-3,-1.160643995E-2,-5.497787148E-3
4.564307130E-1,-1.099557430E-2,-1.404990070E-2,-7.330383174E-3
4.584150260E-1,-1.527163107E-2,-1.221730467E-2,-7.330383174E-3
4.604294150E-1,-1.588249579E-2,-1.527163107E-2,-9.162978269E-3
4.624122670E-1,-1.710422710E-2,-1.771509275E-2,-9.162978269E-3
4.644270420E-1,-1.588249579E-2,-1.588249579E-2,-1.221730467E-2
4.664112770E-1,-1.343903504E-2,-1.710422710E-2,-1.160643995E-2
4.684255140E-1,-1.221730467E-2,-1.588249579E-2,-1.404990070E-2
4.704082120E-1,-1.221730467E-2,-1.160643995E-2,-1.282817032E-2
4.724229870E-1,-9.162978269E-3,-8.552113548E-3,-1.466076635E-2
4.744063760E-1,-9.162978269E-3,-1.832595794E-3,-1.221730467E-2
4.764205350E-1,-8.552113548E-3,0.000000000E0,-1.343903504E-2
4.784347720E-1,-7.941247895E-3,7.330383174E-3,-1.160643995E-2
4.804178540E-1,-7.941247895E-3,9.773843922E-3,-9.162978269E-3
4.824325510E-1,-5.497787148E-3,1.160643995E-2,-1.099557430E-2
4.844169420E-1,-6.719517522E-3,1.343903504E-2,-7.330383174E-3
4.864307930E-1,-9.162978269E-3,1.527163107E-2,-5.497787148E-3
4.884138760E-1,-3.054326167E-3,1.221730467E-2,-3.665191587E-3
4.904294960E-1,-4.276056774E-3,1.466076635E-2,-3.054326167E-3
4.924119630E-1,-4.276056774E-3,1.099557430E-2,-3.665191587E-3
4.944258920E-1,-6.719517522E-3,1.038470957E-2,-6.719517522E-3
4.964095120E-1,-3.054326167E-3,1.038470957E-2,-7.330383174E-3
4.984236710E-1,-4.276056774E-3,7.941247895E-3,-7.941247895E-3
5.004074460E-1,-3.665191587E-3,8.552113548E-3,-8.552113548E-3
5.024218360E-1,-3.665191587E-3,7.941247895E-3,-1.282817032E-2
5.044046870E-1,-4.886921961E-3,9.773843922E-3,-1.282817032E-2
5.064191550E-1,-3.665191587E-3,1.038470957E-2,-1.404990070E-2
5.084335440E-1,-3.665191587E-3,1.343903504E-2,-1.893682219E-2
5.104181660E-1,-2.443460980E-3,1.649336144E-2,-2.015855350E-2
5.124314780E-1,-2.443460980E-3,1.832595654E-2,-2.015855350E-2
5.144148680E-1,-1.221730490E-3,2.015855350E-2,-2.260201424E-2
5.164298740E-1,-6.108652451E-4,2.260201424E-2,-2.260201424E-2
5.184129560E-1,6.108652451E-4,2.443460934E-2,-2.199114859E-2
5.204268080E-1,0.000000000E0,2.504547499E-2,-2.260201424E-2
5.224108900E-1,1.221730490E-3,2.626720630E-2,-2.382374369E-2
5.244252800E-1,2.443460980E-3,2.138028294E-2,-2.015855350E-2
5.264086700E-1,1.221730490E-3,2.321287990E-2,-2.015855350E-2
5.284234450E-1,6.108652451E-4,2.199114859E-2,-1.893682219E-2
5.304069110E-1,3.054326167E-3,2.321287990E-2,-1.588249579E-2
5.324209940E-1,1.221730490E-3,2.321287990E-2,-1.466076635E-2
5.344342300E-1,3.054326167E-3,2.076941915E-2,-1.221730467E-2
5.364176960E-1,6.108652451E-4,2.076941915E-2,-9.773843922E-3
5.384324720E-1,2.443460980E-3,1.771509275E-2,-6.719517522E-3
5.404160920E-1,6.108652451E-4,1.710422710E-2,-4.276056774E-3
5.424303290E-1,6.108652451E-4,1.527163107E-2,-4.886921961E-3
5.444130260E-1,1.221730490E-3,1.527163107E-2,-3.054326167E-3
5.464294160E-1,1.832595794E-3,1.466076635E-2,-3.054326167E-3
5.484118830E-1,1.221730490E-3,1.527163107E-2,-6.108652451E-4
5.504226570E-1,1.221730490E-3,1.527163107E-2,-6.108652451E-4
5.524103550E-1,1.832595794E-3,1.221730467E-2,-6.108652451E-4
5.544244380E-1,3.665191587E-3,1.221730467E-2,0.000000000E0
5.564075200E-1,1.832595794E-3,1.282817032E-2,0.000000000E0
5.584210640E-1,1.221730490E-3,1.160643995E-2,-2.443460980E-3
5.604358380E-1,1.221730490E-3,1.343903504E-2,-2.443460980E-3
5.624189200E-1,6.108652451E-4,1.160643995E-2,-1.832595794E-3
5.644337720E-1,1.221730490E-3,1.038470957E-2,-3.054326167E-3
5.664168540E-1,2.443460980E-3,8.552113548E-3,-1.832595794E-3
5.684312440E-1,-1.221730490E-3,7.941247895E-3,-1.832595794E-3
5.704158650E-1,-1.221730490E-3,7.941247895E-3,-2.443460980E-3
5.724294860E-1,0.000000000E0,6.719517522E-3,-1.221730490E-3
5.744127990E-1,0.000000000E0,5.497787148E-3,-1.221730490E-3
5.764260350E-1,1.832595794E-3,4.886921961E-3,6.108652451E-4
5.784103480E-1,-6.108652451E-4,7.330383174E-3,6.108652451E-4
5.804252000E-1,1.832595794E-3,5.497787148E-3,1.221730490E-3
5.824082050E-1,3.665191587E-3,4.276056774E-3,3.054326167E-3
5.844221330E-1,1.832595794E-3,4.886921961E-3,3.665191587E-3
5.864063700E-1,2.443460980E-3,4.276056774E-3,5.497787148E-3
5.884199900E-1,6.108652451E-4,4.886921961E-3,4.276056774E-3
5.904359190E-1,2.443460980E-3,5.497787148E-3,4.886921961E-3
5.924181550E-1,1.832595794E-3,2.443460980E-3,4.276056774E-3
5.944316990E-1,6.108652451E-4,4.886921961E-3,4.886921961E-3
5.964157050E-1,1.832595794E-3,4.276056774E-3,6.108652335E-3
5.984304020E-1,1.832595794E-3,3.665191587E-3,2.443460980E-3
6.004132530E-1,1.832595794E-3,4.886921961E-3,4.276056774E-3
6.024277210E-1,1.221730490E-3,5.497787148E-3,1.832595794E-3
6.044123410E-1,2.443460980E-3,7.330383174E-3,2.443460980E-3
6.064258080E-1,1.832595794E-3,7.941247895E-3,2.443460980E-3
6.084092750E-1,5.497787148E-3,7.330383174E-3,1.221730490E-3
6.104246650E-1,2.443460980E-3,1.038470957E-2,3.054326167E-3
6.124077480E-1,2.443460980E-3,1.099557430E-2,3.054326167E-3
6.144215220E-1,3.665191587E-3,1.099557430E-2,1.832595794E-3
6.164357580E-1,5.497787148E-3,1.160643995E-2,1.832595794E-3
6.184196870E-1,7.330383174E-3,1.038470957E-2,3.054326167E-3
6.204329990E-1,5.497787148E-3,1.099557430E-2,1.832595794E-3
6.224170040E-1,4.276056774E-3,9.773843922E-3,4.886921961E-3
6.244305490E-1,8.552113548E-3,9.773843922E-3,6.719517522E-3
6.264160920E-1,6.719517522E-3,7.941247895E-3,7.330383174E-3
6.284296370E-1,6.719517522E-3,6.719517522E-3,5.497787148E-3
6.304121030E-1,7.330383174E-3,6.719517522E-3,6.719517522E-3
6.324274160E-1,7.330383174E-3,4.886921961E-3,8.552113548E-3
6.344102680E-1,6.719517522E-3,6.108652335E-3,9.773843922E-3
6.364240430E-1,7.330383174E-3,3.054326167E-3,9.162978269E-3
6.384086630E-1,6.108652335E-3,4.886921961E-3,8.552113548E-3
6.404222840E-1,6.108652335E-3,5.497787148E-3,8.552113548E-3
6.424059050E-1,4.276056774E-3,5.497787148E-3,8.552113548E-3
6.444209880E-1,4.276056774E-3,4.276056774E-3,9.773843922E-3
6.464346080E-1,5.497787148E-3,3.054326167E-3,1.038470957E-2
6.484183050E-1,4.276056774E-3,3.665191587E-3,1.282817032E-2
6.504336960E-1,6.108652335E-3,1.832595794E-3,1.282817032E-2
6.524160860E-1,4.886921961E-3,4.276056774E-3,1.160643995E-2
6.544303210E-1,3.665191587E-3,-6.108652451E-4,1.282817032E-2
6.564139430E-1,3.665191587E-3,-1.832595794E-3,1.343903504E-2
6.584277940E-1,3.054326167E-3,-4.276056774E-3,1.099557430E-2
6.604121070E-1,4.886921961E-3,-3.054326167E-3,1.221730467E-2
6.624253430E-1,6.108652451E-4,-1.832595794E-3,1.099557430E-2
6.644096560E-1,0.000000000E0,-6.108652335E-3,9.773843922E-3
6.664229700E-1,6.108652451E-4,-9.773843922E-3,9.773843922E-3
6.684072820E-1,-2.443460980E-3,-7.941247895E-3,1.099557430E-2
6.704217490E-1,-1.832595794E-3,-1.282817032E-2,1.160643995E-2
6.724352170E-1,-3.054326167E-3,-1.282817032E-2,9.773843922E-3
6.744192220E-1,-3.665191587E-3,-1.282817032E-2,5.497787148E-3
6.764336890E-1,-4.886921961E-3,-1.466076635E-2,4.886921961E-3
6.784171560E-1,-1.832595794E-3,-1.404990070E-2,3.665191587E-3
6.804313140E-1,-6.108652335E-3,-1.404990070E-2,3.665191587E-3
6.824146280E-1,-5.497787148E-3,-1.404990070E-2,1.832595794E-3
6.844294790E-1,-7.941247895E-3,-1.404990070E-2,1.221730490E-3
6.864125610E-1,-6.719517522E-3,-1.343903504E-2,1.832595794E-3
6.884263360E-1,-7.330383174E-3,-1.160643995E-2,-1.832595794E-3
6.904110340E-1,-7.330383174E-3,-1.160643995E-2,-6.108652451E-4
6.924239620E-1,-7.330383174E-3,-1.038470957E-2,-1.221730490E-3
6.944078910E-1,-7.941247895E-3,-9.773843922E-3,-3.665191587E-3
6.964223580E-1,-9.773843922E-3,-1.038470957E-2,-4.276056774E-3
6.984061330E-1,-7.941247895E-3,-7.941247895E-3,-1.832595794E-3
7.004196760E-1,-9.162978269E-3,-6.719517522E-3,-3.054326167E-3
7.024337580E-1,-9.773843922E-3,-6.108652335E-3,-6.108652451E-4
7.044177640E-1,-8.552113548E-3,-4.276056774E-3,-3.054326167E-3
7.064323080E-1,-6.719517522E-3,-3.054326167E-3,-2.443460980E-3
7.084163130E-1,-8.552113548E-3,-1.832595794E-3,-1.221730490E-3
7.104289340E-1,-9.773843922E-3,0.000000000E0,-3.054326167E-3
7.124140930E-1,-6.719517522E-3,6.108652451E-4,-2.443460980E-3
7.144279450E-1,-4.886921961E-3,0.000000000E0,-3.054326167E-3
7.164107960E-1,-4.886921961E-3,2.443460980E-3,-1.221730490E-3
7.184251860E-1,-4.276056774E-3,5.497787148E-3,-2.443460980E-3
7.204092690E-1,-4.886921961E-3,3.665191587E-3,-2.443460980E-3
7.224230430E-1,-4.276056774E-3,6.108652335E-3,-3.665191587E-3
7.244079710E-1,-4.276056774E-3,9.773843922E-3,-2.443460980E-3
7.264209770E-1,-4.886921961E-3,1.038470957E-2,-4.886921961E-3
7.284357510E-1,-3.665191587E-3,1.282817032E-2,-3.665191587E-3
7.304199880E-1,-1.832595794E-3,1.466076635E-2,-3.665191587E-3
7.324333010E-1,-7.330383174E-3,1.343903504E-2,-3.054326167E-3
7.344160750E-1,-9.162978269E-3,1.343903504E-2,-1.221730490E-3
7.364310810E-1,-6.108652335E-3,1.527163107E-2,-3.665191587E-3
7.384150860E-1,-8.552113548E-3,1.404990070E-2,-6.108652451E-4
7.404292450E-1,-7.941247895E-3,1.221730467E-2,-2.443460980E-3
7.424120200E-1,-9.773843922E-3,1.099557430E-2,-1.832595794E-3
7.444261790E-1,-7.941247895E-3,1.038470957E-2,-2.443460980E-3
7.464104920E-1,-6.108652335E-3,6.719517522E-3,-1.221730490E-3
7.484244210E-1,-6.108652335E-3,8.552113548E-3,-1.832595794E-3
7.504090410E-1,-3.665191587E-3,8.552113548E-3,-3.054326167E-3
7.524222780E-1,-3.665191587E-3,9.773843922E-3,-4.276056774E-3
7.544062060E-1,-4.886921961E-3,1.038470957E-2,-7.941247895E-3
7.564197490E-1,-4.276056774E-3,1.099557430E-2,-4.886921961E-3
7.584345250E-1,-4.276056774E-3,1.221730467E-2,-7.941247895E-3
7.604182990E-1,-7.330383174E-3,1.160643995E-2,-3.665191587E-3
7.624321510E-1,-7.330383174E-3,9.162978269E-3,-4.276056774E-3
7.644157710E-1,-5.497787148E-3,9.162978269E-3,-2.443460980E-3
7.664300070E-1,-6.719517522E-3,9.162978269E-3,-3.054326167E-3
7.684136290E-1,-9.162978269E-3,7.941247895E-3,-6.108652451E-4
7.704293260E-1,-7.330383174E-3,3.054326167E-3,6.108652451E-4
7.724115620E-1,-7.330383174E-3,4.276056774E-3,6.108652451E-4
7.744253370E-1,-3.665191587E-3,1.221730490E-3,6.108652451E-4
7.764090340E-1,-5.497787148E-3,-1.221730490E-3,2.443460980E-3
7.784235010E-1,-4.886921961E-3,-3.054326167E-3,0.000000000E0
7.804075840E-1,-1.832595794E-3,-6.108652335E-3,-1.832595794E-3
7.824216660E-1,-6.108652451E-4,-7.330383174E-3,6.108652451E-4
7.844349020E-1,6.108652451E-4,-7.330383174E-3,-3.665191587E-3
7.864201380E-1,1.832595794E-3,-1.038470957E-2,-3.054326167E-3
7.884319120E-1,3.665191587E-3,-8.552113548E-3,-6.108652335E-3
7.904162260E-1,3.665191587E-3,-7.941247895E-3,-6.108652335E-3
7.924310000E-1,6.108652335E-3,-9.773843922E-3,-6.719517522E-3
7.944146980E-1,7.330383174E-3,-1.099557430E-2,-9.162978269E-3
7.964284730E-1,5.497787148E-3,-8.552113548E-3,-6.719517522E-3
7.984125550E-1,7.330383174E-3,-1.099557430E-2,-1.038470957E-2
8.004269450E-1,7.941247895E-3,-1.160643995E-2,-9.773843922E-3
8.024100270E-1,8.552113548E-3,-8.552113548E-3,-1.099557430E-2
8.044251860E-1,7.941247895E-3,-8.552113548E-3,-1.160643995E-2
8.064072690E-1,8.552113548E-3,-9.162978269E-3,-1.099557430E-2
8.084221200E-1,8.552113548E-3,-9.773843922E-3,-1.221730467E-2
8.104063560E-1,9.773843922E-3,-8.552113548E-3,-1.160643995E-2
8.124212080E-1,7.941247895E-3,-7.330383174E-3,-9.773843922E-3
8.144341360E-1,9.162978269E-3,-5.497787148E-3,-1.038470957E-2
8.164172190E-1,7.941247895E-3,-5.497787148E-3,-9.162978269E-3
8.184319170E-1,8.552113548E-3,-1.832595794E-3,-7.941247895E-3
8.204150750E-1,8.552113548E-3,2.443460980E-3,-8.552113548E-3
8.224295430E-1,7.941247895E-3,3.665191587E-3,-6.719517522E-3
8.244126250E-1,1.038470957E-2,4.886921961E-3,-4.886921961E-3
8.264264760E-1,9.773843922E-3,5.497787148E-3,-7.330383174E-3
8.284117130E-1,1.038470957E-2,9.773843922E-3,-2.443460980E-3
8.304258720E-1,7.941247895E-3,1.038470957E-2,-3.665191587E-3
8.324089540E-1,8.552113548E-3,1.038470957E-2,-3.665191587E-3
8.344228060E-1,8.552113548E-3,1.588249579E-2,-2.443460980E-3
8.364065030E-1,7.330383174E-3,1.893682219E-2,-6.108652451E-4
8.384202780E-1,1.038470957E-2,1.771509275E-2,-1.221730490E-3
8.404353600E-1,8.552113548E-3,1.710422710E-2,-6.108652451E-4
8.424187500E-1,6.719517522E-3,1.771509275E-2,6.108652451E-4
8.444332170E-1,4.886921961E-3,1.832595654E-2,-1.221730490E-3
8.464159920E-1,6.108652335E-3,1.893682219E-2,-6.108652451E-4
8.484307670E-1,4.886921961E-3,1.771509275E-2,-6.108652451E-4
8.504150800E-1,5.497787148E-3,1.649336144E-2,1.221730490E-3
8.524289310E-1,6.108652335E-3,1.588249579E-2,-1.221730490E-3
8.544117060E-1,5.497787148E-3,1.710422710E-2,-6.108652451E-4
8.564264800E-1,6.108652335E-3,1.649336144E-2,6.108652451E-4
8.584098700E-1,5.497787148E-3,1.527163107E-2,0.000000000E0
8.604240300E-1,5.497787148E-3,1.343903504E-2,-1.832595794E-3
8.624074960E-1,4.276056774E-3,1.404990070E-2,-2.443460980E-3
8.644213470E-1,4.886921961E-3,1.160643995E-2,-6.108652451E-4
8.664370460E-1,4.276056774E-3,8.552113548E-3,-1.832595794E-3
8.684197430E-1,2.443460980E-3,6.719517522E-3,2.443460980E-3
8.704335950E-1,3.665191587E-3,6.108652335E-3,0.000000000E0
8.724176000E-1,3.054326167E-3,2.443460980E-3,-6.108652451E-4
8.744318360E-1,2.443460980E-3,4.886921961E-3,0.000000000E0
8.764154570E-1,3.665191587E-3,1.832595794E-3,0.000000000E0
8.784290780E-1,1.832595794E-3,0.000000000E0,0.000000000E0
8.804133130E-1,2.443460980E-3,-1.832595794E-3,-1.832595794E-3
8.824269350E-1,4.276056774E-3,-2.443460980E-3,-1.221730490E-3
8.844117860E-1,4.276056774E-3,-2.443460980E-3,6.108652451E-4
8.864254070E-1,3.054326167E-3,-4.886921961E-3,-1.832595794E-3
8.884087970E-1,3.054326167E-3,-5.497787148E-3,-3.665191587E-3
8.904241870E-1,1.832595794E-3,-4.886921961E-3,-3.665191587E-3
8.924062700E-1,2.443460980E-3,-4.886921961E-3,-3.665191587E-3
8.944207360E-1,1.832595794E-3,-5.497787148E-3,-3.054326167E-3
8.964352030E-1,2.443460980E-3,-6.719517522E-3,-1.832595794E-3
8.984189010E-1,5.497787148E-3,-6.719517522E-3,-6.108652451E-4
9.004324440E-1,3.054326167E-3,-5.497787148E-3,-3.054326167E-3
9.024164500E-1,2.443460980E-3,-4.276056774E-3,-1.221730490E-3
9.044299940E-1,4.276056774E-3,-6.108652335E-3,-2.443460980E-3
9.064146140E-1,6.108652451E-4,-4.886921961E-3,-1.832595794E-3
9.084288510E-1,1.832595794E-3,-5.497787148E-3,-6.108652451E-4
9.104125480E-1,3.054326167E-3,-4.276056774E-3,-1.221730490E-3
9.124267070E-1,3.665191587E-3,-6.108652335E-3,0.000000000E0
9.144094060E-1,1.221730490E-3,-3.054326167E-3,6.108652451E-4
9.164242570E-1,1.832595794E-3,-6.108652451E-4,0.000000000E0
9.184076460E-1,3.054326167E-3,-1.832595794E-3,2.443460980E-3
9.204220370E-1,2.443460980E-3,-1.832595794E-3,1.221730490E-3
9.224358880E-1,1.832595794E-3,0.000000000E0,2.443460980E-3
9.244199710E-1,1.832595794E-3,2.443460980E-3,1.832595794E-3
9.264344380E-1,4.276056774E-3,2.443460980E-3,1.221730490E-3
9.284174430E-1,4.886921961E-3,2.443460980E-3,-1.221730490E-3
9.304325260E-1,3.665191587E-3,4.276056774E-3,1.832595794E-3
9.324156840E-1,4.276056774E-3,6.108652335E-3,1.221730490E-3
9.344291520E-1,5.497787148E-3,4.276056774E-3,6.108652451E-4
9.364128490E-1,4.886921961E-3,6.719517522E-3,-1.221730490E-3
9.384273160E-1,2.443460980E-3,7.330383174E-3,-2.443460980E-3
9.404113220E-1,3.054326167E-3,9.162978269E-3,-1.832595794E-3
9.424251730E-1,3.665191587E-3,8.552113548E-3,-6.108652451E-4
9.444085630E-1,5.497787148E-3,9.162978269E-3,-6.108652451E-4
9.464236450E-1,5.497787148E-3,1.343903504E-2,-1.221730490E-3
9.484068040E-1,1.221730490E-3,1.282817032E-2,-1.221730490E-3
9.504202710E-1,3.054326167E-3,1.099557430E-2,6.108652451E-4
9.524350460E-1,4.276056774E-3,1.221730467E-2,-6.108652451E-4
9.544184360E-1,3.665191587E-3,1.404990070E-2,1.832595794E-3
9.564319800E-1,3.054326167E-3,1.466076635E-2,6.108652451E-4
9.584169080E-1,3.665191587E-3,1.282817032E-2,0.000000000E0
9.604304520E-1,3.054326167E-3,1.404990070E-2,-3.054326167E-3
9.624142270E-1,3.054326167E-3,1.343903504E-2,6.108652451E-4
9.644283860E-1,2.443460980E-3,1.404990070E-2,-1.832595794E-3
9.664120060E-1,6.108652451E-4,1.404990070E-2,0.000000000E0
9.684256280E-1,3.665191587E-3,1.160643995E-2,0.000000000E0
9.704114020E-1,0.000000000E0,1.343903504E-2,-6.108652451E-4
9.724244080E-1,3.054326167E-3,1.221730467E-2,6.108652451E-4
9.744074130E-1,3.054326167E-3,1.221730467E-2,1.221730490E-3
9.764221870E-1,2.443460980E-3,1.099557430E-2,-6.108652451E-4
9.784364240E-1,3.054326167E-3,1.099557430E-2,0.000000000E0
9.804188900E-1,3.054326167E-3,1.099557430E-2,-1.221730490E-3
9.824342800E-1,3.054326167E-3,7.330383174E-3,-3.665191587E-3
9.844170550E-1,1.832595794E-3,7.330383174E-3,-1.221730490E-3
9.864309060E-1,3.665191587E-3,6.108652335E-3,-1.221730490E-3
9.884157590E-1,3.665191587E-3,6.108652335E-3,-2.443460980E-3
9.904306100E-1,1.832595794E-3,4.276056774E-3,-1.221730490E-3
9.924136920E-1,1.832595794E-3,2.443460980E-3,-1.832595794E-3
9.944272360E-1,3.054326167E-3,1.221730490E-3,-1.221730490E-3
9.964102410E-1,1.832595794E-3,1.832595794E-3,-3.054326167E-3
9.984241690E-1,0.000000000E0,1.832595794E-3,-3.054326167E-3
1.000408175E0,1.221730490E-3,6.108652451E-4,0.000000000E0
1.002422949E0,-6.108652451E-4,2.443460980E-3,-1.221730490E-3
1.004407878E0,1.221730490E-3,6.108652451E-4,0.000000000E0
1.006420499E0,1.221730490E-3,1.221730490E-3,6.108652451E-4
1.008434965E0,2.443460980E-3,1.221730490E-3,-6.108652451E-4
1.010419818E0,2.443460980E-3,1.832595794E-3,0.000000000E0
1.012433976E0,1.832595794E-3,0.000000000E0,6.108652451E-4
1.014416212E0,1.832595794E-3,6.108652451E-4,0.000000000E0
1.016430295E0,1.832595794E-3,1.221730490E-3,0.000000000E0
1.018413993E0,-1.221730490E-3,1.832595794E-3,-6.108652451E-4
1.020428151E0,3.054326167E-3,1.221730490E-3,-1.832595794E-3
1.022411850E0,0.000000000E0,2.443460980E-3,1.221730490E-3
1.024425701E0,1.832595794E-3,6.108652451E-4,0.000000000E0
1.026410399E0,1.221730490E-3,-6.108652451E-4,1.221730490E-3
1.028423558E0,3.054326167E-3,1.832595794E-3,0.000000000E0
1.030407332E0,0.000000000E0,0.000000000E0,-2.443460980E-3
1.032422338E0,2.443460980E-3,1.832595794E-3,-1.832595794E-3
1.034435574E0,1.221730490E-3,3.054326167E-3,-1.221730490E-3
1.036419579E0,-6.108652451E-4,4.886921961E-3,-2.443460980E-3
1.038433816E0,-6.108652451E-4,4.276056774E-3,-3.665191587E-3
1.040417513E0,1.832595794E-3,3.665191587E-3,-3.054326167E-3
1.042431365E0,-6.108652451E-4,4.886921961E-3,-2.443460980E-3
1.044415063E0,2.443460980E-3,8.552113548E-3,-6.108652451E-4
1.046429221E0,2.443460980E-3,7.330383174E-3,-4.886921961E-3
1.048412920E0,1.832595794E-3,7.941247895E-3,-2.443460980E-3
1.050428002E0,1.832595794E-3,7.330383174E-3,-1.221730490E-3
1.052411084E0,2.443460980E-3,8.552113548E-3,-3.054326167E-3
1.054425167E0,6.108652451E-4,8.552113548E-3,-2.443460980E-3
1.056408325E0,1.832595794E-3,9.162978269E-3,-3.054326167E-3
1.058422793E0,2.443460980E-3,8.552113548E-3,-1.832595794E-3
1.060405798E0,3.665191587E-3,7.330383174E-3,-3.054326167E-3
1.062420957E0,2.443460980E-3,7.330383174E-3,-3.054326167E-3
1.064434194E0,0.000000000E0,6.719517522E-3,-1.832595794E-3
1.066418429E0,1.832595794E-3,3.665191587E-3,0.000000000E0
1.068432050E0,2.443460980E-3,3.054326167E-3,-3.054326167E-3
1.070416979E0,1.832595794E-3,4.276056774E-3,-1.221730490E-3
1.072430753E0,6.108652451E-4,2.443460980E-3,-3.054326167E-3
1.074413912E0,6.108652451E-4,1.832595794E-3,-3.054326167E-3
1.076428302E0,0.000000000E0,6.108652451E-4,-1.832595794E-3
1.078412384E0,-1.832595794E-3,1.221730490E-3,-1.832595794E-3
1.080425314E0,0.000000000E0,0.000000000E0,-4.276056774E-3
1.082409857E0,0.000000000E0,-1.832595794E-3,-3.665191587E-3
1.084423785E0,1.221730490E-3,-1.832595794E-3,-3.665191587E-3
1.086407714E0,6.108652451E-4,-1.221730490E-3,-3.054326167E-3
1.088421565E0,6.108652451E-4,-6.108652451E-4,-5.497787148E-3
1.090436417E0,6.108652451E-4,-1.221730490E-3,-3.054326167E-3
1.092419422E0,6.108652451E-4,-1.832595794E-3,-3.054326167E-3
1.094433274E0,-2.443460980E-3,-6.108652451E-4,-3.665191587E-3
1.096416972E0,-6.108652451E-4,0.000000000E0,-1.832595794E-3
1.098430900E0,-6.108652451E-4,-1.221730490E-3,-1.832595794E-3
1.100415213E0,0.000000000E0,-6.108652451E-4,0.000000000E0
1.102429373E0,6.108652451E-4,-3.054326167E-3,-1.221730490E-3
1.104412685E0,6.108652451E-4,0.000000000E0,-3.054326167E-3
1.106428075E0,1.221730490E-3,-6.108652451E-4,-6.108652451E-4
1.108411235E0,6.108652451E-4,6.108652451E-4,-3.054326167E-3
1.110423855E0,1.221730490E-3,-6.108652451E-4,-6.108652451E-4
1.112409323E0,6.108652451E-4,4.276056774E-3,-6.108652451E-4
1.114423174E0,1.832595794E-3,3.054326167E-3,-1.832595794E-3
1.116406256E0,4.886921961E-3,1.832595794E-3,1.221730490E-3
1.118420493E0,6.108652335E-3,3.054326167E-3,0.000000000E0
1.120434651E0,3.054326167E-3,6.108652335E-3,0.000000000E0
1.122418579E0,6.108652335E-3,4.886921961E-3,-1.221730490E-3
1.124432201E0,3.665191587E-3,6.719517522E-3,1.221730490E-3
1.126416514E0,4.886921961E-3,9.773843922E-3,-1.221730490E-3
1.128430596E0,4.276056774E-3,6.108652335E-3,1.221730490E-3
1.130415525E0,4.886921961E-3,9.773843922E-3,-1.221730490E-3
1.132428222E0,4.276056774E-3,7.941247895E-3,1.221730490E-3
1.134411612E0,2.443460980E-3,1.099557430E-2,-1.832595794E-3
1.136425387E0,4.886921961E-3,1.282817032E-2,-1.832595794E-3
1.138409469E0,4.886921961E-3,1.221730467E-2,-1.221730490E-3
1.140423859E0,1.832595794E-3,9.773843922E-3,-1.221730490E-3
1.142407634E0,3.665191587E-3,1.160643995E-2,-1.221730490E-3
1.144420870E0,6.108652451E-4,1.221730467E-2,-6.108652451E-4
1.146435952E0,1.832595794E-3,1.343903504E-2,-1.832595794E-3
1.148419573E0,4.276056774E-3,1.221730467E-2,6.108652451E-4
1.150433732E0,1.221730490E-3,1.038470957E-2,-1.832595794E-3
1.152416814E0,2.443460980E-3,9.773843922E-3,0.000000000E0
1.154431358E0,0.000000000E0,1.221730467E-2,1.221730490E-3
1.156414441E0,3.054326167E-3,1.099557430E-2,1.221730490E-3
1.158428600E0,3.054326167E-3,1.038470957E-2,6.108652451E-4
1.160413528E0,2.443460980E-3,9.773843922E-3,1.832595794E-3
1.162427072E0,1.832595794E-3,1.099557430E-2,6.108652451E-4
1.164411077E0,6.108652451E-4,7.941247895E-3,6.108652451E-4
1.166425237E0,3.054326167E-3,7.941247895E-3,0.000000000E0
1.168407934E0,2.443460980E-3,7.330383174E-3,1.832595794E-3
1.170423401E0,3.665191587E-3,6.719517522E-3,1.221730490E-3
1.172406176E0,1.832595794E-3,5.497787148E-3,6.108652451E-4
1.174420335E0,3.665191587E-3,3.054326167E-3,3.054326167E-3
1.176435110E0,1.832595794E-3,4.276056774E-3,6.108652451E-4
1.178418192E0,6.108652451E-4,1.221730490E-3,6.108652451E-4
1.180431966E0,2.443460980E-3,6.108652451E-4,0.000000000E0
1.182416049E0,1.221730490E-3,2.443460980E-3,6.108652451E-4
1.184429900E0,6.108652451E-4,1.221730490E-3,1.221730490E-3
1.186414444E0,1.832595794E-3,6.108652451E-4,-1.832595794E-3
1.188428604E0,1.832595794E-3,-6.108652451E-4,-1.832595794E-3
1.190411378E0,1.832595794E-3,-6.108652451E-4,-1.221730490E-3
1.192426460E0,0.000000000E0,-6.108652451E-4,6.108652451E-4
1.194409543E0,0.000000000E0,6.108652451E-4,-6.108652451E-4
1.196423779E0,4.886921961E-3,1.221730490E-3,0.000000000E0
1.198406862E0,2.443460980E-3,1.832595794E-3,2.443460980E-3
1.200421559E0,3.665191587E-3,1.832595794E-3,3.054326167E-3
1.202435487E0,2.443460980E-3,1.832595794E-3,3.665191587E-3
1.204420031E0,3.054326167E-3,3.054326167E-3,2.443460980E-3
1.206433036E0,3.665191587E-3,3.665191587E-3,3.054326167E-3
1.208416965E0,2.443460980E-3,2.443460980E-3,4.276056774E-3
1.210432432E0,3.665191587E-3,5.497787148E-3,2.443460980E-3
1.212415437E0,4.276056774E-3,4.276056774E-3,3.054326167E-3
1.214429289E0,3.054326167E-3,1.832595794E-3,2.443460980E-3
1.216413294E0,3.054326167E-3,4.886921961E-3,3.054326167E-3
1.218426915E0,2.443460980E-3,3.054326167E-3,2.443460980E-3
1.220410228E0,3.054326167E-3,4.276056774E-3,4.276056774E-3
1.222424156E0,3.665191587E-3,5.497787148E-3,3.665191587E-3
1.224407469E0,3.054326167E-3,4.276056774E-3,3.054326167E-3
1.226421937E0,3.054326167E-3,4.276056774E-3,1.832595794E-3
1.228437095E0,4.276056774E-3,6.719517522E-3,6.108652451E-4
1.230421025E0,2.443460980E-3,6.108652335E-3,1.221730490E-3
1.232434645E0,6.108652451E-4,6.108652335E-3,1.832595794E-3
1.234418342E0,1.221730490E-3,5.497787148E-3,6.108652451E-4
1.236432194E0,3.665191587E-3,4.886921961E-3,6.108652451E-4
1.238416122E0,6.108652451E-4,6.719517522E-3,6.108652451E-4
1.240430051E0,2.443460980E-3,4.886921961E-3,6.108652451E-4
1.242414364E0,1.221730490E-3,4.276056774E-3,1.221730490E-3
1.244428139E0,2.443460980E-3,3.054326167E-3,1.221730490E-3
1.246411913E0,1.832595794E-3,2.443460980E-3,1.832595794E-3
1.248425380E0,6.108652451E-4,6.108652451E-4,0.000000000E0
1.250410308E0,2.443460980E-3,-6.108652451E-4,1.221730490E-3
1.252423853E0,2.443460980E-3,-2.443460980E-3,0.000000000E0
1.254407319E0,2.443460980E-3,-3.054326167E-3,1.832595794E-3
1.256421171E0,1.832595794E-3,-5.497787148E-3,1.221730490E-3
1.258435023E0,1.832595794E-3,-5.497787148E-3,1.221730490E-3
1.260419335E0,3.054326167E-3,-4.886921961E-3,6.108652451E-4
1.262434034E0,3.054326167E-3,-5.497787148E-3,-1.832595794E-3
1.264416885E0,3.665191587E-3,-6.108652335E-3,0.000000000E0
1.266431351E0,6.719517522E-3,-5.497787148E-3,-6.108652451E-4
1.268413819E0,5.497787148E-3,-6.108652335E-3,0.000000000E0
1.270429209E0,7.330383174E-3,-4.276056774E-3,6.108652451E-4
1.272412291E0,9.162978269E-3,-4.276056774E-3,-1.221730490E-3
1.274427373E0,6.719517522E-3,-3.054326167E-3,1.221730490E-3
1.276410455E0,7.330383174E-3,-1.832595794E-3,-1.832595794E-3
1.278424307E0,9.773843922E-3,0.000000000E0,1.221730490E-3
1.280407928E0,7.330383174E-3,-6.108652451E-4,-1.832595794E-3
1.282422394E0,7.941247895E-3,1.221730490E-3,-1.221730490E-3
1.284436862E0,9.773843922E-3,1.832595794E-3,-1.832595794E-3
1.286419636E0,8.552113548E-3,7.330383174E-3,6.108652451E-4
1.288434487E0,8.552113548E-3,6.719517522E-3,-6.108652451E-4
1.290418493E0,7.941247895E-3,7.330383174E-3,-3.054326167E-3
1.292432883E0,5.497787148E-3,1.099557430E-2,1.832595794E-3
1.294415965E0,5.497787148E-3,1.160643995E-2,0.000000000E0
1.296430817E0,5.497787148E-3,1.527163107E-2,-1.221730490E-3
1.298413822E0,6.719517522E-3,1.404990070E-2,-1.832595794E-3
1.300427751E0,4.886921961E-3,1.710422710E-2,1.221730490E-3
1.302411141E0,7.330383174E-3,1.649336144E-2,0.000000000E0
1.304424915E0,6.108652335E-3,2.076941915E-2,-1.221730490E-3
1.306408690E0,6.719517522E-3,2.076941915E-2,-1.221730490E-3
1.308423772E0,6.719517522E-3,1.954768784E-2,6.108652451E-4
1.310407777E0,6.719517522E-3,2.138028294E-2,1.221730490E-3
1.312421322E0,6.719517522E-3,2.321287990E-2,6.108652451E-4
1.314435481E0,4.276056774E-3,2.382374369E-2,-1.832595794E-3
1.316418794E0,6.108652335E-3,2.382374369E-2,-1.832595794E-3
1.318433030E0,6.108652335E-3,2.321287990E-2,6.108652451E-4
1.320416727E0,5.497787148E-3,2.199114859E-2,1.832595794E-3
1.322431118E0,4.886921961E-3,2.321287990E-2,0.000000000E0
1.324414892E0,6.108652335E-3,2.199114859E-2,-6.108652451E-4
1.326428974E0,2.443460980E-3,1.954768784E-2,1.221730490E-3
1.328411826E0,3.054326167E-3,1.710422710E-2,3.665191587E-3
1.330428677E0,1.221730490E-3,1.466076635E-2,1.221730490E-3
1.332409990E0,1.832595794E-3,1.160643995E-2,1.832595794E-3
1.334424458E0,6.108652451E-4,1.038470957E-2,1.221730490E-3
1.336408386E0,-6.108652451E-4,7.330383174E-3,2.443460980E-3
1.338422007E0,-6.108652451E-4,3.054326167E-3,2.443460980E-3
1.340436397E0,-6.108652451E-4,6.108652451E-4,1.221730490E-3
1.342420094E0,0.000000000E0,6.108652451E-4,6.108652451E-4
1.344433946E0,-2.443460980E-3,-4.276056774E-3,0.000000000E0
1.346418874E0,-2.443460980E-3,-7.941247895E-3,-1.221730490E-3
1.348432726E0,-3.665191587E-3,-7.330383174E-3,-1.832595794E-3
1.350414962E0,-4.276056774E-3,-1.038470957E-2,6.108652451E-4
1.352430583E0,-3.054326167E-3,-1.160643995E-2,-2.443460980E-3
1.354413127E0,-6.719517522E-3,-1.404990070E-2,-2.443460980E-3
1.356428440E0,-5.497787148E-3,-1.404990070E-2,-1.221730490E-3
1.358411291E0,-7.330383174E-3,-1.649336144E-2,-6.108652451E-4
1.360425143E0,-7.330383174E-3,-1.832595654E-2,-1.832595794E-3
1.362409071E0,-5.497787148E-3,-1.832595654E-2,-1.221730490E-3
1.364424461E0,-4.276056774E-3,-1.893682219E-2,6.108652451E-4
1.366406928E0,-6.719517522E-3,-1.771509275E-2,0.000000000E0
1.368420549E0,-4.276056774E-3,-1.832595654E-2,-6.108652451E-4
1.370435862E0,-2.443460980E-3,-1.771509275E-2,-6.108652451E-4
1.372419329E0,-3.054326167E-3,-1.710422710E-2,3.054326167E-3
1.374433180E0,-1.832595794E-3,-1.466076635E-2,3.054326167E-3
1.376416494E0,6.108652451E-4,-1.160643995E-2,1.832595794E-3
1.378430960E0,-6.108652451E-4,-1.160643995E-2,6.108652451E-4
1.380414119E0,-6.108652451E-4,-1.038470957E-2,1.832595794E-3
1.382429433E0,1.221730490E-3,-7.941247895E-3,3.054326167E-3
1.384411976E0,0.000000000E0,-5.497787148E-3,6.108652451E-4
1.386426136E0,1.832595794E-3,-3.054326167E-3,1.221730490E-3
1.388410449E0,6.108652451E-4,1.221730490E-3,2.443460980E-3
1.390424839E0,2.443460980E-3,1.221730490E-3,0.000000000E0
1.392407306E0,3.054326167E-3,6.108652335E-3,-6.108652451E-4
1.394421542E0,2.443460980E-3,7.330383174E-3,-6.108652451E-4
1.396436008E0,6.108652451E-4,1.038470957E-2,-2.443460980E-3
1.398420322E0,3.054326167E-3,9.773843922E-3,-6.108652451E-4
1.400433789E0,3.054326167E-3,1.466076635E-2,-3.665191587E-3
1.402417256E0,2.443460980E-3,1.527163107E-2,-4.276056774E-3
1.404432261E0,3.665191587E-3,1.588249579E-2,-4.886921961E-3
1.406415959E0,2.443460980E-3,1.832595654E-2,-3.054326167E-3
1.408429888E0,1.832595794E-3,1.893682219E-2,-4.276056774E-3
1.410414431E0,2.443460980E-3,2.076941915E-2,-4.276056774E-3
1.412428359E0,0.000000000E0,2.138028294E-2,-1.832595794E-3
1.414411134E0,1.832595794E-3,2.199114859E-2,-3.665191587E-3
1.416425601E0,6.108652451E-4,1.954768784E-2,-3.665191587E-3
1.418409221E0,-1.221730490E-3,2.015855350E-2,-4.276056774E-3
1.420423073E0,6.108652451E-4,1.954768784E-2,-3.054326167E-3
1.422437232E0,0.000000000E0,2.076941915E-2,-2.443460980E-3
1.424421315E0,-1.221730490E-3,1.832595654E-2,-3.665191587E-3
1.426435705E0,1.221730490E-3,1.771509275E-2,-4.886921961E-3
1.428419171E0,-6.108652451E-4,1.588249579E-2,-1.221730490E-3
1.430432408E0,1.221730490E-3,1.588249579E-2,-6.108652451E-4
1.432417259E0,-6.108652451E-4,1.404990070E-2,0.000000000E0
1.434430880E0,0.000000000E0,1.343903504E-2,-1.221730490E-3
1.436414578E0,1.221730490E-3,1.099557430E-2,0.000000000E0
1.438428429E0,-6.108652451E-4,1.038470957E-2,0.000000000E0
1.440411435E0,6.108652451E-4,8.552113548E-3,6.108652451E-4
1.442425979E0,6.108652451E-4,7.330383174E-3,1.832595794E-3
1.444410522E0,1.221730490E-3,5.497787148E-3,6.108652451E-4
1.446423759E0,1.832595794E-3,4.886921961E-3,1.221730490E-3
1.448438225E0,1.221730490E-3,6.108652335E-3,6.108652451E-4
1.450422538E0,1.832595794E-3,1.832595794E-3,1.832595794E-3
1.452435775E0,3.665191587E-3,1.221730490E-3,2.443460980E-3
1.454420088E0,2.443460980E-3,-6.108652451E-4,6.108652451E-4
1.456434555E0,1.221730490E-3,6.108652451E-4,2.443460980E-3
1.458418022E0,4.886921961E-3,0.000000000E0,6.108652451E-4
1.460431488E0,2.443460980E-3,0.000000000E0,2.443460980E-3
1.462415494E0,1.832595794E-3,0.000000000E0,0.000000000E0
1.464429038E0,1.221730490E-3,0.000000000E0,6.108652451E-4
1.466413966E0,4.276056774E-3,-6.108652451E-4,0.000000000E0
1.468426895E0,1.832595794E-3,1.221730490E-3,1.832595794E-3
1.470412208E0,1.221730490E-3,1.221730490E-3,1.832595794E-3
1.472426060E0,4.276056774E-3,0.000000000E0,6.108652451E-4
1.474409142E0,1.832595794E-3,1.221730490E-3,3.054326167E-3
1.476423301E0,2.443460980E-3,2.443460980E-3,3.665191587E-3
1.478437153E0,3.054326167E-3,3.665191587E-3,3.054326167E-3
1.480420542E0,1.832595794E-3,3.054326167E-3,3.054326167E-3
1.482435624E0,1.832595794E-3,5.497787148E-3,4.886921961E-3
1.484419630E0,4.276056774E-3,4.886921961E-3,3.665191587E-3
1.486432866E0,1.832595794E-3,2.443460980E-3,3.054326167E-3
1.488416486E0,1.221730490E-3,4.276056774E-3,3.665191587E-3
1.490430954E0,-1.221730490E-3,6.108652335E-3,6.719517522E-3
1.492414728E0,1.832595794E-3,6.108652335E-3,4.886921961E-3
1.494428273E0,3.665191587E-3,4.276056774E-3,4.886921961E-3
1.496411893E0,2.443460980E-3,4.886921961E-3,4.276056774E-3
1.498426667E0,2.443460980E-3,6.108652335E-3,4.276056774E-3
1.500410135E0,-1.221730490E-3,6.108652335E-3,4.276056774E-3
1.502424217E0,1.221730490E-3,6.719517522E-3,3.665191587E-3
1.504407606E0,1.221730490E-3,6.719517522E-3,3.665191587E-3
1.506422459E0,0.000000000E0,6.108652335E-3,3.054326167E-3
1.508436233E0,6.108652451E-4,7.330383174E-3,3.054326167E-3
1.510419700E0,0.000000000E0,7.941247895E-3,6.108652335E-3
1.512434167E0,-6.108652451E-4,8.552113548E-3,5.497787148E-3
1.514417556E0,-1.221730490E-3,7.330383174E-3,4.276056774E-3
1.516432024E0,-1.221730490E-3,6.719517522E-3,-6.108652451E-4
1.518415029E0,1.221730490E-3,7.330383174E-3,1.832595794E-3
1.520429803E0,-6.108652451E-4,6.108652335E-3,6.108652451E-4
1.522413271E0,-1.832595794E-3,7.941247895E-3,4.276056774E-3
1.524428045E0,-1.832595794E-3,4.886921961E-3,4.276056774E-3
1.526411359E0,-2.443460980E-3,4.886921961E-3,4.276056774E-3
1.528424902E0,-1.221730490E-3,3.054326167E-3,3.665191587E-3
1.530409907E0,-4.276056774E-3,5.497787148E-3,7.330383174E-3
1.532423144E0,-2.443460980E-3,3.665191587E-3,3.054326167E-3
1.534436687E0,-1.832595794E-3,3.665191587E-3,4.886921961E-3
1.536421000E0,-1.832595794E-3,1.832595794E-3,4.276056774E-3
1.538435160E0,-3.054326167E-3,1.221730490E-3,2.443460980E-3
1.540418165E0,-3.665191587E-3,2.443460980E-3,3.054326167E-3
1.542432709E0,-2.443460980E-3,1.221730490E-3,2.443460980E-3
1.544415714E0,-1.221730490E-3,-1.221730490E-3,3.665191587E-3
1.546430181E0,-3.054326167E-3,-2.443460980E-3,1.221730490E-3
1.548414495E0,-2.443460980E-3,-1.221730490E-3,1.832595794E-3
1.550429654E0,0.000000000E0,-1.832595794E-3,1.221730490E-3
1.552412966E0,6.108652451E-4,-6.108652451E-4,1.221730490E-3
1.554426203E0,1.221730490E-3,-3.665191587E-3,-1.221730490E-3
1.556409977E0,4.276056774E-3,-4.886921961E-3,1.221730490E-3
1.558423752E0,4.886921961E-3,-6.108652451E-4,-6.108652451E-4
1.560438219E0,4.886921961E-3,-1.221730490E-3,-1.221730490E-3
1.562421686E0,3.665191587E-3,6.108652451E-4,-1.832595794E-3
1.564436769E0,3.054326167E-3,6.108652451E-4,-3.054326167E-3
1.566419543E0,3.665191587E-3,2.443460980E-3,-6.108652335E-3
1.568433625E0,3.665191587E-3,4.886921961E-3,-4.886921961E-3
1.570418323E0,1.832595794E-3,6.108652335E-3,-5.497787148E-3
1.572431482E0,6.108652451E-4,4.886921961E-3,-1.832595794E-3
1.574415564E0,4.276056774E-3,7.330383174E-3,-1.832595794E-3
1.576429416E0,2.443460980E-3,1.282817032E-2,-3.054326167E-3
1.578413344E0,2.443460980E-3,1.099557430E-2,-2.443460980E-3
1.580427273E0,1.832595794E-3,1.221730467E-2,-6.108652451E-4
1.582411509E0,1.221730490E-3,1.588249579E-2,-6.108652451E-4
1.584424514E0,6.108652451E-4,1.710422710E-2,0.000000000E0
1.586409443E0,1.221730490E-3,1.771509275E-2,1.221730490E-3
1.588423525E0,3.054326167E-3,2.138028294E-2,1.832595794E-3
1.590436531E0,3.054326167E-3,2.260201424E-2,2.443460980E-3
1.592420767E0,4.886921961E-3,2.443460934E-2,2.443460980E-3
1.594434926E0,1.832595794E-3,2.382374369E-2,3.665191587E-3
1.596418085E0,0.000000000E0,2.382374369E-2,4.886921961E-3
1.598432860E0,1.832595794E-3,2.199114859E-2,6.108652451E-4
1.600416249E0,1.832595794E-3,2.443460934E-2,5.497787148E-3
1.602430640E0,6.108652451E-4,2.260201424E-2,4.886921961E-3
1.604415029E0,1.832595794E-3,2.076941915E-2,4.276056774E-3
1.606429111E0,6.108652451E-4,2.076941915E-2,3.665191587E-3
1.608411579E0,-6.108652451E-4,2.076941915E-2,4.276056774E-3
1.610427661E0,-1.221730490E-3,1.771509275E-2,4.886921961E-3
1.612410359E0,1.221730490E-3,1.527163107E-2,5.497787148E-3
1.614423980E0,-6.108652451E-4,1.404990070E-2,4.886921961E-3
1.616438061E0,0.000000000E0,1.160643995E-2,3.665191587E-3
1.618421760E0,-6.108652451E-4,9.773843922E-3,6.719517522E-3
1.620436226E0,0.000000000E0,6.719517522E-3,3.665191587E-3
1.622419308E0,0.000000000E0,5.497787148E-3,3.054326167E-3
1.624433160E0,-6.108652451E-4,3.665191587E-3,5.497787148E-3
1.626417550E0,-6.108652451E-4,2.443460980E-3,1.832595794E-3
1.628431633E0,-2.443460980E-3,6.108652451E-4,4.886921961E-3
1.630415330E0,-1.221730490E-3,-1.832595794E-3,3.665191587E-3
1.632429874E0,0.000000000E0,-3.054326167E-3,1.832595794E-3
1.634413187E0,-1.221730490E-3,-6.719517522E-3,2.443460980E-3
1.636426500E0,-2.443460980E-3,-5.497787148E-3,1.832595794E-3
1.638411044E0,0.000000000E0,-9.773843922E-3,0.000000000E0
1.640425203E0,-1.221730490E-3,-1.099557430E-2,6.108652451E-4
1.642408362E0,0.000000000E0,-1.038470957E-2,0.000000000E0
1.644423445E0,1.832595794E-3,-1.282817032E-2,-6.108652451E-4
1.646437296E0,-1.221730490E-3,-1.343903504E-2,-1.221730490E-3
1.648420378E0,6.108652451E-4,-1.649336144E-2,-1.221730490E-3
1.650435692E0,6.108652451E-4,-1.404990070E-2,-5.497787148E-3
1.652419159E0,6.108652451E-4,-1.221730467E-2,-1.832595794E-3
1.654432625E0,3.665191587E-3,-1.466076635E-2,-2.443460980E-3
1.656416400E0,2.443460980E-3,-1.221730467E-2,-4.886921961E-3
1.658430559E0,6.108652451E-4,-1.221730467E-2,-6.108652335E-3
1.660413872E0,4.276056774E-3,-1.221730467E-2,-5.497787148E-3
1.662427724E0,1.832595794E-3,-8.552113548E-3,-3.665191587E-3
1.664412037E0,6.108652451E-4,-7.941247895E-3,-3.054326167E-3
1.666426274E0,3.054326167E-3,-6.108652335E-3,-5.497787148E-3
1.668409971E0,1.832595794E-3,-3.054326167E-3,-3.665191587E-3
1.670423822E0,2.443460980E-3,-6.108652451E-4,-3.665191587E-3
1.672438213E0,3.665191587E-3,1.832595794E-3,-2.443460980E-3
1.674421910E0,1.221730490E-3,3.054326167E-3,0.000000000E0
1.676436147E0,3.665191587E-3,5.497787148E-3,-2.443460980E-3
1.678419459E0,1.832595794E-3,9.162978269E-3,-6.108652451E-4
1.680433695E0,6.108652451E-4,8.552113548E-3,-1.221730490E-3
1.682417086E0,6.108652451E-4,1.160643995E-2,0.000000000E0
1.684432091E0,6.108652451E-4,1.282817032E-2,6.108652451E-4
1.686415480E0,2.443460980E-3,1.343903504E-2,1.221730490E-3
1.688429640E0,3.054326167E-3,1.343903504E-2,1.221730490E-3
1.690414338E0,0.000000000E0,1.649336144E-2,1.221730490E-3
1.692426958E0,1.221730490E-3,1.466076635E-2,0.000000000E0
1.694410887E0,2.443460980E-3,1.649336144E-2,1.832595794E-3
1.696425354E0,3.054326167E-3,1.832595654E-2,1.221730490E-3
1.698408513E0,1.832595794E-3,1.832595654E-2,0.000000000E0
1.700422903E0,1.832595794E-3,2.015855350E-2,6.108652451E-4
1.702436523E0,1.221730490E-3,1.893682219E-2,1.832595794E-3
1.704420222E0,3.054326167E-3,1.954768784E-2,1.832595794E-3
1.706434304E0,2.443460980E-3,1.832595654E-2,1.221730490E-3
1.708419001E0,3.054326167E-3,1.710422710E-2,1.221730490E-3
1.710433084E0,3.054326167E-3,1.832595654E-2,1.221730490E-3
1.712417397E0,6.108652451E-4,1.832595654E-2,6.108652451E-4
1.714430403E0,3.054326167E-3,1.343903504E-2,4.276056774E-3
1.716414715E0,1.221730490E-3,1.527163107E-2,6.108652451E-4
1.718428566E0,1.221730490E-3,1.343903504E-2,0.000000000E0
1.720411880E0,2.443460980E-3,1.160643995E-2,6.108652451E-4
1.722426654E0,2.443460980E-3,1.038470957E-2,1.832595794E-3
1.724410429E0,2.443460980E-3,7.941247895E-3,0.000000000E0
1.726423589E0,1.221730490E-3,7.941247895E-3,-1.832595794E-3
1.728437824E0,3.054326167E-3,4.886921961E-3,-6.108652451E-4
1.730422753E0,4.276056774E-3,1.832595794E-3,1.832595794E-3
1.732435989E0,3.665191587E-3,3.054326167E-3,0.000000000E0
1.734419071E0,3.665191587E-3,-6.108652451E-4,6.108652451E-4
1.736433846E0,2.443460980E-3,6.108652451E-4,-6.108652451E-4
1.738417467E0,3.665191587E-3,-1.832595794E-3,-1.832595794E-3
1.740431087E0,3.665191587E-3,-3.665191587E-3,-1.221730490E-3
1.742415093E0,2.443460980E-3,-1.221730490E-3,0.000000000E0
1.744428560E0,1.832595794E-3,-3.054326167E-3,-2.443460980E-3
1.746412949E0,1.221730490E-3,-4.276056774E-3,0.000000000E0
1.748426801E0,3.665191587E-3,-3.665191587E-3,-6.108652451E-4
1.750409883E0,1.832595794E-3,-6.108652335E-3,-6.108652451E-4
1.752424889E0,3.665191587E-3,-6.108652335E-3,3.054326167E-3
1.754408279E0,3.054326167E-3,-3.054326167E-3,-6.108652451E-4
1.756422746E0,3.665191587E-3,-4.276056774E-3,6.108652451E-4
1.758436675E0,3.665191587E-3,-3.054326167E-3,-1.221730490E-3
1.760419757E0,5.497787148E-3,-4.276056774E-3,-6.108652451E-4
1.762434455E0,5.497787148E-3,-3.054326167E-3,0.000000000E0
1.764418460E0,4.886921961E-3,-3.054326167E-3,1.221730490E-3
1.766432003E0,4.276056774E-3,-1.221730490E-3,1.832595794E-3
1.768416086E0,5.497787148E-3,0.000000000E0,6.108652451E-4
1.770430784E0,4.276056774E-3,0.000000000E0,1.221730490E-3
1.772414558E0,4.276056774E-3,6.108652451E-4,2.443460980E-3
1.774428718E0,6.108652335E-3,3.665191587E-3,0.000000000E0
1.776411415E0,5.497787148E-3,2.443460980E-3,6.108652451E-4
1.778426266E0,7.330383174E-3,5.497787148E-3,6.108652451E-4
1.780409657E0,4.276056774E-3,6.719517522E-3,1.832595794E-3
1.782423431E0,4.276056774E-3,6.719517522E-3,3.054326167E-3
1.784436975E0,3.054326167E-3,1.099557430E-2,2.443460980E-3
1.786422211E0,2.443460980E-3,1.160643995E-2,1.221730490E-3
1.788435447E0,3.054326167E-3,1.160643995E-2,3.054326167E-3
1.790420376E0,4.276056774E-3,1.282817032E-2,5.497787148E-3
1.792433920E0,2.443460980E-3,1.160643995E-2,4.886921961E-3
1.794417309E0,2.443460980E-3,1.343903504E-2,4.276056774E-3
1.796431161E0,4.886921961E-3,1.160643995E-2,5.497787148E-3
1.798414859E0,1.832595794E-3,1.404990070E-2,3.665191587E-3
1.800429711E0,1.832595794E-3,1.343903504E-2,2.443460980E-3
1.802413023E0,2.443460980E-3,1.343903504E-2,4.276056774E-3
1.804427490E0,3.665191587E-3,1.282817032E-2,4.276056774E-3
1.806410958E0,2.443460980E-3,1.466076635E-2,4.886921961E-3
1.808425039E0,1.221730490E-3,1.343903504E-2,1.832595794E-3
1.810409429E0,1.832595794E-3,1.527163107E-2,3.054326167E-3
1.812422358E0,1.221730490E-3,1.221730467E-2,4.886921961E-3
1.814436825E0,6.108652451E-4,9.773843922E-3,3.665191587E-3
1.816420138E0,0.000000000E0,9.773843922E-3,3.054326167E-3
1.818434066E0,0.000000000E0,7.941247895E-3,1.832595794E-3
1.820418072E0,-6.108652451E-4,7.330383174E-3,3.665191587E-3
1.822432770E0,6.108652451E-4,7.330383174E-3,3.665191587E-3
1.824415544E0,1.221730490E-3,4.886921961E-3,1.832595794E-3
1.826430703E0,1.832595794E-3,2.443460980E-3,3.665191587E-3
1.828414401E0,3.054326167E-3,3.054326167E-3,6.108652451E-4
1.830427560E0,3.054326167E-3,0.000000000E0,2.443460980E-3
1.832411873E0,1.832595794E-3,6.108652451E-4,0.000000000E0
1.834425725E0,3.665191587E-3,6.108652451E-4,1.832595794E-3
1.836409807E0,3.054326167E-3,-1.832595794E-3,1.832595794E-3
1.838423582E0,3.665191587E-3,0.000000000E0,1.221730490E-3
1.840437433E0,1.832595794E-3,-6.108652451E-4,0.000000000E0
1.842421207E0,3.665191587E-3,-1.221730490E-3,6.108652451E-4
1.844436290E0,3.054326167E-3,6.108652451E-4,-6.108652451E-4
1.846419372E0,3.665191587E-3,-1.832595794E-3,0.000000000E0
1.848433223E0,4.276056774E-3,-1.221730490E-3,1.221730490E-3
1.850417537E0,2.443460980E-3,-1.832595794E-3,1.221730490E-3
1.852431004E0,4.886921961E-3,-1.832595794E-3,-6.108652451E-4
1.854415702E0,4.886921961E-3,-6.108652451E-4,1.832595794E-3
1.856428861E0,3.665191587E-3,0.000000000E0,6.108652451E-4
1.858412558E0,6.719517522E-3,-6.108652451E-4,1.221730490E-3
1.860427026E0,1.832595794E-3,3.054326167E-3,0.000000000E0
1.862410723E0,4.276056774E-3,1.832595794E-3,2.443460980E-3
1.864424036E0,4.276056774E-3,2.443460980E-3,0.000000000E0
1.866437580E0,4.276056774E-3,6.719517522E-3,1.832595794E-3
1.868422431E0,4.276056774E-3,5.497787148E-3,1.221730490E-3
1.870437591E0,3.054326167E-3,4.276056774E-3,1.832595794E-3
1.872420289E0,5.497787148E-3,6.108652335E-3,1.221730490E-3
1.874434140E0,3.665191587E-3,5.497787148E-3,0.000000000E0
1.876418453E0,4.886921961E-3,6.719517522E-3,1.221730490E-3
1.878432381E0,4.276056774E-3,7.330383174E-3,6.108652451E-4
1.880416079E0,1.832595794E-3,7.330383174E-3,1.832595794E-3
1.882430239E0,6.108652451E-4,9.162978269E-3,-1.832595794E-3
1.884413936E0,3.054326167E-3,7.330383174E-3,-6.108652451E-4
1.886428019E0,3.665191587E-3,7.941247895E-3,6.108652451E-4
1.888411178E0,2.443460980E-3,9.162978269E-3,-1.832595794E-3
1.890427183E0,1.221730490E-3,8.552113548E-3,6.108652451E-4
1.892410496E0,2.443460980E-3,7.941247895E-3,-6.108652451E-4
1.894424117E0,1.221730490E-3,9.162978269E-3,1.221730490E-3
1.896437891E0,0.000000000E0,7.941247895E-3,-2.443460980E-3
1.898420974E0,0.000000000E0,9.162978269E-3,-1.221730490E-3
1.900436133E0,6.108652451E-4,8.552113548E-3,-1.221730490E-3
1.902418907E0,1.221730490E-3,7.941247895E-3,6.108652451E-4
1.904432144E0,-1.221730490E-3,5.497787148E-3,6.108652451E-4
1.906417918E0,6.108652451E-4,6.108652335E-3,-6.108652451E-4
1.908431463E0,-1.221730490E-3,3.665191587E-3,-6.108652451E-4
1.910413929E0,1.832595794E-3,4.886921961E-3,0.000000000E0
1.912429088E0,0.000000000E0,4.276056774E-3,6.108652451E-4
1.914413094E0,-6.108652451E-4,3.054326167E-3,0.000000000E0
1.916426637E0,0.000000000E0,1.832595794E-3,-6.108652451E-4
1.918410027E0,-1.221730490E-3,6.108652451E-4,6.108652451E-4
1.920424495E0,-6.108652451E-4,6.108652451E-4,6.108652451E-4
1.922439500E0,-1.221730490E-3,6.108652451E-4,-6.108652451E-4
1.924422890E0,0.000000000E0,-1.832595794E-3,1.832595794E-3
1.926437049E0,6.108652451E-4,-3.054326167E-3,2.443460980E-3
1.928420439E0,-1.221730490E-3,-2.443460980E-3,6.108652451E-4
1.930435214E0,-3.054326167E-3,-1.832595794E-3,2.443460980E-3
1.932418296E0,-1.832595794E-3,-4.276056774E-3,2.443460980E-3
1.934432147E0,-1.832595794E-3,-3.054326167E-3,1.221730490E-3
1.936415538E0,-1.832595794E-3,-4.886921961E-3,1.221730490E-3
1.938429773E0,-6.108652451E-4,-4.276056774E-3,3.054326167E-3
1.940413395E0,-1.832595794E-3,-4.886921961E-3,2.443460980E-3
1.942428246E0,-3.054326167E-3,-4.276056774E-3,3.665191587E-3
1.944410943E0,-2.443460980E-3,-4.276056774E-3,6.108652451E-4
1.946424795E0,-3.054326167E-3,-2.443460980E-3,1.221730490E-3
1.948440185E0,-2.443460980E-3,-4.276056774E-3,3.665191587E-3
1.950423344E0,-2.443460980E-3,-3.054326167E-3,4.276056774E-3
1.952437735E0,-2.443460980E-3,-1.221730490E-3,3.054326167E-3
1.954421509E0,-2.443460980E-3,-1.221730490E-3,3.054326167E-3
1.956435669E0,-1.832595794E-3,-1.832595794E-3,3.054326167E-3
1.958419058E0,-3.665191587E-3,6.108652451E-4,3.054326167E-3
1.960433217E0,-2.443460980E-3,-1.832595794E-3,3.665191587E-3
1.962416531E0,-1.832595794E-3,-1.221730490E-3,5.497787148E-3
1.964431690E0,-1.221730490E-3,-2.443460980E-3,4.886921961E-3
1.966414772E0,-1.832595794E-3,1.832595794E-3,6.108652451E-4
1.968428854E0,-4.276056774E-3,1.221730490E-3,3.054326167E-3
1.970413475E0,0.000000000E0,0.000000000E0,6.108652451E-4
1.972426481E0,-1.221730490E-3,1.832595794E-3,2.443460980E-3
1.974409794E0,1.221730490E-3,1.832595794E-3,3.665191587E-3
1.976424568E0,1.832595794E-3,6.108652451E-4,6.108652451E-4
1.978439112E0,6.108652451E-4,2.443460980E-3,1.832595794E-3
1.980421502E0,1.832595794E-3,1.832595794E-3,1.832595794E-3
1.982436045E0,1.832595794E-3,1.221730490E-3,6.108652451E-4
1.984419744E0,1.832595794E-3,3.665191587E-3,-1.221730490E-3
1.986435364E0,1.832595794E-3,6.108652451E-4,-1.221730490E-3
1.988417215E0,2.443460980E-3,4.276056774E-3,0.000000000E0
1.990431683E0,1.832595794E-3,3.665191587E-3,0.000000000E0
1.992416611E0,6.108652451E-4,6.719517522E-3,-1.221730490E-3
1.994429925E0,6.108652451E-4,5.497787148E-3,-1.832595794E-3
1.996414468E0,2.443460980E-3,6.719517522E-3,-3.054326167E-3
1.998427781E0,1.221730490E-3,7.330383174E-3,0.000000000E0
2.000410864E0,1.221730490E-3,7.330383174E-3,-3.054326167E-3
2.002425561E0,4.276056774E-3,5.497787148E-3,-3.054326167E-3
2.004410566E0,3.665191587E-3,7.941247895E-3,-1.832595794E-3
2.006423726E0,2.443460980E-3,1.038470957E-2,-3.054326167E-3
2.008437269E0,3.665191587E-3,1.038470957E-2,-3.665191587E-3
2.010421583E0,2.443460980E-3,1.221730467E-2,-1.832595794E-3
2.012435126E0,3.054326167E-3,9.162978269E-3,-3.054326167E-3
2.014418824E0,2.443460980E-3,1.099557430E-2,-3.665191587E-3
2.016433368E0,1.832595794E-3,1.099557430E-2,-1.832595794E-3
2.018416450E0,1.832595794E-3,1.160643995E-2,-6.108652451E-4
2.020431147E0,3.665191587E-3,1.099557430E-2,-6.108652451E-4
2.022414230E0,1.832595794E-3,1.038470957E-2,6.108652451E-4
2.024428158E0,2.443460980E-3,7.941247895E-3,-1.221730490E-3
2.026412472E0,1.221730490E-3,9.162978269E-3,6.108652451E-4
2.028426554E0,1.832595794E-3,5.497787148E-3,0.000000000E0
2.030411482E0,1.832595794E-3,5.497787148E-3,-6.108652451E-4
2.032424411E0,-1.221730490E-3,6.719517522E-3,0.000000000E0
2.034438339E0,1.221730490E-3,3.054326167E-3,6.108652451E-4
2.036422037E0,6.108652451E-4,3.665191587E-3,1.221730490E-3
2.038436196E0,6.108652451E-4,3.054326167E-3,1.221730490E-3
2.040420201E0,-1.832595794E-3,1.221730490E-3,-6.108652451E-4
2.042434361E0,-1.221730490E-3,6.108652451E-4,0.000000000E0
2.044418289E0,6.108652451E-4,0.000000000E0,1.221730490E-3
2.046431833E0,6.108652451E-4,-2.443460980E-3,-6.108652451E-4
2.048415531E0,-1.221730490E-3,-2.443460980E-3,1.221730490E-3
2.050430613E0,-1.221730490E-3,-4.276056774E-3,1.221730490E-3
2.052413387E0,1.832595794E-3,-3.665191587E-3,6.108652451E-4
2.054427316E0,6.108652451E-4,-2.443460980E-3,0.000000000E0
2.056410706E0,-6.108652451E-4,-2.443460980E-3,6.108652451E-4
2.058425712E0,-6.108652451E-4,-1.832595794E-3,1.832595794E-3
2.060408486E0,0.000000000E0,-3.665191587E-3,1.221730490E-3
2.062423261E0,1.221730490E-3,-3.054326167E-3,1.832595794E-3
2.064437420E0,1.832595794E-3,-1.221730490E-3,1.221730490E-3
2.066422041E0,1.832595794E-3,-3.054326167E-3,1.221730490E-3
2.068435892E0,4.276056774E-3,-1.832595794E-3,3.054326167E-3
2.070418359E0,2.443460980E-3,-1.832595794E-3,3.054326167E-3
2.072433134E0,4.276056774E-3,-6.108652451E-4,1.221730490E-3
2.074417139E0,5.497787148E-3,0.000000000E0,-6.108652451E-4
2.076430991E0,3.665191587E-3,1.221730490E-3,6.108652451E-4
2.078414765E0,6.108652335E-3,2.443460980E-3,-6.108652451E-4
2.080428925E0,6.108652335E-3,5.497787148E-3,-1.221730490E-3
2.082412930E0,6.108652335E-3,6.108652335E-3,1.221730490E-3
2.084427089E0,5.497787148E-3,8.552113548E-3,0.000000000E0
2.086409479E0,6.719517522E-3,9.773843922E-3,0.000000000E0
2.088424331E0,6.108652335E-3,1.160643995E-2,6.108652451E-4
2.090439644E0,6.719517522E-3,1.282817032E-2,0.000000000E0
2.092422495E0,7.330383174E-3,1.466076635E-2,-1.832595794E-3
2.094436347E0,8.552113548E-3,1.588249579E-2,0.000000000E0
2.096419353E0,6.719517522E-3,1.710422710E-2,1.221730490E-3
2.098433819E0,6.108652335E-3,1.893682219E-2,-1.221730490E-3
2.100417824E0,5.497787148E-3,1.954768784E-2,-1.221730490E-3
2.102431984E0,7.330383174E-3,2.138028294E-2,0.000000000E0
2.104415143E0,7.941247895E-3,2.138028294E-2,1.221730490E-3
2.106429532E0,6.719517522E-3,2.076941915E-2,-1.221730490E-3
2.108413000E0,7.330383174E-3,2.260201424E-2,-6.108652451E-4
2.110428390E0,6.108652335E-3,2.382374369E-2,1.832595794E-3
2.112411703E0,5.497787148E-3,2.199114859E-2,6.108652451E-4
2.114425016E0,4.886921961E-3,2.015855350E-2,-6.108652451E-4
2.116439175E0,6.108652335E-3,2.138028294E-2,6.108652451E-4
2.118423489E0,6.108652335E-3,2.015855350E-2,6.108652451E-4
2.120437263E0,2.443460980E-3,2.076941915E-2,-6.108652451E-4
2.122421268E0,4.276056774E-3,2.076941915E-2,1.832595794E-3
2.124436043E0,4.886921961E-3,1.649336144E-2,-6.108652451E-4
2.126419125E0,4.276056774E-3,1.466076635E-2,-1.221730490E-3
2.128432977E0,3.665191587E-3,1.282817032E-2,-6.108652451E-4
2.130417905E0,3.665191587E-3,1.038470957E-2,0.000000000E0
2.132431218E0,3.054326167E-3,8.552113548E-3,0.000000000E0
2.134414301E0,2.443460980E-3,9.162978269E-3,0.000000000E0
2.136428383E0,3.054326167E-3,6.719517522E-3,6.108652451E-4
2.138411849E0,2.443460980E-3,6.719517522E-3,-6.108652451E-4
2.140426625E0,1.221730490E-3,3.054326167E-3,-6.108652451E-4
2.142410014E0,2.443460980E-3,-6.108652451E-4,0.000000000E0
2.144424174E0,1.832595794E-3,-1.832595794E-3,6.108652451E-4
2.146439179E0,6.108652451E-4,-3.665191587E-3,-6.108652451E-4
2.148422338E0,1.832595794E-3,-4.886921961E-3,-6.108652451E-4
2.150435882E0,2.443460980E-3,-7.941247895E-3,0.000000000E0
2.152419810E0,0.000000000E0,-6.719517522E-3,-6.108652451E-4
2.154433739E0,6.108652451E-4,-1.038470957E-2,2.443460980E-3
2.156417745E0,6.108652451E-4,-7.941247895E-3,6.108652451E-4
2.158431826E0,0.000000000E0,-9.162978269E-3,0.000000000E0
2.160416139E0,1.832595794E-3,-9.773843922E-3,6.108652451E-4
2.162429684E0,3.054326167E-3,-9.773843922E-3,0.000000000E0
2.164414689E0,3.665191587E-3,-1.038470957E-2,-1.221730490E-3
2.166427541E0,3.665191587E-3,-1.099557430E-2,-6.108652451E-4
2.168410623E0,2.443460980E-3,-8.552113548E-3,1.832595794E-3
2.170426935E0,4.276056774E-3,-7.330383174E-3,-1.832595794E-3
2.172408788E0,1.832595794E-3,-6.719517522E-3,6.108652451E-4
2.174423254E0,3.054326167E-3,-6.108652335E-3,-6.108652451E-4
2.176437491E0,3.054326167E-3,-3.054326167E-3,-1.832595794E-3
2.178420496E0,4.276056774E-3,-1.832595794E-3,6.108652451E-4
2.180434732E0,4.886921961E-3,0.000000000E0,0.000000000E0
2.182418738E0,2.443460980E-3,2.443460980E-3,-1.832595794E-3
2.184432512E0,4.276056774E-3,1.832595794E-3,2.443460980E-3
2.186416902E0,3.054326167E-3,6.719517522E-3,-1.221730490E-3
2.188430984E0,3.665191587E-3,7.941247895E-3,6.108652451E-4
2.190414989E0,2.443460980E-3,1.099557430E-2,-6.108652451E-4
2.192428841E0,3.054326167E-3,1.160643995E-2,1.221730490E-3
2.194412000E0,3.665191587E-3,1.221730467E-2,-6.108652451E-4
2.196426467E0,2.443460980E-3,1.588249579E-2,1.221730490E-3
2.198410473E0,3.665191587E-3,1.527163107E-2,1.221730490E-3
2.200424016E0,2.443460980E-3,1.771509275E-2,1.832595794E-3
2.202438406E0,2.443460980E-3,1.954768784E-2,1.221730490E-3
2.204423027E0,3.054326167E-3,1.954768784E-2,1.221730490E-3
2.206435648E0,2.443460980E-3,2.138028294E-2,0.000000000E0
2.208419422E0,3.054326167E-3,1.832595654E-2,1.221730490E-3
2.210434736E0,2.443460980E-3,1.649336144E-2,0.000000000E0
2.212418125E0,1.221730490E-3,1.954768784E-2,1.832595794E-3
2.214431978E0,1.832595794E-3,1.832595654E-2,3.054326167E-3
2.216415367E0,3.665191587E-3,1.527163107E-2,0.000000000E0
2.218429218E0,1.832595794E-3,1.710422710E-2,0.000000000E0
2.220413224E0,2.443460980E-3,1.343903504E-2,6.108652451E-4
2.222427383E0,1.221730490E-3,1.404990070E-2,6.108652451E-4
2.224410465E0,1.832595794E-3,1.099557430E-2,2.443460980E-3
2.226425933E0,1.832595794E-3,9.162978269E-3,0.000000000E0
2.228408015E0,6.108652451E-4,7.330383174E-3,1.221730490E-3
2.230422790E0,6.108652451E-4,4.276056774E-3,6.108652451E-4
2.232436949E0,-6.108652451E-4,2.443460980E-3,1.221730490E-3
2.234420108E0,0.000000000E0,2.443460980E-3,1.832595794E-3
2.236435806E0,6.108652451E-4,1.221730490E-3,1.832595794E-3
2.238418503E0,0.000000000E0,-2.443460980E-3,2.443460980E-3
2.240432662E0,6.108652451E-4,-1.832595794E-3,2.443460980E-3
2.242416745E0,6.108652451E-4,-4.276056774E-3,6.108652451E-4
2.244431442E0,2.443460980E-3,-4.886921961E-3,2.443460980E-3
2.246413986E0,6.108652451E-4,-3.054326167E-3,1.221730490E-3
2.248428453E0,1.221730490E-3,-4.886921961E-3,0.000000000E0
2.250412997E0,0.000000000E0,-5.497787148E-3,0.000000000E0
2.252427157E0,2.443460980E-3,-6.108652335E-3,2.443460980E-3
2.254410008E0,6.108652451E-4,-6.108652335E-3,-1.221730490E-3
2.256424090E0,3.665191587E-3,-5.497787148E-3,-1.221730490E-3
2.258438326E0,2.443460980E-3,-5.497787148E-3,6.108652451E-4
2.260421947E0,3.054326167E-3,-4.886921961E-3,-1.832595794E-3
2.262436413E0,4.886921961E-3,-4.276056774E-3,0.000000000E0
2.264418958E0,2.443460980E-3,-3.054326167E-3,0.000000000E0
2.266433424E0,2.443460980E-3,-2.443460980E-3,6.108652451E-4
2.268417738E0,1.832595794E-3,-2.443460980E-3,6.108652451E-4
2.270431897E0,1.832595794E-3,-2.443460980E-3,-2.443460980E-3
2.272415517E0,4.276056774E-3,1.221730490E-3,0.000000000E0
2.274429446E0,2.443460980E-3,1.832595794E-3,0.000000000E0
2.276413682E0,3.054326167E-3,3.054326167E-3,-2.443460980E-3
2.278427226E0,3.665191587E-3,4.886921961E-3,0.000000000E0
2.280411539E0,3.054326167E-3,5.497787148E-3,-1.832595794E-3
2.282425391E0,4.886921961E-3,6.108652335E-3,-1.832595794E-3
2.284439935E0,3.665191587E-3,9.162978269E-3,6.108652451E-4
2.286423248E0,3.665191587E-3,1.282817032E-2,-6.108652451E-4
2.288436791E0,5.497787148E-3,1.099557430E-2,0.000000000E0
2.290421105E0,6.108652335E-3,1.282817032E-2,-6.108652451E-4
2.292434956E0,4.276056774E-3,1.343903504E-2,0.000000000E0
2.294419038E0,3.054326167E-3,1.466076635E-2,1.832595794E-3
2.296432813E0,4.276056774E-3,1.404990070E-2,1.832595794E-3
2.298416510E0,4.886921961E-3,1.343903504E-2,1.221730490E-3
2.300430055E0,3.665191587E-3,1.649336144E-2,1.221730490E-3
2.302413752E0,3.054326167E-3,1.771509275E-2,1.221730490E-3
2.304427911E0,4.276056774E-3,1.832595654E-2,1.221730490E-3
2.306412609E0,3.665191587E-3,1.710422710E-2,0.000000000E0
2.308426384E0,5.497787148E-3,1.771509275E-2,1.832595794E-3
2.310408927E0,3.054326167E-3,1.649336144E-2,0.000000000E0
2.312424549E0,3.054326167E-3,1.710422710E-2,-1.221730490E-3
2.314438477E0,2.443460980E-3,1.588249579E-2,1.221730490E-3
2.316422790E0,4.276056774E-3,1.527163107E-2,6.108652451E-4
2.318435949E0,4.276056774E-3,1.588249579E-2,3.665191587E-3
2.320419339E0,3.054326167E-3,1.588249579E-2,1.221730490E-3
2.322434499E0,4.886921961E-3,1.221730467E-2,2.443460980E-3
2.324417888E0,3.054326167E-3,1.160643995E-2,2.443460980E-3
2.326431970E0,2.443460980E-3,1.221730467E-2,2.443460980E-3
2.328415361E0,1.221730490E-3,9.773843922E-3,3.054326167E-3
2.330430212E0,3.054326167E-3,7.941247895E-3,2.443460980E-3
2.332413294E0,3.665191587E-3,7.941247895E-3,1.221730490E-3
2.334427069E0,3.054326167E-3,6.108652335E-3,2.443460980E-3
2.336410459E0,3.054326167E-3,4.276056774E-3,4.276056774E-3
2.338424926E0,3.054326167E-3,1.221730490E-3,2.443460980E-3
2.340438854E0,4.276056774E-3,2.443460980E-3,6.108652451E-4
2.342422782E0,1.221730490E-3,6.108652451E-4,3.054326167E-3
2.344436019E0,3.665191587E-3,0.000000000E0,3.665191587E-3
2.346421332E0,4.886921961E-3,-3.665191587E-3,1.832595794E-3
2.348435106E0,4.276056774E-3,-3.054326167E-3,3.054326167E-3
2.350420035E0,3.054326167E-3,-4.886921961E-3,0.000000000E0
2.352432963E0,4.276056774E-3,-4.276056774E-3,1.832595794E-3
2.354416969E0,4.886921961E-3,-6.719517522E-3,2.443460980E-3
2.356430513E0,5.497787148E-3,-6.108652335E-3,2.443460980E-3
2.358413595E0,5.497787148E-3,-6.719517522E-3,6.108652451E-4
2.360428062E0,4.886921961E-3,-6.719517522E-3,6.108652451E-4
2.362411836E0,8.552113548E-3,-9.162978269E-3,3.665191587E-3
2.364426611E0,6.719517522E-3,-6.719517522E-3,0.000000000E0
2.366409694E0,5.497787148E-3,-4.886921961E-3,1.221730490E-3
2.368423853E0,8.552113548E-3,-4.886921961E-3,-6.108652451E-4
2.370439782E0,7.330383174E-3,-5.497787148E-3,-6.108652451E-4
2.372421710E0,7.941247895E-3,-5.497787148E-3,-1.832595794E-3
2.374434945E0,7.941247895E-3,-3.054326167E-3,-1.832595794E-3
2.376419182E0,7.330383174E-3,-2.443460980E-3,1.221730490E-3
2.378433418E0,9.162978269E-3,-2.443460980E-3,-6.108652451E-4
2.380417423E0,7.941247895E-3,0.000000000E0,-6.108652451E-4
2.382432121E0,5.497787148E-3,6.108652451E-4,-2.443460980E-3
2.384415203E0,6.719517522E-3,3.665191587E-3,-1.221730490E-3
2.386429748E0,7.941247895E-3,6.719517522E-3,-3.665191587E-3
2.388413060E0,7.941247895E-3,6.108652335E-3,-1.832595794E-3
2.390426604E0,7.330383174E-3,7.941247895E-3,-1.832595794E-3
2.392410994E0,5.497787148E-3,1.038470957E-2,-3.665191587E-3
2.394424769E0,4.886921961E-3,1.221730467E-2,-6.108652451E-4
2.396438620E0,5.497787148E-3,1.466076635E-2,-2.443460980E-3
2.398422318E0,5.497787148E-3,1.404990070E-2,-2.443460980E-3
2.400437092E0,4.276056774E-3,1.527163107E-2,-1.221730490E-3
2.402420559E0,3.054326167E-3,1.771509275E-2,-1.832595794E-3
2.404435027E0,4.276056774E-3,1.710422710E-2,-1.221730490E-3
2.406418724E0,2.443460980E-3,1.893682219E-2,-1.221730490E-3
2.408432807E0,3.665191587E-3,1.954768784E-2,-6.108652451E-4
2.410416889E0,4.276056774E-3,2.076941915E-2,6.108652451E-4
2.412430663E0,2.443460980E-3,1.832595654E-2,6.108652451E-4
2.414414054E0,2.443460980E-3,1.954768784E-2,6.108652451E-4
2.416428212E0,3.665191587E-3,2.015855350E-2,1.832595794E-3
2.418411987E0,2.443460980E-3,1.954768784E-2,3.665191587E-3
2.420425531E0,3.054326167E-3,1.649336144E-2,4.276056774E-3
2.422439690E0,3.665191587E-3,1.771509275E-2,3.054326167E-3
2.424423388E0,3.665191587E-3,1.649336144E-2,5.497787148E-3
2.426436932E0,2.443460980E-3,1.466076635E-2,4.276056774E-3
2.428420860E0,4.276056774E-3,1.221730467E-2,4.886921961E-3
2.430436250E0,3.054326167E-3,1.404990070E-2,5.497787148E-3
2.432419640E0,4.276056774E-3,1.160643995E-2,5.497787148E-3
2.434433260E0,1.832595794E-3,9.773843922E-3,7.330383174E-3
2.436416959E0,1.832595794E-3,1.099557430E-2,6.108652335E-3
2.438431348E0,1.221730490E-3,9.162978269E-3,4.276056774E-3
2.440415354E0,-6.108652451E-4,9.773843922E-3,3.054326167E-3
2.442428898E0,1.221730490E-3,6.108652335E-3,4.886921961E-3
2.444412364E0,-6.108652451E-4,5.497787148E-3,-6.108652451E-4
2.446427370E0,-6.108652451E-4,3.054326167E-3,3.054326167E-3
2.448410529E0,6.108652451E-4,2.443460980E-3,3.054326167E-3
2.450425303E0,-1.221730490E-3,5.497787148E-3,1.221730490E-3
2.452439463E0,-1.221730490E-3,0.000000000E0,1.221730490E-3
2.454422161E0,-1.221730490E-3,6.108652451E-4,0.000000000E0
2.456437013E0,-6.108652451E-4,6.108652451E-4,-3.054326167E-3
2.458420325E0,-2.443460980E-3,1.221730490E-3,1.832595794E-3
2.460434869E0,-3.054326167E-3,-3.054326167E-3,2.443460980E-3
2.462418183E0,-3.054326167E-3,-1.221730490E-3,-1.832595794E-3
2.464432034E0,-4.276056774E-3,-1.832595794E-3,0.000000000E0
2.466417039E0,-3.665191587E-3,-3.665191587E-3,-6.108652451E-4
2.468429583E0,-1.832595794E-3,-4.886921961E-3,1.221730490E-3
2.470413050E0,-6.108652451E-4,-3.054326167E-3,-6.108652451E-4
2.472428133E0,-1.832595794E-3,-3.665191587E-3,6.108652451E-4
2.474411215E0,-1.221730490E-3,-4.276056774E-3,0.000000000E0
2.476425374E0,-6.108652451E-4,-2.443460980E-3,6.108652451E-4
2.478439456E0,0.000000000E0,-3.665191587E-3,-6.108652451E-4
2.480424077E0,1.221730490E-3,-1.832595794E-3,-1.221730490E-3
2.482437928E0,6.108652451E-4,-6.108652451E-4,1.221730490E-3
2.484422011E0,6.108652451E-4,0.000000000E0,1.832595794E-3
2.486435862E0,-1.221730490E-3,2.443460980E-3,1.832595794E-3
2.488419175E0,3.054326167E-3,1.221730490E-3,0.000000000E0
2.490433412E0,1.221730490E-3,4.276056774E-3,1.832595794E-3
2.492417032E0,1.832595794E-3,3.665191587E-3,6.108652451E-4
2.494431807E0,3.665191587E-3,5.497787148E-3,6.108652451E-4
2.496414658E0,3.054326167E-3,6.108652335E-3,-1.221730490E-3
2.498429048E0,2.443460980E-3,7.941247895E-3,-1.832595794E-3
2.500412823E0,3.665191587E-3,4.886921961E-3,-1.221730490E-3
2.502426290E0,4.276056774E-3,6.719517522E-3,-1.832595794E-3
2.504440834E0,3.665191587E-3,4.886921961E-3,-6.108652451E-4
2.506423608E0,3.665191587E-3,6.108652335E-3,-1.221730490E-3
2.508438690E0,3.054326167E-3,5.497787148E-3,-3.054326167E-3
2.510423312E0,4.276056774E-3,6.719517522E-3,-1.221730490E-3
2.512436778E0,3.665191587E-3,6.719517522E-3,-1.221730490E-3
2.514420245E0,5.497787148E-3,6.719517522E-3,-1.832595794E-3
2.516434635E0,5.497787148E-3,7.330383174E-3,-1.832595794E-3
2.518418025E0,3.054326167E-3,6.108652335E-3,-3.054326167E-3
2.520432261E0,4.276056774E-3,7.941247895E-3,0.000000000E0
2.522415882E0,3.665191587E-3,9.162978269E-3,-1.221730490E-3
2.524430041E0,3.665191587E-3,9.773843922E-3,-6.108652451E-4
2.526413816E0,3.054326167E-3,7.941247895E-3,-1.832595794E-3
2.528427975E0,3.665191587E-3,9.162978269E-3,0.000000000E0
2.530412903E0,4.886921961E-3,1.038470957E-2,-2.443460980E-3
2.532426679E0,7.330383174E-3,1.038470957E-2,-6.108652451E-4
2.534439684E0,1.832595794E-3,1.038470957E-2,-1.221730490E-3
2.536423381E0,3.054326167E-3,1.160643995E-2,-1.832595794E-3
2.538437541E0,3.665191587E-3,1.160643995E-2,-6.108652451E-4
2.540421546E0,3.665191587E-3,1.160643995E-2,1.221730490E-3
2.542435398E0,2.443460980E-3,1.221730467E-2,0.000000000E0
2.544419095E0,4.886921961E-3,1.160643995E-2,1.832595794E-3
2.546433562E0,4.276056774E-3,1.038470957E-2,0.000000000E0
2.548417183E0,4.276056774E-3,1.099557430E-2,3.054326167E-3
2.550430111E0,2.443460980E-3,1.038470957E-2,1.221730490E-3
2.552414808E0,4.276056774E-3,9.162978269E-3,1.832595794E-3
2.554429199E0,4.886921961E-3,9.773843922E-3,-6.108652451E-4
2.556411973E0,3.054326167E-3,9.162978269E-3,2.443460980E-3
2.558427133E0,3.054326167E-3,1.160643995E-2,1.221730490E-3
2.560410523E0,3.054326167E-3,9.773843922E-3,1.832595794E-3
2.562424682E0,3.054326167E-3,7.941247895E-3,-6.108652451E-4
2.564439380E0,3.665191587E-3,9.162978269E-3,1.221730490E-3
2.566422539E0,3.665191587E-3,7.330383174E-3,1.221730490E-3
2.568437544E0,3.665191587E-3,7.330383174E-3,3.054326167E-3
2.570421319E0,2.443460980E-3,9.773843922E-3,1.832595794E-3
2.572434555E0,4.886921961E-3,6.108652335E-3,3.665191587E-3
2.574418175E0,2.443460980E-3,5.497787148E-3,-1.221730490E-3
2.576431489E0,4.276056774E-3,5.497787148E-3,4.886921961E-3
2.578415802E0,2.443460980E-3,2.443460980E-3,1.221730490E-3
2.580430192E0,3.665191587E-3,6.108652335E-3,1.832595794E-3
2.582413659E0,5.497787148E-3,3.665191587E-3,6.108652451E-4
2.584427125E0,4.276056774E-3,3.054326167E-3,3.054326167E-3
2.586411516E0,5.497787148E-3,2.443460980E-3,-6.108652451E-4
2.588425982E0,4.276056774E-3,2.443460980E-3,1.832595794E-3
2.590440758E0,5.497787148E-3,1.832595794E-3,1.221730490E-3
2.592422609E0,6.108652335E-3,1.221730490E-3,1.832595794E-3
2.594436999E0,3.054326167E-3,6.108652451E-4,1.832595794E-3
2.596420774E0,4.886921961E-3,1.832595794E-3,2.443460980E-3
2.598435163E0,2.443460980E-3,1.221730490E-3,-6.108652451E-4
2.600419553E0,5.497787148E-3,0.000000000E0,0.000000000E0
2.602433328E0,5.497787148E-3,1.832595794E-3,0.000000000E0
2.604417410E0,6.108652451E-4,3.054326167E-3,1.221730490E-3
2.606430877E0,1.221730490E-3,0.000000000E0,6.108652451E-4
2.608414037E0,4.276056774E-3,-1.221730490E-3,1.832595794E-3
2.610429734E0,1.221730490E-3,1.221730490E-3,2.443460980E-3
2.612412740E0,1.221730490E-3,0.000000000E0,1.221730490E-3
2.614426591E0,6.108652451E-4,1.832595794E-3,2.443460980E-3
2.616441134E0,-1.832595794E-3,1.221730490E-3,1.832595794E-3
2.618424756E0,1.832595794E-3,1.832595794E-3,3.665191587E-3
2.620438607E0,1.221730490E-3,1.832595794E-3,2.443460980E-3
2.622421997E0,-1.221730490E-3,6.108652451E-4,1.221730490E-3
2.624435926E0,0.000000000E0,1.832595794E-3,1.221730490E-3
2.626420469E0,0.000000000E0,2.443460980E-3,1.832595794E-3
2.628434321E0,0.000000000E0,3.665191587E-3,1.832595794E-3
2.630417096E0,0.000000000E0,1.832595794E-3,-6.108652451E-4
2.632432254E0,-1.832595794E-3,2.443460980E-3,6.108652451E-4
2.634416184E0,0.000000000E0,4.276056774E-3,-6.108652451E-4
2.636430342E0,-6.108652451E-4,3.054326167E-3,1.221730490E-3
2.638414117E0,0.000000000E0,4.276056774E-3,-6.108652451E-4
2.640427969E0,-6.108652451E-4,4.886921961E-3,1.221730490E-3
2.642411589E0,-1.221730490E-3,5.497787148E-3,6.108652451E-4
2.644426134E0,1.221730490E-3,6.719517522E-3,-1.832595794E-3
2.646439908E0,0.000000000E0,7.941247895E-3,-6.108652451E-4
2.648423067E0,-6.108652451E-4,7.941247895E-3,6.108652451E-4
2.650438688E0,6.108652451E-4,6.719517522E-3,-1.832595794E-3
2.652421539E0,1.221730490E-3,9.162978269E-3,6.108652451E-4
2.654435390E0,6.108652451E-4,1.038470957E-2,6.108652451E-4
2.656419089E0,-1.832595794E-3,9.773843922E-3,-2.443460980E-3
2.658433478E0,-6.108652451E-4,1.099557430E-2,-1.832595794E-3
2.660416868E0,-6.108652451E-4,1.221730467E-2,-3.665191587E-3
2.662430412E0,0.000000000E0,1.160643995E-2,6.108652451E-4
2.664414417E0,-2.443460980E-3,1.282817032E-2,-1.221730490E-3
2.666428039E0,0.000000000E0,1.160643995E-2,-2.443460980E-3
2.668412890E0,0.000000000E0,1.466076635E-2,-1.221730490E-3
2.670427433E0,-6.108652451E-4,1.160643995E-2,-2.443460980E-3
2.672410747E0,-6.108652451E-4,1.099557430E-2,-1.832595794E-3
2.674424906E0,0.000000000E0,1.282817032E-2,-1.832595794E-3
2.676439065E0,1.221730490E-3,1.282817032E-2,-1.221730490E-3
2.678422455E0,6.108652451E-4,1.160643995E-2,-2.443460980E-3
2.680435691E0,-2.443460980E-3,1.221730467E-2,-3.054326167E-3
2.682419774E0,-6.108652451E-4,1.221730467E-2,-1.221730490E-3
2.684435087E0,-1.832595794E-3,1.343903504E-2,-3.054326167E-3
2.686417630E0,-1.221730490E-3,1.160643995E-2,-4.886921961E-3
2.688432713E0,6.108652451E-4,1.160643995E-2,-1.832595794E-3
2.690416103E0,-2.443460980E-3,1.221730467E-2,-4.886921961E-3
2.692429877E0,0.000000000E0,1.038470957E-2,-3.665191587E-3
2.694413037E0,-1.221730490E-3,9.773843922E-3,-4.276056774E-3
2.696428350E0,-2.443460980E-3,8.552113548E-3,-4.276056774E-3
2.698411202E0,0.000000000E0,9.162978269E-3,-5.497787148E-3
2.700425361E0,-3.665191587E-3,9.773843922E-3,-3.665191587E-3
2.702439443E0,-1.221730490E-3,6.719517522E-3,-2.443460980E-3
2.704422833E0,1.221730490E-3,6.108652335E-3,-4.276056774E-3
2.706437992E0,-1.221730490E-3,7.330383174E-3,-1.221730490E-3
2.708420151E0,0.000000000E0,6.108652335E-3,-1.221730490E-3
2.710434618E0,-6.108652451E-4,6.719517522E-3,-1.832595794E-3
2.712419162E0,1.221730490E-3,3.054326167E-3,-1.832595794E-3
2.714433322E0,-6.108652451E-4,3.054326167E-3,-1.221730490E-3
2.716416173E0,-1.832595794E-3,4.276056774E-3,0.000000000E0
2.718430947E0,6.108652451E-4,4.276056774E-3,-3.054326167E-3
2.720413645E0,0.000000000E0,4.886921961E-3,-2.443460980E-3
2.722428112E0,1.832595794E-3,4.276056774E-3,-6.108652451E-4
2.724413040E0,1.221730490E-3,2.443460980E-3,-1.832595794E-3
2.726426969E0,1.221730490E-3,4.276056774E-3,-1.221730490E-3
2.728440436E0,3.054326167E-3,4.276056774E-3,-1.221730490E-3
2.730426057E0,1.221730490E-3,4.276056774E-3,-1.221730490E-3
2.732438678E0,2.443460980E-3,5.497787148E-3,-3.054326167E-3
2.734422067E0,6.108652451E-4,7.330383174E-3,-3.665191587E-3
2.736436227E0,3.054326167E-3,6.719517522E-3,-1.221730490E-3
2.738419847E0,1.832595794E-3,7.941247895E-3,-3.665191587E-3
2.740433468E0,1.221730490E-3,6.108652335E-3,-3.054326167E-3
2.742417705E0,1.832595794E-3,6.108652335E-3,-3.054326167E-3
2.744430710E0,1.832595794E-3,7.330383174E-3,-3.054326167E-3
2.746415868E0,3.054326167E-3,6.719517522E-3,-3.665191587E-3
2.748430644E0,4.886921961E-3,5.497787148E-3,-3.665191587E-3
2.750414649E0,4.886921961E-3,3.665191587E-3,-3.054326167E-3
2.752427347E0,6.108652335E-3,4.276056774E-3,-4.276056774E-3
2.754410967E0,2.443460980E-3,4.276056774E-3,-2.443460980E-3
2.756425126E0,4.276056774E-3,4.886921961E-3,-4.886921961E-3
2.758439901E0,3.054326167E-3,3.054326167E-3,-9.162978269E-3
2.760423060E0,4.276056774E-3,3.054326167E-3,-4.886921961E-3
2.762437450E0,5.497787148E-3,2.443460980E-3,-4.886921961E-3
2.764421533E0,3.054326167E-3,2.443460980E-3,-6.108652335E-3
2.766435307E0,2.443460980E-3,3.054326167E-3,-6.108652335E-3
2.768419313E0,3.054326167E-3,3.054326167E-3,-2.443460980E-3
2.770433549E0,4.276056774E-3,4.886921961E-3,-4.886921961E-3
2.772416631E0,5.497787148E-3,3.054326167E-3,-4.886921961E-3
2.774430714E0,2.443460980E-3,7.330383174E-3,-1.832595794E-3
2.776414411E0,4.276056774E-3,4.276056774E-3,-3.054326167E-3
2.778428262E0,2.443460980E-3,4.886921961E-3,-4.276056774E-3
2.780412037E0,3.054326167E-3,6.108652335E-3,6.108652451E-4
2.782426196E0,2.443460980E-3,6.719517522E-3,-6.108652451E-4
2.784440279E0,3.054326167E-3,4.886921961E-3,-1.832595794E-3
2.786425900E0,1.221730490E-3,8.552113548E-3,0.000000000E0
2.788438751E0,1.832595794E-3,7.330383174E-3,-6.108652451E-4
2.790421295E0,1.221730490E-3,7.941247895E-3,-6.108652451E-4
2.792437223E0,-6.108652451E-4,9.773843922E-3,1.221730490E-3
2.794419459E0,0.000000000E0,7.941247895E-3,-6.108652451E-4
2.796433619E0,0.000000000E0,9.162978269E-3,1.832595794E-3
2.798417932E0,6.108652451E-4,9.162978269E-3,3.665191587E-3
2.800432015E0,2.443460980E-3,9.773843922E-3,1.832595794E-3
2.802415404E0,6.108652451E-4,7.941247895E-3,1.221730490E-3
2.804429948E0,2.443460980E-3,6.719517522E-3,1.221730490E-3
2.806413261E0,1.832595794E-3,9.162978269E-3,1.221730490E-3
2.808427497E0,1.832595794E-3,6.108652335E-3,1.221730490E-3
2.810442887E0,2.443460980E-3,6.108652335E-3,0.000000000E0
2.812425893E0,4.276056774E-3,5.497787148E-3,0.000000000E0
2.814439205E0,2.443460980E-3,7.941247895E-3,-6.108652451E-4
2.816423133E0,4.276056774E-3,5.497787148E-3,-6.108652451E-4
2.818436755E0,2.443460980E-3,6.719517522E-3,-3.665191587E-3
2.820420683E0,2.443460980E-3,7.330383174E-3,-4.276056774E-3
2.822434920E0,6.108652451E-4,1.038470957E-2,-5.497787148E-3
2.824418232E0,2.443460980E-3,8.552113548E-3,-6.719517522E-3
2.826431776E0,3.665191587E-3,9.773843922E-3,-5.497787148E-3
2.828416474E0,1.832595794E-3,1.038470957E-2,-7.941247895E-3
2.830431787E0,2.443460980E-3,9.773843922E-3,-7.330383174E-3
2.832414253E0,6.108652451E-4,1.160643995E-2,-6.719517522E-3
2.834427567E0,-1.221730490E-3,1.221730467E-2,-9.773843922E-3
2.836412803E0,6.108652451E-4,1.038470957E-2,-7.330383174E-3
2.838426040E0,-1.832595794E-3,1.343903504E-2,-1.099557430E-2
2.840440122E0,-1.221730490E-3,1.038470957E-2,-8.552113548E-3
2.842424127E0,-1.832595794E-3,8.552113548E-3,-1.221730467E-2
2.844438671E0,-3.054326167E-3,9.162978269E-3,-8.552113548E-3
2.846422291E0,-3.665191587E-3,1.099557430E-2,-9.162978269E-3
2.848436450E0,-4.886921961E-3,1.038470957E-2,-9.773843922E-3
2.850420533E0,-4.886921961E-3,1.038470957E-2,-6.719517522E-3
2.852434692E0,-4.886921961E-3,9.773843922E-3,-7.330383174E-3
2.854418083E0,-6.719517522E-3,7.941247895E-3,-7.330383174E-3
2.856431934E0,-5.497787148E-3,6.108652335E-3,-3.665191587E-3
2.858415247E0,-3.665191587E-3,9.773843922E-3,-1.832595794E-3
2.860429791E0,-3.054326167E-3,6.108652335E-3,-1.221730490E-3
2.862412873E0,-4.886921961E-3,3.054326167E-3,0.000000000E0
2.864426955E0,-3.054326167E-3,2.443460980E-3,2.443460980E-3
2.866442422E0,-2.443460980E-3,0.000000000E0,5.497787148E-3
2.868425197E0,-1.221730490E-3,-3.054326167E-3,4.886921961E-3
2.870438741E0,-6.108652451E-4,-4.886921961E-3,5.497787148E-3
2.872423285E0,-1.221730490E-3,-8.552113548E-3,5.497787148E-3
2.874437443E0,-1.832595794E-3,-6.719517522E-3,6.108652335E-3
2.876421219E0,-6.108652451E-4,-6.719517522E-3,4.276056774E-3
2.878434762E0,1.221730490E-3,-7.941247895E-3,1.832595794E-3
2.880418383E0,-6.108652451E-4,-6.719517522E-3,3.054326167E-3
2.882432850E0,0.000000000E0,-4.886921961E-3,1.221730490E-3
2.884417163E0,6.108652451E-4,-4.276056774E-3,0.000000000E0
2.886430707E0,0.000000000E0,-1.832595794E-3,-1.221730490E-3
2.888413482E0,1.221730490E-3,1.832595794E-3,-3.054326167E-3
2.890429871E0,1.221730490E-3,6.108652451E-4,-1.832595794E-3
2.892412646E0,6.108652451E-4,1.832595794E-3,-2.443460980E-3
2.894426728E0,-6.108652451E-4,3.665191587E-3,-6.108652335E-3
2.896440887E0,1.832595794E-3,4.276056774E-3,-2.443460980E-3
2.898423739E0,3.054326167E-3,5.497787148E-3,-3.665191587E-3
2.900437898E0,6.108652451E-4,4.276056774E-3,-6.108652335E-3
2.902421826E0,-6.108652451E-4,6.719517522E-3,-3.665191587E-3
2.904436371E0,6.108652451E-4,6.719517522E-3,-4.276056774E-3
2.906419068E0,0.000000000E0,7.330383174E-3,-4.886921961E-3
2.908433612E0,0.000000000E0,5.497787148E-3,-6.108652451E-4
2.910418464E0,-6.108652451E-4,8.552113548E-3,-4.276056774E-3
2.912431776E0,1.832595794E-3,9.162978269E-3,-2.443460980E-3
2.914415090E0,2.443460980E-3,1.099557430E-2,-2.443460980E-3
2.916429864E0,1.221730490E-3,1.282817032E-2,-1.221730490E-3
2.918413023E0,3.054326167E-3,1.038470957E-2,-2.443460980E-3
2.920427721E0,1.832595794E-3,1.282817032E-2,-3.054326167E-3
2.922440957E0,6.108652451E-4,1.282817032E-2,-3.054326167E-3
2.924426271E0,4.276056774E-3,1.282817032E-2,-3.054326167E-3
2.926439507E0,0.000000000E0,1.343903504E-2,-3.054326167E-3
2.928422512E0,3.054326167E-3,1.343903504E-2,-1.221730490E-3
2.930437672E0,2.443460980E-3,1.466076635E-2,-2.443460980E-3
2.932420446E0,1.832595794E-3,1.771509275E-2,0.000000000E0
2.934434297E0,3.054326167E-3,1.710422710E-2,-3.665191587E-3
2.936418841E0,1.221730490E-3,1.649336144E-2,-3.054326167E-3
2.938431769E0,1.221730490E-3,1.404990070E-2,-4.886921961E-3
2.940416775E0,1.221730490E-3,1.343903504E-2,-3.665191587E-3
2.942430242E0,1.221730490E-3,1.404990070E-2,-6.108652335E-3
2.944414632E0,0.000000000E0,1.282817032E-2,-1.832595794E-3
2.946429715E0,-2.443460980E-3,1.466076635E-2,-3.054326167E-3
2.948411258E0,-2.443460980E-3,1.221730467E-2,-5.497787148E-3
2.950425725E0,-3.054326167E-3,1.099557430E-2,-3.665191587E-3
2.952440808E0,-1.832595794E-3,9.773843922E-3,-4.886921961E-3
2.954423813E0,6.108652451E-4,9.773843922E-3,-2.443460980E-3
2.956437972E0,-6.108652451E-4,7.941247895E-3,-6.108652335E-3
2.958421747E0,-1.832595794E-3,9.773843922E-3,-4.276056774E-3
2.960435829E0,0.000000000E0,5.497787148E-3,-6.108652335E-3
2.962418988E0,1.832595794E-3,4.276056774E-3,-6.108652335E-3
2.964434916E0,-6.108652451E-4,5.497787148E-3,-5.497787148E-3
2.966417075E0,0.000000000E0,5.497787148E-3,-6.719517522E-3
2.968431620E0,6.108652451E-4,0.000000000E0,-6.719517522E-3
2.970416163E0,6.108652451E-4,3.054326167E-3,-6.719517522E-3
2.972429477E0,1.221730490E-3,3.665191587E-3,-6.719517522E-3
2.974413405E0,2.443460980E-3,-6.108652451E-4,-4.886921961E-3
2.976427256E0,1.832595794E-3,-1.221730490E-3,-3.665191587E-3
2.978441493E0,5.497787148E-3,-3.054326167E-3,-4.886921961E-3
2.980424806E0,4.886921961E-3,-4.276056774E-3,-4.276056774E-3
2.982439349E0,2.443460980E-3,-2.443460980E-3,-4.276056774E-3
2.984422124E0,4.886921961E-3,-4.276056774E-3,-4.276056774E-3
2.986436591E0,3.665191587E-3,-4.886921961E-3,-4.276056774E-3
2.988421134E0,6.108652335E-3,-4.886921961E-3,-4.886921961E-3
2.990435987E0,4.276056774E-3,-3.054326167E-3,-4.276056774E-3
2.992418145E0,3.665191587E-3,-4.886921961E-3,-4.276056774E-3
2.994432228E0,4.276056774E-3,-4.276056774E-3,-4.276056774E-3
2.996416003E0,6.108652335E-3,-4.276056774E-3,-2.443460980E-3
2.998430084E0,7.330383174E-3,-1.221730490E-3,-5.497787148E-3
3.000414090E0,7.330383174E-3,-6.108652451E-4,-4.886921961E-3
3.002428249E0,4.886921961E-3,1.221730490E-3,-6.719517522E-3
3.004412024E0,4.276056774E-3,2.443460980E-3,-7.330383174E-3
3.006426414E0,6.108652335E-3,3.665191587E-3,-7.941247895E-3
3.008440265E0,4.886921961E-3,7.330383174E-3,-7.941247895E-3
3.010424964E0,6.108652335E-3,7.330383174E-3,-8.552113548E-3
3.012438199E0,7.941247895E-3,1.099557430E-2,-7.330383174E-3
3.014421589E0,6.108652335E-3,1.404990070E-2,-6.719517522E-3
3.016435672E0,6.719517522E-3,1.404990070E-2,-7.330383174E-3
3.018419754E0,4.886921961E-3,1.771509275E-2,-7.330383174E-3
3.020433913E0,7.330383174E-3,1.893682219E-2,-9.162978269E-3
3.022417611E0,7.330383174E-3,1.771509275E-2,-1.038470957E-2
3.024431078E0,6.108652335E-3,2.015855350E-2,-7.941247895E-3
3.026416314E0,4.886921961E-3,2.138028294E-2,-4.276056774E-3
3.028429012E0,6.719517522E-3,2.138028294E-2,-8.552113548E-3
3.030412632E0,6.719517522E-3,2.199114859E-2,-4.886921961E-3
3.032427177E0,7.330383174E-3,2.199114859E-2,-6.108652335E-3
3.034441566E0,4.276056774E-3,2.260201424E-2,-7.330383174E-3
3.036425340E0,6.108652335E-3,2.015855350E-2,-4.886921961E-3
3.038438500E0,5.497787148E-3,2.076941915E-2,-3.054326167E-3
3.040422274E0,6.108652335E-3,2.138028294E-2,-3.665191587E-3
3.042437280E0,4.276056774E-3,1.893682219E-2,-4.276056774E-3
3.044421055E0,4.276056774E-3,1.832595654E-2,-2.443460980E-3
3.046435137E0,5.497787148E-3,1.771509275E-2,-6.108652451E-4
3.048418220E0,4.276056774E-3,1.649336144E-2,6.108652451E-4
3.050433378E0,6.108652335E-3,1.527163107E-2,-6.108652451E-4
3.052416153E0,4.276056774E-3,1.282817032E-2,-6.108652451E-4
3.054430313E0,6.108652335E-3,1.221730467E-2,0.000000000E0
3.056413394E0,6.108652335E-3,1.038470957E-2,6.108652451E-4
3.058427862E0,4.276056774E-3,8.552113548E-3,3.054326167E-3
3.060442252E0,4.276056774E-3,6.108652335E-3,3.665191587E-3
3.062426257E0,6.719517522E-3,4.276056774E-3,4.886921961E-3
3.064439801E0,6.108652335E-3,6.108652451E-4,4.886921961E-3
3.066423806E0,4.886921961E-3,-6.108652451E-4,3.054326167E-3
3.068438350E0,6.719517522E-3,-3.665191587E-3,2.443460980E-3
3.070422048E0,6.108652335E-3,-6.719517522E-3,3.665191587E-3
3.072436437E0,6.719517522E-3,-7.941247895E-3,4.276056774E-3
3.074419596E0,5.497787148E-3,-1.038470957E-2,3.665191587E-3
3.076433448E0,6.719517522E-3,-1.282817032E-2,3.054326167E-3
3.078416838E0,6.719517522E-3,-1.466076635E-2,4.276056774E-3
3.080431306E0,7.941247895E-3,-1.527163107E-2,6.719517522E-3
3.082414926E0,5.497787148E-3,-1.954768784E-2,6.108652335E-3
3.084429085E0,6.108652335E-3,-2.015855350E-2,4.276056774E-3
3.086413168E0,8.552113548E-3,-2.260201424E-2,4.276056774E-3
3.088426942E0,6.719517522E-3,-1.954768784E-2,4.276056774E-3
3.090442639E0,4.276056774E-3,-1.954768784E-2,4.886921961E-3
3.092425107E0,8.552113548E-3,-2.138028294E-2,3.054326167E-3
3.094438958E0,6.719517522E-3,-2.260201424E-2,3.054326167E-3
3.096422426E0,8.552113548E-3,-2.260201424E-2,6.108652335E-3
3.098436892E0,9.162978269E-3,-2.076941915E-2,7.330383174E-3
3.100420820E0,1.099557430E-2,-1.954768784E-2,5.497787148E-3
3.102434134E0,1.038470957E-2,-1.893682219E-2,3.665191587E-3
3.104417524E0,8.552113548E-3,-1.710422710E-2,1.221730490E-3
3.106432298E0,7.941247895E-3,-1.404990070E-2,4.276056774E-3
3.108415688E0,9.773843922E-3,-9.162978269E-3,4.276056774E-3
3.110430078E0,7.330383174E-3,-6.719517522E-3,6.108652451E-4
3.112414699E0,7.330383174E-3,-4.886921961E-3,1.221730490E-3
3.114428012E0,8.552113548E-3,6.108652451E-4,2.443460980E-3
3.116442479E0,6.719517522E-3,4.886921961E-3,1.221730490E-3
3.118426177E0,4.886921961E-3,4.276056774E-3,6.108652451E-4
3.120439644E0,6.108652335E-3,9.162978269E-3,3.665191587E-3
3.122423956E0,7.330383174E-3,9.162978269E-3,1.221730490E-3
3.124437885E0,4.886921961E-3,1.282817032E-2,-3.665191587E-3
3.126421813E0,7.330383174E-3,1.343903504E-2,-6.108652451E-4
3.128435666E0,6.719517522E-3,1.588249579E-2,-2.443460980E-3
3.130419747E0,3.665191587E-3,1.771509275E-2,-4.276056774E-3
3.132433599E0,6.108652335E-3,1.893682219E-2,-2.443460980E-3
3.134416682E0,5.497787148E-3,1.954768784E-2,-4.886921961E-3
3.136431148E0,6.108652335E-3,2.015855350E-2,-4.276056774E-3
3.138414230E0,7.330383174E-3,2.138028294E-2,-6.108652335E-3
3.140429005E0,7.941247895E-3,2.138028294E-2,-6.108652335E-3
3.142412626E0,6.108652335E-3,2.138028294E-2,-6.719517522E-3
3.144425861E0,7.941247895E-3,1.893682219E-2,-6.719517522E-3
3.146440714E0,6.108652335E-3,1.954768784E-2,-7.330383174E-3
3.148424411E0,5.497787148E-3,1.710422710E-2,-5.497787148E-3
3.150439725E0,6.719517522E-3,1.588249579E-2,-6.108652335E-3
3.152423422E0,6.108652335E-3,1.649336144E-2,-6.108652335E-3
3.154436658E0,7.941247895E-3,1.343903504E-2,-5.497787148E-3
3.156420125E0,6.108652335E-3,1.404990070E-2,-4.886921961E-3
3.158434284E0,7.941247895E-3,9.162978269E-3,-3.665191587E-3
3.160418520E0,7.941247895E-3,8.552113548E-3,-4.276056774E-3
3.162432449E0,7.330383174E-3,6.719517522E-3,-2.443460980E-3
3.164417069E0,9.162978269E-3,4.886921961E-3,0.000000000E0
3.166430306E0,7.330383174E-3,3.054326167E-3,-1.221730490E-3
3.168413926E0,9.773843922E-3,-6.108652451E-4,-1.832595794E-3
3.170429085E0,7.330383174E-3,0.000000000E0,1.221730490E-3
3.172411168E0,7.330383174E-3,-3.665191587E-3,6.108652451E-4
3.174425712E0,1.099557430E-2,-6.719517522E-3,3.054326167E-3
3.176439794E0,9.162978269E-3,-6.108652335E-3,1.221730490E-3
3.178424107E0,7.941247895E-3,-8.552113548E-3,2.443460980E-3
3.180437343E0,9.162978269E-3,-1.160643995E-2,1.221730490E-3
3.182421118E0,9.773843922E-3,-1.099557430E-2,3.665191587E-3
3.184435585E0,8.552113548E-3,-1.038470957E-2,1.832595794E-3
3.186419513E0,9.162978269E-3,-1.282817032E-2,3.054326167E-3
3.188433673E0,9.162978269E-3,-1.221730467E-2,3.665191587E-3
3.190416216E0,1.038470957E-2,-1.160643995E-2,3.054326167E-3
3.192431837E0,6.108652335E-3,-1.160643995E-2,6.108652451E-4
3.194414997E0,8.552113548E-3,-1.160643995E-2,6.108652451E-4
3.196429155E0,7.941247895E-3,-9.773843922E-3,3.665191587E-3
3.198412854E0,8.552113548E-3,-9.773843922E-3,6.108652451E-4
3.200426397E0,8.552113548E-3,-6.108652335E-3,1.221730490E-3
3.202440787E0,6.719517522E-3,-4.276056774E-3,0.000000000E0
3.204425408E0,7.941247895E-3,-1.832595794E-3,-6.108652451E-4
3.206439029E0,8.552113548E-3,0.000000000E0,0.000000000E0
3.208422418E0,7.941247895E-3,4.886921961E-3,-1.221730490E-3
3.210437809E0,8.552113548E-3,3.665191587E-3,-1.221730490E-3
3.212420583E0,7.330383174E-3,9.162978269E-3,-1.832595794E-3
3.214434358E0,7.330383174E-3,1.160643995E-2,-6.108652451E-4
3.216418440E0,6.108652335E-3,1.282817032E-2,-6.108652451E-4
3.218432291E0,6.108652335E-3,1.527163107E-2,0.000000000E0
3.220416220E0,5.497787148E-3,1.771509275E-2,-1.832595794E-3
3.222430379E0,7.941247895E-3,1.893682219E-2,-6.108652451E-4
3.224413230E0,6.108652335E-3,2.076941915E-2,6.108652451E-4
3.226427621E0,5.497787148E-3,2.199114859E-2,-1.832595794E-3
3.228442472E0,6.719517522E-3,2.321287990E-2,-6.108652451E-4
3.230427093E0,6.108652335E-3,2.260201424E-2,-1.221730490E-3
3.232440329E0,6.108652335E-3,2.443460934E-2,-1.221730490E-3
3.234422796E0,5.497787148E-3,2.382374369E-2,0.000000000E0
3.236438110E0,6.719517522E-3,2.565634064E-2,0.000000000E0
3.238421499E0,7.330383174E-3,2.443460934E-2,-6.108652451E-4
3.240435966E0,7.941247895E-3,2.076941915E-2,6.108652451E-4
3.242419664E0,9.162978269E-3,1.893682219E-2,-1.221730490E-3
3.244434131E0,8.552113548E-3,1.771509275E-2,-1.221730490E-3
3.246416905E0,7.941247895E-3,1.832595654E-2,-1.221730490E-3
3.248431142E0,6.719517522E-3,1.527163107E-2,1.832595794E-3
3.250415147E0,9.162978269E-3,1.282817032E-2,0.000000000E0
3.252428999E0,7.941247895E-3,1.160643995E-2,0.000000000E0
3.254412696E0,8.552113548E-3,7.941247895E-3,1.832595794E-3
3.256427086E0,9.162978269E-3,9.162978269E-3,1.832595794E-3
3.258440938E0,7.941247895E-3,7.941247895E-3,2.443460980E-3
3.260424404E0,8.552113548E-3,4.276056774E-3,1.832595794E-3
3.262437948E0,7.330383174E-3,4.886921961E-3,2.443460980E-3
3.264422492E0,7.941247895E-3,3.665191587E-3,4.886921961E-3
3.266437344E0,4.886921961E-3,6.108652451E-4,3.054326167E-3
3.268420426E0,7.330383174E-3,0.000000000E0,5.497787148E-3
3.270433970E0,4.886921961E-3,-1.221730490E-3,5.497787148E-3
3.272419129E0,4.276056774E-3,6.108652451E-4,6.719517522E-3
3.274431519E0,4.276056774E-3,-6.108652451E-4,8.552113548E-3
3.276416063E0,2.443460980E-3,6.108652451E-4,9.162978269E-3
3.278429914E0,2.443460980E-3,1.832595794E-3,9.773843922E-3
3.280413997E0,1.221730490E-3,1.221730490E-3,7.941247895E-3
3.282427771E0,1.832595794E-3,0.000000000E0,9.773843922E-3
3.284442546E0,-6.108652451E-4,3.054326167E-3,1.099557430E-2
3.286425628E0,1.832595794E-3,3.665191587E-3,1.099557430E-2
3.288439556E0,1.832595794E-3,4.886921961E-3,8.552113548E-3
3.290423870E0,6.108652451E-4,4.276056774E-3,9.773843922E-3
3.292437337E0,1.221730490E-3,4.886921961E-3,1.282817032E-2
3.294421342E0,1.832595794E-3,4.276056774E-3,1.160643995E-2
3.296435502E0,3.054326167E-3,6.108652335E-3,1.099557430E-2
3.298418583E0,1.832595794E-3,6.719517522E-3,1.343903504E-2
3.300432820E0,2.443460980E-3,4.886921961E-3,1.160643995E-2
3.302417056E0,1.832595794E-3,4.276056774E-3,1.038470957E-2
3.304430600E0,3.054326167E-3,3.054326167E-3,1.221730467E-2
3.306413682E0,1.221730490E-3,3.054326167E-3,1.099557430E-2
3.308428764E0,0.000000000E0,2.443460980E-3,1.038470957E-2
3.310443846E0,1.221730490E-3,3.054326167E-3,1.038470957E-2
3.312426083E0,-2.443460980E-3,4.276056774E-3,1.221730467E-2
3.314441088E0,-1.221730490E-3,3.054326167E-3,1.038470957E-2
3.316424247E0,-2.443460980E-3,6.108652335E-3,1.221730467E-2
3.318437714E0,-2.443460980E-3,5.497787148E-3,1.038470957E-2
3.320421796E0,-1.221730490E-3,5.497787148E-3,1.160643995E-2
3.322436495E0,-1.221730490E-3,7.330383174E-3,1.038470957E-2
3.324420500E0,-3.665191587E-3,8.552113548E-3,9.773843922E-3
3.326434351E0,-1.832595794E-3,6.719517522E-3,1.099557430E-2
3.328417818E0,-3.054326167E-3,8.552113548E-3,9.773843922E-3
3.330433439E0,-3.054326167E-3,6.108652335E-3,8.552113548E-3
3.332415367E0,-3.665191587E-3,6.108652335E-3,8.552113548E-3
3.334430757E0,-3.054326167E-3,8.552113548E-3,9.162978269E-3
3.336413532E0,-3.054326167E-3,9.162978269E-3,8.552113548E-3
3.338427615E0,-1.832595794E-3,1.038470957E-2,7.941247895E-3
3.340441543E0,-2.443460980E-3,9.162978269E-3,6.108652335E-3
3.342425471E0,-2.443460980E-3,9.773843922E-3,5.497787148E-3
3.344439092E0,-6.108652451E-4,1.160643995E-2,6.108652335E-3
3.346423405E0,-1.832595794E-3,1.221730467E-2,5.497787148E-3
3.348437487E0,-3.054326167E-3,1.404990070E-2,4.276056774E-3
3.350420877E0,-2.443460980E-3,1.282817032E-2,4.276056774E-3
3.352435652E0,-4.276056774E-3,1.404990070E-2,3.054326167E-3
3.354419119E0,-4.886921961E-3,1.404990070E-2,2.443460980E-3
3.356433201E0,-3.054326167E-3,1.343903504E-2,2.443460980E-3
3.358416975E0,-4.276056774E-3,1.343903504E-2,6.108652451E-4
3.360430520E0,-3.054326167E-3,1.343903504E-2,1.221730490E-3
3.362414448E0,-3.665191587E-3,1.404990070E-2,0.000000000E0
3.364429222E0,-2.443460980E-3,1.160643995E-2,1.221730490E-3
3.366412920E0,-3.054326167E-3,1.221730467E-2,1.221730490E-3
3.368426541E0,-2.443460980E-3,8.552113548E-3,3.665191587E-3
3.370441239E0,-1.832595794E-3,6.719517522E-3,1.832595794E-3
3.372424629E0,-2.443460980E-3,8.552113548E-3,1.221730490E-3
3.374438557E0,-1.832595794E-3,5.497787148E-3,1.832595794E-3
3.376421871E0,-6.108652451E-4,6.719517522E-3,3.054326167E-3
3.378436414E0,0.000000000E0,4.276056774E-3,3.665191587E-3
3.380419727E0,-6.108652451E-4,4.276056774E-3,1.832595794E-3
3.382433887E0,6.108652451E-4,4.276056774E-3,4.276056774E-3
3.384417276E0,1.221730490E-3,7.330383174E-3,4.276056774E-3
3.386431436E0,3.665191587E-3,4.276056774E-3,1.832595794E-3
3.388416364E0,3.054326167E-3,4.276056774E-3,3.054326167E-3
3.390430215E0,4.886921961E-3,4.886921961E-3,4.886921961E-3
3.392413914E0,6.719517522E-3,4.276056774E-3,4.276056774E-3
3.394427534E0,9.162978269E-3,2.443460980E-3,5.497787148E-3
3.396442001E0,7.941247895E-3,6.108652335E-3,1.221730490E-3
3.398425699E0,1.038470957E-2,1.221730490E-3,2.443460980E-3
3.400439473E0,7.330383174E-3,1.221730490E-3,4.276056774E-3
3.402423170E0,1.038470957E-2,-6.108652451E-4,3.054326167E-3
3.404438253E0,9.162978269E-3,1.221730490E-3,3.054326167E-3
3.406421951E0,9.773843922E-3,1.832595794E-3,4.886921961E-3
3.408435880E0,9.773843922E-3,3.054326167E-3,3.054326167E-3
3.410420500E0,8.552113548E-3,2.443460980E-3,3.665191587E-3
3.412433044E0,7.330383174E-3,1.221730490E-3,3.665191587E-3
3.414416819E0,9.162978269E-3,3.665191587E-3,5.497787148E-3
3.416430901E0,5.497787148E-3,4.886921961E-3,3.665191587E-3
3.418414290E0,5.497787148E-3,9.162978269E-3,4.276056774E-3
3.420428450E0,7.330383174E-3,1.038470957E-2,1.832595794E-3
3.422442686E0,5.497787148E-3,1.099557430E-2,4.276056774E-3
3.424426615E0,5.497787148E-3,1.404990070E-2,2.443460980E-3
3.426441159E0,4.886921961E-3,1.649336144E-2,1.221730490E-3
3.428423625E0,4.886921961E-3,2.199114859E-2,2.443460980E-3
3.430438939E0,3.054326167E-3,2.138028294E-2,4.276056774E-3
3.432422713E0,3.054326167E-3,2.626720630E-2,1.832595794E-3
3.434436180E0,1.832595794E-3,2.932153270E-2,1.832595794E-3
3.436419647E0,2.443460980E-3,2.932153270E-2,-6.108652451E-4
3.438433806E0,3.054326167E-3,2.993239649E-2,-6.108652451E-4
3.440418043E0,2.443460980E-3,3.115412779E-2,-1.221730490E-3
3.442431586E0,1.221730490E-3,3.176499158E-2,-2.443460980E-3
3.444415976E0,6.108652451E-4,3.054326214E-2,-4.276056774E-3
3.446429828E0,1.221730490E-3,3.054326214E-2,-3.665191587E-3
3.448413218E0,1.221730490E-3,3.420845419E-2,-7.941247895E-3
3.450427992E0,-1.832595794E-3,3.176499158E-2,-6.108652335E-3
3.452442382E0,-6.108652451E-4,2.993239649E-2,-7.941247895E-3
3.454425464E0,1.221730490E-3,2.932153270E-2,-7.330383174E-3
3.456439701E0,1.221730490E-3,2.809980139E-2,-7.941247895E-3
3.458423014E0,0.000000000E0,2.871066704E-2,-7.941247895E-3
3.460437250E0,0.000000000E0,2.504547499E-2,-9.773843922E-3
3.462420948E0,-6.108652451E-4,2.199114859E-2,-8.552113548E-3
3.464434491E0,0.000000000E0,1.832595654E-2,-1.038470957E-2
3.466417881E0,-1.221730490E-3,1.527163107E-2,-1.099557430E-2
3.468432964E0,6.108652451E-4,1.221730467E-2,-9.773843922E-3
3.470416969E0,1.221730490E-3,7.941247895E-3,-5.497787148E-3
3.472430129E0,1.832595794E-3,3.665191587E-3,-4.276056774E-3
3.474413595E0,1.221730490E-3,1.221730490E-3,-3.054326167E-3
3.476428600E0,3.665191587E-3,-2.443460980E-3,-3.054326167E-3
3.478442837E0,1.221730490E-3,-5.497787148E-3,-3.054326167E-3
3.480426150E0,4.276056774E-3,-9.773843922E-3,6.108652451E-4
3.482439770E0,5.497787148E-3,-1.221730467E-2,6.108652451E-4
3.484425238E0,5.497787148E-3,-1.527163107E-2,3.054326167E-3
3.486438474E0,4.886921961E-3,-1.527163107E-2,2.443460980E-3
3.488422248E0,6.108652335E-3,-1.588249579E-2,3.054326167E-3
3.490437561E0,8.552113548E-3,-1.771509275E-2,3.054326167E-3
3.492419490E0,7.330383174E-3,-1.832595654E-2,5.497787148E-3
3.494433649E0,9.162978269E-3,-1.649336144E-2,4.276056774E-3
3.496417885E0,4.886921961E-3,-1.771509275E-2,4.276056774E-3
3.498431198E0,6.108652335E-3,-1.404990070E-2,4.276056774E-3
3.500415819E0,6.719517522E-3,-1.343903504E-2,6.108652335E-3
3.502429286E0,7.330383174E-3,-1.343903504E-2,5.497787148E-3
3.504443752E0,6.719517522E-3,-1.282817032E-2,4.886921961E-3
3.506427835E0,6.108652335E-3,-1.038470957E-2,5.497787148E-3
3.508441379E0,7.330383174E-3,-9.162978269E-3,4.276056774E-3
3.510424769E0,7.941247895E-3,-7.941247895E-3,6.108652335E-3
3.512439851E0,5.497787148E-3,-5.497787148E-3,8.552113548E-3
3.514422626E0,7.941247895E-3,-2.443460980E-3,6.719517522E-3
3.516437324E0,7.941247895E-3,-1.221730490E-3,9.162978269E-3
3.518421021E0,7.941247895E-3,-2.443460980E-3,6.108652335E-3
3.520434334E0,6.719517522E-3,1.221730490E-3,7.330383174E-3
3.522418571E0,5.497787148E-3,4.276056774E-3,9.162978269E-3
3.524433422E0,9.162978269E-3,5.497787148E-3,7.941247895E-3
3.526416428E0,9.162978269E-3,9.162978269E-3,9.773843922E-3
3.528431279E0,1.038470957E-2,1.099557430E-2,1.038470957E-2
3.530415207E0,9.162978269E-3,1.221730467E-2,9.773843922E-3
3.532428828E0,7.330383174E-3,1.710422710E-2,1.099557430E-2
3.534442603E0,8.552113548E-3,2.015855350E-2,7.330383174E-3
3.536426069E0,8.552113548E-3,1.893682219E-2,8.552113548E-3
3.538440768E0,9.162978269E-3,2.321287990E-2,6.719517522E-3
3.540424849E0,7.941247895E-3,2.321287990E-2,7.330383174E-3
3.542437471E0,7.941247895E-3,2.260201424E-2,4.276056774E-3
3.544421091E0,7.941247895E-3,2.504547499E-2,2.443460980E-3
3.546435865E0,7.941247895E-3,2.382374369E-2,2.443460980E-3
3.548419948E0,4.886921961E-3,2.504547499E-2,1.221730490E-3
3.550434953E0,4.886921961E-3,2.504547499E-2,0.000000000E0
3.552417497E0,7.330383174E-3,2.199114859E-2,-1.221730490E-3
3.554432195E0,5.497787148E-3,1.893682219E-2,-3.054326167E-3
3.556414662E0,4.276056774E-3,1.710422710E-2,-5.497787148E-3
3.558429128E0,1.832595794E-3,1.649336144E-2,-6.719517522E-3
3.560443903E0,1.832595794E-3,1.343903504E-2,-5.497787148E-3
3.562426755E0,1.832595794E-3,1.221730467E-2,-6.719517522E-3
3.564442145E0,1.832595794E-3,9.773843922E-3,-8.552113548E-3
3.566424535E0,6.108652451E-4,6.719517522E-3,-9.162978269E-3
3.568439001E0,1.221730490E-3,3.665191587E-3,-9.162978269E-3
3.570424546E0,6.108652451E-4,1.832595794E-3,-8.552113548E-3
3.572438166E0,2.443460980E-3,0.000000000E0,-7.941247895E-3
3.574420941E0,0.000000000E0,-2.443460980E-3,-9.773843922E-3
3.576435023E0,1.221730490E-3,-4.276056774E-3,-7.941247895E-3
3.578418721E0,2.443460980E-3,-7.330383174E-3,-8.552113548E-3
3.580432650E0,1.221730490E-3,-7.941247895E-3,-9.162978269E-3
3.582417193E0,3.054326167E-3,-9.773843922E-3,-8.552113548E-3
3.584430121E0,1.832595794E-3,-1.404990070E-2,-8.552113548E-3
3.586414820E0,1.221730490E-3,-1.343903504E-2,-9.773843922E-3
3.588429286E0,6.108652335E-3,-1.466076635E-2,-6.719517522E-3
3.590441907E0,4.886921961E-3,-1.649336144E-2,-4.886921961E-3
3.592426451E0,6.108652451E-4,-1.527163107E-2,-5.497787148E-3
3.594440302E0,2.443460980E-3,-1.466076635E-2,-5.497787148E-3
3.596424001E0,4.276056774E-3,-1.466076635E-2,-4.276056774E-3
3.598438159E0,4.276056774E-3,-1.282817032E-2,-2.443460980E-3
3.600421549E0,2.443460980E-3,-9.773843922E-3,-1.832595794E-3
3.602435709E0,2.443460980E-3,-9.162978269E-3,-4.276056774E-3
3.604420022E0,3.054326167E-3,-7.330383174E-3,-2.443460980E-3
3.606433334E0,3.665191587E-3,-4.886921961E-3,-3.054326167E-3
3.608417033E0,2.443460980E-3,-6.108652451E-4,-1.832595794E-3
3.610432038E0,1.832595794E-3,1.221730490E-3,-2.443460980E-3
3.612415428E0,4.886921961E-3,3.054326167E-3,-3.054326167E-3
3.614429664E0,3.665191587E-3,5.497787148E-3,-2.443460980E-3
3.616444054E0,3.665191587E-3,7.941247895E-3,-1.221730490E-3
3.618426598E0,4.276056774E-3,1.343903504E-2,-2.443460980E-3
3.620441911E0,5.497787148E-3,1.221730467E-2,-1.221730490E-3
3.622424762E0,4.276056774E-3,1.710422710E-2,-3.665191587E-3
3.624438306E0,3.054326167E-3,1.832595654E-2,-3.054326167E-3
3.626422235E0,3.054326167E-3,1.649336144E-2,-2.443460980E-3
3.628437010E0,3.665191587E-3,2.199114859E-2,-2.443460980E-3
3.630421707E0,4.276056774E-3,2.138028294E-2,-6.108652451E-4
3.632435481E0,4.886921961E-3,2.260201424E-2,-2.443460980E-3
3.634418641E0,4.886921961E-3,2.076941915E-2,-2.443460980E-3
3.636432492E0,6.108652335E-3,2.138028294E-2,-3.054326167E-3
3.638416113E0,4.276056774E-3,2.199114859E-2,-3.054326167E-3
3.640430042E0,6.108652335E-3,2.076941915E-2,-1.832595794E-3
3.642414585E0,4.886921961E-3,1.893682219E-2,-1.221730490E-3
3.644429129E0,4.276056774E-3,1.649336144E-2,-3.054326167E-3
3.646442596E0,5.497787148E-3,1.404990070E-2,-1.832595794E-3
3.648425678E0,5.497787148E-3,1.343903504E-2,-3.665191587E-3
3.650441146E0,3.665191587E-3,9.773843922E-3,-1.832595794E-3
3.652424151E0,4.886921961E-3,7.941247895E-3,-6.108652451E-4
3.654438617E0,2.443460980E-3,6.719517522E-3,-3.054326167E-3
3.656421700E0,1.221730490E-3,1.832595794E-3,0.000000000E0
3.658435628E0,6.108652451E-4,-1.832595794E-3,-6.108652451E-4
3.660419633E0,3.665191587E-3,-1.832595794E-3,0.000000000E0
3.662433409E0,1.832595794E-3,-3.054326167E-3,-1.832595794E-3
3.664417183E0,4.276056774E-3,-5.497787148E-3,0.000000000E0
3.666432881E0,1.832595794E-3,-6.719517522E-3,-6.108652451E-4
3.668414348E0,1.832595794E-3,-7.330383174E-3,6.108652451E-4
3.670429814E0,4.276056774E-3,-9.773843922E-3,0.000000000E0
3.672444820E0,3.665191587E-3,-9.162978269E-3,1.221730490E-3
3.674426979E0,4.886921961E-3,-1.099557430E-2,1.832595794E-3
3.676441522E0,3.054326167E-3,-9.773843922E-3,3.054326167E-3
3.678424913E0,4.276056774E-3,-9.773843922E-3,1.221730490E-3
3.680438995E0,4.276056774E-3,-9.162978269E-3,1.832595794E-3
3.682423001E0,2.443460980E-3,-1.038470957E-2,1.221730490E-3
3.684438083E0,1.221730490E-3,-7.330383174E-3,2.443460980E-3
3.686420319E0,6.108652335E-3,-7.330383174E-3,1.832595794E-3
3.688435325E0,4.886921961E-3,-6.108652335E-3,1.221730490E-3
3.690419637E0,5.497787148E-3,-5.497787148E-3,5.497787148E-3
3.692432258E0,4.276056774E-3,-2.443460980E-3,2.443460980E-3
3.694416648E0,6.719517522E-3,-1.221730490E-3,2.443460980E-3
3.696430115E0,5.497787148E-3,1.221730490E-3,4.276056774E-3
3.698414735E0,5.497787148E-3,4.276056774E-3,1.221730490E-3
3.700428280E0,5.497787148E-3,6.719517522E-3,3.054326167E-3
3.702442439E0,6.719517522E-3,7.330383174E-3,6.108652451E-4
3.704425599E0,3.665191587E-3,1.038470957E-2,6.108652451E-4
3.706439757E0,4.886921961E-3,1.343903504E-2,-1.221730490E-3
3.708423685E0,5.497787148E-3,1.282817032E-2,-1.221730490E-3
3.710438845E0,4.886921961E-3,1.527163107E-2,0.000000000E0
3.712421850E0,3.665191587E-3,1.771509275E-2,-1.832595794E-3
3.714436010E0,4.276056774E-3,1.710422710E-2,-6.108652451E-4
3.716419092E0,3.665191587E-3,1.527163107E-2,-1.221730490E-3
3.718433636E0,4.886921961E-3,1.588249579E-2,0.000000000E0
3.720417334E0,2.443460980E-3,1.832595654E-2,-1.832595794E-3
3.722430800E0,1.221730490E-3,1.954768784E-2,-6.108652451E-4
3.724416036E0,3.665191587E-3,1.588249579E-2,0.000000000E0
3.726428735E0,2.443460980E-3,1.527163107E-2,0.000000000E0
3.728443740E0,6.108652451E-4,1.404990070E-2,6.108652451E-4
3.730428129E0,-6.108652451E-4,1.160643995E-2,1.221730490E-3
3.732441904E0,0.000000000E0,1.099557430E-2,6.108652451E-4
3.734424986E0,-6.108652451E-4,1.099557430E-2,0.000000000E0
3.736439146E0,-1.832595794E-3,7.330383174E-3,0.000000000E0
3.738422613E0,1.221730490E-3,5.497787148E-3,1.221730490E-3
3.740437002E0,-1.221730490E-3,2.443460980E-3,2.443460980E-3
3.742420393E0,-3.054326167E-3,6.108652451E-4,2.443460980E-3
3.744434552E0,-1.832595794E-3,1.221730490E-3,2.443460980E-3
3.746419172E0,-6.108652451E-4,-1.221730490E-3,4.886921961E-3
3.748432794E0,1.221730490E-3,-3.665191587E-3,3.665191587E-3
3.750415260E0,0.000000000E0,-4.276056774E-3,2.443460980E-3
3.752430958E0,-1.832595794E-3,-5.497787148E-3,4.276056774E-3
3.754414040E0,6.108652451E-4,-9.773843922E-3,5.497787148E-3
3.756428430E0,-1.221730490E-3,-9.773843922E-3,4.886921961E-3
3.758442359E0,-1.221730490E-3,-1.038470957E-2,5.497787148E-3
3.760425672E0,6.108652451E-4,-1.221730467E-2,6.719517522E-3
3.762439523E0,1.221730490E-3,-1.221730467E-2,8.552113548E-3
3.764424760E0,1.221730490E-3,-1.221730467E-2,7.330383174E-3
3.766438303E0,1.832595794E-3,-1.160643995E-2,9.162978269E-3
3.768421771E0,1.221730490E-3,-1.038470957E-2,7.941247895E-3
3.770436853E0,3.665191587E-3,-9.162978269E-3,7.941247895E-3
3.772419550E0,2.443460980E-3,-9.162978269E-3,8.552113548E-3
3.774433479E0,4.886921961E-3,-7.330383174E-3,9.162978269E-3
3.776417407E0,6.108652335E-3,-4.886921961E-3,7.330383174E-3
3.778430643E0,5.497787148E-3,-3.665191587E-3,7.941247895E-3
3.780414649E0,4.276056774E-3,-2.443460980E-3,8.552113548E-3
3.782429423E0,6.108652335E-3,-6.108652451E-4,1.038470957E-2
3.784442429E0,5.497787148E-3,2.443460980E-3,1.160643995E-2
3.786425742E0,6.719517522E-3,5.497787148E-3,7.941247895E-3
3.788441208E0,4.886921961E-3,7.330383174E-3,6.108652335E-3
3.790425214E0,5.497787148E-3,9.162978269E-3,6.108652335E-3
3.792439604E0,4.886921961E-3,9.773843922E-3,6.108652335E-3
3.794423301E0,6.719517522E-3,1.221730467E-2,6.719517522E-3
3.796436538E0,4.886921961E-3,1.343903504E-2,6.719517522E-3
3.798420851E0,5.497787148E-3,1.527163107E-2,6.719517522E-3
3.800435011E0,6.719517522E-3,1.527163107E-2,5.497787148E-3
3.802417862E0,4.886921961E-3,1.710422710E-2,4.886921961E-3
3.804433482E0,4.886921961E-3,1.710422710E-2,6.719517522E-3
3.806416334E0,6.108652335E-3,1.771509275E-2,4.886921961E-3
3.808430109E0,4.276056774E-3,1.954768784E-2,6.108652335E-3
3.810445575E0,6.108652335E-3,1.710422710E-2,4.276056774E-3
3.812427966E0,3.665191587E-3,1.832595654E-2,6.719517522E-3
3.814442201E0,4.886921961E-3,1.710422710E-2,6.719517522E-3
3.816425591E0,3.665191587E-3,1.527163107E-2,9.162978269E-3
3.818439982E0,4.276056774E-3,1.404990070E-2,6.719517522E-3
3.820423987E0,6.108652335E-3,1.404990070E-2,6.108652335E-3
3.822437916E0,6.108652335E-3,1.282817032E-2,7.330383174E-3
3.824420998E0,5.497787148E-3,1.282817032E-2,7.330383174E-3
3.826436080E0,6.108652335E-3,9.773843922E-3,6.719517522E-3
3.828419701E0,4.276056774E-3,7.330383174E-3,6.719517522E-3
3.830432706E0,6.108652335E-3,3.665191587E-3,8.552113548E-3
3.832417250E0,5.497787148E-3,3.054326167E-3,7.330383174E-3
3.834430486E0,6.719517522E-3,1.221730490E-3,7.330383174E-3
3.836414799E0,8.552113548E-3,-6.108652451E-4,7.330383174E-3
3.838429651E0,7.330383174E-3,-6.108652451E-4,7.941247895E-3
3.840443195E0,4.276056774E-3,-1.832595794E-3,9.773843922E-3
3.842426815E0,7.330383174E-3,-1.221730490E-3,9.162978269E-3
3.844442206E0,7.330383174E-3,-3.665191587E-3,7.330383174E-3
3.846424980E0,9.162978269E-3,-3.665191587E-3,6.108652335E-3
3.848439139E0,8.552113548E-3,-6.108652335E-3,7.330383174E-3
3.850423222E0,8.552113548E-3,-3.054326167E-3,7.330383174E-3
3.852437073E0,6.719517522E-3,-3.054326167E-3,4.886921961E-3
3.854419771E0,7.941247895E-3,-1.221730490E-3,7.330383174E-3
3.856434853E0,1.160643995E-2,6.108652451E-4,4.276056774E-3
3.858418935E0,8.552113548E-3,1.832595794E-3,5.497787148E-3
3.860432710E0,7.941247895E-3,4.886921961E-3,4.276056774E-3
3.862415869E0,8.552113548E-3,6.719517522E-3,6.108652335E-3
3.864429336E0,8.552113548E-3,9.162978269E-3,6.108652335E-3
3.866444419E0,9.162978269E-3,9.773843922E-3,6.108652335E-3
3.868428116E0,1.099557430E-2,1.343903504E-2,7.330383174E-3
3.870443199E0,1.038470957E-2,1.466076635E-2,6.719517522E-3
3.872425435E0,1.160643995E-2,1.404990070E-2,4.886921961E-3
3.874439901E0,1.038470957E-2,1.771509275E-2,6.719517522E-3
3.876423522E0,1.160643995E-2,1.893682219E-2,8.552113548E-3
3.878436835E0,1.282817032E-2,1.954768784E-2,8.552113548E-3
3.880421994E0,1.282817032E-2,2.382374369E-2,5.497787148E-3
3.882435231E0,1.099557430E-2,2.138028294E-2,6.719517522E-3
3.884418697E0,1.221730467E-2,2.138028294E-2,6.108652335E-3
3.886433088E0,9.773843922E-3,2.138028294E-2,5.497787148E-3
3.888417401E0,1.282817032E-2,2.199114859E-2,8.552113548E-3
3.890432483E0,1.038470957E-2,2.015855350E-2,7.941247895E-3
3.892415258E0,9.162978269E-3,1.893682219E-2,8.552113548E-3
3.894428878E0,1.099557430E-2,2.138028294E-2,7.330383174E-3
3.896443652E0,6.719517522E-3,1.954768784E-2,7.330383174E-3
3.898426735E0,7.941247895E-3,1.588249579E-2,7.941247895E-3
3.900441433E0,6.719517522E-3,1.710422710E-2,9.773843922E-3
3.902424284E0,8.552113548E-3,1.221730467E-2,9.773843922E-3
3.904438444E0,7.330383174E-3,1.160643995E-2,8.552113548E-3
3.906423372E0,6.108652335E-3,9.162978269E-3,9.773843922E-3
3.908436301E0,6.108652335E-3,6.719517522E-3,8.552113548E-3
3.910421152E0,4.886921961E-3,4.886921961E-3,8.552113548E-3
3.912434772E0,4.886921961E-3,2.443460980E-3,1.099557430E-2
3.914418086E0,4.276056774E-3,0.000000000E0,9.162978269E-3
3.916431937E0,1.832595794E-3,-2.443460980E-3,1.099557430E-2
3.918415327E0,4.886921961E-3,-6.108652335E-3,1.038470957E-2
3.920430179E0,3.054326167E-3,-5.497787148E-3,8.552113548E-3
3.922444569E0,3.054326167E-3,-9.162978269E-3,1.038470957E-2
3.924429190E0,4.276056774E-3,-1.038470957E-2,9.773843922E-3
3.926442734E0,4.886921961E-3,-9.162978269E-3,8.552113548E-3
3.928425585E0,5.497787148E-3,-1.160643995E-2,9.162978269E-3
3.930441283E0,3.054326167E-3,-1.343903504E-2,9.773843922E-3
3.932424057E0,4.276056774E-3,-1.404990070E-2,6.719517522E-3
3.934437524E0,4.886921961E-3,-1.527163107E-2,7.330383174E-3
3.936420914E0,2.443460980E-3,-1.588249579E-2,7.330383174E-3
3.938435150E0,3.665191587E-3,-1.588249579E-2,5.497787148E-3
3.940419387E0,3.665191587E-3,-1.466076635E-2,6.108652335E-3
3.942433238E0,2.443460980E-3,-1.404990070E-2,7.330383174E-3
3.944416012E0,3.665191587E-3,-1.221730467E-2,4.886921961E-3
3.946430480E0,3.054326167E-3,-1.099557430E-2,4.886921961E-3
3.948445254E0,6.719517522E-3,-9.773843922E-3,6.108652335E-3
3.950429875E0,3.665191587E-3,-4.886921961E-3,8.552113548E-3
3.952443419E0,4.886921961E-3,-2.443460980E-3,6.719517522E-3
3.954426886E0,7.330383174E-3,-1.832595794E-3,6.108652335E-3
3.956440661E0,6.108652335E-3,3.054326167E-3,6.719517522E-3
3.958424358E0,6.108652335E-3,4.886921961E-3,5.497787148E-3
3.960438594E0,8.552113548E-3,7.330383174E-3,5.497787148E-3
3.962422292E0,1.038470957E-2,1.099557430E-2,6.719517522E-3
3.964436989E0,7.941247895E-3,1.771509275E-2,7.330383174E-3
3.966419841E0,8.552113548E-3,1.710422710E-2,7.941247895E-3
3.968434847E0,9.162978269E-3,1.832595654E-2,7.330383174E-3
3.970418929E0,9.162978269E-3,2.015855350E-2,9.162978269E-3
3.972432088E0,1.038470957E-2,2.321287990E-2,9.162978269E-3
3.974415555E0,8.552113548E-3,2.443460934E-2,8.552113548E-3
3.976430021E0,7.941247895E-3,2.504547499E-2,9.773843922E-3
3.978444181E0,8.552113548E-3,2.871066704E-2,8.552113548E-3
3.980427494E0,1.038470957E-2,2.626720630E-2,6.719517522E-3
3.982442268E0,8.552113548E-3,2.809980139E-2,9.162978269E-3
3.984425120E0,1.038470957E-2,2.748893574E-2,9.162978269E-3
3.986441049E0,1.038470957E-2,2.687807009E-2,7.941247895E-3
3.988423284E0,9.773843922E-3,2.504547499E-2,7.330383174E-3
3.990437444E0,9.773843922E-3,2.565634064E-2,7.941247895E-3
3.992421988E0,8.552113548E-3,2.321287990E-2,4.886921961E-3
3.994435224E0,1.038470957E-2,2.199114859E-2,6.108652335E-3
