"Time (s)","Linear Acceleration x (m/s^2)","Linear Acceleration y (m/s^2)","Linear Acceleration z (m/s^2)"
1.441413900E-2,-1.489853859E-2,-3.077101707E-2,-9.178352356E-2
2.240946900E-2,-1.447641850E-2,-1.153969765E-1,-3.652381897E-2
3.040579800E-2,-5.603146553E-2,-1.390175819E-1,6.732559204E-2
3.843074300E-2,-8.057606220E-2,-9.717202187E-2,1.094942093E-1
4.642714800E-2,-9.872591496E-2,-4.806518555E-2,1.669969559E-1
5.442255500E-2,-8.573615551E-2,1.402950287E-2,2.121982574E-1
6.241826800E-2,-1.005578041E-1,2.939176559E-2,1.890525818E-1
7.041329000E-2,-9.984743595E-2,1.487874985E-2,1.753044128E-1
7.840961900E-2,-9.974551201E-2,1.169919968E-3,8.558654785E-2
8.640479500E-2,-9.163892269E-2,-2.832174301E-2,6.686782837E-2
9.443089300E-2,-1.197501421E-1,-6.472229958E-2,2.786254883E-2
1.024266840E-1,-8.384072781E-2,-7.523894310E-2,4.651832581E-2
1.104235510E-1,-4.727959633E-2,-7.315635681E-2,3.207874298E-2
1.184180350E-1,-1.230454445E-2,-5.381870270E-2,2.736663818E-2
1.264131330E-1,3.531610966E-2,-3.012633324E-2,7.250785828E-3
1.344095390E-1,8.039736748E-2,-1.239299774E-3,2.880859375E-2
1.424049450E-1,6.029820442E-2,1.402378082E-3,2.095508575E-2
1.504308130E-1,5.568838120E-2,1.108360291E-2,3.526115417E-2
1.584262190E-1,3.001487255E-2,2.292346954E-2,6.054973602E-2
1.664224720E-1,-2.055168152E-4,2.281379700E-2,1.107301712E-1
1.744178770E-1,3.319501877E-3,4.654765129E-2,1.130237579E-1
1.824133610E-1,-4.732608795E-3,5.569982529E-2,9.617614746E-2
1.904096130E-1,-2.206480503E-2,2.415943146E-2,8.167743683E-2
1.984044810E-1,-5.934607983E-2,3.079962730E-2,7.114410400E-2
2.064312710E-1,-6.743371487E-2,2.286696434E-2,7.218170166E-2
2.144262930E-1,-5.844044685E-2,-8.493661880E-3,4.087162018E-2
2.224226220E-1,-3.860855103E-2,7.910966873E-3,2.131938934E-2
2.304174130E-1,-2.438426018E-3,-8.704662323E-3,2.841854095E-2
2.384132030E-1,1.616692543E-2,8.192300797E-3,3.324222565E-2
2.464089170E-1,5.824315548E-2,2.517938614E-2,1.415920258E-2
2.544039390E-1,2.625608444E-2,2.199220657E-2,7.084846497E-3
2.624307300E-1,2.525210381E-2,2.476477623E-2,3.823280334E-2
2.704267510E-1,4.639375210E-2,3.458499908E-2,5.976200104E-2
2.784219260E-1,5.387651920E-2,3.288650513E-2,7.711029053E-2
2.864176400E-1,3.567802906E-2,4.209995270E-3,8.892536163E-2
2.944130460E-1,2.772545815E-2,-1.087331772E-2,7.809257507E-2
3.024078370E-1,1.955854893E-2,-8.512973785E-3,7.550525665E-2
3.104346270E-1,1.697421074E-3,-2.033758163E-2,8.484840393E-2
3.184300340E-1,-1.411354542E-2,-3.465247154E-2,9.906101227E-2
3.264260550E-1,8.934736252E-4,-5.936145782E-3,1.037607193E-1
3.344223850E-1,2.998614311E-2,1.314306259E-2,7.979011536E-2
3.424177900E-1,4.473471642E-2,-8.509159088E-3,6.061458588E-2
3.504140430E-1,3.092741966E-2,1.528453827E-2,4.860973358E-2
3.584086030E-1,1.050555706E-2,-2.795553207E-2,4.849338531E-2
3.664043170E-1,1.204097271E-2,-2.558040619E-2,5.546092987E-2
3.744301070E-1,-2.213394642E-2,5.541324615E-3,5.281734467E-2
3.824264370E-1,-3.953325748E-2,5.501270294E-3,2.624130249E-2
3.904212270E-1,-5.959391594E-2,1.052069664E-2,3.313732147E-2
3.984178640E-1,-8.000576496E-2,-9.994506836E-4,1.607131958E-2
4.064124240E-1,-1.007850170E-1,1.999855042E-3,3.492164612E-2
4.144084460E-1,-6.211495399E-2,-1.397395134E-2,5.377388000E-2
4.224348520E-1,-6.930959225E-2,-3.948521614E-2,5.830287933E-2
4.304315660E-1,-3.838372231E-2,-4.097723961E-2,1.035337448E-1
4.384250490E-1,-4.905462265E-4,-3.547406197E-2,1.081542969E-1
4.464217630E-1,5.400776863E-2,2.251482010E-2,9.849071503E-2
4.544173990E-1,6.541764736E-2,3.986287117E-2,1.219272614E-2
4.624122670E-1,1.100952625E-1,1.316812038E-1,-9.504318237E-3
4.704082120E-1,7.080948353E-2,1.397655010E-1,8.851242065E-2
4.784347720E-1,-8.008849621E-2,6.842589378E-2,6.203079224E-2
4.864307930E-1,-5.268120766E-2,1.847696304E-2,6.416606903E-2
4.944258920E-1,2.982389927E-2,6.801128387E-3,5.194377899E-2
5.024218360E-1,1.072851419E-1,2.855443954E-2,4.696846008E-2
5.104181660E-1,8.199107647E-2,1.427674294E-2,5.158042908E-2
5.184129560E-1,3.596150875E-2,-2.183914185E-4,8.487606049E-2
5.264086700E-1,-5.032896996E-2,-1.968646049E-2,7.985877991E-2
5.344342300E-1,-1.008957624E-1,-4.392433167E-2,8.204650879E-2
5.424303290E-1,-8.246958256E-2,-3.928017616E-2,9.622001648E-2
5.484118830E-1,-6.200897694E-2,-3.448772430E-2,1.103982925E-1
5.504226570E-1,-6.200897694E-2,-3.448772430E-2,1.103982925E-1
5.584210640E-1,-3.691899776E-2,-2.249622345E-2,1.030473709E-1
5.664168540E-1,-2.862429619E-2,1.109433174E-2,1.100482941E-1
5.744127990E-1,-7.083821297E-2,1.697778702E-3,9.789466858E-2
5.824082050E-1,-5.331695080E-2,-1.725077629E-2,1.312417984E-1
5.904359190E-1,-3.833937645E-2,-2.664542198E-2,7.363605499E-2
5.984304020E-1,-9.065866470E-3,-3.356695175E-2,9.023475647E-2
6.064258080E-1,1.162409782E-3,-5.002951622E-2,9.483718872E-2
6.144215220E-1,-2.422320843E-2,-4.498267174E-2,8.504390717E-2
6.224170040E-1,-2.547836304E-2,-8.544206619E-2,8.720016479E-2
6.304121030E-1,-1.265537739E-2,-6.600070000E-2,7.022953033E-2
6.384086630E-1,-2.582550049E-3,-5.615115166E-2,2.937126160E-2
6.464346080E-1,-1.891052723E-2,-8.273124695E-4,7.681846619E-3
6.544303210E-1,-1.981139183E-3,-5.434036255E-3,2.196502686E-2
6.624253430E-1,2.400755882E-2,9.075403214E-3,-1.394462585E-2
6.704217490E-1,4.248905182E-2,2.613019943E-2,-2.112579346E-2
6.784171560E-1,7.003736496E-2,4.090452194E-2,4.587173462E-4
6.864125610E-1,6.411826611E-2,1.982307434E-2,-1.149940491E-2
6.944078910E-1,4.167556763E-2,2.276587486E-2,-6.757736206E-3
7.024337580E-1,5.061531067E-2,-7.718086243E-3,3.108978271E-4
7.104289340E-1,4.071497917E-2,4.879236221E-3,-2.235412598E-3
7.184251860E-1,4.789721966E-2,5.368232727E-3,4.309940338E-2
7.264209770E-1,5.067467690E-2,-6.262540817E-3,5.012130737E-2
7.344160750E-1,7.063138485E-2,1.320958138E-2,-2.670764923E-2
7.424120200E-1,2.359426022E-2,-7.735490799E-3,3.523063660E-2
7.504090410E-1,2.411568165E-2,-1.430964470E-2,1.283388138E-1
7.584345250E-1,1.043260098E-2,-4.029226303E-2,4.672718048E-2
7.664300070E-1,-3.666567802E-2,-2.063441277E-2,5.842781067E-2
7.744253370E-1,-3.624725342E-2,-3.429579735E-2,1.802501678E-1
7.824216660E-1,3.055381775E-2,-4.330682755E-2,2.136240005E-1
7.904162260E-1,5.385422707E-2,-1.674413681E-2,2.064599991E-1
7.984125550E-1,9.626030922E-2,2.321481705E-3,1.874313354E-1
8.064072690E-1,8.358657360E-2,1.876425743E-2,1.421413422E-1
8.144341360E-1,4.708576202E-2,3.985214233E-2,1.040630341E-1
8.224295430E-1,2.538239956E-2,2.260804176E-2,7.790184021E-2
8.304258720E-1,2.579843998E-2,2.680611610E-2,4.929828644E-2
8.384202780E-1,3.389334679E-2,-1.672554016E-2,1.578903198E-2
8.464159920E-1,2.545714378E-2,-7.543563843E-3,-3.400802612E-3
8.544117060E-1,1.459681988E-2,1.751422882E-3,-1.543903351E-2
8.624074960E-1,-8.312106133E-3,-1.052308083E-2,1.324176788E-2
8.704335950E-1,-1.004421711E-2,-3.224062920E-2,1.320171356E-2
8.784290780E-1,-1.222896576E-2,-2.038049698E-2,3.714942932E-2
8.864254070E-1,-9.993314743E-3,-3.756523132E-3,4.439735413E-2
8.944207360E-1,1.121890545E-2,2.003908157E-2,4.449081421E-2
9.024164500E-1,3.616809845E-3,4.853987694E-2,6.138324738E-2
9.104125480E-1,1.761662960E-2,3.640484810E-2,5.669689178E-2
9.184076460E-1,2.933108807E-2,5.298161507E-2,8.552169800E-2
9.264344380E-1,3.882062435E-2,2.171754837E-2,8.557891846E-2
9.344291520E-1,7.253301144E-2,2.286672592E-3,7.366752625E-2
9.424251730E-1,6.098723412E-2,2.029180527E-3,6.890010834E-2
9.504202710E-1,6.644093990E-2,-5.386352539E-3,5.212211609E-2
9.584169080E-1,2.890431881E-2,-1.752376556E-2,3.530597687E-2
9.664120060E-1,-8.521437645E-3,-2.962327003E-2,3.522205353E-2
9.744074130E-1,6.669163704E-3,-1.050734520E-2,3.032970428E-2
9.824342800E-1,2.609252930E-3,-2.497196198E-2,4.701805115E-2
9.904306100E-1,2.219426632E-2,-1.791596413E-2,2.784347534E-2
9.984241690E-1,1.751673222E-2,-1.211881638E-3,4.699897766E-2
1.006420499E0,1.994562149E-2,1.080727577E-2,4.937362671E-2
1.014416212E0,3.428423405E-2,3.576755524E-3,6.615257263E-2
1.022411850E0,6.775617599E-2,1.076269150E-2,8.052349091E-2
1.030407332E0,6.762754917E-2,5.988836288E-3,7.335376740E-2
1.038433816E0,5.327141285E-2,2.038192749E-2,4.461288452E-2
1.046429221E0,3.197288513E-2,2.279114723E-2,9.245777130E-2
1.054425167E0,2.525150776E-2,1.072740555E-2,9.242248535E-2
1.062420957E0,4.250097275E-2,1.069068909E-3,7.322502136E-2
1.070416979E0,2.599346638E-2,1.059865952E-2,6.841659546E-2
1.078412384E0,3.083992004E-2,2.017688751E-2,6.840801239E-2
1.086407714E0,4.266512394E-2,1.086711884E-3,5.404281616E-2
1.094433274E0,2.095413208E-2,-1.327037811E-2,3.730392456E-2
1.102429373E0,2.318799496E-2,-5.941390991E-3,4.446315765E-2
1.110423855E0,3.906130791E-3,-8.322715759E-3,5.165958405E-2
1.118420493E0,4.225158691E-2,-3.599405289E-3,6.125164032E-2
1.126416514E0,5.203437805E-2,-8.611202240E-3,5.650520325E-2
1.134411612E0,4.527604580E-2,-4.024028778E-3,6.608676910E-2
1.142407634E0,3.638887405E-2,1.258325577E-2,6.124973297E-2
1.150433732E0,8.435130119E-3,1.727461815E-2,6.835365295E-2
1.158428600E0,4.322409630E-3,5.273342133E-3,7.545089722E-2
1.166425237E0,-1.420164108E-2,9.997844696E-3,8.256626129E-2
1.174420335E0,1.972687244E-2,-9.261846542E-3,7.296562195E-2
1.182416049E0,3.175079823E-2,-4.521608353E-3,5.381965637E-2
1.190411378E0,5.324113369E-2,-1.886200905E-2,5.142593384E-2
1.198406862E0,1.484370232E-2,-2.122879028E-3,2.989673615E-2
1.206433036E0,1.482522488E-2,-2.133965492E-2,3.470706940E-2
1.214429289E0,2.689588070E-2,-1.903152466E-2,4.908561707E-2
1.222424156E0,6.045341492E-2,1.921653748E-2,5.149364471E-2
1.230421025E0,4.623961449E-2,-2.431869507E-3,4.910945892E-2
1.238416122E0,1.536619663E-2,2.866005898E-2,8.499908447E-2
1.246411913E0,3.949022293E-2,-4.848003387E-3,1.256713867E-1
1.254407319E0,4.170048237E-2,-1.199340820E-2,1.185026169E-1
1.262434034E0,5.787730217E-2,-1.673173904E-2,1.018085480E-1
1.270429209E0,6.917667389E-2,-1.684045792E-2,8.757114410E-2
1.278424307E0,8.296763897E-2,-3.833770752E-4,5.901718140E-2
1.286419636E0,7.783114910E-2,-1.033353806E-2,2.566623688E-2
1.294415965E0,7.554566860E-2,-2.017951012E-2,1.793861389E-3
1.302411141E0,4.739284515E-2,-1.073718071E-2,1.851463318E-2
1.310407777E0,3.636658192E-2,-2.529454231E-2,4.238510132E-2
1.318433030E0,8.927583694E-3,-1.109838486E-2,2.310371399E-2
1.326428974E0,-1.844274998E-2,-6.504774094E-3,1.818752289E-2
1.334424458E0,1.586198807E-3,-4.060268402E-3,3.720283508E-2
1.342420094E0,4.150748253E-3,3.306627274E-3,2.515029907E-2
1.350414962E0,2.279841900E-2,1.194238663E-3,3.470802307E-2
1.358411291E0,4.089283943E-2,8.830070496E-3,3.710651398E-2
1.366406928E0,5.137288570E-2,-1.214408875E-2,9.459495544E-2
1.374433180E0,6.420016289E-2,-1.405286789E-2,1.162033081E-1
1.382429433E0,8.692276478E-2,-8.977413177E-3,1.186780930E-1
1.390424839E0,1.173036098E-1,-1.564502716E-3,1.234979630E-1
1.398420322E0,1.172358990E-1,2.488565445E-2,9.713554382E-2
1.406415959E0,9.133386612E-2,-8.578777313E-3,5.635547638E-2
1.414411134E0,5.628490448E-2,1.124620438E-3,2.028083801E-2
1.422437232E0,1.896488667E-2,-2.260804176E-2,2.965354919E-2
1.430432408E0,-3.268635273E-2,-1.761245728E-2,2.226257324E-2
1.438428429E0,-4.146933556E-2,1.600122452E-2,2.966880798E-3
1.446423759E0,-3.382301331E-2,4.237437248E-2,5.556392670E-2
1.454420088E0,-2.885806561E-2,1.593446732E-2,5.796623230E-2
1.462415494E0,1.177477837E-2,3.970789909E-2,5.324077606E-2
1.470412208E0,1.174569130E-2,3.476595879E-2,5.568790436E-2
1.478437153E0,2.611863613E-2,2.503943443E-2,7.009887695E-2
1.486432866E0,3.827452660E-2,1.530981064E-2,6.533336639E-2
1.494428273E0,5.280888081E-2,1.530432701E-2,5.094623566E-2
1.502424217E0,8.647525311E-2,8.060455322E-3,7.009887695E-2
1.510419700E0,7.708895206E-2,-2.301526070E-2,5.329704285E-2
1.518415029E0,7.486903667E-2,-1.084733009E-2,5.799770355E-2
1.526411359E0,4.863107204E-2,-1.303696632E-2,4.594802856E-2
1.534436687E0,6.044483185E-2,-1.983308792E-2,4.345417023E-2
1.542432709E0,5.533874035E-2,-3.377604485E-2,4.336547852E-2
1.550429654E0,5.480039120E-2,-2.138137817E-2,8.161354065E-2
1.558423752E0,8.041965961E-2,-2.838706970E-2,5.771541595E-2
1.566419543E0,7.748377323E-2,-1.643753052E-2,2.667331696E-2
1.574415564E0,7.011401653E-2,-2.590608597E-2,3.145313263E-2
1.582411509E0,3.448605537E-2,-4.274368286E-3,5.533027649E-2
1.590436531E0,1.617848873E-2,-4.110336304E-3,4.797649384E-2
1.598432860E0,3.105878830E-3,-6.406545639E-3,5.973720551E-2
1.606429111E0,-7.568001747E-3,1.046562195E-2,5.473136902E-2
1.614423980E0,1.740562916E-2,5.889654160E-3,6.409740448E-2
1.622419308E0,5.921721458E-3,1.327466965E-2,6.396484375E-2
1.630415330E0,1.136183739E-3,-3.262519836E-3,7.347106934E-2
1.638411044E0,2.457797527E-2,-7.807731628E-3,8.543491364E-2
1.646437296E0,4.278135300E-2,-5.284309387E-3,8.792114258E-2
1.654432625E0,6.796014309E-2,9.185791016E-3,5.931854248E-2
1.662427724E0,1.003706455E-1,6.695032120E-3,4.513835907E-2
1.670423822E0,9.960258007E-2,-7.654666901E-3,5.242347717E-2
1.678419459E0,1.040842533E-1,-2.871274948E-3,3.331470490E-2
1.686415480E0,1.041901112E-1,-2.699613571E-3,4.042720795E-2
1.694410887E0,6.861376762E-2,-1.213049889E-2,4.991245270E-2
1.702436523E0,5.011272430E-2,4.718065262E-3,6.894683838E-2
1.710433084E0,1.973497868E-2,-2.390742302E-2,6.880855560E-2
1.718428566E0,-3.462195396E-3,9.694337845E-3,6.867790222E-2
1.726423589E0,-3.164577484E-2,2.165794373E-2,8.296966553E-2
1.734419071E0,-1.948523521E-2,1.435375214E-2,7.819366455E-2
1.742415093E0,-5.199909210E-4,1.418495178E-2,6.630134583E-2
1.750409883E0,2.551722527E-2,1.407742500E-2,5.440711975E-2
1.758436675E0,3.940045834E-2,-2.817630768E-3,7.127571106E-2
1.766432003E0,5.099380016E-2,-3.079891205E-3,6.422901154E-2
1.774428718E0,6.750655174E-2,-2.240729332E-2,6.192398071E-2
1.782423431E0,8.429849148E-2,-1.306867599E-2,4.284095764E-2
1.790420376E0,6.072103977E-2,-1.068592072E-2,4.518795013E-2
1.798414859E0,5.159103870E-2,1.322674751E-2,4.752922058E-2
1.806410958E0,4.496264458E-2,1.802015305E-2,3.308486938E-2
1.814436825E0,2.881348133E-2,-1.087188721E-3,1.862049103E-2
1.822432770E0,4.340600967E-2,-1.288080215E-2,3.529167175E-2
1.830427560E0,2.421331406E-2,-4.151821136E-2,7.596874237E-2
1.838423582E0,3.581953049E-2,-4.146862030E-2,6.882190704E-2
1.846419372E0,4.502904415E-2,-3.421473503E-2,6.406211853E-2
1.854415702E0,2.782118320E-2,-1.742982864E-2,7.369422913E-2
1.862410723E0,3.951394558E-2,4.088401794E-3,8.331871033E-2
1.870437591E0,6.339454651E-2,-3.103733063E-3,8.333015442E-2
1.878432381E0,8.730792999E-2,4.071712494E-3,6.418323517E-2
1.886428019E0,7.068181038E-2,3.285193443E-2,4.020595551E-2
1.894424117E0,3.976500034E-2,1.132035255E-2,4.496002197E-2
1.902418907E0,3.285861015E-2,-1.008105278E-2,2.572154999E-2
1.910413929E0,1.619338989E-2,-9.891748428E-3,4.001331329E-2
1.918410027E0,1.377868652E-2,-1.214480400E-2,2.800178528E-2
1.926437049E0,1.353085041E-2,-9.533643723E-3,4.712104797E-2
1.934432147E0,2.742040157E-2,5.086421967E-3,3.274154663E-2
1.942428246E0,6.511914730E-2,1.013183594E-2,4.711055756E-2
1.950423344E0,7.643985748E-2,-8.645296097E-3,5.426597595E-2
1.958419058E0,8.062243462E-2,-1.065492630E-2,6.619930267E-2
1.966414772E0,7.042157650E-2,-1.023507118E-2,7.573032379E-2
1.974409794E0,7.956242561E-2,2.106666565E-3,7.567405701E-2
1.982436045E0,8.148694038E-2,4.652976990E-3,8.766365051E-2
1.990431683E0,6.435322762E-2,2.342462540E-3,6.614112854E-2
1.998427781E0,6.186258793E-2,2.157926559E-2,6.852340698E-2
2.006423726E0,6.665289402E-2,3.314018250E-5,8.528137207E-2
2.014418824E0,5.018413067E-2,5.006790161E-6,6.130790710E-2
2.022414230E0,4.812753201E-2,2.152824402E-2,4.450893402E-2
2.030411482E0,3.389084339E-2,-4.775524139E-3,3.969192505E-2
2.038436196E0,2.186167240E-2,1.686143875E-2,4.446029663E-2
2.046431833E0,2.496838570E-3,7.426261902E-3,4.683971405E-2
2.054427316E0,1.159167290E-2,-1.400184631E-2,7.081127167E-2
2.062423261E0,3.032124043E-2,-4.287719727E-3,6.843376160E-2
2.070418359E0,5.380439758E-2,-1.625895500E-2,7.089138031E-2
2.078414765E0,7.500112057E-2,-9.176492691E-3,8.054924011E-2
2.086409479E0,8.939611912E-2,2.169656754E-2,8.780765533E-2
2.094436347E0,7.787024975E-2,-4.925727844E-3,6.149959564E-2
2.102431984E0,7.385778427E-2,-1.712965965E-2,7.104110718E-2
2.110428390E0,4.618835449E-2,8.908987045E-3,5.901527405E-2
2.118423489E0,4.487633705E-2,8.718729019E-3,4.695320129E-2
2.126419125E0,7.579207420E-3,-1.772451401E-2,4.445075989E-2
2.134414301E0,1.287209988E-2,-1.050710678E-3,3.243732452E-2
2.142410014E0,8.279204369E-3,3.722190857E-3,4.438495636E-2
2.150435882E0,1.023924351E-2,-2.019262314E-2,2.528381348E-2
2.158431826E0,3.571975231E-2,-2.007746696E-2,7.325172424E-2
2.166427541E0,5.152213573E-2,-3.298521042E-3,7.098388672E-2
2.174423254E0,7.452428341E-2,-2.244734764E-2,5.196094513E-2
2.182418738E0,7.634162903E-2,-3.350257874E-3,2.811813354E-2
2.190414989E0,7.863366604E-2,6.195545197E-3,2.095890045E-2
2.198410473E0,6.231701374E-2,6.189584732E-3,3.526401520E-2
2.206435648E0,3.681933880E-2,6.162405014E-3,2.079010010E-2
2.214431978E0,1.625251770E-2,-1.014471054E-3,5.656433105E-2
2.222427383E0,3.379547596E-2,-1.059150696E-2,4.448318481E-2
2.230422790E0,1.982998848E-2,-2.725028992E-2,4.918479919E-2
2.238418503E0,-6.593465805E-3,-1.509881020E-2,5.632305145E-2
2.246413986E0,2.880346775E-2,-3.001689911E-3,8.508491516E-2
2.254410008E0,5.211567879E-2,-1.962304115E-2,8.034133911E-2
2.262436413E0,6.579494476E-2,-1.717615128E-2,6.366157532E-2
2.270431897E0,6.521046162E-2,-2.667665482E-2,7.090091705E-2
2.278427226E0,6.490468979E-2,-1.462626457E-2,4.937171936E-2
2.286423248E0,5.540287495E-2,-2.577304840E-4,5.414867401E-2
2.294419038E0,7.502925396E-2,2.118873596E-2,7.326793671E-2
2.302413752E0,5.407321453E-2,2.592229843E-2,7.080745697E-2
2.310408927E0,4.294478893E-2,9.078264236E-3,6.832313538E-2
2.318435949E0,2.459001541E-2,-7.704019547E-3,7.779502869E-2
2.326431970E0,1.326322556E-3,-5.376100540E-3,7.772159576E-2
2.334427069E0,1.130318642E-2,-2.967834473E-3,7.287311554E-2
2.342422782E0,2.326452732E-2,-3.015279770E-3,8.485984802E-2
2.350420035E0,3.484189510E-2,-3.060579300E-3,8.014011383E-2
2.358413595E0,3.420007229E-2,-7.984638214E-3,5.633068085E-2
2.366409694E0,4.777038097E-2,-1.780724525E-2,8.285713196E-2
2.374434945E0,7.107210159E-2,1.058006287E-2,5.192947388E-2
2.382432121E0,8.257269859E-2,2.690267563E-2,1.853942871E-3
2.390426604E0,8.967912197E-2,2.171969414E-2,4.384994507E-3
2.398422318E0,6.851828098E-2,-7.303953171E-3,1.878833771E-2
2.406418724E0,4.290246964E-2,-1.464128494E-2,3.549575806E-2
2.414414054E0,1.994347572E-2,-3.620696068E-2,5.691242218E-2
2.422439690E0,2.564179897E-2,-4.330396652E-2,6.633472443E-2
2.430436250E0,2.147686481E-2,-3.125691414E-2,3.270435333E-2
2.438431348E0,3.616034985E-2,-2.630877495E-2,3.739833832E-2
2.446427370E0,5.299842358E-2,-9.254217148E-3,3.011131287E-2
2.454422161E0,3.599774837E-2,-2.326607704E-2,3.960990906E-2
2.462418183E0,4.994678497E-2,-1.309871674E-3,5.151081085E-2
2.470413050E0,4.218018055E-2,-3.216266632E-3,6.340885162E-2
2.478439456E0,6.069231033E-2,-1.721000671E-2,1.184473038E-1
2.486435862E0,7.927727699E-2,-7.335186005E-3,1.375865936E-1
2.494431807E0,7.898116112E-2,1.304149628E-4,1.351442337E-1
2.502426290E0,9.325385094E-2,1.461625099E-2,1.159658432E-1
2.510423312E0,5.964231491E-2,-9.230852127E-3,1.087656021E-1
2.518418025E0,5.005609989E-2,-1.161432266E-2,5.848598480E-2
2.526413816E0,4.537189007E-2,-1.155257225E-2,1.774978638E-2
2.534439684E0,2.168297768E-2,-1.400160789E-2,5.760192871E-3
2.542435398E0,3.644454479E-2,2.776861191E-3,-1.345539093E-2
2.550430111E0,1.294445992E-2,3.138232231E-2,-6.293296814E-3
2.558427133E0,1.093840599E-2,2.882504463E-2,8.069038391E-3
2.566422539E0,3.290891647E-2,2.387690544E-2,3.679084778E-2
2.574418175E0,3.077769279E-2,5.716824532E-2,3.921985626E-2
2.582413659E0,2.370083332E-2,2.822470665E-2,5.124378204E-2
2.590440758E0,5.715322495E-2,2.787351608E-2,3.939247131E-2
2.598435163E0,8.320081234E-2,1.794815063E-2,2.757263184E-2
2.606430877E0,9.004068375E-2,3.202247620E-2,1.574039459E-2
2.614426591E0,9.422791004E-2,1.987695694E-2,1.587963104E-2
2.622421997E0,7.213556767E-2,1.742959023E-2,2.794361115E-2
2.630417096E0,7.639670372E-2,-8.873224258E-3,4.476642609E-2
2.638414117E0,7.829916477E-2,7.710456848E-4,4.481315613E-2
2.646439908E0,6.362700462E-2,-2.308511734E-2,4.243564606E-2
2.654435390E0,5.634307861E-2,-1.342797279E-2,3.763580322E-2
2.662430412E0,7.321107388E-2,-6.092071533E-3,3.996658325E-2
2.670427433E0,7.816016674E-2,-2.502346039E-2,5.663299561E-2
2.678422455E0,6.630146503E-2,-4.153251648E-2,5.653858185E-2
2.686417630E0,6.404066086E-2,-4.352688789E-2,6.357669830E-2
2.694413037E0,3.787028790E-2,-3.594756126E-2,5.624485016E-2
2.702439443E0,3.557813168E-2,-3.066754341E-2,7.762336731E-2
2.710434618E0,1.163995266E-2,-1.594543457E-3,7.751464844E-2
2.718430947E0,2.351427078E-2,3.524065018E-3,1.013660431E-1
2.726426969E0,3.304421902E-2,3.713369370E-3,8.455276489E-2
2.734422067E0,3.067147732E-2,-1.770782471E-2,8.690452576E-2
2.742417705E0,1.660323143E-2,1.552104950E-3,9.401226044E-2
2.750414649E0,2.408874035E-2,8.714675903E-3,8.679389954E-2
2.758439901E0,3.380644321E-2,-1.773500443E-2,6.286716461E-2
2.766435307E0,3.869736195E-2,1.802802086E-2,5.811214447E-2
2.774430714E0,5.554127693E-2,-1.321339607E-2,2.222442627E-2
2.782426196E0,6.046760082E-2,3.506183624E-3,3.418731689E-2
2.790421295E0,8.692264557E-2,2.267789841E-2,4.134845734E-2
2.798417932E0,9.419298172E-2,-8.233785629E-3,4.126930237E-2
2.806413261E0,9.412550926E-2,2.059698105E-2,3.645801544E-2
2.814439205E0,5.329144001E-2,2.295684814E-2,3.648853302E-2
2.822434920E0,4.131543636E-2,1.326251030E-2,2.455425262E-2
2.830431787E0,3.927385807E-2,3.943419456E-2,1.737499237E-2
2.838426040E0,-8.209943771E-4,2.736330032E-2,3.168678284E-2
2.846422291E0,-2.398979664E-2,2.502536774E-2,6.747436523E-2
2.854418083E0,-1.359546185E-2,1.571464539E-2,6.967067719E-2
2.862412873E0,2.043187618E-2,4.073619843E-3,5.513000488E-2
2.870438741E0,4.418551922E-2,-4.350733757E-2,3.830146790E-2
2.878434762E0,7.922637463E-2,-5.521202087E-2,5.749320984E-2
2.886430707E0,8.796501160E-2,-3.585839272E-2,5.994033813E-2
2.894426728E0,1.114886999E-1,4.994153976E-3,5.516242981E-2
2.902421826E0,9.455013275E-2,5.087375641E-3,4.079341888E-2
2.910418464E0,6.812977791E-2,-9.073019028E-3,3.834533691E-2
2.918413023E0,7.782208920E-2,-1.608777046E-2,7.658481598E-2
2.926439507E0,5.175673962E-2,-1.838278770E-2,5.975532532E-2
2.934434297E0,6.177330017E-2,1.046967506E-2,5.007934570E-2
2.942430242E0,3.605389595E-2,2.488017082E-2,5.476665497E-2
2.950425725E0,3.422439098E-2,3.225302696E-2,9.054183960E-2
2.958421747E0,1.069796085E-2,8.509397507E-3,1.023921967E-1
2.966417075E0,2.050983906E-2,-3.443765640E-2,7.597637177E-2
2.974413405E0,4.924607277E-2,-3.191971779E-2,6.875419617E-2
2.982439349E0,6.787610054E-2,-6.300544739E-2,7.360267639E-2
2.990435987E0,1.101278067E-1,-5.090379715E-2,7.128524780E-2
2.998430084E0,1.162971258E-1,-2.200102806E-2,7.616043091E-2
3.006426414E0,1.179120541E-1,-9.949445724E-3,7.145500183E-2
3.014421589E0,7.220649719E-2,-5.156993866E-3,6.190681458E-2
3.022417611E0,4.400002956E-2,-4.067420959E-4,7.860565186E-2
3.030412632E0,1.863241196E-2,1.872062683E-3,5.935382843E-2
3.038438500E0,-1.605296135E-2,-5.465745926E-3,5.204868317E-2
3.046435137E0,-3.159773350E-2,-3.197431564E-3,5.670738220E-2
3.054430313E0,-4.498970509E-2,-5.751371384E-3,5.183410645E-2
3.062426257E0,-3.248918056E-2,-3.463864326E-2,3.505039215E-2
3.070422048E0,-1.111137867E-2,-2.288222313E-2,1.622200012E-3
3.078416838E0,9.563446045E-3,-3.267788887E-2,4.206657410E-3
3.086413168E0,3.438365459E-2,-4.005146027E-2,3.081512451E-2
3.094438958E0,6.610965729E-2,-3.784251213E-2,3.112316132E-2
3.102434134E0,9.287607670E-2,-3.091669083E-2,3.626728058E-2
3.110430078E0,1.200497150E-1,1.425719261E-2,3.419017792E-2
3.118426177E0,1.384980679E-1,4.989528656E-2,2.719402313E-2
3.126421813E0,1.049603224E-1,5.446982384E-2,7.754230499E-2
3.134416682E0,9.351384640E-2,2.786493301E-2,8.234214783E-2
3.142412626E0,1.556217670E-2,1.791071892E-2,9.907245636E-2
3.150439725E0,1.189076900E-2,2.230834961E-2,1.086168289E-1
3.158434284E0,-6.348133087E-3,5.136013031E-3,1.038303375E-1
3.166430306E0,-1.553845406E-2,-1.210474968E-2,9.435176849E-2
3.174425712E0,3.427505493E-3,-1.493287086E-2,8.015060425E-2
3.182421118E0,2.415180206E-2,-1.782822609E-2,5.169296265E-2
3.190416216E0,4.458880424E-2,-2.068185806E-2,4.241657257E-2
3.198412854E0,6.980383396E-2,-3.060150146E-2,4.747009277E-2
3.206439029E0,6.191837788E-2,-1.176667213E-2,5.964088440E-2
3.214434358E0,5.237412453E-2,-2.644157410E-2,6.212806702E-2
3.222430379E0,4.353284836E-2,-1.461410522E-2,8.122348785E-2
3.230427093E0,1.609063148E-2,-1.000285149E-2,8.349514008E-2
3.238421499E0,-1.504778862E-3,-2.990007401E-3,8.572387695E-2
3.246416905E0,-9.722590446E-3,1.576828957E-2,6.890010834E-2
3.254412696E0,-2.313029766E-2,-6.155490875E-3,8.564472198E-2
3.262437948E0,-2.508580685E-2,1.732230186E-2,4.742336273E-2
3.270433970E0,-2.742230892E-2,3.847265244E-2,2.050399780E-3
3.278429914E0,-1.325047016E-2,2.631759644E-2,2.136230469E-3
3.286425628E0,-6.181955338E-3,2.241134644E-5,2.847576141E-2
3.294421342E0,2.741348743E-2,1.680302620E-2,4.042911530E-2
3.302417056E0,4.428946972E-2,1.437163353E-2,1.169395447E-2
3.310443846E0,5.380570889E-2,2.874684334E-2,2.121925354E-3
3.318437714E0,7.051384449E-2,1.938486099E-2,3.079128265E-2
3.326434351E0,7.779371738E-2,4.358839989E-2,6.421566010E-2
3.334430757E0,8.741867542E-2,6.062889099E-2,9.763813019E-2
3.342425471E0,6.608545780E-2,9.432721138E-2,8.797550201E-2
3.350420877E0,6.889200211E-2,9.436845779E-2,9.029769897E-2
3.358416975E0,9.808552265E-2,8.725404739E-2,9.500026703E-2
3.366412920E0,6.739735603E-2,5.612730980E-2,6.381607056E-2
3.374438557E0,6.270515919E-2,-1.328706741E-2,3.506660461E-2
3.382433887E0,4.577422142E-2,-3.723645210E-2,3.509235382E-2
3.390430215E0,5.515873432E-2,-3.497457504E-2,5.431556702E-2
3.398425699E0,5.968666077E-2,-2.822709084E-2,5.688285828E-2
3.406421951E0,8.064734936E-2,-2.397990227E-2,4.755878448E-2
3.414416819E0,8.247125149E-2,-5.296707153E-3,4.778766632E-2
3.422442686E0,1.012809277E-1,-1.513791084E-2,5.989074707E-2
3.430438939E0,1.110552549E-1,1.584482193E-2,7.666683197E-2
3.438433806E0,8.092844486E-2,3.979706764E-2,1.100435257E-1
3.446429828E0,6.084167957E-2,4.935026169E-2,1.122417450E-1
3.454425464E0,5.210757256E-3,-5.626916885E-3,1.023826599E-1
3.462420948E0,-1.218485832E-2,-3.429031372E-2,9.493446350E-2
3.470416969E0,-4.454982281E-2,-7.241845131E-2,7.556438446E-2
3.478442837E0,-3.733873367E-2,-1.081323624E-1,5.634403229E-2
3.484425238E0,-1.442468166E-2,-9.118914604E-2,4.685115814E-2
3.486438474E0,-2.453684807E-3,-8.640074730E-2,2.051448822E-2
3.494433649E0,4.861950874E-2,-5.999135971E-2,1.559257507E-3
3.502429286E0,9.248399734E-2,-1.923346519E-2,-7.809638977E-3
3.510424769E0,1.053637266E-1,-3.353047371E-2,-1.720046997E-2
3.518421021E0,1.376113892E-1,-3.817749023E-2,-7.492065430E-3
3.526416428E0,1.174696684E-1,-4.272246361E-2,5.960750580E-2
3.534442603E0,1.194412708E-1,2.908945084E-3,1.003227234E-1
3.542437471E0,1.410706043E-1,5.488634109E-3,1.265888214E-1
3.550434953E0,1.269816160E-1,2.960348129E-2,1.121311188E-1
3.558429128E0,9.839749336E-2,2.974867821E-2,8.094024658E-2
3.566424535E0,5.752253532E-2,-1.062154770E-3,6.889438629E-2
3.574420941E0,2.576398849E-2,-7.971763611E-3,4.495239258E-2
3.582417193E0,-1.113319397E-2,-3.888440132E-2,-2.201366425E-2
3.590441907E0,1.856327057E-2,-3.166913986E-2,-5.055522919E-2
3.598438159E0,2.895271778E-2,-1.729249954E-2,-3.118419647E-2
3.606433334E0,4.450929165E-2,-1.250195503E-2,-2.143955231E-2
3.614429664E0,7.268464565E-2,6.616115570E-3,4.986763000E-3
3.622424762E0,6.324315071E-2,-1.024889946E-2,1.218318939E-2
3.630421707E0,5.685186386E-2,-1.507210732E-2,5.517959595E-2
3.638416113E0,2.919602394E-2,-5.645275116E-3,5.986499786E-2
3.646442596E0,3.255975246E-2,-2.489876747E-2,8.849143982E-2
3.654438617E0,2.577483654E-2,-4.886364937E-2,9.801959991E-2
3.662433409E0,3.978383541E-2,-3.424334526E-2,1.051702499E-1
3.670429814E0,2.937865257E-2,-4.115462303E-2,1.052007675E-1
3.678424913E0,5.211699009E-2,-2.657818794E-2,9.333229065E-2
3.686420319E0,4.860937595E-2,4.761219025E-3,7.187175751E-2
3.694416648E0,4.777312279E-2,1.194143295E-2,4.325962067E-2
3.702442439E0,3.802275658E-2,5.724573135E-2,3.855419159E-2
3.710438845E0,2.423989773E-2,8.328485489E-2,3.856658936E-2
3.718433636E0,-8.208632469E-3,7.341051102E-2,2.414512634E-2
3.726428735E0,-1.419222355E-2,6.119203568E-2,3.842067719E-2
3.734424986E0,-4.201936722E-2,6.112051010E-2,2.634525299E-2
3.742420393E0,-3.678774834E-2,5.873847008E-2,5.740451813E-2
3.750415260E0,-4.410219193E-2,3.248739243E-2,7.415676117E-2
3.758442359E0,-2.078390121E-2,5.168604851E-2,8.619976044E-2
3.766438303E0,2.148628235E-3,4.210448265E-2,1.031026840E-1
3.774433479E0,3.952133656E-2,2.524018288E-2,1.008720398E-1
3.782429423E0,6.292605400E-2,4.646635056E-2,9.626007080E-2
3.790425214E0,5.099546909E-2,5.327510834E-2,7.482528687E-2
3.798420851E0,5.402147770E-2,5.527663231E-2,7.007312775E-2
3.806416334E0,7.174825668E-2,1.417732239E-2,6.048679352E-2
3.814442201E0,3.216862679E-2,-7.711887360E-3,7.240867615E-2
3.822437916E0,3.303396702E-2,-3.197908401E-3,1.154699326E-1
3.830432706E0,2.638328075E-2,-2.505016327E-2,8.197307587E-2
3.838429651E0,5.014729500E-2,-3.735947609E-2,8.210468292E-2
3.846424980E0,5.201756954E-2,-5.196499825E-2,8.464908600E-2
3.854419771E0,5.373907089E-2,-3.792190552E-2,7.287406921E-2
3.862415869E0,7.735383511E-2,-3.346729279E-2,3.711223602E-2
3.870443199E0,6.795227528E-2,-2.896428108E-2,4.914855957E-2
3.878436835E0,3.751087189E-2,1.126480103E-2,2.286624908E-2
3.886433088E0,2.423834801E-2,8.266210556E-3,2.051162720E-2
3.894428878E0,1.333069801E-2,2.209401131E-2,1.095676422E-2
3.902424284E0,-7.855892181E-5,-9.405136108E-3,1.333618164E-2
3.910421152E0,2.546310425E-4,-1.687216759E-2,3.013896942E-2
3.918415327E0,2.362132072E-3,-9.754180908E-3,3.259277344E-2
3.926442734E0,3.972125053E-2,2.129411697E-2,5.429840088E-2
3.934437524E0,5.044054985E-2,2.013444901E-3,6.169605255E-2
3.942433238E0,8.721458912E-2,-2.196693420E-2,7.868099213E-2
3.950429875E0,1.002262831E-1,-1.001286507E-2,8.366584778E-2
3.958424358E0,1.066722870E-1,-5.142688751E-4,9.097576141E-2
3.966419841E0,1.162079573E-1,-2.226138115E-2,7.668018341E-2
3.974415555E0,1.070815325E-1,-3.334999084E-3,5.514049530E-2
3.982442268E0,8.159542084E-2,-1.068544388E-2,5.986309052E-2
3.990437444E0,5.619120598E-2,-3.747940063E-3,6.459808350E-2
3.998433157E0,4.255259037E-2,-4.029750824E-3,4.543209076E-2
4.006428487E0,1.412880421E-2,-8.951425552E-3,5.261516571E-2
4.014424277E0,2.592587471E-2,-2.586483955E-2,3.353404999E-2
4.022419915E0,3.003621101E-2,-2.835083008E-2,1.689910889E-2
4.030415936E0,3.380215168E-2,-4.524564743E-2,2.187347412E-2
4.038441573E0,4.706573486E-2,-3.092646599E-2,2.443695068E-2
4.046437825E0,6.276059151E-2,-7.132053375E-3,1.505565643E-2
4.054432924E0,5.953681469E-2,-1.201844215E-2,2.956771851E-2
4.062428637E0,7.830345631E-2,9.404897690E-3,2.008533478E-2
4.064442489E0,7.340967655E-2,1.895570755E-2,1.531982422E-2
4.066427494E0,6.383287907E-2,2.134990692E-2,1.771450043E-2
4.068441038E0,5.425608158E-2,2.613830566E-2,4.165649414E-2
4.070423736E0,6.143867970E-2,4.289770126E-2,4.883861542E-2
4.078419142E0,5.213117599E-2,4.292607307E-2,5.118656158E-2
4.086415779E0,3.819036484E-2,5.488491058E-2,5.831432343E-2
4.094442031E0,2.432477474E-2,4.527091980E-2,7.740974426E-2
4.102436438E0,2.481913567E-2,2.841496468E-2,8.934116364E-2
4.110433459E0,3.906726837E-3,3.072714806E-2,9.167289734E-2
4.118428481E0,-7.370710373E-3,2.092027664E-2,1.036195755E-1
4.126423963E0,3.267526627E-4,3.011870384E-2,9.409046173E-2
4.134419985E0,3.181576729E-3,2.726840973E-2,9.417057037E-2
4.142415006E0,-1.100730896E-2,-2.035856247E-3,8.235740662E-2
4.150441567E0,3.436875343E-2,-7.501125336E-3,9.934711456E-2
4.158436972E0,2.690565586E-2,-4.895281792E-2,8.526039124E-2
4.166432994E0,7.431054115E-2,-2.571272850E-2,6.400299072E-2
4.174428400E0,1.096082926E-1,-3.829169273E-2,6.667613983E-2
4.182423807E0,1.160352230E-1,-3.407788277E-2,5.978202820E-2
4.190421059E0,1.321473122E-1,-8.263111115E-3,4.088497162E-2
4.198415541E0,1.387069225E-1,1.027655602E-2,3.637886047E-2
4.206441948E0,1.189560890E-1,2.641749382E-2,4.623603821E-2
4.214437431E0,8.265399933E-2,2.822661400E-2,3.211116791E-2
4.222432760E0,7.771301270E-2,4.426908493E-2,3.631591797E-3
4.230428166E0,5.620777607E-2,4.846096039E-2,-1.055049896E-2
4.238423880E0,3.234875202E-2,2.871704102E-2,-4.389286041E-2
4.246419978E0,4.182624817E-2,3.774380684E-2,-6.764507294E-2
4.254415308E0,5.774497986E-3,2.298641205E-2,-6.989479065E-2
4.262441482E0,-8.905410767E-3,8.392572403E-3,-6.020069122E-2
4.270439120E0,9.658336639E-3,3.559350967E-3,-4.813385010E-2
4.278432372E0,1.351559162E-2,-2.740001678E-2,-1.932430267E-2
4.286428086E0,3.153228760E-2,-2.225518227E-2,4.664421082E-3
4.294423415E0,5.933392048E-2,-1.699995995E-2,4.774188995E-2
4.302419514E0,4.205060005E-2,5.058765411E-3,6.920051575E-2
4.310445304E0,5.158698559E-2,2.716088295E-2,1.001548767E-1
4.318440711E0,4.699146748E-2,1.092314720E-2,1.167211533E-1
4.326437732E0,6.646156311E-2,-1.018261909E-2,1.213245392E-1
4.334432830E0,5.020296574E-2,-5.069494247E-3,1.211500168E-1
4.342427621E0,5.783581734E-2,-1.679944992E-2,1.521348953E-1
4.350424258E0,6.303632259E-2,-7.075071335E-3,1.472415924E-1
4.358419279E0,7.272994518E-2,2.886152267E-2,1.280641556E-1
4.366415609E0,5.581176281E-2,1.285076141E-4,1.185102463E-1
4.374440553E0,7.473516464E-2,8.201599121E-5,1.305284500E-1
4.382437498E0,5.789327621E-2,1.677417755E-2,1.257724762E-1
4.390432596E0,6.041789055E-2,2.133011818E-2,1.042804718E-1
4.398428080E0,2.727615833E-2,2.588415146E-2,1.066961288E-1
4.406423716E0,3.963482380E-2,4.049062729E-3,8.518600464E-2
4.414419738E0,3.519248962E-2,-5.934715271E-3,5.893039703E-2
4.422414836E0,6.856441498E-3,-6.363391876E-3,5.901145935E-2
4.430442550E0,1.668393612E-2,-9.267091751E-3,3.519630432E-2
4.438436725E0,2.633273602E-2,2.120971680E-3,2.100658417E-2
4.446432516E0,3.581070900E-2,3.001785278E-2,-7.444381714E-3
4.454428460E0,4.063344002E-2,3.880429268E-2,-5.508136749E-2
4.462423559E0,5.052006245E-2,5.724620819E-2,-6.208133698E-2
4.470418734E0,4.158031940E-2,3.277230263E-2,-1.651096344E-2
4.478445756E0,3.271162510E-2,6.036520004E-3,2.670288086E-3
4.486441162E0,2.153050900E-2,4.173517227E-2,2.336502075E-4
4.494436645E0,2.214026451E-2,1.548242569E-2,-2.272605896E-3
4.502431974E0,2.487468719E-2,1.089406013E-2,1.677036285E-2
4.510428689E0,5.108618736E-2,-3.151655197E-3,1.189708710E-2
4.518423710E0,6.729686260E-2,-1.954054832E-2,-2.645206451E-2
4.526418884E0,7.361519337E-2,-3.574967384E-2,-1.692867279E-2
4.534445599E0,9.420561790E-2,-5.428242683E-2,2.849769592E-2
4.542441005E0,1.052784920E-1,-4.149627686E-2,3.554725647E-2
4.550436411E0,1.258848906E-1,-4.781794548E-2,9.765338898E-2
4.558432509E0,1.202776432E-1,-2.781891823E-2,1.070766449E-1
4.566427531E0,1.245690584E-1,-1.987147331E-2,1.595764160E-1
4.574423014E0,8.623743057E-2,-2.329587936E-3,1.569366455E-1
4.582419036E0,7.444846630E-2,5.571603775E-3,1.471052170E-1
4.590446133E0,6.006395817E-2,-2.728199959E-2,8.704090118E-2
4.598440925E0,1.651144028E-2,-3.391599655E-2,6.298828125E-2
4.606436330E0,1.347136497E-2,-2.380323410E-2,5.812168121E-2
4.614431737E0,2.509796619E-2,-4.294395447E-3,5.566310883E-2
4.622427681E0,1.793026924E-2,1.751995087E-2,3.642177582E-2
4.630423472E0,1.587986946E-3,5.837178230E-2,5.546951294E-2
4.638418570E0,-2.128720284E-2,5.621623993E-2,8.876228333E-2
4.646445362E0,-2.460122108E-2,2.988982201E-2,1.077060699E-1
4.654440690E0,-1.927733421E-3,1.060199738E-2,1.363201141E-1
4.662436405E0,1.324701309E-2,-1.112198830E-2,1.578092575E-1
4.670432118E0,3.764426708E-2,-9.121179581E-3,1.387176514E-1
4.678427601E0,7.083904743E-2,9.270191193E-3,1.006975174E-1
4.686423546E0,9.168326855E-2,2.288055420E-2,1.154022217E-1
4.694418952E0,8.860373497E-2,1.970982552E-2,8.222675323E-2
4.702444589E0,1.091712713E-1,-1.236176491E-2,8.444786072E-3
4.710439995E0,1.105377674E-1,-6.077528000E-3,-2.703666687E-2
4.718436632E0,9.100639820E-2,1.958847046E-2,1.393032074E-2
4.726432577E0,7.502686977E-2,3.815531731E-2,2.119064331E-2
4.734428059E0,7.159590721E-2,1.853251457E-2,4.509162903E-2
4.742423389E0,2.271187305E-2,-2.966570854E-2,4.978275299E-2
4.750419410E0,-9.657025337E-3,-8.974003792E-2,2.814388275E-2
4.758444740E0,-1.881718636E-3,-9.232425690E-2,8.968353271E-3
4.766440376E0,-1.595389843E-2,-7.337927818E-2,1.856899261E-2
4.774436398E0,1.264131069E-2,-5.680561066E-2,1.146507263E-2
4.782431573E0,5.734884739E-2,-5.715227127E-2,-4.577541351E-2
4.790427287E0,2.016103268E-2,-5.283904076E-2,-8.135795593E-2
4.798422693E0,1.642227173E-2,-7.957744598E-2,-1.001939774E-1
4.806418715E0,1.287484169E-2,-8.242273331E-2,-1.142530441E-1
4.814445736E0,3.106820583E-2,-7.569122314E-2,-1.427040100E-1
4.822439989E0,-9.909868240E-4,-3.052973747E-2,-1.664094925E-1
4.830437241E0,-5.698740482E-2,-4.020404816E-2,-1.590642929E-1
4.838431955E0,-5.556893349E-2,-6.567478180E-3,-1.326284409E-1
4.846427437E0,-6.633329391E-2,-1.431465149E-3,-1.038408279E-1
4.854422844E0,-5.854725838E-2,1.353907585E-2,-1.085691452E-1
4.862418865E0,-3.954792023E-2,-1.191258430E-2,-4.863548279E-2
4.870442503E0,3.148937225E-2,-1.089334488E-2,-1.020050049E-2
4.878440447E0,4.231560230E-2,-1.450991631E-2,1.626586914E-2
4.886436083E0,7.488310337E-2,-6.216049194E-3,3.793716431E-2
4.894431797E0,8.379769325E-2,6.726026535E-3,7.397937775E-2
4.902427511E0,1.099716425E-1,2.428579330E-2,9.084987640E-2
4.910424533E0,1.057602167E-1,2.012014389E-2,7.654762268E-2
4.918418708E0,9.985125065E-2,3.027844429E-2,7.891750336E-2
4.926444807E0,8.727824688E-2,1.164650917E-2,9.799289703E-2
4.934440520E0,3.202056885E-2,1.934790611E-2,1.289787292E-1
4.942436003E0,3.416323662E-2,2.694201469E-2,1.719799042E-1
4.950431024E0,2.630698681E-2,8.182048798E-3,1.791353226E-1
4.958427662E0,4.914712906E-2,2.281951904E-2,1.720237732E-1
4.966423452E0,4.799211025E-2,2.302670479E-2,1.697311401E-1
4.974418243E0,7.828462124E-2,3.995251656E-2,2.392292023E-1
4.982444726E0,7.312953472E-2,-1.758408546E-2,1.794519424E-1
4.990440671E0,5.163204670E-2,-4.667401314E-2,1.460399628E-1
4.998435846E0,6.856119633E-2,-1.833701134E-2,1.844482422E-1
5.006431176E0,7.595372200E-2,4.804563522E-2,2.325096130E-1
5.014426966E0,1.148591042E-1,9.010004997E-2,2.351484299E-1
5.022422680E0,1.352270842E-1,-2.134943008E-2,1.635665894E-1
5.030418009E0,9.067702293E-2,-1.185469627E-1,6.093597412E-2
5.038444262E0,-2.921104431E-3,-4.091978073E-2,1.164741516E-1
5.046440283E0,-6.245136261E-3,8.452534676E-2,2.008676529E-1
5.054435997E0,8.904695511E-2,9.508323669E-2,1.654729843E-1
5.062431095E0,1.254184246E-1,-3.549075127E-2,1.035690308E-1
5.070427348E0,9.960865974E-2,-1.203749180E-1,5.595588684E-2
5.078422215E0,6.406903267E-3,-6.636071205E-2,7.302665710E-2
5.086418852E0,-5.793738365E-2,3.991603851E-2,9.020996094E-2
5.094444412E0,-2.614796162E-2,7.186365128E-2,8.343410492E-2
5.102440049E0,4.581570625E-2,7.297873497E-2,6.945896149E-2
5.110436455E0,8.323037624E-2,8.420991898E-2,9.615993500E-2
5.118431554E0,9.386169910E-2,1.101093292E-1,9.170436859E-2
5.126426959E0,1.193664074E-1,1.410148144E-1,4.879856110E-2
5.134421751E0,1.000883579E-1,1.360034943E-1,3.212833405E-2
5.142418387E0,6.673979759E-2,1.214277744E-1,2.977752686E-2
5.150445717E0,4.063785076E-2,1.113796234E-1,2.989387512E-2
5.158439661E0,7.764339447E-3,6.283760071E-2,1.564693451E-2
5.166436221E0,1.104032993E-2,4.996490479E-2,-9.517669678E-4
5.174432012E0,3.803730011E-2,1.538038254E-2,-1.507091522E-2
5.182426187E0,4.997515678E-2,-1.432323456E-2,-9.964942932E-3
5.190421516E0,7.561743259E-2,-1.755619049E-2,-1.907348633E-5
5.198418229E0,7.713520527E-2,-1.119542122E-2,5.159378052E-3
5.206444713E0,1.267141104E-1,-2.365589142E-3,2.944183350E-2
5.214439427E0,1.359719038E-1,6.588935852E-3,6.320667267E-2
5.222435833E0,1.025763750E-1,4.198360443E-2,8.969211578E-2
5.230432392E0,9.122145176E-2,3.916645050E-2,1.256523132E-1
5.238426568E0,5.398201942E-2,2.931904793E-2,1.423435211E-1
5.246422282E0,2.646422386E-2,-2.355623245E-2,1.350517273E-1
5.254417996E0,1.562440395E-2,-4.575729370E-3,1.421260834E-1
5.262444248E0,4.376173019E-3,-1.908349991E-2,1.253099442E-1
5.270439577E0,2.216696739E-3,-1.673674583E-2,9.416484833E-2
5.278435368E0,9.168624878E-3,-2.158737183E-2,7.506465912E-2
5.286431082E0,6.369936466E-2,-3.615641594E-2,3.450584412E-2
5.294426411E0,5.833470821E-2,-1.496553421E-2,1.794528961E-2
5.302421817E0,9.129297733E-2,-2.245664597E-2,-8.212089539E-3
5.310449608E0,7.913267612E-2,-3.472113609E-2,-5.696296692E-3
5.318444322E0,8.168375492E-2,1.042962074E-2,1.593780518E-2
5.326439497E0,7.968270779E-2,1.484394073E-2,8.819580078E-3
5.334435442E0,6.835055351E-2,2.887296677E-2,3.756523132E-2
5.342430617E0,6.421160698E-2,1.898455620E-2,5.912017822E-2
5.350427254E0,4.817652702E-2,1.874732971E-2,7.585144043E-2
5.358421660E0,2.489745617E-2,2.089309692E-2,9.259605408E-2
5.366449143E0,1.348757744E-2,3.026390076E-2,6.385040283E-2
5.374443857E0,1.628971100E-2,3.003931046E-2,8.301830292E-2
5.382439956E0,3.561520576E-2,2.748394012E-2,7.107353210E-2
5.390435592E0,2.834701538E-2,5.768299103E-3,7.592868805E-2
5.398430076E0,4.256451130E-2,-6.449937820E-3,3.772258759E-2
5.406426789E0,3.746891022E-2,-6.610631943E-3,4.739475250E-2
5.414422196E0,3.719019890E-2,-1.652598381E-2,3.557205200E-2
5.422447755E0,8.246588707E-2,-9.898900986E-3,1.183986664E-2
5.430444085E0,6.596505642E-2,-3.252983093E-3,2.399444580E-3
5.438438798E0,4.505920410E-2,8.183956146E-3,8.487701416E-5
5.446435436E0,2.931594849E-2,2.899169922E-3,1.685810089E-2
5.454430918E0,-2.813339233E-3,-1.889109612E-2,5.264949799E-2
5.462426017E0,-3.821253777E-3,-1.676940918E-2,5.972099304E-2
5.470422884E0,-7.530689240E-3,-1.699948311E-2,6.203460693E-2
5.478447906E0,2.906203270E-2,-2.667903900E-4,5.715751648E-2
5.486443543E0,1.731240749E-2,-2.532005310E-3,4.990100861E-2
5.494439334E0,9.983658791E-3,-1.188135147E-2,2.830219269E-2
5.502434740E0,4.303014278E-2,-4.503417015E-2,4.501056671E-2
5.510429838E0,5.679392815E-2,-2.312898636E-2,4.498100281E-2
5.518426090E0,7.530057430E-2,-5.150604248E-2,6.890296936E-2
5.526421880E0,8.678519726E-2,-2.246952057E-2,9.042167664E-2
5.534447749E0,8.899426460E-2,-2.230334282E-2,1.143369675E-1
5.542443694E0,9.632706642E-2,-3.111839294E-3,1.214866638E-1
5.550440022E0,9.900021553E-2,1.353812218E-2,1.095104218E-1
5.558435120E0,6.116712093E-2,-8.045673370E-3,7.593441010E-2
5.566430527E0,6.647789478E-2,1.348876953E-2,6.389236450E-2
5.574425933E0,2.858555317E-2,-1.511406898E-2,3.506183624E-2
5.582421724E0,2.396988869E-2,-1.250910759E-2,6.238937378E-3
5.590448437E0,1.666033268E-2,2.095222473E-3,6.180763245E-3
5.598443613E0,4.257011414E-2,-2.882456779E-2,2.772426605E-2
5.606439250E0,3.249299526E-2,-1.186990738E-2,3.491497040E-2
5.614434964E0,1.311433315E-2,1.690292358E-2,5.169296265E-2
5.622431293E0,1.781773567E-2,-2.386569977E-3,6.611442566E-2
5.630427392E0,2.290725708E-2,2.125549316E-2,7.095527649E-2
5.638421797E0,3.317260742E-2,1.842689514E-2,6.620883942E-2
5.646447742E0,4.581928253E-2,1.148223877E-3,6.388473511E-2
5.654443686E0,6.114566326E-2,2.218127251E-2,5.194282532E-2
5.662439401E0,2.849340439E-2,-6.984472275E-3,4.238224030E-2
5.670433576E0,3.620803356E-2,-1.209068298E-2,5.437850952E-2
5.678429905E0,4.851818085E-2,-9.857177734E-3,5.438232422E-2
5.686426542E0,4.615271091E-2,-2.189016342E-2,5.918598175E-2
5.694421410E0,6.499540806E-2,-1.708793640E-2,5.683231354E-2
5.702447815E0,5.501210690E-2,-2.664279938E-2,4.012393951E-2
5.710444222E0,6.426072121E-2,6.922483444E-3,4.494380951E-2
5.718439012E0,4.507744312E-2,2.082347870E-3,3.538799286E-2
5.726434727E0,5.478024483E-2,-1.477050781E-2,3.300666809E-2
5.734430055E0,5.028772354E-2,4.226922989E-3,3.061962128E-2
5.742425847E0,3.889858723E-2,-7.529258728E-4,3.538608551E-2
5.750421252E0,4.672694206E-2,3.267884254E-2,4.250526428E-2
5.758447967E0,2.816009521E-2,2.539920807E-2,5.442333221E-2
5.766443141E0,1.406812668E-2,3.495812416E-2,4.720783234E-2
5.774439087E0,3.074324131E-2,2.762055397E-2,5.684661865E-2
5.782434800E0,3.772187233E-2,6.124496460E-3,5.446434021E-2
5.790430591E0,4.684269428E-2,1.568770409E-2,6.411075592E-2
5.798425689E0,5.116701126E-2,1.101255417E-2,4.977607727E-2
5.806421403E0,1.951956749E-2,3.841400146E-3,5.224132538E-2
5.814447271E0,4.303944111E-2,6.166458130E-3,7.387256622E-2
5.822443216E0,6.919813156E-2,-3.225708008E-2,5.717468262E-2
5.830438621E0,7.637751102E-2,-3.232288361E-2,6.677341461E-2
5.838434951E0,9.077227116E-2,-2.527260780E-2,6.441688538E-2
5.846430049E0,8.609390259E-2,3.276586533E-3,7.643127441E-2
5.854425762E0,7.445359230E-2,5.435466766E-3,6.927776337E-2
5.862420861E0,4.390454292E-2,2.890348434E-3,1.003684998E-1
5.870448652E0,4.676711559E-2,9.777784348E-3,7.884979248E-2
5.878443443E0,3.042817116E-2,3.812003136E-2,5.257797241E-2
5.886439079E0,1.889681816E-2,1.868104935E-2,5.500030518E-2
5.894434563E0,1.679658890E-2,1.355218887E-2,2.873325348E-2
5.902430507E0,3.132295609E-2,1.089787483E-2,3.837013245E-2
5.910424990E0,3.607439995E-2,1.311731339E-2,3.843212128E-2
5.918421319E0,1.683163643E-2,9.307861328E-4,4.330253601E-2
5.926447495E0,5.974769592E-2,-6.399869919E-3,3.858757019E-2
5.934442977E0,6.434679031E-2,6.163120270E-4,4.106235504E-2
5.942438307E0,4.513823986E-2,7.578611374E-3,3.635311127E-2
5.950435867E0,5.708324909E-2,2.649903297E-2,3.643131256E-2
5.958430119E0,5.004382133E-2,2.869677544E-2,5.802249908E-2
5.966425448E0,5.508470535E-2,3.560423851E-2,5.568027496E-2
5.974420932E0,6.015956402E-2,2.583193779E-2,3.176116943E-2
5.982448030E0,4.370903969E-2,2.802562714E-2,6.290721893E-2
5.990442821E0,4.881739616E-2,2.551460266E-2,4.135036469E-2
5.998437919E0,2.282738686E-2,1.347112656E-2,3.893089294E-2
6.002436007E0,4.480266571E-2,3.893136978E-3,3.886985779E-2
6.004451473E0,4.001426697E-2,8.681535721E-3,4.365825653E-2
6.006433941E0,4.480266571E-2,1.586413383E-2,4.844665527E-2
6.014429347E0,5.211770535E-2,-3.364801407E-3,4.845237732E-2
6.022425369E0,3.297066689E-2,-1.063251495E-2,6.044960022E-2
6.030421313E0,5.676174164E-2,-2.509903908E-2,4.853343964E-2
6.038447181E0,5.414831638E-2,-2.773714066E-2,5.103683472E-2
6.046442663E0,6.597185135E-2,-4.462003708E-2,5.349254608E-2
6.054438608E0,7.076060772E-2,-2.785181999E-2,6.785488129E-2
6.062434322E0,7.564616203E-2,-1.591062546E-2,6.066799164E-2
6.070429421E0,4.240584373E-2,-1.352667809E-2,6.302642822E-2
6.078425749E0,5.253267288E-2,8.633136749E-4,6.772804260E-2
6.086421464E0,3.391981125E-2,-1.558780670E-3,7.723617554E-2
6.094447331E0,1.287496090E-2,-6.360292435E-3,4.604434967E-2
6.102442814E0,1.815903187E-2,1.278638840E-2,5.315876007E-2
6.110439143E0,3.041911125E-2,8.068084717E-4,5.312061310E-2
6.118434473E0,2.804040909E-2,-1.613378525E-3,5.073165894E-2
6.126429648E0,5.411386490E-2,-1.361012459E-2,5.317211151E-2
6.134425362E0,4.172050953E-2,-1.358842850E-2,6.998538971E-2
6.142420998E0,7.003009319E-2,-1.113486290E-2,5.087184906E-2
6.150446251E0,6.001329422E-2,-4.025697708E-3,4.856491089E-2
6.158442657E0,8.600020409E-2,3.085613251E-3,3.187751770E-2
6.166438602E0,7.632040977E-2,1.499009132E-2,3.430843353E-2
6.174434085E0,7.163107395E-2,3.003835678E-3,3.429889679E-2
6.182430107E0,6.713604927E-2,5.332231522E-3,4.624843597E-2
6.190425743E0,3.885233402E-2,1.242256165E-2,4.621505737E-2
6.198420918E0,2.734243870E-2,-2.007961273E-3,6.293010712E-2
6.206446709E0,2.770054340E-2,-4.501342773E-3,4.375743866E-2
6.214442192E0,1.595568657E-2,7.340908051E-3,6.770896912E-2
6.222437829E0,2.075517178E-2,6.127357483E-5,6.534385681E-2
6.230433235E0,2.769374847E-2,-9.588241577E-3,7.258510590E-2
6.238429026E0,5.831277370E-2,-7.266998291E-3,7.028770447E-2
6.246425047E0,7.691693306E-2,-9.725809097E-3,6.320285797E-2
6.254420454E0,7.400190830E-2,-7.457733154E-3,3.458690643E-2
6.262446628E0,6.679427624E-2,-2.907347679E-2,4.179573059E-2
6.270443881E0,7.406628132E-2,6.746292114E-3,2.026557922E-2
6.278438056E0,6.246662140E-2,-5.288600922E-3,2.502155304E-2
6.286433770E0,3.897821903E-2,-6.909370422E-4,4.417133331E-2
6.294429484E0,4.427397251E-2,-5.692720413E-3,5.613899231E-2
6.302425198E0,3.518879414E-2,1.247406006E-3,5.854225159E-2
6.310451604E0,2.118515968E-2,5.884885788E-3,8.487701416E-2
6.318447318E0,4.288780689E-2,1.294612885E-2,8.728694916E-2
6.326441878E0,3.564321995E-2,2.242684364E-2,7.775115967E-2
6.334438515E0,4.479193687E-2,1.275587082E-2,6.587028503E-2
6.342432613E0,5.621755123E-2,-6.532430649E-3,6.838607788E-2
6.350429943E0,5.782663822E-2,-1.855063438E-2,6.611824036E-2
6.358425041E0,5.949258804E-2,-2.834200859E-2,6.629085541E-2
6.366420678E0,7.337212563E-2,1.204872131E-2,1.618289948E-2
6.374446930E0,8.757686615E-2,9.317874908E-3,-2.839088440E-3
6.382441721E0,7.086622715E-2,6.564617157E-3,-1.470088959E-2
6.390437050E0,4.246234894E-2,1.546621323E-3,4.480361938E-3
6.398433379E0,4.309797287E-2,-1.299715042E-2,4.993724823E-2
6.406429400E0,4.616284370E-2,-2.022576332E-2,6.182765961E-2
6.414424499E0,3.715109825E-2,-3.216123581E-2,5.455303192E-2
6.422451367E0,2.312135696E-2,-8.084297180E-3,5.925083160E-2
6.430446773E0,-3.159284592E-3,-1.283192635E-2,4.486465454E-2
6.438442102E0,4.208397865E-2,1.611709595E-3,1.374912262E-2
6.446437893E0,5.099546909E-2,-7.652044296E-3,2.810764313E-2
6.454433299E0,7.883310318E-2,4.485607147E-3,3.536319733E-2
6.462428705E0,7.560360432E-2,-2.455711365E-5,6.412315369E-2
6.470423803E0,7.033169270E-2,-4.675626755E-3,7.851314545E-2
6.478451133E0,6.314265728E-2,2.406859398E-2,1.239995956E-1
6.486446308E0,7.299435139E-2,2.394986153E-2,1.263933182E-1
6.494441715E0,6.862425804E-2,2.130985260E-2,1.072587967E-1
6.502434274E0,7.636237144E-2,2.826619148E-2,7.852268219E-2
6.510434604E0,4.571223259E-2,6.704092026E-3,5.691146851E-2
6.518428856E0,2.680337429E-2,4.317283630E-3,2.814388275E-2
6.526424492E0,1.945090294E-2,-9.761810303E-3,1.849842072E-2
6.534450668E0,2.622091770E-2,-2.391362190E-2,4.123687744E-3
6.542446150E0,3.533172607E-2,-3.331589699E-2,4.133224487E-3
6.550441865E0,5.649113655E-2,-6.923675537E-3,1.135349274E-2
6.558437886E0,3.489494324E-2,-2.230882645E-3,5.688095093E-2
6.566432985E0,2.329158783E-2,2.873039246E-2,6.645774841E-2
6.574429313E0,3.369069099E-2,2.596783638E-2,7.124900818E-2
6.582424412E0,3.229653835E-2,1.841783524E-2,8.798408508E-2
6.590451433E0,4.281592369E-2,3.245306015E-2,8.556365967E-2
6.598445994E0,4.112756252E-2,1.302933693E-2,9.033870697E-2
6.606442323E0,3.663134575E-2,3.288269043E-3,7.359027863E-2
6.614437114E0,5.803978443E-2,3.264188766E-3,6.882953644E-2
6.622432442E0,6.478345394E-2,-1.578354836E-2,6.406974792E-2
6.630428541E0,5.698645115E-2,-1.094198227E-2,5.456256866E-2
6.638424793E0,7.313764095E-2,-1.808357239E-2,3.548240662E-2
6.646450046E0,7.505691051E-2,-1.803827286E-2,1.877593994E-2
6.654446375E0,7.499396801E-2,-2.036499977E-2,1.397418976E-2
6.662441781E0,6.086421013E-2,-2.035093307E-2,1.633071899E-2
6.670438187E0,6.845927238E-2,1.218795776E-3,2.584171295E-2
6.678432978E0,4.502952099E-2,-2.019238472E-2,3.290653229E-2
6.686429307E0,3.581833839E-2,-2.949547768E-2,3.037261963E-2
6.694424637E0,9.722113609E-3,-4.601478577E-4,3.263378143E-2
6.702449965E0,7.362127304E-3,1.180577278E-2,5.887031555E-2
6.710445372E0,1.427781582E-2,-4.580974579E-3,5.878734589E-2
6.718441701E0,3.522455692E-2,-6.653070450E-3,7.313442230E-2
6.726437415E0,3.940236568E-2,-1.829457283E-2,9.226894379E-2
6.734432436E0,6.281113625E-2,-2.043485641E-2,8.029174805E-2
6.742428766E0,6.235992908E-2,-1.781439781E-2,8.746528625E-2
6.750424864E0,6.203508377E-2,-2.961254120E-2,7.548427582E-2
6.758450424E0,7.856774330E-2,-1.512956619E-2,7.069110870E-2
6.766446061E0,5.936777592E-2,-1.980400085E-2,7.066059113E-2
6.774441544E0,5.217266083E-2,1.379561424E-2,7.303047180E-2
6.782436873E0,6.646716595E-2,1.612925529E-2,5.869388580E-2
6.790432664E0,6.864690781E-2,1.754999161E-3,5.633258820E-2
6.798428070E0,7.082271576E-2,4.250049591E-3,5.393886566E-2
6.806423476E0,5.145788193E-2,-5.171298981E-4,6.593227386E-2
6.814449882E0,3.696823120E-2,-3.005743027E-3,5.640316010E-2
6.822446212E0,1.077067852E-2,-6.887912750E-4,5.401420593E-2
6.830442925E0,2.060735226E-2,2.546691895E-2,4.206371307E-2
6.838438024E0,9.005427361E-3,2.285408974E-2,2.532291412E-2
6.846432737E0,3.332209587E-2,2.266836166E-2,3.011894226E-2
6.854427912E0,4.535377026E-2,2.731847763E-2,3.015518188E-2
6.862423857E0,4.764556885E-2,8.471012115E-4,5.415439606E-2
6.870449802E0,4.489946365E-2,1.277971268E-2,4.703426361E-2
6.878445439E0,6.110191345E-2,3.178358078E-3,6.627464294E-2
6.886441460E0,6.534850597E-2,1.507616043E-2,7.834720612E-2
6.894437251E0,7.922136784E-2,-1.378011703E-2,6.409263611E-2
6.902432657E0,7.422506809E-2,4.839897156E-4,7.373237610E-2
6.910429833E0,5.301654339E-2,9.799480438E-3,4.503822327E-2
6.918423469E0,7.997739315E-2,9.507417679E-3,2.349472046E-2
6.926449953E0,4.511165619E-2,2.118158340E-2,1.865386963E-2
6.934445666E0,4.849255085E-2,-7.679224014E-3,4.728603363E-2
6.942441380E0,2.534461021E-2,-1.025319099E-2,5.441379547E-2
6.950436401E0,-2.950310707E-3,-2.230834961E-2,4.959011078E-2
6.958432808E0,1.874363422E-2,6.387233734E-3,5.197429657E-2
6.966428213E0,2.798557281E-2,-1.991152763E-2,7.834720612E-2
6.974424466E0,3.455162048E-2,6.489276886E-3,6.883716583E-2
6.982450410E0,4.573631287E-2,-1.493930817E-2,6.172752380E-2
6.990446971E0,5.695700645E-2,-2.899885178E-3,7.139015198E-2
6.998441761E0,9.940075874E-2,-1.229453087E-2,5.945205688E-2
7.006436860E0,7.992517948E-2,2.118611336E-2,6.429862976E-2
7.014432650E0,7.285869122E-2,6.820201874E-3,5.709934235E-2
7.022427980E0,5.654644966E-2,-2.827405930E-3,3.790473938E-2
7.030424616E0,3.094565868E-2,6.639242172E-3,4.262447357E-2
7.038449869E0,4.133009911E-2,-5.438804626E-3,6.169795990E-2
7.046445659E0,3.715765476E-2,6.485462189E-3,5.444240570E-2
7.054441605E0,1.113545895E-2,-7.880926132E-3,5.200386047E-2
7.062437010E0,3.494977951E-2,1.716375351E-3,6.398677826E-2
7.070433032E0,2.965033054E-2,8.998394012E-3,7.121086121E-2
7.078428130E0,6.242096424E-2,1.632905006E-2,5.690288544E-2
7.086423844E0,6.407046318E-2,6.881475449E-3,5.217838287E-2
7.094449481E0,5.622732639E-2,1.418685913E-2,6.181049347E-2
7.102445734E0,7.486987114E-2,-7.231950760E-3,3.550529480E-2
7.110440832E0,7.689261436E-2,9.059906006E-5,5.706024170E-2
7.118436546E0,6.464791298E-2,-1.656246185E-2,3.551769257E-2
7.126431952E0,5.734145641E-2,4.942417145E-3,3.554916382E-2
7.134427358E0,6.204223633E-2,2.578973770E-3,4.273414612E-2
7.142423764E0,4.053759575E-2,-7.082700729E-3,6.190872192E-2
7.150450478E0,5.973374844E-2,-7.111549377E-3,6.909561157E-2
7.158445653E0,5.736684799E-2,-6.794929504E-5,4.998207092E-2
7.166441290E0,6.476938725E-2,-1.757144928E-4,5.716800690E-2
7.174436388E0,3.639996052E-2,2.604937553E-2,5.954742432E-2
7.182432486E0,4.631853104E-2,-2.701997757E-3,4.274559021E-2
7.190427508E0,2.499127388E-2,6.833076477E-3,5.469894409E-2
7.198423529E0,2.515041828E-2,-7.571458817E-3,5.229473114E-2
7.206449705E0,3.956627846E-2,-1.712632179E-2,4.270362854E-2
7.214444803E0,5.607032776E-2,-1.471424103E-2,3.794574738E-2
7.222440594E0,4.132139683E-2,-1.708412170E-2,3.799247742E-2
7.230437846E0,6.004428864E-2,-7.569313049E-3,5.483436584E-2
7.238431714E0,8.116185665E-2,-2.848386765E-3,5.731105804E-2
7.246427658E0,6.671416759E-2,9.003400803E-3,6.933212280E-2
7.254423065E0,7.414650917E-2,2.558088303E-2,6.696033478E-2
7.262448932E0,5.305206776E-2,3.985166550E-3,6.451797485E-2
7.270445262E0,2.958679199E-2,1.102375984E-2,6.449699402E-2
7.278440437E0,3.006720543E-2,6.084203720E-3,7.644939423E-2
7.286436459E0,2.078366280E-2,1.320338249E-2,8.121490479E-2
7.294432172E0,3.274750710E-2,-6.082773209E-3,6.928825378E-2
7.302428194E0,1.576399803E-2,-1.340746880E-2,4.781818390E-2
7.310454600E0,2.972042561E-2,-3.035926819E-2,5.033302307E-2
7.318448776E0,6.037795544E-2,-2.099537849E-2,4.328536987E-2
7.326444566E0,6.721556187E-2,1.694035530E-2,5.147933960E-3
7.334440511E0,7.680785656E-2,1.428675652E-2,4.405975342E-4
7.342436532E0,6.748723984E-2,1.867866516E-2,1.010894775E-2
7.350431939E0,5.362451077E-2,8.981227875E-3,4.359531403E-2
7.358427652E0,3.280019760E-2,1.836299896E-3,6.502819061E-2
7.366423136E0,3.345334530E-2,-1.252889633E-2,6.254005432E-2
7.374449541E0,2.661585808E-2,6.568908691E-3,5.293273926E-2
7.382444948E0,2.187871933E-2,-1.242351532E-2,4.329586029E-2
7.390441277E0,2.384221554E-2,-2.624750137E-3,4.328632355E-2
7.398436683E0,3.995144367E-2,-1.444053650E-2,2.178096771E-2
7.406432704E0,4.884588718E-2,-1.418685913E-2,2.479553223E-4
7.414427495E0,6.716942787E-2,-3.539276123E-2,2.898693085E-2
7.422453440E0,8.800184727E-2,8.053779602E-4,7.927417755E-2
7.430448846E0,9.241676331E-2,-1.335930824E-2,1.008119583E-1
7.438444790E0,7.568979263E-2,2.742481232E-2,1.271162033E-1
7.446439889E0,7.130634785E-2,2.505087852E-2,1.246576309E-1
7.454436295E0,4.540169239E-2,3.710603714E-2,1.102037430E-1
7.462431701E0,3.134202957E-2,1.812744141E-2,6.700706482E-2
7.470428030E0,2.892196178E-2,1.109910011E-2,5.499076843E-2
7.478452591E0,3.815412521E-2,-3.079414368E-3,4.061412811E-2
7.486449535E0,2.558672428E-2,4.156112671E-3,1.195144653E-2
7.494444326E0,3.695583344E-2,-5.295991898E-3,-7.156372070E-3
7.502440424E0,3.656733036E-2,-7.516145706E-3,4.814147949E-3
7.510435830E0,4.112255573E-2,-9.799003601E-3,3.114700317E-2
7.518431544E0,4.828965664E-2,-7.336378098E-3,6.225109100E-2
7.526428103E0,4.376506805E-2,4.279732704E-2,6.704902649E-2
7.534452818E0,6.340563297E-2,3.063702583E-2,8.380031586E-2
7.542449070E0,4.959344864E-2,1.844692230E-2,6.463909149E-2
7.550445399E0,6.183385849E-2,3.275060654E-2,5.504322052E-2
7.558440497E0,5.699098110E-2,1.842808723E-2,5.743122101E-2
7.566435904E0,5.410802364E-2,-2.687931061E-2,5.744171143E-2
7.574431386E0,4.866313934E-2,-2.661895752E-2,6.223964691E-2
7.582427639E0,5.258429050E-2,-3.112316132E-2,6.945419312E-2
7.590452891E0,6.110811234E-2,-4.275250435E-2,8.864879608E-2
7.598449221E0,6.730675697E-2,-3.053855896E-2,8.631706238E-2
7.606444088E0,4.759979248E-2,2.992630005E-3,5.766105652E-2
7.614440110E0,7.850825787E-2,-8.942127228E-3,5.528736115E-2
7.622435515E0,8.838427067E-2,1.018929482E-2,4.327964783E-2
7.630431538E0,5.797362328E-2,4.117441177E-2,4.561805725E-2
7.638426866E0,4.928326607E-2,2.188277245E-2,2.877521515E-2
7.646453042E0,2.147769928E-2,3.135013580E-2,1.910114288E-2
7.654449371E0,2.709436417E-2,2.405834198E-2,4.296112061E-2
7.662443931E0,1.557374001E-2,4.849195480E-3,2.854919434E-2
7.670439875E0,2.283871174E-2,-1.430559158E-2,4.290294647E-2
7.678435897E0,2.978253365E-2,-2.140498161E-2,5.488109589E-2
7.686431688E0,5.095827579E-2,4.964590073E-3,6.210613251E-2
7.694426710E0,5.997979641E-2,-1.410222054E-2,4.539775848E-2
7.702452885E0,7.615339756E-2,-9.273529053E-3,5.265140533E-2
7.710449907E0,7.570040226E-2,-1.394915581E-2,5.746841431E-2
7.718444389E0,8.729851246E-2,-1.853895187E-2,8.858203888E-2
7.726439719E0,7.972157001E-2,-8.834123611E-3,7.183837891E-2
7.734435432E0,1.009933949E-1,-1.094293594E-2,6.460285187E-2
7.742431454E0,1.031907797E-1,-5.933523178E-3,8.131885529E-2
7.750426552E0,7.207572460E-2,-8.156538010E-3,6.689548492E-2
7.758453651E0,6.028115749E-2,-2.732300758E-2,7.166481018E-2
7.766448211E0,5.118536949E-2,-1.544213295E-2,6.204700470E-2
7.774444540E0,2.317810059E-2,3.547668457E-3,5.002593994E-2
7.782439254E0,2.622604370E-3,-1.560926437E-3,4.998779297E-2
7.790436583E0,-1.316952705E-2,2.937078476E-3,3.797149658E-2
7.798431066E0,1.950383186E-3,-6.960630417E-3,3.557395935E-2
7.806426703E0,9.648442268E-3,-2.386569977E-3,4.753971100E-2
7.814452647E0,3.127694130E-2,-1.445698738E-2,4.756069183E-2
7.822448362E0,2.145302296E-2,-9.803295135E-3,5.482196808E-2
7.830443998E0,5.223441124E-2,1.883959770E-2,6.208229065E-2
7.838440635E0,6.374144554E-2,4.502201080E-2,4.304409027E-2
7.846435426E0,8.018171787E-2,2.573204041E-2,5.749893188E-2
7.854431139E0,7.283127308E-2,1.362252235E-2,5.996227264E-2
7.862426623E0,6.573295593E-2,-5.643129349E-3,4.322719574E-2
7.870453028E0,7.317686081E-2,2.056455612E-2,4.801940918E-2
7.878448743E0,4.722571373E-2,8.505105972E-3,5.996417999E-2
7.886444764E0,5.469751358E-2,-2.264165878E-2,5.274772644E-2
7.894439939E0,4.542326927E-2,-2.027583122E-2,3.834819794E-2
7.902435268E0,2.646136284E-2,-1.791262627E-2,5.269622803E-2
7.910430059E0,4.337811470E-2,-2.995014191E-2,4.790687561E-2
7.918426388E0,2.665829659E-2,-1.802325249E-2,5.749225616E-2
7.926453256E0,3.377044201E-2,1.054596901E-2,6.952571869E-2
7.934448893E0,5.760478973E-2,5.660772324E-3,5.999565125E-2
7.942444299E0,5.257439613E-2,-1.357245445E-2,6.005573273E-2
7.950440320E0,4.535627365E-2,1.994419098E-2,5.048561096E-2
7.958435419E0,6.928730011E-2,5.576848984E-3,4.569911957E-2
7.966430517E0,4.768860340E-2,-8.666276932E-3,4.087829590E-2
7.974426308E0,4.291319847E-2,8.800029755E-4,5.525112152E-2
7.982452483E0,5.479013920E-2,-3.805637360E-3,3.847122192E-2
7.990448736E0,4.288375378E-2,5.818605423E-3,3.605365753E-2
7.998443603E0,2.858686447E-2,1.067042351E-2,5.278205872E-2
8.006440241E0,4.779756069E-2,5.855798721E-3,4.559993744E-2
8.014435262E0,4.775571823E-2,-3.817558289E-3,5.282020569E-2
8.022430745E0,5.478739738E-2,8.164882660E-3,5.523204803E-2
8.030427305E0,4.506564140E-2,1.022338867E-3,6.721019745E-2
8.038452865E0,6.883120537E-2,-1.334476471E-2,7.681369781E-2
8.046448271E0,7.101464272E-2,-8.592605591E-3,8.643245697E-2
8.054443370E0,5.892896652E-2,-1.097416878E-2,7.686710358E-2
8.062439160E0,4.941439629E-2,9.102821350E-4,7.688713074E-2
8.070434490E0,4.735088348E-2,8.246898651E-4,6.250095367E-2
8.078430588E0,4.535627365E-2,1.502537727E-2,6.010341644E-2
8.086426302E0,5.311632156E-2,1.959848404E-2,5.051422119E-2
8.094452477E0,1.553750038E-2,2.176642418E-2,5.048370361E-2
8.102447576E0,2.092194557E-2,1.909971237E-2,3.851509094E-2
8.110444751E0,2.360928059E-2,1.179122925E-2,4.569721222E-2
8.118439234E0,2.596378326E-2,-5.084276199E-3,5.292320251E-2
8.126435255E0,3.043425083E-2,-3.921985626E-4,3.624057770E-2
8.134430739E0,4.437339306E-2,4.362344742E-3,2.673530579E-2
8.142456606E0,5.110383034E-2,-1.719760895E-2,5.313873291E-2
8.150451628E0,5.791532993E-2,-1.728153229E-2,5.561447144E-2
8.158447726E0,7.435333729E-2,-1.020169258E-2,5.090522766E-2
8.166444056E0,7.430756092E-2,8.909225464E-3,5.571269989E-2
8.174439461E0,7.202982903E-2,-1.259207726E-2,5.807495117E-2
8.182434867E0,6.263148785E-2,-1.269316673E-2,5.329418182E-2
8.190431120E0,6.531274319E-2,3.945589066E-3,5.089855194E-2
8.198425987E0,5.123972893E-2,1.341629028E-2,4.131507874E-2
8.206452470E0,5.136573315E-2,2.287530899E-2,5.809307098E-2
8.214447799E0,4.191207886E-2,2.035331726E-2,3.417491913E-2
8.222442975E0,4.460954666E-2,1.784539223E-2,4.135227203E-2
8.230439535E0,4.486453533E-2,5.698680878E-3,3.418922424E-2
8.238434095E0,3.795635700E-2,-2.068448067E-2,6.768417358E-2
8.246431039E0,4.047596455E-2,-8.749246597E-3,6.528377533E-2
8.254426138E0,3.095471859E-2,-1.119732857E-2,6.529331207E-2
8.262452313E0,4.272770882E-2,-1.827836037E-2,8.683776855E-2
8.270448950E0,4.458868504E-2,-1.106381416E-2,8.211421967E-2
8.278443741E0,7.267844677E-2,-1.348209381E-2,8.939552307E-2
8.286439686E0,6.480383873E-2,3.216981888E-3,5.120658875E-2
8.294434784E0,4.028820992E-2,2.974510193E-3,4.657840729E-2
8.302430267E0,6.631124020E-2,1.479196548E-2,2.512550354E-2
8.310456365E0,5.442023277E-2,4.089951515E-2,-1.148223877E-3
8.318452079E0,5.730795860E-2,4.873037338E-3,2.515411377E-2
8.326448177E0,4.370892048E-2,-4.148483276E-5,4.902744293E-2
8.334443199E0,2.045500278E-2,-4.078435898E-2,5.373096466E-2
8.342439220E0,1.863467693E-2,-2.169561386E-2,5.845832825E-2
8.350435012E0,3.572273254E-2,-1.209402084E-2,2.967357635E-2
8.358430417E0,2.116465569E-2,-4.839897156E-3,2.967739105E-2
8.366426747E0,3.735196590E-2,-2.278804779E-3,1.534080505E-2
8.374452230E0,4.130995274E-2,-9.177684784E-3,8.184432983E-3
8.382448252E0,7.857167721E-2,-1.610040665E-3,3.215122223E-2
8.390442734E0,6.801927090E-2,-2.277827263E-2,7.286930084E-2
8.398438756E0,7.931196690E-2,-8.061408997E-3,9.679412842E-2
8.406434777E0,1.053992510E-1,2.314925194E-2,1.087722778E-1
8.414430184E0,8.174681664E-2,6.413698196E-3,1.111183167E-1
8.422456359E0,6.813955307E-2,2.310228348E-2,1.158218384E-1
8.430452458E0,6.183409691E-2,2.792215347E-2,7.737922668E-2
8.438447786E0,1.487028599E-2,-1.510548592E-2,4.370594025E-2
8.446443501E0,1.082301140E-3,-3.407335281E-2,1.962184906E-2
8.454438906E0,1.792836189E-2,-4.336762428E-2,2.191257477E-2
8.462434928E0,-6.345868111E-3,-2.156591415E-2,3.290176392E-4
8.470429103E0,2.157473564E-2,-6.998777390E-3,2.432155609E-2
8.478455894E0,2.548897266E-2,5.214691162E-3,5.309772491E-2
8.486451915E0,3.427815437E-2,3.172183037E-2,6.991577148E-2
8.494447937E0,6.493425369E-2,3.420376778E-2,9.389686584E-2
8.502442805E0,7.668244839E-2,3.641748428E-2,8.440876007E-2
8.510439672E0,8.169448376E-2,2.661848068E-2,6.050777435E-2
8.518433848E0,7.495927811E-2,9.549379349E-3,6.054306030E-2
8.526430176E0,7.558035851E-2,9.294748306E-3,5.814266205E-2
8.534456122E0,6.168222427E-2,-1.488399506E-2,3.421020508E-2
8.542452066E0,6.914460659E-2,-4.371404648E-2,7.011604309E-2
8.550447165E0,5.725085735E-2,-7.829189301E-3,4.377746582E-2
8.558442878E0,4.040765762E-2,-1.019501686E-2,5.096340179E-2
8.566438592E0,4.503667355E-2,4.182815552E-3,3.661727905E-2
8.574434613E0,6.383812428E-2,-2.887487411E-3,3.184223175E-2
8.582430020E0,5.160546303E-2,-5.231857300E-3,2.946853638E-2
8.590455964E0,4.197907448E-2,-1.249361038E-2,2.231979370E-2
8.598451909E0,3.249418736E-2,-2.206707001E-2,2.469921112E-2
8.606448315E0,3.036880493E-2,-2.903938293E-3,3.662872314E-2
8.614442798E0,1.625108719E-2,-2.898931503E-3,5.335044861E-2
8.622438204E0,4.049956799E-2,-1.252698898E-2,5.571842194E-2
8.630433611E0,3.605663776E-2,3.045749664E-2,5.091667175E-2
8.638429555E0,3.159987926E-2,1.835870743E-2,7.964134216E-2
8.646456730E0,3.196501732E-2,8.743047714E-3,7.241916656E-2
8.654451444E0,5.629992485E-2,1.590204239E-2,6.997680664E-2
8.662447235E0,3.032422066E-2,-8.573532104E-4,7.471370697E-2
8.670443487E0,4.967963696E-2,-7.958412170E-3,5.789852142E-2
8.678438586E0,4.246401787E-2,-1.261925697E-2,2.673816681E-2
8.686434068E0,4.212701321E-2,-2.908825874E-2,5.063438416E-2
8.694429783E0,4.635632038E-2,-2.410173416E-2,5.783176422E-2
8.702455881E0,6.967186928E-2,-3.343820572E-2,4.826641083E-2
8.710451672E0,8.101379871E-2,-2.609968185E-2,5.309486389E-2
8.718447308E0,1.043314934E-1,5.086660385E-3,7.231712341E-2
8.726442715E0,9.686791897E-2,-4.376411438E-3,7.471561432E-2
8.734438736E0,7.079875469E-2,1.717281342E-2,8.664798737E-2
8.742433912E0,4.523551464E-2,2.186679840E-2,7.699108124E-2
8.750431087E0,3.425610065E-2,3.135824203E-2,6.729984283E-2
8.758455416E0,8.902907372E-3,1.216006279E-2,4.562664032E-2
8.766451822E0,-4.882454872E-3,-1.180505753E-2,4.794502258E-2
8.774447229E0,-9.660959244E-3,-2.377915382E-2,4.794406891E-2
8.782442865E0,6.530046463E-3,-2.374219894E-2,3.843688965E-2
8.790437426E0,2.947700024E-2,-6.987333298E-3,5.533981323E-2
8.798433677E0,4.506134987E-2,6.628036499E-5,4.836654663E-2
8.806430083E0,7.990491390E-2,-1.094341278E-4,6.533622742E-2
8.814454720E0,1.103734970E-1,1.409530640E-2,5.350971222E-2
8.822450742E0,1.102683544E-1,6.804466248E-3,6.313705444E-2
8.830447917E0,9.392559528E-2,3.781080246E-2,6.072139740E-2
8.838442784E0,7.319176197E-2,2.571654320E-2,6.303882599E-2
8.846438499E0,5.969130993E-2,1.838159561E-2,2.226352692E-2
8.854433904E0,3.413450718E-2,1.479148865E-3,3.177642822E-2
8.862429542E0,2.980566025E-2,-1.777791977E-2,4.850292206E-2
8.870454563E0,1.799106598E-2,-2.263951302E-2,4.132175446E-2
8.878451123E0,1.288437843E-2,-3.702807426E-2,5.813407898E-2
8.886447452E0,2.194190025E-2,-2.268075943E-2,5.342578888E-2
8.894442859E0,3.098607063E-2,-1.793193817E-2,6.069755554E-2
8.902438033E0,5.217933655E-2,-1.569557190E-2,6.319236755E-2
8.910434671E0,6.410360336E-2,5.792856216E-3,3.927707672E-2
8.918429077E0,7.628297806E-2,5.776882172E-3,4.643535614E-2
8.926455637E0,4.313862324E-2,-1.335597038E-2,3.201007843E-2
8.934451273E0,4.361569881E-2,8.260965347E-3,3.431320190E-2
8.942446680E0,4.170835018E-2,1.160621643E-3,4.618835449E-2
8.950441240E0,4.434227943E-2,-5.825757980E-3,5.806159973E-2
8.958437877E0,4.426348209E-2,1.102781296E-2,5.086040497E-2
8.966433590E0,5.105006695E-2,-3.253221512E-3,6.525516510E-2
8.974429228E0,3.633975983E-2,8.740186691E-3,7.487297058E-2
8.982455095E0,5.510210991E-2,-5.613565445E-3,5.816555023E-2
8.990452040E0,7.395803928E-2,-2.470684052E-2,4.621791840E-2
8.998447138E0,5.716800690E-2,-9.274482727E-4,5.824565887E-2
9.006442237E0,8.615529537E-2,1.574778557E-2,5.823612213E-2
9.014438027E0,6.985473633E-2,1.797270775E-2,3.907203674E-2
9.022432818E0,5.601000786E-2,-1.362562180E-3,4.623889923E-2
9.030428762E0,4.435539246E-2,9.284019470E-4,5.340957642E-2
9.038454631E0,3.509807587E-2,1.763606071E-2,5.577564240E-2
9.046451036E0,3.272294998E-2,3.332376480E-3,6.293487549E-2
9.054446443E0,2.767074108E-2,2.250695229E-2,7.014942169E-2
9.062442695E0,3.912484646E-2,-1.811647415E-2,5.583190918E-2
9.070438409E0,2.911865711E-2,-1.322507858E-2,5.825328827E-2
9.078433276E0,5.036664009E-2,-1.321458817E-2,5.350494385E-2
9.086429914E0,6.470346451E-2,-3.721952438E-3,3.677749634E-2
9.094455704E0,5.772209167E-2,-1.498222351E-3,4.159164429E-2
9.102451110E0,6.037688255E-2,-1.127719879E-2,2.725505829E-2
9.110446208E0,5.362486839E-2,5.323171616E-3,4.400444031E-2
9.118441384E0,5.647146702E-2,-1.639437675E-2,6.314754486E-2
9.126438021E0,6.166791916E-2,-1.883673668E-2,4.874038696E-2
9.134433120E0,6.664776802E-2,-4.493236542E-3,6.069183350E-2
9.142428756E0,4.976606369E-2,-4.508256912E-3,6.310749054E-2
9.150455240E0,4.482209682E-2,-2.047061920E-3,6.310844421E-2
9.158450645E0,3.977155685E-2,1.706719398E-2,4.161071777E-2
9.166445743E0,3.481674194E-2,7.518291473E-3,3.923130035E-2
9.174441765E0,4.889512062E-2,-1.993656158E-3,3.206825256E-2
9.182437555E0,3.905582428E-2,-1.873660088E-2,1.294708252E-2
9.190432577E0,4.838931561E-2,-2.579712868E-2,2.730751038E-2
9.198428675E0,3.855538368E-2,-1.614975929E-2,1.295661926E-2
9.206456005E0,6.220805645E-2,-6.579637527E-3,4.172992706E-2
9.214450795E0,5.960941315E-2,6.992816925E-4,6.327533722E-2
9.222446279E0,5.952239037E-2,5.351781845E-3,7.051467896E-2
9.230442915E0,7.160043716E-2,1.486396790E-2,5.615520477E-2
9.238437091E0,5.978798866E-2,1.234626770E-2,9.208583832E-2
9.246433651E0,6.244969368E-2,1.461744308E-2,7.532787323E-2
9.254428442E0,6.030440331E-2,-2.211332321E-3,8.728694916E-2
9.262454617E0,4.370200634E-2,-1.188230515E-2,8.489990234E-2
9.270450639E0,2.453529835E-2,-1.442980766E-2,7.058620453E-2
9.278446352E0,4.112923145E-2,-1.931500435E-2,5.866909027E-2
9.286442374E0,3.370428085E-2,-9.932518005E-3,5.637264252E-2
9.294437241E0,5.262184143E-2,-6.856918335E-4,3.841400146E-3
9.302433186E0,4.058110714E-2,2.298355103E-2,-3.243446350E-3
9.310459361E0,4.297113419E-2,2.519345284E-2,6.393432617E-3
9.318453922E0,5.030465126E-2,-3.636360168E-3,3.513431549E-2
9.326450481E0,4.327917099E-2,3.479242325E-3,4.710578918E-2
9.334445657E0,5.060529709E-2,-1.565432549E-2,3.750133514E-2
9.342440986E0,4.578673840E-2,-1.320362091E-2,1.833438873E-2
9.350436392E0,5.274426937E-2,-1.065993309E-2,3.268337250E-2
9.358433106E0,6.195199490E-2,-1.292991638E-2,3.030014038E-2
9.366428512E0,4.720449448E-2,-1.033353806E-2,1.592445374E-2
9.374454610E0,7.074904442E-2,-7.716655731E-3,3.985214233E-2
9.382450094E0,5.614519119E-2,-7.493972778E-3,5.896663666E-2
9.390446653E0,6.784248352E-2,-2.412557602E-3,9.003639221E-2
9.398441752E0,6.539714336E-2,2.404808998E-2,1.187334061E-1
9.406437773E0,7.246124744E-2,2.418637276E-2,1.378593445E-1
9.414432949E0,6.523704529E-2,5.100488663E-3,1.186904907E-1
9.422459355E0,5.567359924E-2,2.189254761E-2,9.712982178E-2
9.430454146E0,5.559504032E-2,-4.322767258E-3,4.921722412E-2
9.438450167E0,4.115319252E-2,-4.244804382E-3,2.765560150E-2
9.446445881E0,1.960122585E-2,-2.090454102E-2,-1.786613464E-2
9.454441672E0,4.350137711E-2,-8.852720261E-3,-5.915641785E-3
9.462436694E0,3.876256943E-2,-1.640558243E-3,-3.538131714E-3
9.470433407E0,3.648793697E-2,1.509451866E-2,3.635406494E-3
9.478458660E0,1.772391796E-2,5.377054214E-3,4.432582855E-2
9.486455527E0,8.641123772E-3,1.478743553E-2,6.825160980E-2
9.494450087E0,2.106177807E-2,3.117632866E-2,8.985614777E-2
9.502445801E0,4.056978226E-2,3.090453148E-2,8.989334106E-2
9.510440591E0,6.697380543E-2,1.142549515E-2,7.083511353E-2
9.518437151E0,6.931698322E-2,1.833033562E-2,8.529853821E-2
9.526432942E0,5.968058109E-2,-1.528549194E-2,7.336711884E-2
9.534459041E0,9.302031994E-2,-1.535487175E-2,6.144332886E-2
9.542454216E0,6.409585476E-2,3.741979599E-3,7.106590271E-2
9.550450545E0,5.216026306E-2,-8.275985718E-3,4.234600067E-2
9.558445335E0,5.232167244E-2,-1.556444168E-2,4.953956604E-2
9.566442204E0,4.538786411E-2,-1.300811768E-3,1.601886749E-2
9.574436763E0,4.090857506E-2,3.340244293E-3,6.444931030E-3
9.582432477E0,3.881895542E-2,-8.652448654E-3,4.014968872E-3
9.590458345E0,1.992893219E-2,-1.467704773E-3,8.765220642E-3
9.598454059E0,2.966713905E-2,-1.097917557E-2,2.547931671E-2
9.606450388E0,2.014482021E-2,-1.292228699E-3,4.937839508E-2
9.614445794E0,1.295065880E-2,-1.782274246E-2,5.648899078E-2
9.622441508E0,3.670358658E-2,2.313423157E-2,7.079887390E-2
9.630436914E0,3.879845142E-2,1.818180084E-3,7.794952393E-2
9.638432551E0,7.433009148E-2,4.482984543E-3,7.312774658E-2
9.646459034E0,7.408618927E-2,-1.445269585E-2,7.548522949E-2
9.654454132E0,7.875978947E-2,-7.154226303E-3,7.067584991E-2
9.662450154E0,7.173061371E-2,-9.548425674E-3,6.347084045E-2
9.670446175E0,7.197248936E-2,-2.158498764E-2,3.233432770E-2
9.678440736E0,6.269812584E-2,-2.635669708E-2,2.270793915E-2
9.686436449E0,7.251024246E-2,-2.629184723E-2,3.223037720E-2
9.694432471E0,4.400873184E-2,-1.665711403E-2,2.978420258E-2
9.702457954E0,5.825734138E-2,-4.579782486E-3,5.849742889E-2
9.710455283E0,4.617238045E-2,3.323554993E-4,7.523345947E-2
9.718450074E0,4.347538948E-2,-1.951217651E-3,7.284736633E-2
9.726445788E0,3.601908684E-2,7.717132568E-3,7.764530182E-2
9.734441501E0,4.557633400E-2,2.691006660E-2,7.045078278E-2
9.742436292E0,3.365123272E-2,1.003336906E-2,4.893493652E-2
9.750431698E0,2.422535419E-2,3.168582916E-4,5.374717712E-2
9.758458105E0,2.444064617E-2,7.386445999E-3,4.896450043E-2
9.766454433E0,2.472603321E-2,1.208019257E-2,4.656028748E-2
9.774449609E0,4.162442684E-2,1.431059837E-2,3.701686859E-2
9.782445553E0,4.177486897E-2,-2.581834793E-3,3.703784943E-2
9.790441652E0,7.051157951E-2,1.162934303E-2,4.426956177E-2
9.798436366E0,6.807935238E-2,1.624464989E-2,4.672622681E-2
9.806432156E0,6.568646431E-2,-5.532264709E-3,3.961658478E-2
9.814458255E0,4.425263405E-2,1.583838463E-2,4.444599152E-2
9.822453969E0,3.017795086E-2,1.333141327E-2,6.598949432E-2
9.830448836E0,6.874573231E-2,2.275705338E-2,7.078933716E-2
9.838445088E0,4.749155045E-2,2.019429207E-2,4.686069489E-2
9.846440495E0,6.940257549E-2,-8.620023727E-3,4.922962189E-2
9.854436208E0,6.482255459E-2,-1.586627960E-2,3.485584259E-2
9.862432307E0,4.821336269E-2,-2.780914307E-2,4.918956757E-2
9.870458713E0,3.866744041E-2,-8.698701859E-3,4.441165924E-2
9.878454119E0,3.641796112E-2,-1.619100571E-3,3.724193573E-2
9.886449833E0,3.644263744E-2,-4.154920578E-3,4.446601868E-2
9.894444624E0,3.635609150E-2,3.023624420E-3,4.208660126E-2
9.902440337E0,6.483685970E-2,-2.089691162E-2,3.732681274E-2
9.910435513E0,4.310798645E-2,3.078937531E-3,5.410003662E-2
9.918432150E0,5.744099617E-2,2.698469162E-2,5.411624908E-2
9.926457710E0,5.270802975E-2,7.821798325E-3,5.411148071E-2
9.934453654E0,3.373491764E-2,-1.613163948E-2,4.930210114E-2
9.942449445E0,5.057525635E-2,-6.476879120E-3,4.687118530E-2
9.950446005E0,4.823136330E-2,-4.064321518E-3,5.882835388E-2
9.958440565E0,2.684271336E-2,-1.841425896E-2,6.359004974E-2
9.966436894E0,5.791294575E-2,-1.120543480E-2,5.401134491E-2
9.974431608E0,4.578351974E-2,-4.016637802E-3,4.445552826E-2
9.982458091E0,4.330813885E-2,3.254890442E-3,3.725528717E-2
9.990453574E0,4.798221588E-2,8.142948151E-3,4.681682587E-2
9.998449595E0,5.506765842E-2,-1.339030266E-2,6.597995758E-2
1.000644554E1,5.973923206E-2,5.737543106E-3,5.163860321E-2
1.001444064E1,6.686735153E-2,-8.535861969E-3,6.598281860E-2
1.002243666E1,6.203103065E-2,-6.097793579E-3,6.118679047E-2
1.003043299E1,6.696975231E-2,1.061892509E-2,5.878448486E-2
1.003845824E1,5.763864517E-2,-1.102781296E-2,5.638790131E-2
1.004645426E1,3.412127495E-2,2.951121330E-2,5.159187317E-2
1.005444913E1,3.692126274E-2,1.497364044E-2,5.158901215E-2
1.006244477E1,1.568794250E-2,1.241087914E-2,5.159950256E-2
1.007043987E1,8.762598038E-3,-4.539251328E-3,7.077789307E-2
1.007843620E1,3.054296970E-2,-2.367734909E-3,5.166339874E-2
1.008643168E1,3.070664406E-2,-2.514362335E-3,4.929351807E-2
1.009445785E1,4.031920433E-2,-9.736776352E-3,5.887794495E-2
1.010245349E1,5.701017380E-2,6.993055344E-3,4.692649841E-2
1.011044959E1,6.873190403E-2,-2.608776093E-3,1.345062256E-2
1.011844469E1,7.324314117E-2,-7.419109344E-3,4.222869873E-2
1.012644032E1,6.581532955E-2,-1.706099510E-2,3.510093689E-2
1.013443612E1,4.406583309E-2,-5.131006241E-3,4.232597351E-2
1.014243144E1,5.103313923E-2,-9.946823120E-3,4.475975037E-2
1.015045731E1,5.095684528E-2,1.161003113E-2,4.955577850E-2
1.015845310E1,5.084168911E-2,-9.897708893E-3,6.153106689E-2
1.016644936E1,5.563473701E-2,1.161885262E-2,4.238700867E-2
1.017444515E1,5.568385124E-2,-7.570743561E-3,5.436229706E-2
1.018243986E1,8.457767963E-2,-2.838134766E-3,4.478073120E-2
1.019043680E1,8.227705956E-2,-1.482796669E-2,3.759098053E-2
1.019843106E1,4.890894890E-2,-5.251169205E-3,4.235649109E-2
1.020645754E1,5.148434639E-2,-1.006221771E-2,7.106876373E-2
1.021445287E1,2.997052670E-2,-1.000499725E-2,5.668067932E-2
1.022244828E1,3.718554974E-2,-2.810955048E-3,7.103824615E-2
1.023044399E1,2.751696110E-2,-1.962351799E-2,7.346248627E-2
1.023843978E1,3.445160389E-2,-1.727652550E-2,7.351303101E-2
1.024643542E1,3.893780708E-2,1.796245575E-3,8.555316925E-2
1.025443152E1,2.182519436E-2,-1.280665398E-2,7.849788666E-2
1.026245730E1,5.978929996E-2,1.087617874E-2,5.229473114E-2
1.027045402E1,6.432569027E-2,8.141994476E-3,1.892185211E-2
1.027844873E1,8.093917370E-2,1.264762878E-2,4.668235779E-3
1.028644514E1,6.425571442E-2,2.673649788E-2,3.587245941E-2
1.029444085E1,4.541516304E-2,1.214051247E-2,2.632522583E-2
1.030243503E1,2.699494362E-2,1.597404480E-5,5.260658264E-2
1.031046113E1,3.239464760E-2,-7.221698761E-3,3.817272186E-2
1.031845723E1,4.965317249E-2,-2.415180206E-3,5.246162415E-2
1.032645355E1,4.739522934E-2,-2.406597137E-3,2.161026001E-3
1.033444858E1,3.518462181E-2,1.210618019E-2,-7.430076599E-3
1.034244460E1,5.862152576E-2,-1.638484001E-2,4.535675049E-3
1.035044154E1,5.324530602E-2,-3.764939308E-2,2.132415771E-3
1.035843549E1,7.164072990E-2,-6.239175797E-3,2.130126953E-2
1.036646220E1,6.617832184E-2,-1.792168617E-2,6.200599670E-2
1.037445707E1,8.251297474E-2,2.302217484E-2,1.170549393E-1
1.038245270E1,8.006632328E-2,1.832699776E-2,1.337909698E-1
1.039044819E1,7.082819939E-2,2.547669411E-2,1.409368515E-1
1.039844390E1,6.905353069E-2,1.587104797E-2,1.217041016E-1
1.040644015E1,4.567718506E-2,3.920316696E-3,8.331012726E-2
1.041443587E1,1.997089386E-2,-2.953934669E-2,4.968166351E-2
1.042246120E1,1.083147526E-2,-2.705240250E-2,4.098892212E-3
1.043045868E1,8.580684662E-3,-4.120898247E-2,1.617431641E-3
1.043845262E1,8.286356926E-3,-5.049252510E-2,-5.618095398E-3
1.044644895E1,2.461111546E-2,-2.871847153E-2,1.352310181E-2
1.045444428E1,2.419829369E-2,-4.561424255E-3,3.266620636E-2
1.046243969E1,3.121757507E-2,-2.177715302E-3,4.226970673E-2
1.047043479E1,5.056643486E-2,7.299661636E-3,7.100391388E-2
1.047846166E1,5.102491379E-2,3.830075264E-2,7.576751709E-2
1.048645706E1,4.913139343E-2,3.097343445E-2,8.532047272E-2
1.049445339E1,5.917680264E-2,1.649570465E-2,9.007835388E-2
1.050244841E1,4.746508598E-2,1.403641701E-2,8.527374268E-2
1.051044474E1,5.932271481E-2,2.132654190E-3,6.611442566E-2
1.051843961E1,5.162215233E-2,-2.632284164E-2,6.609916687E-2
1.052643524E1,4.839777946E-2,-2.371430397E-2,4.699516296E-2
1.053446204E1,7.379233837E-2,-2.588129044E-2,2.311325073E-2
1.054245714E1,5.872368813E-2,-4.230737686E-3,-7.619857788E-4
1.055045285E1,7.271611691E-2,-1.854896545E-2,1.842975616E-2
1.055844826E1,5.379927158E-2,-1.852607727E-2,8.811950684E-3
1.056644312E1,5.202150345E-2,-1.148080826E-2,1.595020294E-2
1.057443938E1,1.468801498E-2,-3.312253952E-2,1.823711395E-2
1.058243486E1,1.481175423E-3,-1.163339615E-2,3.245639801E-2
1.059046250E1,-2.366662025E-3,3.094673157E-4,5.148506165E-2
1.059845759E1,7.767796516E-3,-6.778717041E-3,8.250141144E-2
1.060645246E1,3.652715683E-2,1.243352890E-2,1.112070084E-1
1.061444879E1,5.292010307E-2,-1.379656792E-2,8.967685699E-2
1.062244358E1,6.439352036E-2,1.268601418E-2,5.857563019E-2
1.063043891E1,8.538341522E-2,3.371715546E-3,9.208965302E-2
1.063843593E1,8.262896538E-2,1.309156418E-2,5.857467651E-2
1.064646149E1,9.683609009E-2,6.010055542E-3,4.419898987E-2
1.065445690E1,6.562626362E-2,-1.768732071E-2,2.976703644E-2
1.066245200E1,4.651653767E-2,-2.709007263E-2,2.012729645E-2
1.067044886E1,3.928458691E-2,-2.454066277E-2,2.966117859E-2
1.067844366E1,5.113422871E-2,-2.913260460E-2,3.919219971E-2
1.068643968E1,6.260502338E-2,-4.980802536E-3,4.158973694E-2
1.069443447E1,5.727243423E-2,-4.831075668E-3,8.950233459E-2
1.070246126E1,8.076810837E-2,2.162599564E-2,8.234596252E-2
1.071045643E1,6.378805637E-2,1.928687096E-2,1.158781052E-1
1.071845207E1,3.762590885E-2,9.582281113E-3,9.195232391E-2
1.072644840E1,4.759252071E-2,1.659059525E-2,7.279872894E-2
1.073444350E1,4.332625866E-2,6.879806519E-3,5.122089386E-2
1.074243890E1,1.526117325E-2,4.388809204E-3,6.312656403E-2
1.075043523E1,1.582884789E-2,1.862049103E-3,5.111885071E-2
1.075846141E1,4.249000549E-2,-1.977682114E-2,3.434181213E-2
1.076645658E1,1.384103298E-2,-3.111362457E-3,2.239036560E-2
1.077445253E1,4.718708992E-2,-1.753401756E-2,4.158687592E-2
1.078244709E1,1.345217228E-2,-9.083747864E-4,6.320858002E-2
1.079044396E1,6.839585304E-2,2.293276787E-2,5.607700348E-2
1.079843967E1,5.642867088E-2,1.796174049E-2,6.092357635E-2
1.080643508E1,7.338476181E-2,3.453612328E-2,6.574440002E-2
1.081446071E1,8.320915699E-2,2.722978592E-2,7.293224335E-2
1.082245673E1,7.867240906E-2,1.268196106E-2,6.577205658E-2
1.083045206E1,5.502331257E-2,-1.127433777E-2,6.812858582E-2
1.083844808E1,5.520021915E-2,7.780551910E-3,7.771396637E-2
1.084644388E1,3.144800663E-2,-1.852989197E-2,6.331157684E-2
1.085443867E1,2.913391590E-2,-1.854038239E-2,3.457355499E-2
1.086243492E1,5.056154728E-2,-6.640195847E-3,3.940200806E-2
1.087046048E1,5.761516094E-2,-1.148629189E-2,3.225708008E-2
1.087845627E1,3.839814663E-2,-1.155757904E-2,2.510547638E-2
1.088645260E1,4.796743393E-2,-6.853818893E-3,3.231811523E-2
1.089444762E1,7.189297676E-2,7.452249527E-3,4.670429230E-2
1.090244310E1,4.561281204E-2,-1.411175728E-2,4.430675507E-2
1.091044005E1,5.538308620E-2,-1.173949242E-2,6.104660034E-2
1.091843507E1,5.310237408E-2,-2.211332321E-3,7.541084290E-2
1.092646040E1,6.284713745E-2,-2.131772041E-2,8.016109467E-2
1.093445673E1,5.815649033E-2,-2.352523804E-2,9.205818176E-2
1.094245175E1,6.050312519E-2,-6.758213043E-3,1.064262390E-1
1.095044692E1,6.282114983E-2,-4.287481308E-3,9.204769135E-2
1.095844295E1,6.982719898E-2,1.493787766E-2,1.016263962E-1
1.096643889E1,5.050110817E-2,3.172492981E-2,8.248806000E-2
1.097443460E1,3.136062622E-2,1.016712189E-2,5.136394501E-2
1.098246047E1,5.300426483E-2,7.858276367E-3,5.611133575E-2
1.099045780E1,6.003069878E-2,1.512908936E-2,3.455734253E-2
1.099845198E1,5.279016495E-2,-1.547098160E-3,4.411506653E-2
1.100644769E1,3.119385242E-2,-1.545429230E-3,2.736282349E-2
1.101444340E1,3.583860397E-2,7.855892181E-4,2.740383148E-2
1.102243850E1,4.523575306E-2,-1.848149300E-2,3.704261780E-2
1.103043329E1,7.146131992E-2,-8.894920349E-3,5.381488800E-2
1.103846062E1,7.370316982E-2,6.191730499E-4,6.343269348E-2
1.104645664E1,5.460941792E-2,-1.907587051E-3,6.825542450E-2
1.105445151E1,6.209361553E-2,1.241207123E-2,7.541084290E-2
1.106244715E1,5.770909786E-2,-4.365921021E-3,9.451293945E-2
1.107044379E1,3.180015087E-2,3.914833069E-4,9.206771851E-2
1.107843827E1,2.024233341E-2,-2.352762222E-2,8.242607117E-2
1.108643398E1,3.497254848E-2,5.176544189E-3,7.041072845E-2
1.109446077E1,2.545690536E-2,-4.471302032E-3,6.084823608E-2
1.110245618E1,2.768898010E-2,-1.402878761E-2,6.086540222E-2
1.111045189E1,2.979552746E-2,-2.033233643E-3,4.892635345E-2
1.111844730E1,2.936697006E-2,7.607221603E-3,7.051467896E-2
1.112644247E1,4.561114311E-2,1.710820198E-2,5.385303497E-2
1.113443850E1,7.394456863E-2,-9.402275085E-3,4.917812347E-2
1.114243444E1,8.554315567E-2,-2.145195007E-2,3.489112854E-2
1.115046162E1,6.631910801E-2,1.436328888E-2,3.253841400E-2
1.115845602E1,7.358312607E-2,-4.807710648E-3,4.210948944E-2
1.116645143E1,7.143044472E-2,1.673030853E-2,5.165481567E-2
1.117444691E1,6.206011772E-2,7.078886032E-3,4.686164856E-2
1.118244293E1,5.014228821E-2,1.182341576E-2,7.799339294E-2
1.119043826E1,5.729043484E-2,-2.448320389E-3,7.078456879E-2
1.119843367E1,4.279577732E-2,-4.704952240E-3,6.836414337E-2
1.120646023E1,3.056192398E-2,-9.377717972E-3,8.751869202E-2
1.121445533E1,5.179405212E-2,-1.648688316E-2,7.796287537E-2
1.122245158E1,3.238189220E-2,-4.028391838E-2,1.090774536E-1
1.123044791E1,6.337809563E-2,-4.020571709E-2,7.794570923E-2
1.123844301E1,4.899096489E-2,-2.110338211E-2,8.035850525E-2
1.124643872E1,4.913794994E-2,4.952192307E-3,9.718799591E-2
1.125443420E1,3.499710560E-2,2.377796173E-2,6.134986877E-2
1.126245999E1,5.919730663E-2,3.298234940E-2,4.946231842E-2
1.127045509E1,5.945873260E-2,3.276205063E-2,2.316093445E-2
1.127845142E1,3.097760677E-2,8.706092834E-3,2.316188812E-2
1.128644690E1,2.888810635E-2,-1.759529114E-2,5.902004242E-2
1.129444293E1,3.145587444E-2,-2.457213402E-2,5.892848969E-2
1.130243802E1,5.162715912E-3,-5.227088928E-3,7.322692871E-2
1.131043551E1,2.655279636E-2,-2.180433273E-2,6.121921539E-2
1.131846053E1,3.810524940E-2,-1.918816566E-2,5.402374268E-2
1.132645563E1,5.213856697E-2,4.944801331E-3,3.246116638E-2
1.133445134E1,5.897212029E-2,5.020380020E-3,4.206371307E-2
1.134244759E1,7.071101665E-2,1.227402687E-2,4.925537109E-2
1.135044277E1,9.216761589E-2,4.405975342E-4,5.161762238E-2
1.135843848E1,8.035302162E-2,1.013350487E-2,8.507728577E-2
1.136643320E1,9.258270264E-2,1.744961739E-2,1.137275696E-1
1.137445999E1,8.817183971E-2,2.238702774E-2,1.471443176E-1
1.138245547E1,7.654130459E-2,2.012491226E-2,1.279001236E-1
1.139045211E1,5.532252789E-2,1.066493988E-2,9.429645538E-2
1.139844651E1,1.017057896E-2,-3.577232361E-3,7.026576996E-2
1.140644292E1,3.135442734E-3,-2.732849121E-2,3.666496277E-2
1.141443794E1,2.924561501E-3,-2.943134308E-2,1.265907288E-2
1.142246450E1,1.438438892E-2,-2.199506760E-2,1.504325867E-2
1.143045929E1,2.339231968E-2,-3.375840187E-2,1.026821136E-2
1.143845562E1,3.015005589E-2,2.381563187E-3,4.137992859E-2
1.144645103E1,3.479290009E-2,1.684665680E-2,6.291675568E-2
1.145444582E1,5.408751965E-2,1.683807373E-2,7.965850830E-2
1.146244269E1,5.913388729E-2,4.553413391E-2,1.059694290E-1
1.147043848E1,5.239415169E-2,2.389311790E-2,9.396457672E-2
1.147846427E1,5.511796474E-2,3.334689140E-2,1.035346985E-1
1.148645975E1,6.725096703E-2,3.319001198E-2,7.962036133E-2
1.149445600E1,6.471014023E-2,1.394319534E-2,9.164333344E-2
1.150245118E1,6.886911392E-2,9.203910828E-3,8.453369141E-2
1.151044628E1,6.094956398E-2,-2.407073975E-2,6.779956818E-2
1.151844260E1,5.319058895E-2,7.164716721E-3,6.066322327E-2
1.152643801E1,8.146393299E-2,-4.754066467E-3,5.352783203E-2
1.153446388E1,8.617186546E-2,-1.667356491E-2,2.958202362E-2
1.154245959E1,6.009101868E-2,4.709959030E-3,2.959823608E-2
1.155045584E1,5.343973637E-2,1.170563698E-2,2.479457855E-2
1.155845102E1,2.785420418E-2,2.345395088E-2,4.630851746E-2
1.156644666E1,2.638280392E-2,1.622891426E-2,6.294918060E-2
1.157444237E1,-1.685380936E-3,1.869463921E-2,6.043910980E-2
1.158243870E1,-3.743767738E-3,4.456281662E-3,7.711029053E-2
1.159046395E1,1.291322708E-2,7.143735886E-3,7.463455200E-2
1.159845974E1,3.874075413E-2,2.589225769E-4,7.939910889E-2
1.160645569E1,5.946648121E-2,-2.094960213E-2,8.419418335E-2
1.161445048E1,7.300698757E-2,-1.599478722E-2,8.904647827E-2
1.162244658E1,9.880805016E-2,-8.691072464E-3,8.429527283E-2
1.163044352E1,9.858870506E-2,9.143352509E-4,6.276893616E-2
1.163843800E1,1.034467220E-1,-2.065086365E-2,9.389019012E-2
1.164646410E1,8.937072754E-2,-2.306795120E-2,8.427906036E-2
1.165446012E1,8.748149872E-2,-1.338052750E-2,6.980609894E-2
1.166245522E1,4.732871056E-2,-1.085615158E-2,7.447433472E-2
1.167045040E1,5.722963810E-2,6.165266037E-3,7.673835754E-2
1.167844634E1,3.801918030E-2,1.657724380E-3,7.426071167E-2
1.168644206E1,4.006505013E-2,-7.584095001E-3,9.096240997E-2
1.169443746E1,4.661822319E-2,-2.163529396E-2,1.053152084E-1
1.170246372E1,1.498246193E-2,9.632825851E-3,6.942749023E-2
1.171046058E1,2.176117897E-2,1.678776741E-2,6.470584869E-2
1.171845576E1,4.093372822E-2,7.126331329E-3,6.473064423E-2
1.172645178E1,5.320000648E-2,2.291917801E-3,7.188701630E-2
1.173444649E1,2.751231194E-2,4.502296448E-3,6.945896149E-2
1.174244229E1,2.335989475E-2,1.150035858E-2,6.703281403E-2
1.175043731E1,2.158260345E-2,3.283429146E-2,5.504417419E-2
1.175846387E1,2.910017967E-2,2.789187431E-2,6.222915649E-2
1.176645981E1,2.922260761E-2,1.826453209E-2,6.462287903E-2
1.177445437E1,4.109621048E-2,2.062177658E-2,8.140754700E-2
1.178245039E1,5.753242970E-2,1.584839821E-2,7.666110992E-2
1.179844151E1,8.551371098E-2,-8.876323700E-4,7.197189331E-2
1.180643838E1,8.052623272E-2,1.106882095E-2,7.679271698E-2
1.181446402E1,9.476780891E-2,-9.007453918E-4,7.920360565E-2
1.182245881E1,7.338774204E-2,8.611440659E-3,7.680702209E-2
1.183045544E1,6.416761875E-2,-1.776957512E-2,8.634757996E-2
1.183845016E1,7.172298431E-2,5.947828293E-3,6.002998352E-2
1.184644618E1,4.344165325E-2,-1.417398453E-3,5.044937134E-2
1.185444251E1,4.145014286E-2,-8.671998978E-3,5.280876160E-2
1.186243822E1,1.309657097E-2,-1.112723351E-2,4.798603058E-2
1.187046417E1,1.332414150E-2,-3.927230835E-3,5.752563477E-2
1.187845896E1,4.436397552E-2,-2.782535553E-2,6.710052490E-2
1.188645459E1,5.141818523E-2,-3.882408142E-3,7.669544220E-2
1.189445069E1,4.878973961E-2,1.297545433E-2,8.866691589E-2
1.190244541E1,5.585122108E-2,-6.082534790E-3,8.865356445E-2
1.191044143E1,7.731962204E-2,1.075625420E-2,8.145809174E-2
1.191843722E1,5.819761753E-2,2.273988724E-2,8.384227753E-2
1.192646362E1,4.626166821E-2,2.037262917E-2,8.861732483E-2
1.193445872E1,4.631710052E-2,1.804375648E-2,7.422351837E-2
1.194245505E1,6.069171429E-2,1.081848145E-2,9.099578857E-2
1.195045146E1,5.588448048E-2,1.308012009E-2,7.428073883E-2
1.195844594E1,6.787347794E-2,1.539397240E-2,7.430458069E-2
1.196644189E1,7.746112347E-2,1.293373108E-2,5.995941162E-2
1.197443729E1,7.506000996E-2,-1.465797424E-3,7.433700562E-2
1.198246316E1,5.846416950E-2,-1.106381416E-2,6.474304199E-2
1.199045864E1,5.877637863E-2,-1.550436020E-3,5.993080139E-2
1.199845459E1,3.761482239E-2,1.030945778E-2,6.470108032E-2
1.200645099E1,2.598202229E-2,2.703690529E-2,7.184600830E-2
1.201444609E1,3.580284119E-2,2.223539352E-2,6.702613831E-2
1.202244150E1,4.772412777E-2,1.753520966E-2,5.982303619E-2
1.203043775E1,4.497539997E-2,-1.628160477E-3,7.424163818E-2
1.203846339E1,7.325160503E-2,-1.117253304E-2,7.908344269E-2
1.204645879E1,4.648959637E-2,-2.300572395E-2,9.107112885E-2
1.205445443E1,6.779670715E-2,-3.003883362E-2,1.006336212E-1
1.206245022E1,4.379475117E-2,-3.708910942E-2,9.581089020E-2
1.207044555E1,5.358326435E-2,-2.515077591E-2,9.339714050E-2
1.207844157E1,4.692184925E-2,5.892992020E-3,8.856010437E-2
1.208643767E1,4.749584198E-2,-1.465082169E-3,8.614158630E-2
1.209446315E1,4.804456234E-2,1.524853706E-2,1.100206375E-1
1.210245918E1,3.399491310E-2,1.513528824E-2,9.564781189E-2
1.211045620E1,5.563151836E-2,1.988863945E-2,7.409763336E-2
1.211845037E1,3.397655487E-2,2.942848206E-2,6.454849243E-2
1.212644632E1,2.428293228E-2,3.656911850E-2,9.091567993E-2
1.213444149E1,5.749380589E-2,1.256823540E-2,6.703472137E-2
1.214243690E1,6.437802315E-2,1.501798630E-2,5.269432068E-2
1.215046246E1,6.179404259E-2,-1.682519913E-3,5.988502502E-2
1.215845879E1,7.605004311E-2,2.691125870E-2,4.557895660E-2
1.216645412E1,5.695521832E-2,-6.693601608E-3,7.672405243E-2
1.217445022E1,4.270052910E-2,-1.630663872E-2,6.714248657E-2
1.218244624E1,6.207180023E-2,9.916543961E-3,1.006679535E-1
1.219044280E1,7.659995556E-2,7.436275482E-3,9.588432312E-2
1.219843643E1,8.365988731E-2,-6.863117218E-3,1.054573059E-1
1.220646261E1,6.443810463E-2,-2.123117447E-3,1.030883789E-1
1.221445794E1,5.468702316E-2,-2.607440948E-2,8.635616302E-2
1.222245396E1,4.492163658E-2,1.453351974E-2,9.838390350E-2
1.223044998E1,3.995978832E-2,2.417564392E-3,6.014823914E-2
1.223844546E1,4.951536655E-2,9.438037872E-3,5.062770844E-2
1.224644087E1,4.002010822E-2,3.084635735E-2,4.108333588E-2
1.225443712E1,4.251313210E-2,1.394104958E-2,3.632831573E-2
1.226246276E1,4.751265049E-2,-2.441716194E-2,5.068111420E-2
1.227045932E1,3.105175495E-2,-1.245880127E-2,7.937240601E-2
1.227845442E1,3.592777252E-2,-2.438592911E-2,6.019210815E-2
1.228645052E1,3.594636917E-2,-5.094051361E-3,5.775070190E-2
1.229444500E1,5.246758461E-2,1.670050621E-2,2.657985687E-2
1.230244071E1,6.402897835E-2,1.698112488E-2,4.809474945E-2
1.231046743E1,8.500289917E-2,-1.912117004E-3,3.133296967E-2
1.231846291E1,6.300008297E-2,1.034069061E-2,5.045986176E-2
1.232645824E1,5.554568768E-2,1.309204102E-2,8.868980408E-2
1.233445395E1,6.492316723E-2,1.812624931E-2,1.221580505E-1
1.234244974E1,6.976735592E-2,2.779626846E-2,1.676101685E-1
1.235044546E1,6.291186810E-2,1.343059540E-2,1.579866409E-1
1.235844086E1,5.373597145E-2,2.055907249E-2,1.244287491E-1
1.236643650E1,5.158913136E-2,-5.764961243E-3,1.076297760E-1
1.237446329E1,3.268074989E-2,-5.628347397E-3,6.445503235E-2
1.238245816E1,3.258335590E-2,-2.457165718E-2,4.764080048E-2
1.239045357E1,1.079940796E-2,-2.435469627E-2,2.605724335E-2
1.239844951E1,2.237486839E-2,-1.694464684E-2,2.604007721E-2
1.240644592E1,3.632390499E-2,-2.390146255E-3,2.124881744E-2
1.241444040E1,3.612744808E-2,7.314682007E-3,4.757118225E-2
1.242246627E1,5.547213554E-2,3.371024132E-2,6.189060211E-2
1.243046321E1,6.075251102E-2,1.936984062E-2,9.772586823E-2
1.243845823E1,5.898189545E-2,2.401971817E-2,1.144418716E-1
1.244645341E1,6.204760075E-2,2.856540680E-2,1.072425842E-1
1.245444912E1,5.073034763E-2,3.303098679E-2,9.049510956E-2
1.246244537E1,4.879486561E-2,2.559399605E-2,7.375240326E-2
1.247043993E1,6.795680523E-2,1.588487625E-2,7.858276367E-2
1.247846726E1,7.232606411E-2,3.891944885E-3,5.470752716E-2
1.248646298E1,6.459224224E-2,-1.501226425E-2,8.582973480E-2
1.249445838E1,6.860876083E-2,6.763696671E-3,6.910610199E-2
1.250245387E1,7.496869564E-2,-3.834891319E-2,7.628345490E-2
1.251045050E1,7.673501968E-2,-1.179099083E-2,5.714607239E-2
1.251844583E1,7.640397549E-2,2.728462219E-3,6.672000885E-2
1.252644093E1,5.988729000E-2,1.467061043E-2,6.908988953E-2
1.253446680E1,6.280112267E-2,1.685953140E-2,6.668758392E-2
1.254246220E1,2.071237564E-2,1.183104515E-2,8.098793030E-2
1.255045830E1,1.457536221E-2,3.568506241E-2,7.847404480E-2
1.255845394E1,-3.656387329E-3,1.880812645E-2,5.683231354E-2
1.256644965E1,3.052079678E-2,6.670308113E-2,7.110214233E-2
1.257444475E1,3.058266640E-2,4.763460159E-2,6.627655029E-2
1.258244085E1,4.936707020E-2,7.130146027E-3,5.668830872E-2
1.259046726E1,7.019412518E-2,-1.176929474E-2,7.346820831E-2
1.259846212E1,7.170176506E-2,-2.109336853E-2,8.069515228E-2
1.260645876E1,8.047366142E-2,-2.321290970E-2,7.353782654E-2
1.261445355E1,1.130799055E-1,-2.535009384E-2,7.118988037E-2
1.262244896E1,8.384084702E-2,-2.759265900E-2,6.881904602E-2
1.263044460E1,9.335744381E-2,-2.734446526E-2,7.353591919E-2
1.263844008E1,7.691383362E-2,-1.278114319E-2,1.021566391E-1
1.264646687E1,7.725918293E-2,-7.803440094E-3,9.725856781E-2
1.265446197E1,4.422461987E-2,1.941442490E-3,1.043186188E-1
1.266245737E1,5.176496506E-2,9.312629700E-3,1.018123627E-1
1.267045401E1,-7.744312286E-3,2.139544487E-2,9.693908691E-2
1.267844934E1,1.389932632E-2,9.501695633E-3,9.689998627E-2
1.268644475E1,1.679658890E-3,1.422071457E-2,9.216880798E-2
1.269444054E1,-1.035928726E-3,-1.214861870E-2,7.546710968E-2
1.270246663E1,2.975237370E-2,4.544019699E-3,6.116962433E-2
1.271046181E1,6.304037571E-2,4.350900650E-3,4.689979553E-2
1.271845814E1,6.060147285E-2,4.184007645E-3,5.893135071E-2
1.272645378E1,6.314563751E-2,6.393432617E-3,6.615257263E-2
1.273444926E1,5.146813393E-2,2.057743073E-2,4.701519012E-2
1.274244459E1,7.109439373E-2,2.758526802E-2,5.418777466E-2
1.275044099E1,6.907033920E-2,2.500295639E-2,7.574462891E-2
1.275846648E1,5.984246731E-2,2.496933937E-2,8.288764954E-2
1.276646250E1,4.319000244E-2,2.018499374E-2,8.765983582E-2
1.277445829E1,7.412409782E-2,1.779484749E-2,8.289718628E-2
1.278245308E1,6.652617455E-2,-3.706693649E-3,9.970092773E-2
1.279044933E1,6.121802330E-2,5.867958069E-3,7.822704315E-2
1.279844451E1,6.794917583E-2,-2.046418190E-2,7.589626312E-2
1.280644076E1,6.763684750E-2,-2.521991730E-2,7.353496552E-2
1.281446609E1,6.034719944E-2,-1.802492142E-2,6.875801086E-2
1.282246211E1,5.575907230E-2,-8.420705795E-3,7.111549377E-2
1.283045783E1,4.646098614E-2,2.265286446E-2,6.390953064E-2
1.283845285E1,3.486180305E-2,1.536583900E-2,7.346725464E-2
1.284644887E1,3.996407986E-2,5.734682083E-3,5.189132690E-2
1.285444374E1,2.815353870E-2,-1.470088959E-3,5.427074432E-2
1.286244030E1,4.720771313E-2,5.825996399E-3,6.382465363E-2
1.287046562E1,6.131279469E-2,-1.270294189E-3,7.819938660E-2
1.287846165E1,5.620634556E-2,-2.984929085E-2,8.777236938E-2
1.288645698E1,6.301569939E-2,-8.174180984E-3,7.820701599E-2
1.289445369E1,6.519758701E-2,1.475572586E-3,9.018516541E-2
1.290244840E1,6.513440609E-2,1.593732834E-2,1.069221497E-1
1.291044512E1,6.526887417E-2,1.595282555E-2,7.577419281E-2
1.291843983E1,5.346560478E-2,8.803367615E-3,9.010410309E-2
1.292646547E1,4.173421860E-2,1.844882965E-2,6.850051880E-2
1.293446203E1,3.469431400E-2,8.874654770E-3,9.002780914E-2
1.294245659E1,4.413807392E-2,1.127934456E-2,8.285903931E-2
1.295045222E1,6.297743320E-2,1.368165016E-2,8.050823212E-2
1.295844855E1,4.588103294E-2,1.129484177E-2,7.815837860E-2
1.296644496E1,7.430994511E-2,1.610112190E-2,6.143665314E-2
1.297443967E1,6.466138363E-2,1.132297516E-2,5.186557770E-2
1.298246616E1,5.278265476E-2,-7.874965668E-3,6.623268127E-2
1.299046195E1,4.831039906E-2,1.827716827E-2,6.385326385E-2
1.299845728E1,4.883420467E-2,6.152629852E-3,7.819366455E-2
1.300645307E1,3.762626648E-2,-8.389711380E-3,8.293151855E-2
1.301444847E1,2.639436722E-2,1.061010361E-2,7.808780670E-2
1.302244380E1,4.127502441E-2,2.476739883E-2,9.244632721E-2
1.303043959E1,1.996338367E-2,1.508665085E-2,9.244632721E-2
1.303846569E1,4.133737087E-2,5.516052246E-3,8.289241791E-2
1.304646148E1,6.006562710E-2,3.174781799E-3,8.054256439E-2
1.305445720E1,7.850682735E-2,-3.942966461E-3,7.104587555E-2
1.306245291E1,6.350624561E-2,-8.661508560E-3,6.393051147E-2
1.307044862E1,7.508516312E-2,-6.236314774E-3,4.482173920E-2
1.307844395E1,9.407913685E-2,-1.492738724E-3,6.161785126E-2
1.308644036E1,6.784772873E-2,3.230333328E-3,4.965400696E-2
1.309446561E1,4.901540279E-2,7.914304733E-3,5.921936035E-2
1.310246186E1,3.750348091E-2,7.781982422E-3,4.722499847E-2
1.311045665E1,3.552961349E-2,1.246643066E-2,5.198764801E-2
1.311845244E1,4.294836521E-2,4.606246948E-4,7.112026215E-2
1.312644901E1,1.425886154E-2,5.323886871E-3,5.911827087E-2
1.313444380E1,2.618265152E-2,3.043651581E-3,8.063602448E-2
1.314243989E1,6.188988686E-2,7.755756378E-4,7.583618164E-2
1.315046576E1,4.480636120E-2,9.751319885E-4,9.018325806E-2
1.315846117E1,5.171692371E-2,5.937814713E-3,8.777046204E-2
1.316645742E1,5.621945858E-2,-1.547527313E-2,1.069211960E-1
1.317445221E1,5.848693848E-2,-2.012658119E-2,9.731864929E-2
1.318244892E1,6.336343288E-2,-2.016520500E-2,9.731864929E-2
1.319044333E1,6.589651108E-2,-2.256059647E-2,9.969329834E-2
1.319844004E1,7.323527336E-2,-1.796698570E-2,9.015750885E-2
1.320646645E1,4.957163334E-2,2.723741531E-2,8.781528473E-2
1.321446101E1,3.318369389E-2,2.453017235E-2,7.589340210E-2
1.322245665E1,4.547989368E-2,2.904486656E-2,3.762722015E-2
1.323045328E1,4.326701164E-2,3.115606308E-2,4.008865356E-2
1.323844869E1,1.237022877E-2,3.816866875E-2,4.489994049E-2
1.324644410E1,3.178405762E-2,1.185464859E-2,7.837390900E-2
1.325444020E1,2.000153065E-2,-1.438784599E-2,6.634521484E-2
1.326246537E1,5.354630947E-2,-2.617001534E-2,6.867504120E-2
1.327046147E1,4.132556915E-2,-2.031803131E-3,6.864738464E-2
1.327845718E1,6.961452961E-2,9.938478470E-3,2.082633972E-2
1.328645282E1,6.431651115E-2,7.701635361E-3,1.605892181E-2
1.329444792E1,6.863653660E-2,2.450108528E-2,1.132392883E-2
1.330244394E1,7.560753822E-2,5.395412445E-3,1.133823395E-2
1.331047019E1,7.078969479E-2,-1.123690605E-2,5.679130554E-2
1.331846560E1,6.610321999E-2,-6.307601929E-3,9.982776642E-2
1.332646162E1,9.252786636E-2,1.063466072E-2,1.548223495E-1
1.333445695E1,8.080279827E-2,8.359670639E-3,1.499605179E-1
1.334245182E1,6.669056416E-2,2.047204971E-2,1.546669006E-1
1.335044722E1,4.761898518E-2,1.824831963E-2,1.162939072E-1
1.335844324E1,5.460500717E-2,6.483078003E-3,9.470748901E-2
1.336646942E1,5.422902107E-2,-2.431488037E-2,5.395317078E-2
1.337446544E1,4.402828217E-2,-2.406859398E-2,3.002071381E-2
1.338246116E1,2.438747883E-2,-2.849435806E-2,1.241683960E-3
1.339045779E1,2.180397511E-2,-6.782293320E-3,6.004333496E-3
1.339845189E1,1.959872246E-2,-1.389598846E-2,1.553153992E-2
1.340644860E1,1.293957233E-2,1.242303848E-2,3.701019287E-2
1.341444393E1,2.089416981E-2,2.192187309E-2,7.044601440E-2
1.342246980E1,4.056227207E-2,2.420186996E-2,9.674549103E-2
1.343046490E1,5.524420738E-2,3.115892410E-2,1.039562225E-1
1.343846092E1,5.770790577E-2,2.392315865E-2,1.087522507E-1
1.344645663E1,9.322917461E-2,1.190829277E-2,1.088218689E-1
1.345445204E1,9.736275673E-2,2.869176865E-2,9.933090210E-2
1.346244783E1,8.947050571E-2,3.115296364E-2,7.546710968E-2
1.347044385E1,7.714033127E-2,4.072856903E-2,7.073020935E-2
1.347846934E1,6.986701488E-2,4.317522049E-2,7.072544098E-2
1.348646574E1,6.047856808E-2,-4.604816437E-3,4.193401337E-2
1.349446115E1,4.168665409E-2,-1.404047012E-2,2.268409729E-2
1.350245625E1,3.259134293E-2,-1.141476631E-2,2.972412109E-2
1.351045288E1,2.340865135E-2,-1.127338409E-2,4.877567291E-2
1.351844760E1,2.822279930E-2,-1.354360580E-2,7.985687256E-2
1.352644300E1,2.789306641E-2,5.842447281E-3,7.025241852E-2
1.353446956E1,5.373823643E-2,1.577639580E-2,8.457183838E-2
1.354246435E1,6.534075737E-2,6.824493408E-3,8.921051025E-2
1.355046191E1,6.991493702E-2,2.843618393E-3,9.616184235E-2
1.355845663E1,6.978404522E-2,-3.448629379E-2,6.234645844E-2
1.356645211E1,3.155970573E-2,-2.397966385E-2,5.724620819E-2
1.357444744E1,3.179466724E-2,-2.789974213E-2,4.975032806E-2
1.358244315E1,5.764245987E-3,6.126880646E-3,7.109165192E-2
1.359046910E1,-2.056038380E-2,5.650568008E-2,8.781719208E-2
1.359846512E1,-3.773462772E-2,8.969831467E-2,1.215000153E-1
1.360646076E1,1.419675350E-2,6.759166718E-2,1.241788864E-1
1.361445616E1,3.980064392E-2,4.280471802E-2,1.125850677E-1
1.362245226E1,6.322276592E-2,-1.387119293E-3,7.470607758E-2
1.363044767E1,6.995451450E-2,-2.413296700E-2,4.163646698E-2
1.363844369E1,1.054437160E-1,-3.962874413E-2,1.333236694E-2
1.364646979E1,1.356333494E-1,-2.610588074E-2,1.767158508E-3
1.365446527E1,1.988198757E-1,-9.872674942E-3,2.144813538E-3
1.366246060E1,2.017818689E-1,3.792095184E-2,2.637672424E-2
1.367045539E1,2.095223665E-1,4.549813271E-2,8.397197723E-2
1.367845180E1,1.247794628E-1,4.860234261E-2,1.173973083E-1
1.368644813E1,7.224702835E-2,1.849722862E-2,1.362018585E-1
1.369444346E1,-2.714586258E-2,-3.783893585E-2,1.739788055E-1
1.370246902E1,-7.565975189E-2,-7.291388512E-2,1.758518219E-1
1.371046596E1,-1.122394800E-1,-7.948207855E-2,1.754064560E-1
1.371846021E1,-1.017324924E-1,-8.403134346E-2,1.344947815E-1
1.372645654E1,-8.258068562E-2,-6.958293915E-2,1.057376862E-1
1.373445187E1,-2.852070332E-2,-3.846979141E-2,8.194255829E-2
1.374244789E1,5.578148365E-2,-7.570266724E-3,6.552505493E-2
1.375044268E1,1.014927626E-1,-7.745742798E-3,7.068157196E-2
1.375846894E1,1.235400438E-1,1.117372513E-2,5.666255951E-2
1.376646465E1,1.295365095E-1,4.210662842E-2,7.126045227E-2
1.377446029E1,1.317230463E-1,2.284336090E-2,8.329582214E-2
1.378245546E1,1.202225685E-1,8.259057999E-3,7.851123810E-2
1.379045241E1,5.906307697E-2,3.184771538E-2,5.692100525E-2
1.379844689E1,5.081450939E-2,2.430152893E-2,4.248237610E-2
1.380644260E1,2.575886250E-2,4.066824913E-2,4.003238678E-2
1.381446901E1,2.163672447E-2,5.446600914E-2,3.054332733E-2
1.382246534E1,1.926231384E-2,4.189777374E-2,4.749298096E-2
1.383045982E1,3.056395054E-2,4.133009911E-2,3.340625763E-2
1.383845592E1,5.358397961E-2,5.279970169E-2,3.848838806E-2
1.384645132E1,8.129203320E-2,1.890039444E-2,3.396987915E-2
1.385444696E1,9.472358227E-2,4.086256027E-3,3.185462952E-2
1.386244245E1,7.261919975E-2,-4.655313492E-2,2.247428894E-2
1.387046947E1,6.527471542E-2,-4.696011543E-2,-3.243827820E-2
1.387846464E1,6.782484055E-2,-3.273510933E-2,1.307582855E-2
1.388645974E1,8.227252960E-2,-3.749823570E-2,2.263259888E-2
1.389445607E1,5.133140087E-2,-4.207420349E-2,3.690242767E-2
1.390245140E1,2.997541428E-2,-4.174280167E-2,7.986354828E-2
1.391044650E1,8.510112762E-3,-2.235484123E-2,8.456420898E-2
1.391844313E1,2.042222023E-2,1.369166374E-2,1.108665466E-1
1.392646939E1,4.647803307E-2,3.535294533E-2,1.204462051E-1
1.393446449E1,3.414368629E-2,1.859211922E-2,1.348638535E-1
1.394246020E1,2.919232845E-2,3.523421288E-2,1.157722473E-1
1.395045614E1,2.444148064E-2,2.550697327E-2,1.014499664E-1
1.395845163E1,1.487839222E-2,2.769923210E-2,9.193611145E-2
1.396644665E1,2.675044537E-2,3.539800644E-3,6.807804108E-2
1.397444244E1,3.844892979E-2,1.530241966E-2,4.184913635E-2
1.398246884E1,5.018687248E-2,2.476692200E-2,3.473567963E-2
1.398844886E1,6.653904915E-2,1.507711411E-2,3.722572327E-2
1.399046517E1,6.653904915E-2,1.028871536E-2,4.201412201E-2
1.399846004E1,8.038794994E-2,5.385637283E-3,5.409526825E-2
1.400645629E1,8.702397346E-2,3.384900093E-2,6.383705139E-2
1.401445178E1,7.211327553E-2,1.680922508E-2,7.597732544E-2
1.402244749E1,9.814417362E-2,1.408958435E-2,7.852172852E-2
1.403044351E1,7.665121555E-2,1.863741875E-2,1.145038605E-1
1.403846807E1,6.507062912E-2,1.594662666E-2,1.121501923E-1
1.404646479E1,6.563901901E-2,-2.274107933E-2,1.169805527E-1
1.405445981E1,6.861293316E-2,-1.834225655E-2,9.547424316E-2
1.406245621E1,4.765200615E-2,5.211353302E-3,6.917953491E-2
1.407045039E1,2.906250954E-2,-1.188302040E-2,5.005359650E-2
1.407844726E1,1.027810574E-2,6.907224655E-3,2.378177643E-2
1.408644235E1,-6.298542023E-3,1.361227036E-2,1.672744751E-2
1.409446822E1,1.513111591E-2,-1.540589333E-2,2.641391754E-2
1.410246371E1,3.163897991E-2,-2.996754646E-2,2.412033081E-2
1.411046096E1,4.320311546E-2,-1.570749283E-2,5.773162842E-2
1.411845482E1,6.434845924E-2,-3.014445305E-2,6.738948822E-2
1.412645116E1,6.167888641E-2,-3.499865532E-2,6.745052338E-2
1.413444710E1,6.877422333E-2,-2.548813820E-2,6.508922577E-2
1.414244228E1,7.849681377E-2,-1.120758057E-2,7.946205139E-2
1.415046776E1,5.702209473E-2,5.496978760E-3,7.468032837E-2
1.415846416E1,4.499101639E-2,3.010272980E-3,7.711315155E-2
1.416646018E1,6.395936012E-2,-8.969545364E-3,7.714271545E-2
1.417445590E1,4.198002815E-2,-1.797437668E-3,8.678531647E-2
1.418245069E1,4.391026497E-2,5.266189575E-3,7.013034821E-2
1.419044764E1,4.108715057E-2,1.221013069E-2,7.505798340E-2
1.419844181E1,5.271327496E-2,4.720687866E-5,4.404544830E-2
1.420646891E1,5.260491371E-2,4.748582840E-3,6.563568115E-2
1.421446362E1,4.547011852E-2,2.309799194E-3,5.846118927E-2
1.422245941E1,3.140258789E-2,-2.651929855E-3,8.720493317E-2
1.423045451E1,5.581665039E-2,-1.012063026E-2,6.568241119E-2
1.423845053E1,4.198002815E-2,2.548336983E-2,6.331253052E-2
1.424644748E1,4.248571396E-2,2.043414116E-2,3.938293457E-2
1.425444219E1,4.762101173E-2,2.035689354E-2,3.935813904E-2
1.426246844E1,5.977010727E-2,1.076769829E-2,2.497100830E-2
1.427046439E1,5.259025097E-2,1.560878754E-2,3.931808472E-2
1.427845926E1,5.717444420E-2,1.342773438E-3,4.649734497E-2
1.428645582E1,3.780543804E-2,1.451492310E-3,7.522583008E-2
1.429445068E1,4.249835014E-2,-5.641222000E-3,1.206989288E-1
1.430244663E1,5.660903454E-2,-1.275348663E-2,1.470489502E-1
1.431047188E1,7.070493698E-2,-5.656480789E-3,1.255674362E-1
1.431846759E1,8.732354641E-2,1.330590248E-2,1.136798859E-1
1.432646423E1,7.534658909E-2,2.279520035E-2,8.018970490E-2
1.433446002E1,7.059407234E-2,1.305031776E-2,5.629634857E-2
1.434245504E1,7.786762714E-2,1.010179520E-3,1.799774170E-2
1.435045176E1,3.724479675E-2,-1.817345619E-2,1.237869263E-3
1.435844678E1,1.599693298E-2,-1.095247269E-2,-1.797199249E-2
1.436644218E1,-7.362365723E-3,-8.504152298E-3,-6.102561951E-3
1.437446805E1,2.861976624E-3,-6.042242050E-3,2.251338959E-2
1.438246415E1,1.768076420E-2,-3.504514694E-3,4.634380341E-2
1.439045917E1,-2.990972996E-2,1.368999481E-3,7.500553131E-2
1.439845466E1,1.811194420E-2,6.174564362E-3,8.216285706E-2
1.440645060E1,3.954088688E-2,4.434847832E-2,9.179878235E-2
1.441444639E1,8.938801289E-2,4.900002480E-2,8.951187134E-2
1.442247187E1,8.649849892E-2,3.453969955E-2,8.003711700E-2
1.443046920E1,1.050696373E-1,3.453850746E-2,8.490943909E-2
1.443846299E1,9.042382240E-2,1.541233063E-2,8.254623413E-2
1.444645932E1,7.140851021E-2,2.016019821E-2,7.535743713E-2
1.445445481E1,5.257833004E-2,-8.470535278E-3,6.330680847E-2
1.446245075E1,4.816281796E-2,-2.513289452E-2,5.603885651E-2
1.447044339E1,4.124116898E-2,-1.548290253E-2,5.597782135E-2
1.447844156E1,3.672707081E-2,-1.786041260E-2,4.635620117E-2
1.448646782E1,2.740430832E-2,-8.351325989E-3,4.634189606E-2
1.449446353E1,4.422545433E-2,3.642082214E-3,2.477836609E-2
1.450245894E1,2.278757095E-2,2.757334709E-2,4.631328583E-2
1.451045611E1,3.738570213E-2,1.333642006E-2,4.863357544E-2
1.451845067E1,6.139028072E-2,8.773565292E-3,4.615688324E-2
1.452644608E1,7.570755482E-2,1.386809349E-2,5.324745178E-2
1.453447225E1,8.261442184E-2,6.963968277E-3,5.798435211E-2
1.454246735E1,7.996726036E-2,-9.480476379E-3,8.664989471E-2
1.455046306E1,9.400868416E-2,-3.323292732E-2,6.748104095E-2
1.455845901E1,9.129822254E-2,-3.067135811E-2,7.465553284E-2
1.456645442E1,6.724524498E-2,-1.610612869E-2,7.221221924E-2
1.457445021E1,5.304491520E-2,-2.319908142E-2,6.018733978E-2
1.458244615E1,5.095696449E-2,-1.356744766E-2,6.252002716E-2
1.459047263E1,5.134320259E-2,2.485632896E-2,5.285072327E-2
1.459846750E1,5.648732185E-2,1.138687134E-3,5.272579193E-2
1.460646414E1,6.141972542E-2,6.273031235E-3,5.977535248E-2
1.461445893E1,7.084929943E-2,1.148629189E-2,4.050540924E-2
1.462245495E1,6.329083443E-2,-7.231473923E-3,1.887130737E-2
1.463044943E1,5.082118511E-2,3.919601440E-4,4.274272919E-2
1.463844576E1,5.514788628E-2,-1.119446754E-2,3.550052643E-2
1.464647225E1,5.728077888E-2,-3.794193268E-3,3.546810150E-2
1.465446765E1,4.760873318E-2,-1.279830933E-3,5.459594727E-2
1.466246329E1,1.934218407E-2,-3.585577011E-3,6.168460846E-2
1.467045931E1,3.674387932E-2,8.400917053E-3,6.876945496E-2
1.467845533E1,2.314794064E-2,2.990174294E-2,9.501075745E-2
1.468645074E1,2.868783474E-2,-3.651857376E-3,9.491443634E-2
1.469444530E1,1.738178730E-2,8.365154266E-3,1.019868851E-1
1.470247140E1,1.543474197E-2,5.390048027E-2,9.951400757E-2
1.471046803E1,3.239715099E-2,3.252172470E-2,8.745956421E-2
1.471846321E1,3.711855412E-2,2.790451050E-2,7.304954529E-2
1.472645923E1,5.118131638E-2,1.612281799E-2,7.063579559E-2
1.473445517E1,5.792701244E-2,1.633930206E-2,6.344604492E-2
1.474244996E1,7.900857925E-2,9.207725525E-3,6.110191345E-2
1.475044668E1,7.149922848E-2,9.200096130E-3,4.439067841E-2
1.475847155E1,8.092558384E-2,-7.577180862E-3,2.526569366E-2
1.476646734E1,9.287226200E-2,-5.273342133E-3,5.163478851E-2
1.477446274E1,7.151901722E-2,8.851289749E-3,3.253078461E-2
1.478245907E1,7.670533657E-2,1.107454300E-2,4.689407349E-2
1.479045379E1,8.188235760E-2,-3.423690796E-3,7.082366943E-2
1.479845012E1,3.931260109E-2,8.396387100E-3,8.755683899E-2
1.480644560E1,3.982925415E-2,-3.714799881E-3,7.316398621E-2
1.481447170E1,4.499208927E-2,1.537752151E-2,8.749485016E-2
1.482246718E1,3.324162960E-2,3.314256668E-3,5.397415161E-2
1.483046343E1,5.241107941E-2,-6.293535233E-3,5.158805847E-2
1.483845861E1,6.673049927E-2,-2.045607567E-2,3.237533569E-2
1.484645371E1,4.740762711E-2,-8.250474930E-3,1.077556610E-2
1.485444942E1,6.861460209E-2,4.036426544E-3,-3.643035889E-3
1.486244598E1,5.141627789E-2,-2.441287041E-2,2.266407013E-2
1.487047131E1,4.867899418E-2,-1.701545715E-2,4.179763794E-2
1.487846764E1,5.807888508E-2,-9.608507156E-3,5.611610413E-2
1.488646243E1,5.557143688E-2,-2.617049217E-2,7.043361664E-2
1.489445899E1,6.034266949E-2,5.116224289E-3,6.798839569E-2
1.490245447E1,6.055831909E-2,3.398108482E-2,7.270431519E-2
1.491045072E1,5.606055260E-2,1.728773117E-2,8.221817017E-2
1.491844528E1,4.673051834E-2,2.697229385E-2,8.214759827E-2
1.492647177E1,4.922866821E-2,2.228355408E-2,7.970619202E-2
1.493446717E1,3.248775005E-2,-6.385326385E-3,6.771183014E-2
1.494246220E1,3.958320618E-2,8.008480072E-3,7.250499725E-2
1.495045891E1,4.185497761E-2,3.232717514E-3,6.054687500E-2
1.495845455E1,5.370581150E-2,1.759552956E-2,5.338096619E-2
1.496645026E1,5.626761913E-2,2.475357056E-2,7.012462616E-2
1.497444513E1,4.238498211E-2,1.988291740E-2,6.768798828E-2
1.498247153E1,4.544055462E-2,5.413532257E-3,6.283855438E-2
1.499046794E1,3.427660465E-2,1.244449615E-2,6.277275085E-2
1.499846265E1,2.302217484E-2,5.112648010E-3,6.271839142E-2
1.500645868E1,2.591741085E-2,1.819133759E-4,7.466411591E-2
1.501445346E1,5.483865738E-2,1.916885376E-2,7.947921753E-2
1.502244987E1,4.776883125E-2,2.619671822E-2,1.010618210E-1
1.503044489E1,5.018877983E-2,9.377479553E-3,8.671188354E-2
1.503847107E1,6.694316864E-2,-9.837865829E-3,8.433818817E-2
1.504646709E1,6.233918667E-2,-3.740787506E-4,8.674335480E-2
1.505446257E1,6.029188633E-2,-7.772684097E-3,7.000350952E-2
1.506245852E1,2.019202709E-2,-1.751804352E-2,5.321311951E-2
1.507045331E1,4.685902596E-2,-3.303289413E-3,5.560874939E-2
1.507844941E1,3.984344006E-2,-2.490735054E-2,4.363155365E-2
1.508644481E1,3.727734089E-2,-1.309847832E-2,4.131507874E-2
1.509447099E1,5.123531818E-2,-1.806092262E-2,5.818843842E-2
1.510246639E1,7.221853733E-2,-1.820874214E-2,3.916263580E-2
1.511046234E1,9.567403793E-2,3.142118454E-3,1.296043396E-2
1.511845836E1,6.692922115E-2,2.924680710E-3,1.303291321E-2
1.512645500E1,3.870737553E-2,-9.228229523E-3,2.499008179E-2
1.513444917E1,3.970587254E-2,1.441216469E-2,4.409790039E-2
1.514244519E1,2.162969112E-2,-9.794950485E-3,4.881858826E-2
1.515047268E1,2.486658096E-2,2.115964890E-3,4.632472992E-2
1.515846685E1,4.184532166E-2,-1.694941521E-2,5.344676971E-2
1.516646249E1,4.624474049E-2,-2.202749252E-3,5.816745758E-2
1.517445766E1,6.444156170E-2,-1.127529144E-2,6.771755219E-2
1.518245392E1,8.249437809E-2,5.960226059E-3,4.856586456E-2
1.519044902E1,8.634269238E-2,2.791666985E-2,8.687591553E-2
1.519844419E1,8.566439152E-2,2.104711533E-2,6.771755219E-2
1.520647091E1,8.307945728E-2,9.359359741E-3,9.399032593E-2
1.521446700E1,7.621872425E-2,3.338098526E-2,8.912944794E-2
1.522246241E1,6.507802010E-2,2.859067917E-2,9.140586853E-2
1.523045897E1,4.211664200E-2,1.899218559E-2,7.451438904E-2
1.523845438E1,9.464859962E-3,2.267360687E-3,8.156204224E-2
1.524644924E1,2.181470394E-2,1.195430756E-2,3.837680817E-2
1.525444526E1,-1.899766922E-2,-9.512186050E-3,4.315376282E-2
1.526247144E1,9.122967720E-3,-4.599094391E-3,2.883529663E-2
1.527046623E1,2.515196800E-2,-2.128887177E-2,3.131198883E-2
1.527846256E1,5.337584019E-2,1.705694199E-2,3.376483917E-2
1.528645789E1,6.283783913E-2,3.865146637E-2,6.489086151E-2
1.529445299E1,6.064534187E-2,3.622674942E-2,7.444858551E-2
1.530244878E1,4.937469959E-2,1.930499077E-2,9.355545044E-2
1.531044572E1,4.561495781E-2,2.874636650E-2,9.105873108E-2
1.531847098E1,3.462362289E-2,1.648354530E-2,8.383083344E-2
1.532646730E1,4.971742630E-2,1.632046700E-2,7.899188995E-2
1.533446240E1,5.228006840E-2,1.614522934E-2,5.268764496E-2
1.534245773E1,4.495978355E-2,-5.487203598E-3,5.752277374E-2
1.535045291E1,6.123375893E-2,-2.222013474E-2,4.082393646E-2
1.535844924E1,6.543076038E-2,-1.979184151E-2,4.089736938E-2
1.536644518E1,6.974112988E-2,-1.489329338E-2,1.938247681E-2
1.537447113E1,6.223285198E-2,-3.633546829E-2,3.375911713E-2
1.538246622E1,4.804623127E-2,-2.189207077E-2,4.568004608E-2
1.539046255E1,5.092561245E-2,-1.942348480E-2,3.361511230E-2
1.539845727E1,3.246712685E-2,-1.700973511E-2,3.829860687E-2
1.540645336E1,3.807926178E-2,-4.905700684E-3,6.926250458E-2
1.541444900E1,1.960229874E-2,4.764318466E-3,3.801155090E-2
1.542247487E1,1.765537262E-2,-2.274990082E-3,5.945014954E-2
1.543047028E1,2.975344658E-2,2.423357964E-2,5.698204041E-2
1.543846607E1,3.898954391E-2,3.394389153E-2,4.501724243E-2
1.544646201E1,5.756115913E-2,2.935528755E-2,6.179428101E-2
1.545445773E1,5.928421021E-2,-1.430034637E-3,4.502010345E-2
1.546245382E1,8.726108074E-2,-1.309132576E-2,6.178665161E-2
1.547045015E1,8.438825607E-2,1.590299606E-2,6.416416168E-2
1.547847510E1,8.657658100E-2,-3.091812134E-3,5.456542969E-2
1.548647135E1,8.177280426E-2,-1.245856285E-2,6.646919250E-2
1.549446591E1,5.800545216E-2,-9.876966476E-3,7.596206665E-2
1.550246216E1,4.147386551E-2,-2.415633202E-2,8.069038391E-2
1.551045703E1,5.617690086E-2,-1.449155807E-2,6.385421753E-2
1.551845305E1,4.922139645E-2,-7.211685181E-3,6.857872009E-2
1.552644876E1,6.599020958E-2,-7.142066956E-3,4.461288452E-2
1.553447494E1,3.976452351E-2,-1.656603813E-2,7.806682587E-2
1.554247058E1,2.307260036E-2,-1.892185211E-2,7.565116882E-2
1.555046729E1,3.514683247E-2,9.890317917E-3,6.363868713E-2
1.555846177E1,2.567267418E-2,2.243518829E-4,6.844139099E-2
1.556645718E1,4.495203495E-2,1.888275146E-4,8.998298645E-2
1.557445320E1,3.546059132E-2,1.201128960E-2,6.847000122E-2
1.558244822E1,3.556001186E-2,7.069349289E-3,8.287143707E-2
1.559047386E1,4.046785831E-2,1.896214485E-2,8.287906647E-2
1.559847011E1,4.048180580E-2,2.602839470E-2,6.855010986E-2
1.560646613E1,5.955195427E-2,4.043984413E-2,5.657577515E-2
1.561446154E1,5.466067791E-2,2.610254288E-2,4.700374603E-2
1.562245672E1,4.975080490E-2,2.369523048E-2,4.942035675E-2
1.563844845E1,5.675661564E-2,1.156759262E-2,4.470729828E-2
1.564647424E1,5.902683735E-2,1.625061035E-2,2.799892426E-2
1.565447065E1,6.135880947E-2,-6.554126740E-4,2.566146851E-2
1.566246544E1,5.171906948E-2,1.595735550E-3,3.289890289E-2
1.567046169E1,5.168986320E-2,-1.761245728E-2,4.010391235E-2
1.567845717E1,4.694640636E-2,-1.528286934E-2,4.490661621E-2
1.568645320E1,4.934811592E-2,-3.338575363E-3,6.406784058E-2
1.569444822E1,6.147015095E-2,1.327753067E-3,4.972076416E-2
1.570247416E1,5.440890789E-2,2.277874947E-2,6.649398804E-2
1.571047072E1,6.168568134E-2,-3.548622131E-3,6.647682190E-2
1.571846590E1,4.979813099E-2,1.318097115E-2,5.929374695E-2
1.572646184E1,4.256868362E-2,-5.961894989E-3,5.690193176E-2
1.573445671E1,5.190491676E-2,-1.778388023E-2,6.886005402E-2
1.574245304E1,3.973114491E-2,-2.959203720E-2,4.968166351E-2
1.575044806E1,4.660737514E-2,-5.338287354E-2,6.404209137E-2
1.575847431E1,5.358541012E-2,-2.449059486E-2,6.641197205E-2
1.576647095E1,6.273484230E-2,-1.721429825E-2,7.602024078E-2
1.577446597E1,6.254160404E-2,1.395487785E-2,6.645584106E-2
1.578246084E1,5.534446239E-2,3.539443016E-2,6.409931183E-2
1.579045801E1,4.601252079E-2,4.250669479E-2,5.690383911E-2
1.579845280E1,3.686583042E-2,2.566981316E-2,4.968547821E-2
1.580644852E1,2.775382996E-2,3.762578964E-2,4.722976685E-2
1.581447438E1,1.856398582E-2,2.560377121E-2,6.634521484E-2
1.582246956E1,1.633179188E-2,1.366496086E-2,4.955196381E-2
1.583046589E1,4.249477386E-2,1.769065857E-3,3.758144379E-2
1.583846160E1,4.912555218E-2,1.383399963E-2,4.720592499E-2
1.584645755E1,6.050646305E-2,6.697654724E-3,3.051662445E-2
1.585445295E1,6.701195240E-2,-1.964521408E-2,5.934524536E-2
1.586244844E1,6.408762932E-2,-2.904891968E-3,6.421661377E-2
1.587047484E1,7.578170300E-2,-6.997585297E-4,6.670951843E-2
1.587846963E1,7.822799683E-2,-3.328323364E-3,8.353805542E-2
1.588646573E1,9.063196182E-2,-8.272886276E-3,1.026802063E-1
1.589446145E1,6.983757019E-2,8.207559586E-3,8.590412140E-2
1.590245654E1,4.942011833E-2,1.038169861E-2,9.060287476E-2
1.591045164E1,4.083454609E-2,-2.328205109E-2,7.374954224E-2
1.591844790E1,1.776206493E-2,-1.780748367E-3,6.406402588E-2
1.592647446E1,-1.049447060E-2,-1.882791519E-3,3.290367126E-2
1.593446925E1,3.967761993E-3,-1.145172119E-2,2.331161499E-2
1.594246588E1,2.044069767E-2,-1.880407333E-3,2.814197540E-2
1.595046160E1,5.828440189E-2,1.021504402E-2,3.774547577E-2
1.595845631E1,3.869855404E-2,1.019906998E-2,1.626396179E-2
1.596645295E1,4.797935486E-2,-1.841926575E-2,4.978847504E-2
1.597444774E1,5.042469501E-2,1.516366005E-2,5.933761597E-2
1.598247453E1,4.829466343E-2,7.926464081E-3,6.410598755E-2
1.599046901E1,7.737088203E-2,-1.724004745E-3,7.365703583E-2
1.599846573E1,5.854165554E-2,-6.702184677E-3,8.085536957E-2
1.600646113E1,7.074081898E-2,1.235938072E-2,9.282302856E-2
1.601445708E1,8.019495010E-2,-2.152919769E-3,1.144371033E-1
1.602245218E1,5.839037895E-2,-2.258062363E-3,7.859325409E-2
1.603044950E1,6.036007404E-2,1.190519333E-2,7.871913910E-2
