"Time (s)","Acceleration x (m/s^2)","Acceleration y (m/s^2)","Acceleration z (m/s^2)"
5.034353000E-3,-7.326257229E-1,-4.812345505E-1,9.548076630E0
7.077513000E-3,-7.613561153E-1,-4.860229492E-1,9.545681953E0
9.184518000E-3,-8.068459630E-1,-5.075707436E-1,9.555258751E0
1.116852300E-2,-8.188169599E-1,-5.267243981E-1,9.567230225E0
1.318152900E-2,-8.236053586E-1,-5.458779931E-1,9.583989143E0
1.516545700E-2,-8.283938169E-1,-5.506663918E-1,9.610325813E0
1.717930800E-2,-8.212111592E-1,-5.410895944E-1,9.612719536E0
1.916392900E-2,-8.212111592E-1,-5.410895944E-1,9.607931137E0
2.117778000E-2,-8.188169599E-1,-5.626373887E-1,9.610325813E0
2.316117100E-2,-8.164227605E-1,-5.650315881E-1,9.615114212E0
2.517571400E-2,-8.116343617E-1,-5.817909837E-1,9.636661530E0
2.715971900E-2,-8.164227605E-1,-6.200982332E-1,9.646238327E0
2.917287800E-2,-8.283938169E-1,-6.224924326E-1,9.679757118E0
3.115749900E-2,-8.499416113E-1,-6.392518282E-1,9.722852707E0
3.317104300E-2,-8.427590132E-1,-6.560112834E-1,9.732429504E0
3.518520200E-2,-8.403648138E-1,-6.607996821E-1,9.763554573E0
3.716836000E-2,-8.355764151E-1,-6.440402865E-1,9.799467087E0
3.918213600E-2,-8.547300100E-1,-6.392518282E-1,9.809044838E0
4.116675600E-2,-8.547300100E-1,-6.440402865E-1,9.825803757E0
4.318030000E-2,-8.786720037E-1,-6.368576288E-1,9.866505623E0
4.516461200E-2,-8.762778044E-1,-6.272808313E-1,9.878476143E0
4.717792600E-2,-8.786720037E-1,-6.009446383E-1,9.885659218E0
4.916316200E-2,-8.786720037E-1,-5.937620401E-1,9.897629738E0
5.117793600E-2,-8.738836050E-1,-5.961562395E-1,9.897629738E0
5.315940200E-2,-8.571242094E-1,-5.770025849E-1,9.916783333E0
5.517417700E-2,-8.667010069E-1,-5.530605912E-1,9.923966408E0
5.715787500E-2,-8.499416113E-1,-5.458779931E-1,9.919178009E0
5.917180300E-2,-8.355764151E-1,-5.291185975E-1,9.926360130E0
6.118588500E-2,-8.307880163E-1,-5.315127969E-1,9.921571732E0
6.316958200E-2,-8.475474119E-1,-5.410895944E-1,9.921571732E0
6.518412700E-2,-8.379706144E-1,-5.315127969E-1,9.919178009E0
6.716844000E-2,-8.379706144E-1,-5.291185975E-1,9.919178009E0
6.918106000E-2,-8.307880163E-1,-5.003881454E-1,9.916783333E0
7.116629600E-2,-8.475474119E-1,-4.908113480E-1,9.900024414E0
7.317914800E-2,-8.451532125E-1,-4.812345505E-1,9.900024414E0
7.516315300E-2,-8.379706144E-1,-4.692635238E-1,9.878476143E0
7.717738900E-2,-8.259995580E-1,-4.644751251E-1,9.878476143E0
7.916070100E-2,-8.236053586E-1,-4.596867263E-1,9.866505623E0
8.117486100E-2,-8.188169599E-1,-4.620809257E-1,9.832986832E0
8.315863500E-2,-8.164227605E-1,-4.764461517E-1,9.832986832E0
8.517302500E-2,-8.212111592E-1,-4.788403511E-1,9.828198433E0
8.718410700E-2,-8.140285611E-1,-4.908113480E-1,9.818621635E0
8.917003600E-2,-8.259995580E-1,-5.003881454E-1,9.809044838E0
9.118604100E-2,-8.379706144E-1,-5.003881454E-1,9.797073364E0
9.316812300E-2,-8.307880163E-1,-4.955997467E-1,9.777919769E0
9.518266600E-2,-8.044517636E-1,-5.003881454E-1,9.770736694E0
9.716659500E-2,-7.948749661E-1,-5.051765442E-1,9.763554573E0
9.918075400E-2,-7.924807668E-1,-5.267243981E-1,9.749189377E0
1.011641440E-1,-7.996633649E-1,-5.267243981E-1,9.751583099E0
1.031783800E-1,-7.661445141E-1,-5.339069963E-1,9.756371498E0
1.051626160E-1,-7.733271718E-1,-5.482721925E-1,9.758766174E0
1.071771600E-1,-7.829039693E-1,-5.386953950E-1,9.763554573E0
1.091595500E-1,-7.852981687E-1,-5.386953950E-1,9.753977776E0
1.111755550E-1,-7.733271718E-1,-5.578489900E-1,9.749189377E0
1.131583290E-1,-7.589619160E-1,-5.530605912E-1,9.756371498E0
1.151719500E-1,-7.589619160E-1,-5.578489900E-1,9.749189377E0
1.171858010E-1,-7.541735172E-1,-5.530605912E-1,9.753977776E0
1.191694220E-1,-7.493851185E-1,-5.530605912E-1,9.753977776E0
1.211836580E-1,-7.374141216E-1,-5.770025849E-1,9.763554573E0
1.231678940E-1,-7.398083210E-1,-5.985504389E-1,9.768342972E0
1.251818220E-1,-7.445967197E-1,-5.889736414E-1,9.768342972E0
1.271645970E-1,-7.541735172E-1,-5.985504389E-1,9.768342972E0
1.291799860E-1,-7.493851185E-1,-6.009446383E-1,9.780313492E0
1.311639910E-1,-7.422025204E-1,-5.913678408E-1,9.777919769E0
1.331765360E-1,-7.374141216E-1,-5.913678408E-1,9.787496567E0
1.351605410E-1,-7.422025204E-1,-5.865794420E-1,9.785101891E0
1.371753150E-1,-7.589619160E-1,-5.817909837E-1,9.797073364E0
1.391587050E-1,-7.541735172E-1,-5.793967843E-1,9.806650162E0
1.411726340E-1,-7.661445141E-1,-5.793967843E-1,9.806650162E0
1.431874080E-1,-7.685387731E-1,-5.698199868E-1,9.818621635E0
1.451716440E-1,-7.589619160E-1,-5.937620401E-1,9.823410034E0
1.471855720E-1,-7.709329724E-1,-5.937620401E-1,9.823410034E0
1.491689620E-1,-7.876923680E-1,-5.770025849E-1,9.818621635E0
1.511836600E-1,-7.852981687E-1,-5.626373887E-1,9.804255486E0
1.531664340E-1,-7.876923680E-1,-5.626373887E-1,9.811438560E0
1.551802850E-1,-7.996633649E-1,-5.506663918E-1,9.801861763E0
1.571639830E-1,-8.092401624E-1,-5.267243981E-1,9.809044838E0
1.591779120E-1,-8.116343617E-1,-5.267243981E-1,9.811438560E0
1.611618400E-1,-8.307880163E-1,-5.267243981E-1,9.813833237E0
1.631759980E-1,-8.331822157E-1,-5.291185975E-1,9.816226959E0
1.651596960E-1,-8.451532125E-1,-5.339069963E-1,9.801861763E0
1.671732400E-1,-8.499416113E-1,-5.315127969E-1,9.804255486E0
1.691877840E-1,-8.523358107E-1,-5.291185975E-1,9.804255486E0
1.711724040E-1,-8.571242094E-1,-5.147533417E-1,9.809044838E0
1.731858720E-1,-8.523358107E-1,-5.171475410E-1,9.806650162E0
1.751692610E-1,-8.523358107E-1,-5.051765442E-1,9.804255486E0
1.771840350E-1,-8.667010069E-1,-5.051765442E-1,9.816226959E0
1.791668870E-1,-8.714894056E-1,-5.171475410E-1,9.823410034E0
1.811816610E-1,-8.714894056E-1,-5.123591423E-1,9.830592155E0
1.831653590E-1,-8.690952063E-1,-5.075707436E-1,9.828198433E0
1.851788260E-1,-8.595184088E-1,-5.099649429E-1,9.825803757E0
1.871640620E-1,-8.619126081E-1,-5.171475410E-1,9.823410034E0
1.891772970E-1,-8.451532125E-1,-5.315127969E-1,9.823410034E0
1.911610730E-1,-8.379706144E-1,-5.267243981E-1,9.818621635E0
1.931748470E-1,-8.427590132E-1,-5.339069963E-1,9.835380554E0
1.951576980E-1,-8.427590132E-1,-5.386953950E-1,9.830592155E0
1.971724720E-1,-8.379706144E-1,-5.291185975E-1,9.828198433E0
1.991868630E-1,-8.427590132E-1,-5.147533417E-1,9.835380554E0
2.011705600E-1,-8.451532125E-1,-5.243301988E-1,9.830592155E0
2.031841800E-1,-8.427590132E-1,-5.315127969E-1,9.823410034E0
2.051693390E-1,-8.164227605E-1,-5.386953950E-1,9.818621635E0
2.071822680E-1,-8.164227605E-1,-5.267243981E-1,9.816226959E0
2.091656580E-1,-8.044517636E-1,-5.554547906E-1,9.821015358E0
2.111785860E-1,-8.020575643E-1,-5.554547906E-1,9.825803757E0
2.131613600E-1,-7.996633649E-1,-5.530605912E-1,9.818621635E0
2.151780580E-1,-7.972691655E-1,-5.602431893E-1,9.811438560E0
2.171613710E-1,-7.948749661E-1,-5.530605912E-1,9.821015358E0
2.191762230E-1,-7.685387731E-1,-5.554547906E-1,9.821015358E0
2.211593040E-1,-7.613561153E-1,-5.602431893E-1,9.811438560E0
2.231740020E-1,-7.661445141E-1,-5.602431893E-1,9.801861763E0
2.251577000E-1,-7.589619160E-1,-5.578489900E-1,9.806650162E0
2.271722440E-1,-7.517793179E-1,-5.410895944E-1,9.801861763E0
2.291854790E-1,-7.350199223E-1,-5.506663918E-1,9.797073364E0
2.311701000E-1,-7.350199223E-1,-5.626373887E-1,9.799467087E0
2.331835670E-1,-7.493851185E-1,-5.554547906E-1,9.801861763E0
2.351667260E-1,-7.493851185E-1,-5.602431893E-1,9.794678688E0
2.371808850E-1,-7.469909191E-1,-5.650315881E-1,9.794678688E0
2.391648900E-1,-7.374141216E-1,-5.650315881E-1,9.801861763E0
2.411786650E-1,-7.278373241E-1,-5.530605912E-1,9.797073364E0
2.431624390E-1,-7.254431248E-1,-5.506663918E-1,9.797073364E0
2.451772140E-1,-7.230489254E-1,-5.674257874E-1,9.789890289E0
2.471599110E-1,-7.350199223E-1,-5.722141862E-1,9.792284966E0
2.491744540E-1,-7.445967197E-1,-5.746083856E-1,9.799467087E0
2.511593830E-1,-7.374141216E-1,-5.698199868E-1,9.794678688E0
2.531728500E-1,-7.206547260E-1,-5.554547906E-1,9.780313492E0
2.551863940E-1,-7.134721279E-1,-5.602431893E-1,9.785101891E0
2.571700910E-1,-7.182605267E-1,-5.650315881E-1,9.797073364E0
2.591851740E-1,-7.278373241E-1,-5.746083856E-1,9.797073364E0
2.611680250E-1,-7.326257229E-1,-5.793967843E-1,9.787496567E0
2.631821070E-1,-7.278373241E-1,-5.698199868E-1,9.777919769E0
2.651664200E-1,-7.398083210E-1,-5.698199868E-1,9.773131371E0
2.671808870E-1,-7.374141216E-1,-5.458779931E-1,9.777919769E0
2.691637380E-1,-7.493851185E-1,-5.315127969E-1,9.777919769E0
2.711058200E-1,-7.445967197E-1,-5.363011956E-1,9.777919769E0
2.732501340E-1,-7.374141216E-1,-5.267243981E-1,9.775525093E0
2.751729080E-1,-7.374141216E-1,-5.243301988E-1,9.777919769E0
2.771899130E-1,-7.469909191E-1,-5.171475410E-1,9.777919769E0
2.791741490E-1,-7.589619160E-1,-5.123591423E-1,9.777919769E0
2.811566920E-1,-7.661445141E-1,-5.315127969E-1,9.780313492E0
2.831717750E-1,-7.876923680E-1,-5.219359994E-1,9.787496567E0
2.851853190E-1,-7.924807668E-1,-5.027823448E-1,9.777919769E0
2.871690160E-1,-7.972691655E-1,-5.003881454E-1,9.782708168E0
2.891840210E-1,-7.757213712E-1,-5.075707436E-1,9.785101891E0
2.911686410E-1,-7.948749661E-1,-5.003881454E-1,9.785101891E0
2.931809550E-1,-7.948749661E-1,-5.123591423E-1,9.780313492E0
2.951650370E-1,-8.307880163E-1,-5.219359994E-1,9.785101891E0
2.971791190E-1,-8.236053586E-1,-5.243301988E-1,9.804255486E0
2.991625860E-1,-8.188169599E-1,-5.243301988E-1,9.809044838E0
3.011766680E-1,-8.307880163E-1,-5.267243981E-1,9.809044838E0
3.031603660E-1,-8.499416113E-1,-5.219359994E-1,9.799467087E0
3.051749090E-1,-8.523358107E-1,-5.171475410E-1,9.804255486E0
3.071588370E-1,-8.475474119E-1,-5.123591423E-1,9.816226959E0
3.091721510E-1,-8.643068075E-1,-5.171475410E-1,9.830592155E0
3.111877710E-1,-8.595184088E-1,-5.195417404E-1,9.837775230E0
3.131714690E-1,-8.619126081E-1,-5.123591423E-1,9.849745750E0
3.151843970E-1,-8.475474119E-1,-5.267243981E-1,9.847352028E0
3.171680950E-1,-8.523358107E-1,-5.434837937E-1,9.840168953E0
3.191816390E-1,-8.619126081E-1,-5.386953950E-1,9.847352028E0
3.211654130E-1,-8.690952063E-1,-5.410895944E-1,9.854534149E0
3.231801100E-1,-8.643068075E-1,-5.410895944E-1,9.849745750E0
3.251635000E-1,-8.499416113E-1,-5.530605912E-1,9.830592155E0
3.271774290E-1,-8.379706144E-1,-5.530605912E-1,9.832986832E0
3.291607420E-1,-8.307880163E-1,-5.363011956E-1,9.835380554E0
3.311765160E-1,-8.212111592E-1,-5.219359994E-1,9.830592155E0
3.331601360E-1,-8.212111592E-1,-5.339069963E-1,9.825803757E0
3.351733730E-1,-8.379706144E-1,-5.650315881E-1,9.828198433E0
3.371872240E-1,-8.188169599E-1,-5.530605912E-1,9.828198433E0
3.391712290E-1,-8.140285611E-1,-5.482721925E-1,9.832986832E0
3.411853880E-1,-8.068459630E-1,-5.578489900E-1,9.832986832E0
3.431690860E-1,-8.068459630E-1,-5.530605912E-1,9.823410034E0
3.451835530E-1,-8.092401624E-1,-5.434837937E-1,9.821015358E0
3.471681730E-1,-7.852981687E-1,-5.698199868E-1,9.816226959E0
3.491808710E-1,-7.948749661E-1,-5.841852427E-1,9.816226959E0
3.511660300E-1,-7.972691655E-1,-5.865794420E-1,9.806650162E0
3.531790350E-1,-7.996633649E-1,-5.865794420E-1,9.799467087E0
3.551627330E-1,-7.876923680E-1,-5.865794420E-1,9.801861763E0
3.571768150E-1,-7.733271718E-1,-5.841852427E-1,9.806650162E0
3.591602050E-1,-7.709329724E-1,-5.602431893E-1,9.782708168E0
3.611750560E-1,-7.685387731E-1,-5.602431893E-1,9.775525093E0
3.631583690E-1,-7.661445141E-1,-5.626373887E-1,9.770736694E0
3.651728360E-1,-7.613561153E-1,-5.363011956E-1,9.773131371E0
3.671858420E-1,-7.589619160E-1,-5.458779931E-1,9.765948296E0
3.691707700E-1,-7.517793179E-1,-5.219359994E-1,9.758766174E0
3.711857750E-1,-7.422025204E-1,-5.386953950E-1,9.775525093E0
3.731676260E-1,-7.422025204E-1,-5.506663918E-1,9.773131371E0
3.751821690E-1,-7.589619160E-1,-5.315127969E-1,9.765948296E0
3.771661750E-1,-7.493851185E-1,-5.267243981E-1,9.758766174E0
3.791794110E-1,-7.469909191E-1,-5.267243981E-1,9.761159897E0
3.811636470E-1,-7.326257229E-1,-5.386953950E-1,9.758766174E0
3.831769600E-1,-7.206547260E-1,-5.339069963E-1,9.763554573E0
3.851615810E-1,-7.230489254E-1,-5.363011956E-1,9.768342972E0
3.871760480E-1,-7.326257229E-1,-5.315127969E-1,9.773131371E0
3.891599760E-1,-7.422025204E-1,-5.147533417E-1,9.777919769E0
3.911739040E-1,-7.541735172E-1,-5.147533417E-1,9.785101891E0
3.931569100E-1,-7.661445141E-1,-5.195417404E-1,9.782708168E0
3.951708380E-1,-7.733271718E-1,-5.243301988E-1,9.782708168E0
3.971849200E-1,-7.757213712E-1,-5.147533417E-1,9.768342972E0
3.991693090E-1,-7.876923680E-1,-5.171475410E-1,9.775525093E0
4.011830850E-1,-7.948749661E-1,-5.195417404E-1,9.768342972E0
4.031665510E-1,-8.164227605E-1,-5.123591423E-1,9.775525093E0
4.051813250E-1,-8.283938169E-1,-5.315127969E-1,9.797073364E0
4.071637920E-1,-8.259995580E-1,-5.363011956E-1,9.816226959E0
4.091785660E-1,-8.212111592E-1,-5.315127969E-1,9.818621635E0
4.111638030E-1,-8.331822157E-1,-5.267243981E-1,9.813833237E0
4.131770390E-1,-8.355764151E-1,-5.195417404E-1,9.818621635E0
4.151598130E-1,-8.188169599E-1,-5.363011956E-1,9.813833237E0
4.171739720E-1,-8.044517636E-1,-5.458779931E-1,9.821015358E0
4.191582090E-1,-8.020575643E-1,-5.482721925E-1,9.816226959E0
4.211724440E-1,-8.140285611E-1,-5.602431893E-1,9.823410034E0
4.231862190E-1,-8.164227605E-1,-5.482721925E-1,9.825803757E0
4.251699930E-1,-8.188169599E-1,-5.458779931E-1,9.825803757E0
4.271859220E-1,-8.283938169E-1,-5.363011956E-1,9.832986832E0
4.291675420E-1,-8.259995580E-1,-5.458779931E-1,9.835380554E0
4.311831630E-1,-8.212111592E-1,-5.458779931E-1,9.856928825E0
4.331663210E-1,-8.116343617E-1,-5.147533417E-1,9.859322548E0
4.351791740E-1,-8.188169599E-1,-5.171475410E-1,9.866505623E0
4.371638710E-1,-8.236053586E-1,-5.267243981E-1,9.873687744E0
4.391777220E-1,-8.355764151E-1,-5.315127969E-1,9.861717224E0
4.411611120E-1,-8.259995580E-1,-5.386953950E-1,9.856928825E0
4.431755790E-1,-8.140285611E-1,-5.243301988E-1,9.837775230E0
4.451592000E-1,-7.924807668E-1,-5.219359994E-1,9.821015358E0
4.471731280E-1,-7.876923680E-1,-5.386953950E-1,9.830592155E0
4.491869790E-1,-8.116343617E-1,-5.267243981E-1,9.842563629E0
4.511696760E-1,-8.116343617E-1,-5.267243981E-1,9.842563629E0
4.531847590E-1,-8.092401624E-1,-5.267243981E-1,9.837775230E0
4.551697640E-1,-8.020575643E-1,-5.506663918E-1,9.816226959E0
4.571826920E-1,-8.044517636E-1,-5.578489900E-1,9.809044838E0
4.591663130E-1,-8.164227605E-1,-5.602431893E-1,9.804255486E0
4.611808570E-1,-8.116343617E-1,-5.578489900E-1,9.825803757E0
4.631647850E-1,-8.044517636E-1,-5.506663918E-1,9.821015358E0
4.651790210E-1,-7.996633649E-1,-5.434837937E-1,9.813833237E0
4.671633340E-1,-8.020575643E-1,-5.458779931E-1,9.794678688E0
4.691777240E-1,-8.116343617E-1,-5.506663918E-1,9.787496567E0
4.711611910E-1,-8.259995580E-1,-5.363011956E-1,9.780313492E0
4.731750420E-1,-8.236053586E-1,-5.458779931E-1,9.782708168E0
4.751581240E-1,-8.236053586E-1,-5.650315881E-1,9.785101891E0
4.771722070E-1,-8.403648138E-1,-5.746083856E-1,9.775525093E0
4.791860580E-1,-8.331822157E-1,-5.530605912E-1,9.775525093E0
4.811703710E-1,-8.236053586E-1,-5.554547906E-1,9.773131371E0
4.831842220E-1,-8.236053586E-1,-5.434837937E-1,9.768342972E0
4.851679960E-1,-8.283938169E-1,-5.315127969E-1,9.756371498E0
4.871815410E-1,-8.475474119E-1,-5.315127969E-1,9.732429504E0
4.891655460E-1,-8.571242094E-1,-5.339069963E-1,9.732429504E0
4.911803200E-1,-8.667010069E-1,-5.315127969E-1,9.737217903E0
4.931630940E-1,-8.619126081E-1,-5.363011956E-1,9.744400978E0
4.951774850E-1,-8.451532125E-1,-5.219359994E-1,9.742006302E0
4.971615670E-1,-8.379706144E-1,-5.195417404E-1,9.739612579E0
4.991754180E-1,-8.427590132E-1,-5.195417404E-1,9.742006302E0
5.011591150E-1,-8.619126081E-1,-5.123591423E-1,9.746794701E0
5.031738130E-1,-8.667010069E-1,-5.099649429E-1,9.749189377E0
5.051882800E-1,-8.714894056E-1,-5.123591423E-1,9.753977776E0
5.071710540E-1,-8.714894056E-1,-5.051765442E-1,9.739612579E0
5.091855210E-1,-8.667010069E-1,-4.979939461E-1,9.742006302E0
5.111701420E-1,-8.667010069E-1,-4.979939461E-1,9.751583099E0
5.131824550E-1,-8.690952063E-1,-5.123591423E-1,9.758766174E0
5.151665370E-1,-8.834604025E-1,-5.147533417E-1,9.761159897E0
5.171803880E-1,-8.882488012E-1,-5.291185975E-1,9.749189377E0
5.191646240E-1,-8.858546019E-1,-5.243301988E-1,9.744400978E0
5.211787830E-1,-8.690952063E-1,-5.291185975E-1,9.768342972E0
5.231627880E-1,-8.595184088E-1,-5.171475410E-1,9.777919769E0
5.251766400E-1,-8.690952063E-1,-5.243301988E-1,9.780313492E0
5.271597220E-1,-8.643068075E-1,-5.363011956E-1,9.794678688E0
5.291754200E-1,-8.427590132E-1,-5.291185975E-1,9.801861763E0
5.311597330E-1,-8.523358107E-1,-5.291185975E-1,9.813833237E0
5.331720450E-1,-8.595184088E-1,-5.195417404E-1,9.825803757E0
5.351862810E-1,-8.451532125E-1,-5.339069963E-1,9.821015358E0
5.371699020E-1,-8.451532125E-1,-5.267243981E-1,9.816226959E0
5.391841380E-1,-8.331822157E-1,-5.243301988E-1,9.811438560E0
5.411677590E-1,-8.355764151E-1,-5.267243981E-1,9.806650162E0
5.431816100E-1,-8.283938169E-1,-5.243301988E-1,9.801861763E0
5.451656930E-1,-8.164227605E-1,-5.123591423E-1,9.818621635E0
5.471806980E-1,-7.972691655E-1,-5.171475410E-1,9.832986832E0
5.491637800E-1,-7.972691655E-1,-5.339069963E-1,9.842563629E0
5.511783230E-1,-7.924807668E-1,-5.291185975E-1,9.852140427E0
5.531610210E-1,-7.900865674E-1,-5.315127969E-1,9.844957352E0
5.551748730E-1,-7.972691655E-1,-5.267243981E-1,9.847352028E0
5.571591850E-1,-7.996633649E-1,-5.410895944E-1,9.849745750E0
5.591734210E-1,-7.900865674E-1,-5.410895944E-1,9.852140427E0
5.611865810E-1,-7.900865674E-1,-5.267243981E-1,9.854534149E0
5.631715860E-1,-8.092401624E-1,-5.363011956E-1,9.844957352E0
5.651854370E-1,-8.140285611E-1,-5.291185975E-1,9.837775230E0
5.671679040E-1,-8.307880163E-1,-5.195417404E-1,9.847352028E0
5.691823700E-1,-8.283938169E-1,-5.315127969E-1,9.852140427E0
5.711672990E-1,-8.307880163E-1,-5.315127969E-1,9.840168953E0
5.731808430E-1,-8.331822157E-1,-5.339069963E-1,9.832986832E0
5.751644630E-1,-8.451532125E-1,-5.219359994E-1,9.825803757E0
5.771780830E-1,-8.523358107E-1,-5.171475410E-1,9.828198433E0
5.791620890E-1,-8.738836050E-1,-5.291185975E-1,9.809044838E0
5.811759410E-1,-8.810662031E-1,-5.386953950E-1,9.787496567E0
5.831596380E-1,-8.930372596E-1,-5.339069963E-1,9.787496567E0
5.851740280E-1,-9.074024558E-1,-5.315127969E-1,9.770736694E0
5.871891100E-1,-9.145850539E-1,-5.267243981E-1,9.768342972E0
5.891719620E-1,-9.289502501E-1,-5.291185975E-1,9.763554573E0
5.911869670E-1,-9.433154464E-1,-5.315127969E-1,9.775525093E0
5.931700490E-1,-9.433154464E-1,-5.363011956E-1,9.770736694E0
5.951842850E-1,-9.457096457E-1,-5.339069963E-1,9.756371498E0
5.971672900E-1,-9.528923035E-1,-5.243301988E-1,9.758766174E0
5.991820650E-1,-9.528923035E-1,-5.243301988E-1,9.746794701E0
6.011654540E-1,-9.816226959E-1,-5.315127969E-1,9.727641106E0
6.031793820E-1,-9.792284966E-1,-5.386953950E-1,9.720458984E0
6.051640040E-1,-9.648633003E-1,-5.291185975E-1,9.725247383E0
6.071774700E-1,-9.672574997E-1,-5.315127969E-1,9.722852707E0
6.091609370E-1,-9.911994934E-1,-5.195417404E-1,9.730035782E0
6.111763260E-1,-9.935936928E-1,-5.243301988E-1,9.720458984E0
6.131584090E-1,-9.888052940E-1,-5.386953950E-1,9.715670586E0
6.151738760E-1,-9.959878922E-1,-5.458779931E-1,9.710882187E0
6.171874190E-1,-1.012747288E0,-5.315127969E-1,9.706093788E0
6.191707320E-1,-1.012747288E0,-5.171475410E-1,9.727641106E0
6.211852000E-1,-1.015141487E0,-5.195417404E-1,9.732429504E0
6.231680510E-1,-1.015141487E0,-5.243301988E-1,9.727641106E0
6.251831330E-1,-1.024718285E0,-5.291185975E-1,9.713275909E0
6.271664450E-1,-1.010353088E0,-5.243301988E-1,9.715670586E0
6.291806050E-1,-9.911994934E-1,-5.075707436E-1,9.718064308E0
6.311649180E-1,-9.768342972E-1,-5.027823448E-1,9.720458984E0
6.331779230E-1,-9.720458984E-1,-5.003881454E-1,9.722852707E0
6.351621590E-1,-9.624691010E-1,-4.955997467E-1,9.756371498E0
6.371766260E-1,-9.552865028E-1,-4.908113480E-1,9.763554573E0
6.391597080E-1,-9.552865028E-1,-4.932055473E-1,9.773131371E0
6.411738670E-1,-9.409212470E-1,-4.979939461E-1,9.794678688E0
6.431880260E-1,-9.289502501E-1,-4.955997467E-1,9.794678688E0
6.451724150E-1,-9.289502501E-1,-4.884171486E-1,9.792284966E0
6.471858830E-1,-9.121908545E-1,-4.955997467E-1,9.799467087E0
6.491690420E-1,-9.121908545E-1,-4.860229492E-1,9.797073364E0
6.511849700E-1,-9.265560508E-1,-4.884171486E-1,9.801861763E0
6.531681290E-1,-9.241618514E-1,-4.932055473E-1,9.821015358E0
6.551816730E-1,-9.121908545E-1,-5.147533417E-1,9.821015358E0
6.571659090E-1,-8.882488012E-1,-5.195417404E-1,9.849745750E0
6.591789140E-1,-8.858546019E-1,-5.123591423E-1,9.852140427E0
6.611629190E-1,-8.810662031E-1,-5.171475410E-1,9.854534149E0
6.631773870E-1,-8.906430602E-1,-5.171475410E-1,9.847352028E0
6.651616990E-1,-8.786720037E-1,-5.027823448E-1,9.842563629E0
6.671760890E-1,-8.738836050E-1,-4.979939461E-1,9.847352028E0
6.691585550E-1,-8.762778044E-1,-5.027823448E-1,9.847352028E0
6.711739460E-1,-8.738836050E-1,-5.027823448E-1,9.842563629E0
6.731872590E-1,-8.643068075E-1,-4.979939461E-1,9.847352028E0
6.751711870E-1,-8.619126081E-1,-5.027823448E-1,9.837775230E0
6.771841920E-1,-8.571242094E-1,-4.955997467E-1,9.840168953E0
6.791681200E-1,-8.595184088E-1,-4.955997467E-1,9.847352028E0
6.811823570E-1,-8.547300100E-1,-5.123591423E-1,9.847352028E0
6.831669770E-1,-8.523358107E-1,-5.123591423E-1,9.847352028E0
6.851807510E-1,-8.403648138E-1,-5.099649429E-1,9.832986832E0
6.871636020E-1,-8.355764151E-1,-5.363011956E-1,9.825803757E0
6.891780700E-1,-8.236053586E-1,-5.530605912E-1,9.818621635E0
6.911602290E-1,-8.236053586E-1,-5.530605912E-1,9.818621635E0
6.931773880E-1,-8.116343617E-1,-5.530605912E-1,9.806650162E0
6.951602390E-1,-8.092401624E-1,-5.506663918E-1,9.799467087E0
6.971740140E-1,-8.044517636E-1,-5.530605912E-1,9.809044838E0
6.991882500E-1,-7.924807668E-1,-5.578489900E-1,9.809044838E0
7.011715630E-1,-7.876923680E-1,-5.554547906E-1,9.811438560E0
7.031860290E-1,-7.709329724E-1,-5.626373887E-1,9.809044838E0
7.051694200E-1,-7.852981687E-1,-5.554547906E-1,9.813833237E0
7.071842710E-1,-7.972691655E-1,-5.626373887E-1,9.813833237E0
7.091676610E-1,-7.900865674E-1,-5.602431893E-1,9.804255486E0
7.111818190E-1,-7.876923680E-1,-5.506663918E-1,9.809044838E0
7.131663640E-1,-7.661445141E-1,-5.578489900E-1,9.811438560E0
7.151796000E-1,-7.445967197E-1,-5.339069963E-1,9.811438560E0
7.171632970E-1,-7.422025204E-1,-5.386953950E-1,9.806650162E0
7.191765330E-1,-7.469909191E-1,-5.434837937E-1,9.811438560E0
7.211609220E-1,-7.493851185E-1,-5.386953950E-1,9.804255486E0
7.231746980E-1,-7.445967197E-1,-5.363011956E-1,9.813833237E0
7.251587790E-1,-7.613561153E-1,-5.458779931E-1,9.801861763E0
7.271720150E-1,-7.661445141E-1,-5.482721925E-1,9.797073364E0
7.291873280E-1,-7.589619160E-1,-5.506663918E-1,9.792284966E0
7.311722570E-1,-7.541735172E-1,-5.554547906E-1,9.787496567E0
7.331851850E-1,-7.637503147E-1,-5.363011956E-1,9.797073364E0
7.351683440E-1,-7.685387731E-1,-5.291185975E-1,9.801861763E0
7.371828110E-1,-7.948749661E-1,-5.267243981E-1,9.809044838E0
7.391664320E-1,-7.948749661E-1,-5.386953950E-1,9.811438560E0
7.411806680E-1,-7.900865674E-1,-5.434837937E-1,9.804255486E0
7.431634420E-1,-7.948749661E-1,-5.363011956E-1,9.811438560E0
7.451788320E-1,-8.044517636E-1,-5.291185975E-1,9.816226959E0
7.471619140E-1,-8.188169599E-1,-5.291185975E-1,9.804255486E0
7.491757660E-1,-8.451532125E-1,-5.267243981E-1,9.811438560E0
7.511613090E-1,-8.619126081E-1,-5.243301988E-1,9.806650162E0
7.531741600E-1,-8.738836050E-1,-5.123591423E-1,9.799467087E0
7.551883200E-1,-8.930372596E-1,-5.195417404E-1,9.797073364E0
7.571717870E-1,-8.954314590E-1,-5.195417404E-1,9.801861763E0
7.591859450E-1,-9.121908545E-1,-5.195417404E-1,9.792284966E0
7.611689500E-1,-9.433154464E-1,-5.027823448E-1,9.797073364E0
7.631834170E-1,-9.552865028E-1,-5.099649429E-1,9.801861763E0
7.651671150E-1,-9.720458984E-1,-5.075707436E-1,9.804255486E0
7.671803510E-1,-9.672574997E-1,-5.051765442E-1,9.787496567E0
7.691653560E-1,-9.672574997E-1,-4.932055473E-1,9.787496567E0
7.711809770E-1,-9.935936928E-1,-4.860229492E-1,9.782708168E0
7.731622130E-1,-1.005564690E0,-5.003881454E-1,9.777919769E0
7.751773720E-1,-9.911994934E-1,-5.027823448E-1,9.780313492E0
7.771610690E-1,-9.911994934E-1,-5.027823448E-1,9.782708168E0
7.791748440E-1,-9.864110947E-1,-5.003881454E-1,9.775525093E0
7.811582340E-1,-9.983820915E-1,-5.003881454E-1,9.770736694E0
7.831723930E-1,-9.959878922E-1,-4.932055473E-1,9.782708168E0
7.851875520E-1,-1.003170490E0,-4.884171486E-1,9.785101891E0
7.871718650E-1,-9.935936928E-1,-4.932055473E-1,9.773131371E0
7.891850250E-1,-1.005564690E0,-4.932055473E-1,9.765948296E0
7.911691060E-1,-1.000776291E0,-4.955997467E-1,9.761159897E0
7.931825730E-1,-9.768342972E-1,-5.147533417E-1,9.763554573E0
7.951660400E-1,-9.840168953E-1,-5.075707436E-1,9.777919769E0
7.971804300E-1,-9.840168953E-1,-5.003881454E-1,9.780313492E0
7.991632810E-1,-9.792284966E-1,-5.099649429E-1,9.780313492E0
8.011786710E-1,-9.840168953E-1,-5.051765442E-1,9.773131371E0
8.031613680E-1,-9.744400978E-1,-5.051765442E-1,9.773131371E0
8.051764500E-1,-9.648633003E-1,-5.171475410E-1,9.777919769E0
8.071589950E-1,-9.648633003E-1,-5.267243981E-1,9.777919769E0
8.091728460E-1,-9.552865028E-1,-5.291185975E-1,9.787496567E0
8.111887740E-1,-9.313444495E-1,-5.410895944E-1,9.787496567E0
8.131712400E-1,-9.193734527E-1,-5.458779931E-1,9.777919769E0
8.151854770E-1,-9.145850539E-1,-5.458779931E-1,9.768342972E0
8.171691750E-1,-9.074024558E-1,-5.506663918E-1,9.794678688E0
8.191832560E-1,-8.978256583E-1,-5.410895944E-1,9.789890289E0
8.211667230E-1,-9.002198577E-1,-5.339069963E-1,9.792284966E0
8.231811910E-1,-9.026140571E-1,-5.243301988E-1,9.801861763E0
8.251651190E-1,-9.074024558E-1,-5.315127969E-1,9.801861763E0
8.271798930E-1,-8.978256583E-1,-5.458779931E-1,9.804255486E0
8.291629750E-1,-9.145850539E-1,-5.267243981E-1,9.782708168E0
8.311772120E-1,-9.145850539E-1,-5.243301988E-1,9.787496567E0
8.331605240E-1,-9.026140571E-1,-5.243301988E-1,9.806650162E0
8.351746830E-1,-9.121908545E-1,-5.363011956E-1,9.816226959E0
8.371897650E-1,-9.145850539E-1,-5.363011956E-1,9.818621635E0
8.391726160E-1,-9.193734527E-1,-5.315127969E-1,9.813833237E0
8.411864680E-1,-9.145850539E-1,-5.410895944E-1,9.809044838E0
8.431704730E-1,-9.002198577E-1,-5.410895944E-1,9.804255486E0
8.451845550E-1,-9.026140571E-1,-5.386953950E-1,9.816226959E0
8.471683300E-1,-9.002198577E-1,-5.434837937E-1,9.813833237E0
8.491831050E-1,-8.954314590E-1,-5.434837937E-1,9.804255486E0
8.511670330E-1,-8.906430602E-1,-5.530605912E-1,9.797073364E0
8.531800380E-1,-8.858546019E-1,-5.554547906E-1,9.799467087E0
8.551637350E-1,-9.026140571E-1,-5.578489900E-1,9.809044838E0
8.571775870E-1,-8.858546019E-1,-5.339069963E-1,9.825803757E0
8.591615150E-1,-8.858546019E-1,-5.315127969E-1,9.828198433E0
8.611756740E-1,-9.002198577E-1,-5.506663918E-1,9.823410034E0
8.631588330E-1,-9.121908545E-1,-5.458779931E-1,9.821015358E0
8.651739160E-1,-9.169792533E-1,-5.410895944E-1,9.816226959E0
8.671886900E-1,-9.145850539E-1,-5.315127969E-1,9.782708168E0
8.691720800E-1,-8.954314590E-1,-5.195417404E-1,9.768342972E0
8.711862390E-1,-8.858546019E-1,-5.267243981E-1,9.765948296E0
8.731689360E-1,-8.834604025E-1,-5.123591423E-1,9.780313492E0
8.751828650E-1,-8.786720037E-1,-5.267243981E-1,9.777919769E0
8.771677930E-1,-8.834604025E-1,-5.363011956E-1,9.773131371E0
8.791809520E-1,-8.714894056E-1,-5.434837937E-1,9.775525093E0
8.811650340E-1,-8.643068075E-1,-5.434837937E-1,9.763554573E0
8.831791170E-1,-8.667010069E-1,-5.339069963E-1,9.753977776E0
8.851625070E-1,-8.643068075E-1,-5.554547906E-1,9.763554573E0
8.871730500E-1,-8.738836050E-1,-5.410895944E-1,9.758766174E0
8.891911320E-1,-8.571242094E-1,-5.171475410E-1,9.751583099E0
8.911757530E-1,-8.523358107E-1,-5.123591423E-1,9.753977776E0
8.931588350E-1,-8.499416113E-1,-5.123591423E-1,9.756371498E0
8.951729940E-1,-8.355764151E-1,-5.075707436E-1,9.768342972E0
8.971868450E-1,-8.140285611E-1,-4.955997467E-1,9.763554573E0
8.991702360E-1,-8.140285611E-1,-4.908113480E-1,9.761159897E0
9.011847020E-1,-8.116343617E-1,-5.123591423E-1,9.782708168E0
9.031680920E-1,-8.092401624E-1,-5.075707436E-1,9.780313492E0
9.051829430E-1,-7.948749661E-1,-5.219359994E-1,9.773131371E0
9.071662570E-1,-7.900865674E-1,-5.123591423E-1,9.777919769E0
9.091804160E-1,-7.924807668E-1,-5.003881454E-1,9.775525093E0
9.111644210E-1,-8.092401624E-1,-5.123591423E-1,9.799467087E0
9.131779640E-1,-8.164227605E-1,-5.171475410E-1,9.804255486E0
9.151616620E-1,-8.212111592E-1,-5.099649429E-1,9.806650162E0
9.171758210E-1,-8.212111592E-1,-5.147533417E-1,9.801861763E0
9.191592880E-1,-8.164227605E-1,-5.123591423E-1,9.799467087E0
9.211733700E-1,-8.164227605E-1,-5.099649429E-1,9.797073364E0
9.231872980E-1,-8.212111592E-1,-5.219359994E-1,9.809044838E0
9.251719190E-1,-8.331822157E-1,-5.339069963E-1,9.818621635E0
9.271856940E-1,-8.403648138E-1,-5.410895944E-1,9.821015358E0
9.291685450E-1,-8.475474119E-1,-5.434837937E-1,9.825803757E0
9.311820880E-1,-8.571242094E-1,-5.339069963E-1,9.821015358E0
9.331644790E-1,-8.619126081E-1,-5.243301988E-1,9.832986832E0
9.351817150E-1,-8.619126081E-1,-5.291185975E-1,9.844957352E0
9.371645660E-1,-8.619126081E-1,-5.434837937E-1,9.856928825E0
9.391790320E-1,-8.619126081E-1,-5.315127969E-1,9.859322548E0
9.411629610E-1,-8.786720037E-1,-5.410895944E-1,9.854534149E0
9.431765820E-1,-8.858546019E-1,-5.410895944E-1,9.852140427E0
9.451605100E-1,-8.786720037E-1,-5.506663918E-1,9.828198433E0
9.471756690E-1,-8.906430602E-1,-5.434837937E-1,9.830592155E0
9.491581350E-1,-8.906430602E-1,-5.530605912E-1,9.821015358E0
9.511734490E-1,-8.906430602E-1,-5.530605912E-1,9.818621635E0
9.531864540E-1,-9.026140571E-1,-5.602431893E-1,9.816226959E0
9.551703820E-1,-9.050082564E-1,-5.530605912E-1,9.813833237E0
9.571845410E-1,-9.002198577E-1,-5.746083856E-1,9.816226959E0
9.591683160E-1,-8.906430602E-1,-5.602431893E-1,9.816226959E0
9.611821670E-1,-8.762778044E-1,-5.554547906E-1,9.813833237E0
9.631661720E-1,-8.834604025E-1,-5.410895944E-1,9.799467087E0
9.651812540E-1,-8.906430602E-1,-5.434837937E-1,9.809044838E0
9.671627990E-1,-8.906430602E-1,-5.458779931E-1,9.804255486E0
9.691769580E-1,-8.810662031E-1,-5.386953950E-1,9.780313492E0
9.711627320E-1,-8.738836050E-1,-5.339069963E-1,9.777919769E0
9.731757370E-1,-8.786720037E-1,-5.195417404E-1,9.777919769E0
9.751591270E-1,-8.714894056E-1,-5.243301988E-1,9.785101891E0
9.771739020E-1,-8.738836050E-1,-5.315127969E-1,9.785101891E0
9.791876760E-1,-8.858546019E-1,-5.195417404E-1,9.794678688E0
9.811711420E-1,-8.858546019E-1,-5.291185975E-1,9.806650162E0
9.831852250E-1,-8.762778044E-1,-5.315127969E-1,9.804255486E0
9.851693070E-1,-8.930372596E-1,-5.386953950E-1,9.813833237E0
9.871840810E-1,-8.786720037E-1,-5.291185975E-1,9.818621635E0
9.891671630E-1,-8.738836050E-1,-5.339069963E-1,9.816226959E0
9.911824770E-1,-8.738836050E-1,-5.554547906E-1,9.813833237E0
9.931646360E-1,-8.714894056E-1,-5.554547906E-1,9.809044838E0
9.951784870E-1,-8.714894056E-1,-5.434837937E-1,9.816226959E0
9.971628000E-1,-8.667010069E-1,-5.530605912E-1,9.821015358E0
9.991770360E-1,-8.643068075E-1,-5.674257874E-1,9.823410034E0
1.001160657E0,-8.714894056E-1,-5.674257874E-1,9.823410034E0
1.003174277E0,-8.786720037E-1,-5.506663918E-1,9.809044838E0
1.005188975E0,-8.714894056E-1,-5.626373887E-1,9.801861763E0
1.007171518E0,-8.571242094E-1,-5.674257874E-1,9.804255486E0
1.009187140E0,-8.714894056E-1,-5.674257874E-1,9.804255486E0
1.011171145E0,-8.810662031E-1,-5.578489900E-1,9.797073364E0
1.013184150E0,-8.786720037E-1,-5.363011956E-1,9.782708168E0
1.015168385E0,-8.762778044E-1,-5.291185975E-1,9.782708168E0
1.017181930E0,-8.690952063E-1,-5.291185975E-1,9.787496567E0
1.019166319E0,-8.690952063E-1,-5.339069963E-1,9.780313492E0
1.021180171E0,-8.595184088E-1,-5.386953950E-1,9.761159897E0
1.023163791E0,-8.667010069E-1,-5.339069963E-1,9.761159897E0
1.025178566E0,-8.643068075E-1,-5.075707436E-1,9.756371498E0
1.027162033E0,-8.643068075E-1,-5.027823448E-1,9.758766174E0
1.029175884E0,-8.523358107E-1,-4.979939461E-1,9.756371498E0
1.031160427E0,-8.403648138E-1,-5.075707436E-1,9.758766174E0
1.033173432E0,-8.475474119E-1,-5.003881454E-1,9.742006302E0
1.035187592E0,-8.451532125E-1,-5.099649429E-1,9.753977776E0
1.037170905E0,-8.523358107E-1,-5.123591423E-1,9.763554573E0
1.039185141E0,-8.595184088E-1,-5.267243981E-1,9.758766174E0
1.041169146E0,-8.619126081E-1,-5.363011956E-1,9.751583099E0
1.043182998E0,-8.427590132E-1,-5.434837937E-1,9.758766174E0
1.045167618E0,-8.499416113E-1,-5.434837937E-1,9.765948296E0
1.047180239E0,-8.643068075E-1,-5.458779931E-1,9.770736694E0
1.049164859E0,-8.595184088E-1,-5.434837937E-1,9.782708168E0
1.051179557E0,-8.571242094E-1,-5.458779931E-1,9.782708168E0
1.053161793E0,-8.738836050E-1,-5.410895944E-1,9.787496567E0
1.055176798E0,-8.882488012E-1,-5.147533417E-1,9.809044838E0
1.057159957E0,-8.930372596E-1,-5.195417404E-1,9.811438560E0
1.059174117E0,-8.882488012E-1,-5.267243981E-1,9.828198433E0
1.061188583E0,-8.930372596E-1,-5.315127969E-1,9.840168953E0
1.063171896E0,-9.002198577E-1,-5.315127969E-1,9.835380554E0
1.065186363E0,-8.954314590E-1,-5.243301988E-1,9.837775230E0
1.067170369E0,-8.762778044E-1,-5.363011956E-1,9.835380554E0
1.069183912E0,-8.714894056E-1,-5.291185975E-1,9.837775230E0
1.071168917E0,-8.882488012E-1,-5.219359994E-1,9.840168953E0
1.073182691E0,-8.954314590E-1,-5.267243981E-1,9.840168953E0
1.075165773E0,-8.810662031E-1,-5.386953950E-1,9.844957352E0
1.077179933E0,-8.667010069E-1,-5.626373887E-1,9.856928825E0
1.079163400E0,-8.690952063E-1,-5.554547906E-1,9.864110947E0
1.081177789E0,-8.667010069E-1,-5.410895944E-1,9.856928825E0
1.083161794E0,-8.643068075E-1,-5.530605912E-1,9.854534149E0
1.085175954E0,-8.667010069E-1,-5.554547906E-1,9.856928825E0
1.087158728E0,-8.667010069E-1,-5.482721925E-1,9.859322548E0
1.089174195E0,-8.619126081E-1,-5.458779931E-1,9.849745750E0
1.091188046E0,-8.690952063E-1,-5.506663918E-1,9.842563629E0
1.093170514E0,-8.547300100E-1,-5.458779931E-1,9.837775230E0
1.095185211E0,-8.523358107E-1,-5.386953950E-1,9.832986832E0
1.097169216E0,-8.643068075E-1,-5.410895944E-1,9.832986832E0
1.099183067E0,-8.643068075E-1,-5.339069963E-1,9.816226959E0
1.101166765E0,-8.595184088E-1,-5.171475410E-1,9.804255486E0
1.103180386E0,-8.643068075E-1,-5.075707436E-1,9.801861763E0
1.105164391E0,-8.714894056E-1,-5.099649429E-1,9.809044838E0
1.107179165E0,-8.738836050E-1,-5.075707436E-1,9.801861763E0
1.109161939E0,-8.738836050E-1,-4.908113480E-1,9.782708168E0
1.111177330E0,-8.906430602E-1,-4.932055473E-1,9.758766174E0
1.113160027E0,-8.930372596E-1,-4.955997467E-1,9.761159897E0
1.115173878E0,-8.690952063E-1,-4.740519226E-1,9.761159897E0
1.117188345E0,-8.738836050E-1,-4.788403511E-1,9.742006302E0
1.119171197E0,-8.786720037E-1,-4.788403511E-1,9.737217903E0
1.121186279E0,-8.906430602E-1,-4.908113480E-1,9.732429504E0
1.123169976E0,-8.978256583E-1,-4.788403511E-1,9.732429504E0
1.125184366E0,-9.050082564E-1,-4.716577232E-1,9.730035782E0
1.127166910E0,-9.121908545E-1,-4.764461517E-1,9.730035782E0
1.129180762E0,-8.954314590E-1,-4.955997467E-1,9.725247383E0
1.131166305E0,-8.954314590E-1,-4.932055473E-1,9.727641106E0
1.133180156E0,-9.050082564E-1,-4.860229492E-1,9.730035782E0
1.135163239E0,-9.121908545E-1,-4.884171486E-1,9.730035782E0
1.137177090E0,-9.217676520E-1,-4.884171486E-1,9.725247383E0
1.139161634E0,-9.337386489E-1,-4.860229492E-1,9.727641106E0
1.141175177E0,-9.289502501E-1,-4.979939461E-1,9.732429504E0
1.143189414E0,-9.097966552E-1,-5.219359994E-1,9.746794701E0
1.145173034E0,-9.121908545E-1,-5.219359994E-1,9.756371498E0
1.147187809E0,-9.121908545E-1,-5.291185975E-1,9.761159897E0
1.149171275E0,-9.169792533E-1,-5.195417404E-1,9.792284966E0
1.151185666E0,-9.193734527E-1,-5.171475410E-1,9.794678688E0
1.153168209E0,-9.217676520E-1,-5.339069963E-1,9.787496567E0
1.155183291E0,-9.313444495E-1,-5.339069963E-1,9.804255486E0
1.157166065E0,-9.241618514E-1,-5.339069963E-1,9.823410034E0
1.159181070E0,-9.289502501E-1,-5.386953950E-1,9.835380554E0
1.161164461E0,-9.409212470E-1,-5.578489900E-1,9.847352028E0
1.163178312E0,-9.385270476E-1,-5.746083856E-1,9.832986832E0
1.165162625E0,-9.361328483E-1,-5.746083856E-1,9.840168953E0
1.167175630E0,-9.289502501E-1,-5.698199868E-1,9.866505623E0
1.169190020E0,-9.265560508E-1,-5.626373887E-1,9.854534149E0
1.171172795E0,-9.265560508E-1,-5.626373887E-1,9.854534149E0
1.173186030E0,-9.289502501E-1,-5.674257874E-1,9.852140427E0
1.175172266E0,-9.361328483E-1,-5.626373887E-1,9.847352028E0
1.177186041E0,-9.385270476E-1,-5.554547906E-1,9.852140427E0
1.179169200E0,-9.409212470E-1,-5.530605912E-1,9.842563629E0
1.181183898E0,-9.361328483E-1,-5.458779931E-1,9.835380554E0
1.183167903E0,-9.193734527E-1,-5.554547906E-1,9.818621635E0
1.185182139E0,-9.217676520E-1,-5.506663918E-1,9.809044838E0
1.187166144E0,-9.241618514E-1,-5.386953950E-1,9.811438560E0
1.189179303E0,-9.409212470E-1,-5.363011956E-1,9.794678688E0
1.191164616E0,-9.337386489E-1,-5.339069963E-1,9.794678688E0
1.193177159E0,-9.265560508E-1,-5.195417404E-1,9.785101891E0
1.195160550E0,-9.289502501E-1,-5.003881454E-1,9.763554573E0
1.197175632E0,-9.433154464E-1,-4.908113480E-1,9.753977776E0
1.199189252E0,-9.433154464E-1,-5.027823448E-1,9.742006302E0
1.201172950E0,-9.385270476E-1,-5.051765442E-1,9.742006302E0
1.203187340E0,-9.313444495E-1,-5.003881454E-1,9.730035782E0
1.205170807E0,-9.337386489E-1,-4.788403511E-1,9.715670586E0
1.207184043E0,-9.433154464E-1,-4.596867263E-1,9.708487511E0
1.209168586E0,-9.481038451E-1,-4.644751251E-1,9.706093788E0
1.211183438E0,-9.528923035E-1,-4.596867263E-1,9.708487511E0
1.213166443E0,-9.504981041E-1,-4.788403511E-1,9.713275909E0
1.215180910E0,-9.504981041E-1,-4.764461517E-1,9.718064308E0
1.217163992E0,-9.504981041E-1,-4.788403511E-1,9.713275909E0
1.219178228E0,-9.528923035E-1,-4.644751251E-1,9.720458984E0
1.221161849E0,-9.576807022E-1,-4.812345505E-1,9.725247383E0
1.223175777E0,-9.576807022E-1,-4.955997467E-1,9.742006302E0
1.225190551E0,-9.624691010E-1,-4.812345505E-1,9.732429504E0
1.227175402E0,-9.576807022E-1,-4.788403511E-1,9.725247383E0
1.229188639E0,-9.648633003E-1,-4.860229492E-1,9.744400978E0
1.231173952E0,-9.720458984E-1,-5.003881454E-1,9.780313492E0
1.233185880E0,-9.792284966E-1,-4.955997467E-1,9.792284966E0
1.235169346E0,-9.792284966E-1,-4.860229492E-1,9.794678688E0
1.237184045E0,-9.744400978E-1,-4.932055473E-1,9.804255486E0
1.239167434E0,-9.888052940E-1,-4.932055473E-1,9.825803757E0
1.241181901E0,-9.935936928E-1,-4.860229492E-1,9.809044838E0
1.243165367E0,-9.935936928E-1,-4.955997467E-1,9.809044838E0
1.245180143E0,-9.840168953E-1,-5.051765442E-1,9.806650162E0
1.247162609E0,-9.792284966E-1,-5.099649429E-1,9.797073364E0
1.249177922E0,-9.792284966E-1,-5.147533417E-1,9.801861763E0
1.251162235E0,-9.744400978E-1,-5.267243981E-1,9.804255486E0
1.253174548E0,-9.911994934E-1,-5.410895944E-1,9.792284966E0
1.255189400E0,-9.911994934E-1,-5.410895944E-1,9.789890289E0
1.257173020E0,-9.744400978E-1,-5.291185975E-1,9.787496567E0
1.259186563E0,-9.624691010E-1,-5.075707436E-1,9.830592155E0
1.261170569E0,-9.576807022E-1,-5.099649429E-1,9.837775230E0
1.263183882E0,-9.481038451E-1,-5.363011956E-1,9.832986832E0
1.265168426E0,-9.576807022E-1,-5.626373887E-1,9.825803757E0
1.267183277E0,-9.648633003E-1,-5.746083856E-1,9.825803757E0
1.269166589E0,-9.504981041E-1,-5.937620401E-1,9.832986832E0
1.271182057E0,-9.504981041E-1,-5.961562395E-1,9.842563629E0
1.273164831E0,-9.457096457E-1,-6.033388376E-1,9.900024414E0
1.275178990E0,-9.552865028E-1,-5.913678408E-1,9.916783333E0
1.277161457E0,-9.600749016E-1,-5.937620401E-1,9.919178009E0
1.279176232E0,-9.600749016E-1,-5.793967843E-1,9.923966408E0
1.281159544E0,-9.648633003E-1,-5.722141862E-1,9.919178009E0
1.283173396E0,-9.672574997E-1,-5.506663918E-1,9.909601212E0
1.285188478E0,-9.624691010E-1,-5.243301988E-1,9.895236015E0
1.287171330E0,-9.385270476E-1,-4.955997467E-1,9.861717224E0
1.289185181E0,-9.385270476E-1,-4.764461517E-1,9.844957352E0
1.291170724E0,-9.241618514E-1,-4.525041282E-1,9.811438560E0
1.293184499E0,-9.074024558E-1,-4.333505034E-1,9.797073364E0
1.295167351E0,-9.050082564E-1,-4.285621047E-1,9.780313492E0
1.297181125E0,-8.738836050E-1,-4.189853072E-1,9.756371498E0
1.299165438E0,-8.475474119E-1,-4.309563041E-1,9.749189377E0
1.301178981E0,-8.427590132E-1,-4.261679053E-1,9.713275909E0
1.303162755E0,-8.020575643E-1,-4.357447028E-1,9.703699112E0
1.305177761E0,-7.829039693E-1,-4.429273009E-1,9.703699112E0
1.307161228E0,-7.469909191E-1,-4.668693244E-1,9.708487511E0
1.309175618E0,-7.350199223E-1,-5.075707436E-1,9.713275909E0
1.311190161E0,-7.182605267E-1,-5.195417404E-1,9.715670586E0
1.313173475E0,-6.943184733E-1,-5.530605912E-1,9.715670586E0
1.315187403E0,-6.679822803E-1,-5.674257874E-1,9.720458984E0
1.317170408E0,-6.607996821E-1,-5.602431893E-1,9.730035782E0
1.319184644E0,-6.440402865E-1,-5.889736414E-1,9.739612579E0
1.321168650E0,-6.512228847E-1,-5.889736414E-1,9.763554573E0
1.323182732E0,-6.631938815E-1,-5.913678408E-1,9.773131371E0
1.325166429E0,-6.871358752E-1,-6.033388376E-1,9.792284966E0
1.327179972E0,-7.086837292E-1,-5.961562395E-1,9.794678688E0
1.329164286E0,-7.134721279E-1,-5.961562395E-1,9.809044838E0
1.331180060E0,-7.517793179E-1,-5.841852427E-1,9.828198433E0
1.333160988E0,-7.805097699E-1,-5.746083856E-1,9.830592155E0
1.335175763E0,-8.068459630E-1,-5.650315881E-1,9.837775230E0
1.337189845E0,-8.331822157E-1,-5.626373887E-1,9.866505623E0
1.339173620E0,-8.427590132E-1,-5.506663918E-1,9.880870819E0
1.341188009E0,-8.595184088E-1,-5.147533417E-1,9.897629738E0
1.343171707E0,-8.834604025E-1,-5.051765442E-1,9.900024414E0
1.345185559E0,-9.002198577E-1,-4.860229492E-1,9.892841339E0
1.347170487E0,-9.169792533E-1,-4.572925270E-1,9.880870819E0
1.349183800E0,-9.361328483E-1,-4.501099288E-1,9.866505623E0
1.351168958E0,-9.433154464E-1,-4.453215301E-1,9.852140427E0
1.353181963E0,-9.337386489E-1,-4.644751251E-1,9.809044838E0
1.355165277E0,-9.361328483E-1,-5.123591423E-1,9.768342972E0
1.357179128E0,-9.409212470E-1,-5.482721925E-1,9.765948296E0
1.359163210E0,-9.265560508E-1,-5.722141862E-1,9.777919769E0
1.361177061E0,-9.241618514E-1,-5.865794420E-1,9.806650162E0
1.363160375E0,-9.265560508E-1,-5.817909837E-1,9.828198433E0
1.365175226E0,-9.074024558E-1,-5.746083856E-1,9.854534149E0
1.367188462E0,-9.026140571E-1,-5.554547906E-1,9.854534149E0
1.369173313E0,-9.217676520E-1,-5.363011956E-1,9.844957352E0
1.371186627E0,-8.954314590E-1,-5.147533417E-1,9.809044838E0
1.373170940E0,-8.786720037E-1,-5.027823448E-1,9.799467087E0
1.375185021E0,-8.738836050E-1,-4.788403511E-1,9.756371498E0
1.377167873E0,-8.499416113E-1,-4.525041282E-1,9.722852707E0
1.379182879E0,-8.523358107E-1,-4.429273009E-1,9.706093788E0
1.381166653E0,-8.714894056E-1,-4.333505034E-1,9.684545517E0
1.383179889E0,-8.762778044E-1,-4.453215301E-1,9.674968719E0
1.385164201E0,-8.834604025E-1,-4.572925270E-1,9.665391922E0
1.387178053E0,-8.978256583E-1,-4.812345505E-1,9.655815125E0
1.389161674E0,-8.954314590E-1,-4.740519226E-1,9.674968719E0
1.391177448E0,-8.978256583E-1,-4.788403511E-1,9.677363396E0
1.393159222E0,-9.026140571E-1,-5.075707436E-1,9.715670586E0
1.395173689E0,-9.097966552E-1,-5.123591423E-1,9.749189377E0
1.397188233E0,-9.121908545E-1,-5.075707436E-1,9.756371498E0
1.399170931E0,-9.121908545E-1,-4.979939461E-1,9.756371498E0
1.401185782E0,-9.145850539E-1,-4.860229492E-1,9.753977776E0
1.403169402E0,-8.978256583E-1,-5.003881454E-1,9.753977776E0
1.405183639E0,-8.930372596E-1,-5.171475410E-1,9.765948296E0
1.407166721E0,-9.097966552E-1,-5.099649429E-1,9.761159897E0
1.409180803E0,-9.217676520E-1,-5.075707436E-1,9.782708168E0
1.411163577E0,-9.265560508E-1,-4.932055473E-1,9.787496567E0
1.413176814E0,-9.265560508E-1,-4.884171486E-1,9.792284966E0
1.415193742E0,-9.289502501E-1,-4.884171486E-1,9.789890289E0
1.417176824E0,-9.217676520E-1,-4.812345505E-1,9.780313492E0
1.419160521E0,-9.121908545E-1,-4.764461517E-1,9.770736694E0
1.421174988E0,-9.217676520E-1,-4.644751251E-1,9.768342972E0
1.423188840E0,-9.097966552E-1,-4.644751251E-1,9.753977776E0
1.425172537E0,-9.074024558E-1,-4.692635238E-1,9.758766174E0
1.427187388E0,-9.002198577E-1,-4.836287498E-1,9.780313492E0
1.429170778E0,-9.002198577E-1,-5.123591423E-1,9.794678688E0
1.431185169E0,-8.930372596E-1,-5.219359994E-1,9.804255486E0
1.433168327E0,-8.978256583E-1,-5.291185975E-1,9.825803757E0
1.435182409E0,-9.002198577E-1,-5.434837937E-1,9.835380554E0
1.437165184E0,-8.810662031E-1,-5.506663918E-1,9.859322548E0
1.439180574E0,-8.786720037E-1,-5.578489900E-1,9.854534149E0
1.441163733E0,-8.786720037E-1,-5.554547906E-1,9.852140427E0
1.443178200E0,-8.690952063E-1,-5.315127969E-1,9.856928825E0
1.445161205E0,-8.690952063E-1,-5.219359994E-1,9.847352028E0
1.447174749E0,-8.667010069E-1,-5.219359994E-1,9.837775230E0
1.449189831E0,-8.619126081E-1,-5.219359994E-1,9.832986832E0
1.451174836E0,-8.714894056E-1,-5.123591423E-1,9.818621635E0
1.453188303E0,-8.834604025E-1,-5.075707436E-1,9.823410034E0
1.455172001E0,-8.930372596E-1,-5.123591423E-1,9.825803757E0
1.457185544E0,-9.050082564E-1,-4.979939461E-1,9.816226959E0
1.459169549E0,-9.050082564E-1,-4.860229492E-1,9.818621635E0
1.461183477E0,-8.978256583E-1,-4.812345505E-1,9.828198433E0
1.463167406E0,-8.954314590E-1,-4.979939461E-1,9.832986832E0
1.465181335E0,-8.978256583E-1,-4.884171486E-1,9.840168953E0
1.467165878E0,-9.074024558E-1,-4.908113480E-1,9.828198433E0
1.469179114E0,-8.978256583E-1,-4.908113480E-1,9.828198433E0
1.471163734E0,-8.762778044E-1,-5.075707436E-1,9.825803757E0
1.473176740E0,-8.858546019E-1,-5.099649429E-1,9.813833237E0
1.475160438E0,-8.978256583E-1,-5.075707436E-1,9.813833237E0
1.477175135E0,-8.858546019E-1,-5.171475410E-1,9.804255486E0
1.479188755E0,-8.451532125E-1,-5.339069963E-1,9.806650162E0
1.481172684E0,-8.523358107E-1,-5.363011956E-1,9.794678688E0
1.483186305E0,-8.810662031E-1,-5.386953950E-1,9.770736694E0
1.485170617E0,-9.026140571E-1,-5.434837937E-1,9.775525093E0
1.487184084E0,-9.002198577E-1,-5.434837937E-1,9.780313492E0
1.489168475E0,-8.930372596E-1,-5.267243981E-1,9.782708168E0
1.491183557E0,-8.906430602E-1,-5.315127969E-1,9.770736694E0
1.493165638E0,-8.858546019E-1,-5.243301988E-1,9.765948296E0
1.495180720E0,-8.858546019E-1,-5.075707436E-1,9.773131371E0
1.497164187E0,-8.930372596E-1,-5.003881454E-1,9.780313492E0
1.499178039E0,-8.954314590E-1,-5.075707436E-1,9.770736694E0
1.501161659E0,-9.050082564E-1,-5.051765442E-1,9.756371498E0
1.503175511E0,-8.954314590E-1,-5.099649429E-1,9.765948296E0
1.505190363E0,-8.978256583E-1,-4.884171486E-1,9.780313492E0
1.507174291E0,-9.193734527E-1,-5.051765442E-1,9.763554573E0
1.509187911E0,-9.121908545E-1,-5.195417404E-1,9.761159897E0
1.511172224E0,-9.050082564E-1,-5.099649429E-1,9.753977776E0
1.513185460E0,-9.217676520E-1,-4.955997467E-1,9.768342972E0
1.515169081E0,-9.241618514E-1,-5.003881454E-1,9.773131371E0
1.517183548E0,-9.026140571E-1,-5.075707436E-1,9.761159897E0
1.519167245E0,-9.169792533E-1,-4.979939461E-1,9.761159897E0
1.521181173E0,-9.145850539E-1,-5.123591423E-1,9.770736694E0
1.523164256E0,-9.217676520E-1,-5.171475410E-1,9.780313492E0
1.525179569E0,-9.241618514E-1,-5.051765442E-1,9.794678688E0
1.527161420E0,-9.313444495E-1,-5.123591423E-1,9.801861763E0
1.529176886E0,-9.313444495E-1,-5.147533417E-1,9.825803757E0
1.531161508E0,-9.313444495E-1,-5.171475410E-1,9.825803757E0
1.533174744E0,-9.385270476E-1,-5.267243981E-1,9.830592155E0
1.535188902E0,-9.528923035E-1,-5.195417404E-1,9.840168953E0
1.537172600E0,-9.576807022E-1,-5.243301988E-1,9.844957352E0
1.539187067E0,-9.552865028E-1,-5.099649429E-1,9.842563629E0
1.541169765E0,-9.433154464E-1,-5.003881454E-1,9.832986832E0
1.543184539E0,-9.337386489E-1,-5.123591423E-1,9.835380554E0
1.545167698E0,-9.121908545E-1,-5.219359994E-1,9.830592155E0
1.547183010E0,-9.241618514E-1,-5.267243981E-1,9.832986832E0
1.549166478E0,-9.289502501E-1,-5.315127969E-1,9.837775230E0
1.551180560E0,-9.217676520E-1,-5.410895944E-1,9.837775230E0
1.553164026E0,-9.097966552E-1,-5.339069963E-1,9.823410034E0
1.555178185E0,-9.050082564E-1,-5.195417404E-1,9.823410034E0
1.557161268E0,-8.954314590E-1,-5.219359994E-1,9.832986832E0
1.559175735E0,-8.906430602E-1,-5.051765442E-1,9.828198433E0
1.561189586E0,-8.882488012E-1,-5.075707436E-1,9.830592155E0
1.563173283E0,-8.882488012E-1,-5.027823448E-1,9.832986832E0
1.565187981E0,-8.930372596E-1,-5.003881454E-1,9.828198433E0
1.567171063E0,-8.882488012E-1,-5.147533417E-1,9.825803757E0
1.569186145E0,-8.810662031E-1,-5.123591423E-1,9.818621635E0
1.571170150E0,-8.714894056E-1,-5.027823448E-1,9.818621635E0
1.573182849E0,-8.738836050E-1,-5.027823448E-1,9.801861763E0
1.575167084E0,-8.810662031E-1,-5.099649429E-1,9.806650162E0
1.577181013E0,-8.858546019E-1,-5.099649429E-1,9.801861763E0
1.579164941E0,-8.523358107E-1,-5.099649429E-1,9.799467087E0
1.581179715E0,-8.547300100E-1,-5.315127969E-1,9.792284966E0
1.583162567E0,-8.499416113E-1,-5.243301988E-1,9.785101891E0
1.585176110E0,-8.475474119E-1,-5.195417404E-1,9.775525093E0
1.587192115E0,-8.427590132E-1,-5.219359994E-1,9.775525093E0
1.589174274E0,-8.331822157E-1,-5.123591423E-1,9.775525093E0
1.591190588E0,-8.427590132E-1,-5.171475410E-1,9.775525093E0
1.593172362E0,-8.379706144E-1,-5.243301988E-1,9.780313492E0
1.595186290E0,-8.427590132E-1,-5.075707436E-1,9.775525093E0
1.597170834E0,-8.571242094E-1,-5.003881454E-1,9.770736694E0
1.599184147E0,-8.547300100E-1,-5.027823448E-1,9.773131371E0
1.601168076E0,-8.619126081E-1,-5.003881454E-1,9.763554573E0
1.603182234E0,-8.571242094E-1,-4.955997467E-1,9.756371498E0
1.605166009E0,-8.523358107E-1,-5.051765442E-1,9.751583099E0
1.607176399E0,-8.523358107E-1,-5.003881454E-1,9.751583099E0
1.609193712E0,-8.619126081E-1,-5.003881454E-1,9.758766174E0
1.611178640E0,-8.595184088E-1,-5.027823448E-1,9.761159897E0
1.613161953E0,-8.786720037E-1,-4.788403511E-1,9.770736694E0
1.615175882E0,-8.978256583E-1,-5.003881454E-1,9.765948296E0
1.617189733E0,-9.026140571E-1,-5.027823448E-1,9.765948296E0
1.619173738E0,-8.954314590E-1,-5.243301988E-1,9.749189377E0
1.621187281E0,-8.930372596E-1,-5.147533417E-1,9.749189377E0
1.623171594E0,-9.050082564E-1,-5.195417404E-1,9.758766174E0
1.625185677E0,-9.145850539E-1,-5.075707436E-1,9.761159897E0
1.627169682E0,-9.145850539E-1,-5.027823448E-1,9.758766174E0
1.629183226E0,-9.265560508E-1,-4.932055473E-1,9.777919769E0
1.631167307E0,-9.337386489E-1,-4.932055473E-1,9.787496567E0
1.633180852E0,-9.265560508E-1,-5.051765442E-1,9.787496567E0
1.635164549E0,-9.409212470E-1,-5.147533417E-1,9.785101891E0
1.637178708E0,-9.504981041E-1,-5.171475410E-1,9.782708168E0
1.639162329E0,-9.672574997E-1,-5.099649429E-1,9.785101891E0
1.641176181E0,-9.696516991E-1,-5.051765442E-1,9.789890289E0
1.643190416E0,-9.744400978E-1,-5.003881454E-1,9.787496567E0
1.645174345E0,-9.768342972E-1,-5.003881454E-1,9.787496567E0
1.647188196E0,-9.864110947E-1,-5.123591423E-1,9.797073364E0
1.649171894E0,-9.959878922E-1,-5.171475410E-1,9.809044838E0
1.651184899E0,-9.959878922E-1,-5.171475410E-1,9.809044838E0
1.653169519E0,-9.816226959E-1,-5.075707436E-1,9.809044838E0
1.655184294E0,-9.768342972E-1,-5.003881454E-1,9.818621635E0
1.657167991E0,-9.720458984E-1,-5.003881454E-1,9.818621635E0
1.659182151E0,-9.792284966E-1,-5.195417404E-1,9.797073364E0
1.661166156E0,-9.911994934E-1,-5.219359994E-1,9.799467087E0
1.663179699E0,-9.528923035E-1,-5.219359994E-1,9.789890289E0
1.665163320E0,-9.409212470E-1,-5.219359994E-1,9.804255486E0
1.667178787E0,-9.433154464E-1,-5.267243981E-1,9.804255486E0
1.669161254E0,-9.457096457E-1,-5.219359994E-1,9.794678688E0
1.671176566E0,-9.217676520E-1,-5.339069963E-1,9.792284966E0
1.673189802E0,-9.145850539E-1,-5.434837937E-1,9.799467087E0
1.675172962E0,-9.121908545E-1,-5.219359994E-1,9.794678688E0
1.677187659E0,-9.169792533E-1,-5.219359994E-1,9.787496567E0
1.679171357E0,-9.241618514E-1,-5.267243981E-1,9.785101891E0
1.681185285E0,-9.026140571E-1,-5.219359994E-1,9.787496567E0
1.683169522E0,-8.762778044E-1,-5.267243981E-1,9.792284966E0
1.685182834E0,-8.762778044E-1,-5.243301988E-1,9.787496567E0
1.687165916E0,-8.547300100E-1,-5.434837937E-1,9.777919769E0
1.689180383E0,-8.523358107E-1,-5.458779931E-1,9.785101891E0
1.691165234E0,-8.619126081E-1,-5.339069963E-1,9.789890289E0
1.693178855E0,-8.475474119E-1,-5.315127969E-1,9.794678688E0
1.695162553E0,-8.427590132E-1,-5.458779931E-1,9.787496567E0
1.697176711E0,-8.164227605E-1,-5.482721925E-1,9.787496567E0
1.699190487E0,-8.140285611E-1,-5.602431893E-1,9.794678688E0
1.701173569E0,-8.283938169E-1,-5.578489900E-1,9.787496567E0
1.703188420E0,-8.164227605E-1,-5.458779931E-1,9.792284966E0
1.705172732E0,-8.236053586E-1,-5.339069963E-1,9.773131371E0
1.707187122E0,-8.092401624E-1,-5.291185975E-1,9.770736694E0
1.709169974E0,-8.164227605E-1,-5.243301988E-1,9.770736694E0
1.711185595E0,-8.283938169E-1,-5.195417404E-1,9.763554573E0
1.713168446E0,-8.164227605E-1,-5.099649429E-1,9.765948296E0
1.715182835E0,-8.140285611E-1,-5.075707436E-1,9.775525093E0
1.717165918E0,-8.259995580E-1,-4.979939461E-1,9.780313492E0
1.719179769E0,-8.259995580E-1,-4.979939461E-1,9.775525093E0
1.721163544E0,-8.379706144E-1,-5.051765442E-1,9.782708168E0
1.723176779E0,-8.331822157E-1,-5.099649429E-1,9.782708168E0
1.725191555E0,-8.523358107E-1,-5.003881454E-1,9.789890289E0
1.727175175E0,-8.643068075E-1,-5.027823448E-1,9.789890289E0
1.729190565E0,-8.619126081E-1,-5.051765442E-1,9.797073364E0
1.731174954E0,-8.714894056E-1,-5.027823448E-1,9.813833237E0
1.733186653E0,-8.834604025E-1,-4.979939461E-1,9.828198433E0
1.735170888E0,-8.906430602E-1,-5.003881454E-1,9.828198433E0
1.737185124E0,-8.882488012E-1,-5.003881454E-1,9.830592155E0
1.739168822E0,-9.169792533E-1,-5.003881454E-1,9.821015358E0
1.741182596E0,-9.241618514E-1,-4.932055473E-1,9.821015358E0
1.743166679E0,-9.169792533E-1,-4.836287498E-1,9.816226959E0
1.745180761E0,-9.217676520E-1,-4.836287498E-1,9.813833237E0
1.747165458E0,-9.313444495E-1,-4.764461517E-1,9.809044838E0
1.749178617E0,-9.337386489E-1,-4.812345505E-1,9.809044838E0
1.751163238E0,-9.433154464E-1,-4.932055473E-1,9.821015358E0
1.753176166E0,-9.528923035E-1,-5.099649429E-1,9.825803757E0
1.755190094E0,-9.552865028E-1,-5.147533417E-1,9.821015358E0
1.757174330E0,-9.457096457E-1,-5.147533417E-1,9.821015358E0
1.759187875E0,-9.289502501E-1,-5.147533417E-1,9.825803757E0
1.761172264E0,-9.481038451E-1,-5.339069963E-1,9.830592155E0
1.763186346E0,-9.385270476E-1,-5.339069963E-1,9.828198433E0
1.765170351E0,-9.217676520E-1,-5.123591423E-1,9.832986832E0
1.767180896E0,-9.074024558E-1,-5.147533417E-1,9.823410034E0
1.769167054E0,-9.050082564E-1,-5.171475410E-1,9.830592155E0
1.771182983E0,-9.002198577E-1,-5.243301988E-1,9.837775230E0
1.773166064E0,-8.930372596E-1,-5.147533417E-1,9.823410034E0
1.775179377E0,-8.882488012E-1,-5.099649429E-1,9.816226959E0
1.777163614E0,-8.690952063E-1,-5.267243981E-1,9.797073364E0
1.779177542E0,-8.810662031E-1,-5.219359994E-1,9.787496567E0
1.781160932E0,-8.834604025E-1,-5.099649429E-1,9.789890289E0
1.783175014E0,-8.930372596E-1,-5.075707436E-1,9.782708168E0
1.785189481E0,-8.786720037E-1,-5.243301988E-1,9.768342972E0
1.787173794E0,-8.738836050E-1,-5.123591423E-1,9.775525093E0
1.789187414E0,-8.714894056E-1,-5.075707436E-1,9.768342972E0
1.791171958E0,-8.667010069E-1,-5.027823448E-1,9.768342972E0
1.793185194E0,-8.667010069E-1,-5.147533417E-1,9.777919769E0
1.795168969E0,-8.762778044E-1,-5.267243981E-1,9.773131371E0
1.797182820E0,-8.714894056E-1,-5.171475410E-1,9.768342972E0
1.799165825E0,-8.738836050E-1,-5.243301988E-1,9.758766174E0
1.801180600E0,-8.738836050E-1,-5.075707436E-1,9.749189377E0
1.803164067E0,-8.714894056E-1,-5.027823448E-1,9.749189377E0
1.805178533E0,-8.571242094E-1,-5.123591423E-1,9.749189377E0
1.807161846E0,-8.714894056E-1,-5.099649429E-1,9.761159897E0
1.809176929E0,-8.714894056E-1,-5.051765442E-1,9.758766174E0
1.811191703E0,-8.690952063E-1,-5.123591423E-1,9.756371498E0
1.813173631E0,-8.786720037E-1,-5.075707436E-1,9.761159897E0
1.815188636E0,-8.834604025E-1,-5.075707436E-1,9.765948296E0
1.817172103E0,-8.978256583E-1,-5.243301988E-1,9.770736694E0
1.819185570E0,-8.906430602E-1,-5.219359994E-1,9.777919769E0
1.821169652E0,-8.834604025E-1,-5.147533417E-1,9.777919769E0
1.823184426E0,-8.882488012E-1,-5.195417404E-1,9.782708168E0
1.825167739E0,-8.930372596E-1,-5.195417404E-1,9.789890289E0
1.827182822E0,-8.978256583E-1,-5.099649429E-1,9.797073364E0
1.829165596E0,-9.050082564E-1,-5.267243981E-1,9.794678688E0
1.831180140E0,-9.121908545E-1,-5.386953950E-1,9.804255486E0
1.833163222E0,-9.145850539E-1,-5.243301988E-1,9.818621635E0
1.835177689E0,-9.193734527E-1,-5.267243981E-1,9.809044838E0
1.837161694E0,-9.097966552E-1,-5.291185975E-1,9.816226959E0
1.839175545E0,-9.026140571E-1,-5.267243981E-1,9.823410034E0
1.841188704E0,-9.121908545E-1,-5.243301988E-1,9.823410034E0
1.843173095E0,-9.097966552E-1,-5.339069963E-1,9.821015358E0
1.845187561E0,-9.145850539E-1,-5.267243981E-1,9.828198433E0
1.847170643E0,-9.169792533E-1,-5.051765442E-1,9.818621635E0
1.849184725E0,-9.097966552E-1,-5.075707436E-1,9.823410034E0
1.851169730E0,-9.050082564E-1,-5.123591423E-1,9.818621635E0
1.853182659E0,-9.002198577E-1,-5.195417404E-1,9.813833237E0
1.855166357E0,-9.097966552E-1,-5.171475410E-1,9.823410034E0
1.857180515E0,-9.002198577E-1,-5.027823448E-1,9.818621635E0
1.859164213E0,-9.026140571E-1,-5.075707436E-1,9.811438560E0
1.861178065E0,-9.121908545E-1,-5.051765442E-1,9.816226959E0
1.863161685E0,-9.097966552E-1,-5.075707436E-1,9.813833237E0
1.865176767E0,-9.074024558E-1,-5.027823448E-1,9.811438560E0
1.867191541E0,-9.169792533E-1,-4.860229492E-1,9.804255486E0
1.869174317E0,-9.169792533E-1,-5.027823448E-1,9.811438560E0
1.871189706E0,-9.265560508E-1,-5.027823448E-1,9.804255486E0
1.873171634E0,-9.169792533E-1,-4.932055473E-1,9.806650162E0
1.875186024E0,-9.026140571E-1,-4.932055473E-1,9.799467087E0
1.877169722E0,-9.097966552E-1,-5.075707436E-1,9.797073364E0
1.879184266E0,-9.217676520E-1,-5.195417404E-1,9.792284966E0
1.881167578E0,-9.145850539E-1,-5.291185975E-1,9.785101891E0
1.883181737E0,-9.121908545E-1,-5.410895944E-1,9.782708168E0
1.885165820E0,-9.026140571E-1,-5.363011956E-1,9.777919769E0
1.887179056E0,-9.002198577E-1,-5.219359994E-1,9.785101891E0
1.889162369E0,-8.810662031E-1,-5.195417404E-1,9.785101891E0
1.891175681E0,-8.810662031E-1,-5.195417404E-1,9.785101891E0
1.893194995E0,-8.810662031E-1,-5.195417404E-1,9.785101891E0
1.895174385E0,-8.978256583E-1,-5.315127969E-1,9.773131371E0
1.897189236E0,-8.858546019E-1,-5.147533417E-1,9.761159897E0
1.899172856E0,-8.882488012E-1,-5.147533417E-1,9.770736694E0
1.901186784E0,-8.978256583E-1,-5.123591423E-1,9.787496567E0
1.903170406E0,-9.074024558E-1,-5.171475410E-1,9.787496567E0
1.905184949E0,-9.002198577E-1,-5.123591423E-1,9.782708168E0
1.907168954E0,-8.882488012E-1,-4.932055473E-1,9.777919769E0
1.909182421E0,-8.954314590E-1,-4.979939461E-1,9.775525093E0
1.911168042E0,-8.978256583E-1,-5.123591423E-1,9.768342972E0
1.913180893E0,-9.121908545E-1,-5.171475410E-1,9.775525093E0
1.915164591E0,-9.121908545E-1,-5.219359994E-1,9.768342972E0
1.917178749E0,-9.169792533E-1,-5.267243981E-1,9.761159897E0
1.919162140E0,-9.193734527E-1,-5.267243981E-1,9.765948296E0
1.921175991E0,-9.217676520E-1,-5.291185975E-1,9.775525093E0
1.923190150E0,-9.217676520E-1,-5.195417404E-1,9.773131371E0
1.925174770E0,-9.361328483E-1,-5.123591423E-1,9.787496567E0
1.927188007E0,-9.361328483E-1,-5.243301988E-1,9.785101891E0
1.929172397E0,-9.361328483E-1,-5.147533417E-1,9.780313492E0
1.931186479E0,-9.289502501E-1,-5.123591423E-1,9.751583099E0
1.933169330E0,-9.193734527E-1,-5.123591423E-1,9.742006302E0
1.935183720E0,-9.337386489E-1,-4.979939461E-1,9.763554573E0
1.937167110E0,-9.289502501E-1,-4.908113480E-1,9.765948296E0
1.939181884E0,-9.313444495E-1,-5.051765442E-1,9.758766174E0
1.941165582E0,-9.361328483E-1,-5.195417404E-1,9.768342972E0
1.943179741E0,-9.576807022E-1,-5.147533417E-1,9.768342972E0
1.945163747E0,-9.648633003E-1,-5.147533417E-1,9.768342972E0
1.947177290E0,-9.433154464E-1,-5.075707436E-1,9.770736694E0
1.949191526E0,-9.337386489E-1,-5.147533417E-1,9.773131371E0
1.951176146E0,-9.528923035E-1,-5.147533417E-1,9.775525093E0
1.953189306E0,-9.504981041E-1,-5.075707436E-1,9.785101891E0
1.955173311E0,-9.433154464E-1,-5.075707436E-1,9.780313492E0
1.957186239E0,-9.457096457E-1,-4.860229492E-1,9.792284966E0
1.959170321E0,-9.385270476E-1,-4.955997467E-1,9.799467087E0
1.961184789E0,-9.313444495E-1,-5.075707436E-1,9.811438560E0
1.963167871E0,-9.337386489E-1,-5.291185975E-1,9.801861763E0
1.965183260E0,-9.552865028E-1,-4.979939461E-1,9.809044838E0
1.967166034E0,-9.504981041E-1,-5.027823448E-1,9.809044838E0
1.969181348E0,-9.313444495E-1,-5.123591423E-1,9.806650162E0
1.971166584E0,-9.289502501E-1,-5.003881454E-1,9.806650162E0
1.973177974E0,-9.289502501E-1,-4.908113480E-1,9.813833237E0
1.975162363E0,-9.337386489E-1,-4.884171486E-1,9.818621635E0
1.977176753E0,-9.289502501E-1,-5.243301988E-1,9.816226959E0
1.979190066E0,-9.385270476E-1,-5.243301988E-1,9.818621635E0
1.981174379E0,-9.433154464E-1,-5.219359994E-1,9.825803757E0
1.983187615E0,-9.313444495E-1,-5.075707436E-1,9.828198433E0
1.985171851E0,-9.169792533E-1,-5.003881454E-1,9.804255486E0
1.987186703E0,-9.121908545E-1,-5.195417404E-1,9.806650162E0
1.989169169E0,-9.193734527E-1,-5.339069963E-1,9.811438560E0
1.991185174E0,-9.385270476E-1,-5.458779931E-1,9.813833237E0
1.993167564E0,-9.289502501E-1,-5.339069963E-1,9.823410034E0
1.995181493E0,-9.289502501E-1,-5.315127969E-1,9.821015358E0
1.997165114E0,-9.289502501E-1,-5.482721925E-1,9.811438560E0
1.999179349E0,-9.313444495E-1,-5.482721925E-1,9.806650162E0
2.001163277E0,-9.361328483E-1,-5.386953950E-1,9.818621635E0
2.003177206E0,-9.289502501E-1,-5.506663918E-1,9.811438560E0
2.005191904E0,-9.265560508E-1,-5.578489900E-1,9.799467087E0
2.007174140E0,-9.217676520E-1,-5.698199868E-1,9.797073364E0
2.009188529E0,-9.385270476E-1,-5.650315881E-1,9.789890289E0
2.011173457E0,-9.313444495E-1,-5.506663918E-1,9.801861763E0
2.013186694E0,-9.385270476E-1,-5.386953950E-1,9.794678688E0
2.015170468E0,-9.576807022E-1,-5.267243981E-1,9.794678688E0
2.017184550E0,-9.576807022E-1,-5.219359994E-1,9.799467087E0
2.019168247E0,-9.361328483E-1,-5.123591423E-1,9.780313492E0
2.021182177E0,-9.217676520E-1,-5.027823448E-1,9.773131371E0
2.023167028E0,-9.313444495E-1,-5.003881454E-1,9.768342972E0
2.025180571E0,-9.385270476E-1,-5.027823448E-1,9.751583099E0
2.027164576E0,-9.361328483E-1,-5.123591423E-1,9.742006302E0
2.029177890E0,-9.337386489E-1,-4.955997467E-1,9.744400978E0
2.031163049E0,-9.361328483E-1,-4.836287498E-1,9.746794701E0
2.033176592E0,-9.361328483E-1,-4.908113480E-1,9.749189377E0
2.035190136E0,-9.409212470E-1,-5.051765442E-1,9.751583099E0
2.037173834E0,-9.648633003E-1,-5.099649429E-1,9.739612579E0
2.039188070E0,-9.792284966E-1,-5.075707436E-1,9.739612579E0
2.041171690E0,-9.816226959E-1,-5.075707436E-1,9.744400978E0
2.043185311E0,-9.720458984E-1,-5.027823448E-1,9.758766174E0
2.045169546E0,-9.696516991E-1,-5.027823448E-1,9.775525093E0
2.047183398E0,-9.672574997E-1,-5.027823448E-1,9.765948296E0
2.049167711E0,-9.768342972E-1,-5.003881454E-1,9.768342972E0
2.051183485E0,-9.792284966E-1,-5.003881454E-1,9.775525093E0
2.053164644E0,-9.648633003E-1,-4.932055473E-1,9.773131371E0
2.055179189E0,-9.792284966E-1,-5.099649429E-1,9.773131371E0
2.057162809E0,-9.768342972E-1,-5.123591423E-1,9.775525093E0
2.059176430E0,-9.672574997E-1,-4.908113480E-1,9.780313492E0
2.061190896E0,-9.672574997E-1,-4.908113480E-1,9.792284966E0
2.063173902E0,-9.624691010E-1,-4.955997467E-1,9.792284966E0
2.065189676E0,-9.696516991E-1,-4.979939461E-1,9.797073364E0
2.067172989E0,-9.624691010E-1,-5.003881454E-1,9.794678688E0
2.069187456E0,-9.576807022E-1,-5.003881454E-1,9.794678688E0
2.071170846E0,-9.720458984E-1,-4.955997467E-1,9.801861763E0
2.073184697E0,-9.840168953E-1,-5.171475410E-1,9.825803757E0
2.075168472E0,-9.792284966E-1,-5.291185975E-1,9.835380554E0
2.077182246E0,-9.648633003E-1,-5.243301988E-1,9.825803757E0
2.079166329E0,-9.648633003E-1,-5.027823448E-1,9.828198433E0
2.081180488E0,-9.744400978E-1,-5.099649429E-1,9.828198433E0
2.083164185E0,-9.816226959E-1,-5.243301988E-1,9.825803757E0
2.085178267E0,-9.720458984E-1,-5.123591423E-1,9.832986832E0
2.087160810E0,-9.576807022E-1,-5.171475410E-1,9.844957352E0
2.089174893E0,-9.576807022E-1,-5.291185975E-1,9.837775230E0
2.091190898E0,-9.624691010E-1,-5.243301988E-1,9.840168953E0
2.093173749E0,-9.528923035E-1,-5.099649429E-1,9.840168953E0
2.095187524E0,-9.648633003E-1,-5.099649429E-1,9.818621635E0
2.097171837E0,-9.696516991E-1,-5.195417404E-1,9.821015358E0
2.099185688E0,-9.624691010E-1,-5.123591423E-1,9.821015358E0
2.101168847E0,-9.600749016E-1,-4.955997467E-1,9.823410034E0
2.103183314E0,-9.600749016E-1,-5.075707436E-1,9.821015358E0
2.105167320E0,-9.481038451E-1,-5.099649429E-1,9.816226959E0
2.107182017E0,-9.696516991E-1,-4.908113480E-1,9.792284966E0
2.109164484E0,-9.672574997E-1,-4.932055473E-1,9.777919769E0
2.111179873E0,-9.433154464E-1,-5.075707436E-1,9.782708168E0
2.113162418E0,-9.409212470E-1,-5.075707436E-1,9.777919769E0
2.115176577E0,-9.552865028E-1,-4.979939461E-1,9.777919769E0
2.117190966E0,-9.433154464E-1,-5.051765442E-1,9.758766174E0
2.119175356E0,-9.433154464E-1,-5.027823448E-1,9.756371498E0
2.121189208E0,-9.576807022E-1,-5.099649429E-1,9.758766174E0
2.123171905E0,-9.624691010E-1,-4.884171486E-1,9.773131371E0
2.125187295E0,-9.624691010E-1,-4.764461517E-1,9.763554573E0
2.127169531E0,-9.600749016E-1,-4.740519226E-1,9.758766174E0
2.129183920E0,-9.528923035E-1,-4.740519226E-1,9.753977776E0
2.131166773E0,-9.624691010E-1,-4.764461517E-1,9.758766174E0
2.133183085E0,-9.624691010E-1,-4.764461517E-1,9.758766174E0
2.135165859E0,-9.696516991E-1,-4.860229492E-1,9.758766174E0
2.137180557E0,-9.768342972E-1,-4.860229492E-1,9.751583099E0
2.139163717E0,-9.696516991E-1,-4.860229492E-1,9.749189377E0
2.141178414E0,-9.768342972E-1,-4.979939461E-1,9.768342972E0
2.143161188E0,-9.792284966E-1,-5.003881454E-1,9.768342972E0
2.145175732E0,-9.696516991E-1,-4.836287498E-1,9.765948296E0
2.147190815E0,-9.720458984E-1,-4.955997467E-1,9.765948296E0
2.149172973E0,-9.648633003E-1,-4.932055473E-1,9.770736694E0
2.151188978E0,-9.504981041E-1,-5.027823448E-1,9.782708168E0
2.153172291E0,-9.481038451E-1,-5.147533417E-1,9.792284966E0
2.155185913E0,-9.481038451E-1,-5.051765442E-1,9.797073364E0
2.157169918E0,-9.289502501E-1,-5.147533417E-1,9.799467087E0
2.159183769E0,-9.385270476E-1,-5.195417404E-1,9.792284966E0
2.161167697E0,-9.528923035E-1,-5.099649429E-1,9.794678688E0
2.163181549E0,-9.433154464E-1,-5.195417404E-1,9.811438560E0
2.165165246E0,-9.265560508E-1,-5.171475410E-1,9.818621635E0
2.167178251E0,-9.313444495E-1,-5.243301988E-1,9.818621635E0
2.169193025E0,-9.361328483E-1,-5.123591423E-1,9.818621635E0
2.171177646E0,-9.409212470E-1,-5.123591423E-1,9.818621635E0
2.173191113E0,-9.193734527E-1,-5.219359994E-1,9.823410034E0
2.175174503E0,-9.241618514E-1,-5.291185975E-1,9.821015358E0
2.177188123E0,-9.265560508E-1,-5.410895944E-1,9.818621635E0
2.179172359E0,-9.361328483E-1,-5.315127969E-1,9.811438560E0
2.181186519E0,-9.289502501E-1,-5.386953950E-1,9.816226959E0
2.183170216E0,-9.361328483E-1,-5.291185975E-1,9.825803757E0
2.185184144E0,-9.361328483E-1,-5.219359994E-1,9.823410034E0
2.187168073E0,-9.337386489E-1,-5.267243981E-1,9.823410034E0
2.189182232E0,-9.265560508E-1,-5.386953950E-1,9.811438560E0
2.191166545E0,-9.409212470E-1,-5.291185975E-1,9.818621635E0
2.193179550E0,-9.361328483E-1,-5.243301988E-1,9.818621635E0
2.195163478E0,-9.241618514E-1,-4.932055473E-1,9.816226959E0
2.197177407E0,-9.361328483E-1,-5.003881454E-1,9.806650162E0
2.199192105E0,-9.361328483E-1,-5.051765442E-1,9.801861763E0
2.201175571E0,-9.193734527E-1,-5.123591423E-1,9.787496567E0
2.203188807E0,-9.217676520E-1,-5.051765442E-1,9.787496567E0
2.205173427E0,-9.145850539E-1,-5.003881454E-1,9.780313492E0
2.207187279E0,-9.337386489E-1,-5.027823448E-1,9.770736694E0
2.209171900E0,-9.361328483E-1,-4.979939461E-1,9.777919769E0
2.211186674E0,-9.385270476E-1,-5.075707436E-1,9.780313492E0
2.213168448E0,-9.409212470E-1,-4.979939461E-1,9.768342972E0
2.215183300E0,-9.289502501E-1,-5.051765442E-1,9.763554573E0
2.217166998E0,-9.241618514E-1,-5.003881454E-1,9.761159897E0
2.219181157E0,-9.457096457E-1,-4.932055473E-1,9.758766174E0
2.221165085E0,-9.289502501E-1,-4.884171486E-1,9.756371498E0
2.223179245E0,-9.217676520E-1,-4.908113480E-1,9.756371498E0
2.225163019E0,-9.289502501E-1,-5.075707436E-1,9.753977776E0
2.227177716E0,-9.313444495E-1,-5.123591423E-1,9.756371498E0
2.229190336E0,-9.337386489E-1,-5.075707436E-1,9.753977776E0
2.231175342E0,-9.337386489E-1,-5.027823448E-1,9.765948296E0
2.233188809E0,-9.337386489E-1,-4.979939461E-1,9.765948296E0
2.235171660E0,-9.361328483E-1,-4.812345505E-1,9.761159897E0
2.237186357E0,-9.337386489E-1,-4.860229492E-1,9.773131371E0
2.239170056E0,-9.241618514E-1,-4.884171486E-1,9.777919769E0
2.241184215E0,-9.337386489E-1,-5.003881454E-1,9.785101891E0
2.243167681E0,-9.313444495E-1,-4.955997467E-1,9.787496567E0
2.245182378E0,-9.504981041E-1,-4.955997467E-1,9.782708168E0
2.247165230E0,-9.600749016E-1,-4.979939461E-1,9.782708168E0
2.249179928E0,-9.504981041E-1,-5.075707436E-1,9.782708168E0
2.251164933E0,-9.385270476E-1,-5.291185975E-1,9.785101891E0
2.253178092E0,-9.481038451E-1,-5.243301988E-1,9.785101891E0
2.255191405E0,-9.457096457E-1,-5.147533417E-1,9.789890289E0
2.257175641E0,-9.768342972E-1,-5.195417404E-1,9.804255486E0
2.259189569E0,-9.768342972E-1,-5.219359994E-1,9.797073364E0
2.261174113E0,-9.864110947E-1,-5.171475410E-1,9.797073364E0
2.263187656E0,-9.792284966E-1,-5.195417404E-1,9.804255486E0
2.265171662E0,-9.696516991E-1,-5.267243981E-1,9.804255486E0
2.267186206E0,-9.744400978E-1,-5.195417404E-1,9.801861763E0
2.269169595E0,-9.840168953E-1,-5.099649429E-1,9.813833237E0
2.271183754E0,-9.648633003E-1,-5.243301988E-1,9.813833237E0
2.273167145E0,-9.696516991E-1,-5.123591423E-1,9.813833237E0
2.275180996E0,-9.672574997E-1,-5.075707436E-1,9.811438560E0
2.277164693E0,-9.696516991E-1,-5.147533417E-1,9.813833237E0
2.279179160E0,-9.672574997E-1,-5.147533417E-1,9.809044838E0
2.281162242E0,-9.840168953E-1,-5.243301988E-1,9.823410034E0
2.283176709E0,-9.816226959E-1,-5.267243981E-1,9.825803757E0
2.285190868E0,-9.672574997E-1,-5.339069963E-1,9.816226959E0
2.287174258E0,-9.576807022E-1,-5.434837937E-1,9.818621635E0
2.289188955E0,-9.481038451E-1,-5.339069963E-1,9.818621635E0
2.291173653E0,-9.624691010E-1,-5.386953950E-1,9.818621635E0
2.293186505E0,-9.792284966E-1,-5.219359994E-1,9.801861763E0
2.295169356E0,-9.816226959E-1,-5.267243981E-1,9.794678688E0
2.297184130E0,-9.792284966E-1,-5.123591423E-1,9.787496567E0
2.299167751E0,-9.864110947E-1,-5.195417404E-1,9.792284966E0
2.301182295E0,-9.816226959E-1,-5.195417404E-1,9.799467087E0
2.303166223E0,-9.792284966E-1,-5.075707436E-1,9.789890289E0
2.305180074E0,-9.696516991E-1,-5.051765442E-1,9.792284966E0
2.307164157E0,-9.720458984E-1,-5.099649429E-1,9.787496567E0
2.309178008E0,-9.744400978E-1,-5.171475410E-1,9.785101891E0
2.311192705E0,-9.744400978E-1,-5.003881454E-1,9.773131371E0
2.313176095E0,-9.792284966E-1,-5.051765442E-1,9.777919769E0
2.315189947E0,-9.696516991E-1,-4.955997467E-1,9.773131371E0
2.317173106E0,-9.720458984E-1,-5.123591423E-1,9.770736694E0
2.319187496E0,-9.768342972E-1,-5.123591423E-1,9.763554573E0
2.321171501E0,-9.624691010E-1,-5.027823448E-1,9.753977776E0
2.323185122E0,-9.624691010E-1,-5.003881454E-1,9.751583099E0
2.325169358E0,-9.720458984E-1,-5.051765442E-1,9.751583099E0
2.327182286E0,-9.744400978E-1,-5.003881454E-1,9.761159897E0
2.329167522E0,-9.768342972E-1,-5.027823448E-1,9.763554573E0
2.331181373E0,-9.768342972E-1,-4.932055473E-1,9.761159897E0
2.333165071E0,-9.935936928E-1,-4.788403511E-1,9.739612579E0
2.335178692E0,-9.911994934E-1,-4.764461517E-1,9.751583099E0
2.337192850E0,-9.935936928E-1,-4.836287498E-1,9.751583099E0
2.339176779E0,-9.935936928E-1,-5.099649429E-1,9.746794701E0
2.341190323E0,-9.959878922E-1,-5.267243981E-1,9.746794701E0
2.343174713E0,-1.012747288E0,-5.482721925E-1,9.751583099E0
2.345189718E0,-1.022324085E0,-5.506663918E-1,9.763554573E0
2.347172261E0,-1.034295082E0,-5.434837937E-1,9.789890289E0
2.349186652E0,-1.031900883E0,-5.386953950E-1,9.804255486E0
2.351170118E0,-1.027112484E0,-5.339069963E-1,9.809044838E0
2.353184508E0,-1.017535686E0,-5.315127969E-1,9.809044838E0
2.355168205E0,-1.019929886E0,-5.291185975E-1,9.821015358E0
2.357182057E0,-1.019929886E0,-5.219359994E-1,9.813833237E0
2.359165447E0,-1.005564690E0,-5.003881454E-1,9.794678688E0
2.361179990E0,-9.935936928E-1,-4.860229492E-1,9.794678688E0
2.363163303E0,-9.864110947E-1,-4.788403511E-1,9.787496567E0
2.365178462E0,-9.983820915E-1,-4.692635238E-1,9.768342972E0
2.367191314E0,-9.935936928E-1,-4.572925270E-1,9.765948296E0
2.369175011E0,-9.840168953E-1,-4.908113480E-1,9.765948296E0
2.371187940E0,-9.720458984E-1,-4.932055473E-1,9.773131371E0
2.373170791E0,-9.720458984E-1,-5.003881454E-1,9.775525093E0
2.375187412E0,-9.696516991E-1,-5.075707436E-1,9.777919769E0
2.377170802E0,-9.864110947E-1,-5.171475410E-1,9.787496567E0
2.379186114E0,-9.816226959E-1,-5.195417404E-1,9.794678688E0
2.381168581E0,-9.816226959E-1,-5.339069963E-1,9.811438560E0
2.383183049E0,-9.792284966E-1,-5.363011956E-1,9.818621635E0
2.385166823E0,-9.792284966E-1,-5.458779931E-1,9.823410034E0
2.387181597E0,-9.768342972E-1,-5.626373887E-1,9.818621635E0
2.389164602E0,-9.744400978E-1,-5.434837937E-1,9.806650162E0
2.391179993E0,-9.744400978E-1,-5.267243981E-1,9.799467087E0
2.393162844E0,-9.504981041E-1,-5.123591423E-1,9.801861763E0
2.395176310E0,-9.481038451E-1,-5.123591423E-1,9.799467087E0
2.397190546E0,-9.504981041E-1,-5.147533417E-1,9.794678688E0
2.399174166E0,-9.289502501E-1,-4.955997467E-1,9.801861763E0
2.401188019E0,-9.361328483E-1,-4.812345505E-1,9.782708168E0
2.403172024E0,-9.409212470E-1,-4.812345505E-1,9.775525093E0
2.405186875E0,-9.337386489E-1,-4.692635238E-1,9.770736694E0
2.407169034E0,-9.289502501E-1,-4.788403511E-1,9.765948296E0
2.409183732E0,-9.169792533E-1,-5.003881454E-1,9.763554573E0
2.411168737E0,-9.026140571E-1,-5.003881454E-1,9.775525093E0
2.413181973E0,-9.097966552E-1,-5.099649429E-1,9.782708168E0
2.415165901E0,-9.361328483E-1,-5.219359994E-1,9.782708168E0
2.417179753E0,-9.241618514E-1,-5.195417404E-1,9.801861763E0
2.419163527E0,-9.217676520E-1,-5.267243981E-1,9.789890289E0
2.421177994E0,-9.193734527E-1,-5.315127969E-1,9.789890289E0
2.423192691E0,-9.241618514E-1,-5.315127969E-1,9.792284966E0
2.425176082E0,-9.193734527E-1,-5.291185975E-1,9.789890289E0
2.427189625E0,-9.145850539E-1,-5.315127969E-1,9.785101891E0
2.429173092E0,-9.313444495E-1,-5.291185975E-1,9.780313492E0
2.431187789E0,-9.337386489E-1,-5.243301988E-1,9.777919769E0
2.433170872E0,-9.481038451E-1,-5.195417404E-1,9.768342972E0
2.435185954E0,-9.624691010E-1,-5.051765442E-1,9.758766174E0
2.437168805E0,-9.624691010E-1,-5.075707436E-1,9.761159897E0
2.439182887E0,-9.481038451E-1,-5.051765442E-1,9.756371498E0
2.441166661E0,-9.528923035E-1,-5.003881454E-1,9.753977776E0
2.443180513E0,-9.816226959E-1,-4.884171486E-1,9.761159897E0
2.445164441E0,-9.864110947E-1,-4.932055473E-1,9.773131371E0
2.447178062E0,-9.864110947E-1,-5.027823448E-1,9.765948296E0
2.449193067E0,-9.792284966E-1,-4.908113480E-1,9.768342972E0
2.451177073E0,-9.768342972E-1,-4.932055473E-1,9.775525093E0
2.453190078E0,-9.696516991E-1,-4.979939461E-1,9.775525093E0
2.455174314E0,-9.816226959E-1,-5.027823448E-1,9.782708168E0
2.457187857E0,-9.792284966E-1,-4.979939461E-1,9.785101891E0
2.459172555E0,-9.935936928E-1,-5.051765442E-1,9.782708168E0
2.461186022E0,-9.935936928E-1,-5.219359994E-1,9.780313492E0
2.463169796E0,-9.840168953E-1,-5.195417404E-1,9.775525093E0
2.465183878E0,-9.935936928E-1,-5.147533417E-1,9.770736694E0
2.467167884E0,-1.019929886E0,-5.051765442E-1,9.787496567E0
2.469181812E0,-1.031900883E0,-5.051765442E-1,9.797073364E0
2.471166356E0,-1.022324085E0,-5.099649429E-1,9.797073364E0
2.473179976E0,-1.022324085E0,-5.099649429E-1,9.801861763E0
2.475163289E0,-1.022324085E0,-5.027823448E-1,9.799467087E0
2.477177449E0,-1.034295082E0,-4.979939461E-1,9.799467087E0
2.479191607E0,-1.024718285E0,-4.932055473E-1,9.801861763E0
2.481174689E0,-1.029506683E0,-4.932055473E-1,9.799467087E0
2.483189233E0,-1.036689281E0,-4.836287498E-1,9.799467087E0
2.485173547E0,-1.036689281E0,-4.979939461E-1,9.789890289E0
2.487187090E0,-1.043871999E0,-4.908113480E-1,9.789890289E0
2.489170172E0,-1.034295082E0,-4.955997467E-1,9.794678688E0
2.491186408E0,-1.031900883E0,-4.979939461E-1,9.794678688E0
2.493168875E0,-1.029506683E0,-4.955997467E-1,9.792284966E0
2.495182496E0,-1.027112484E0,-5.027823448E-1,9.797073364E0
2.497166731E0,-1.022324085E0,-5.195417404E-1,9.782708168E0
2.499180890E0,-1.019929886E0,-5.219359994E-1,9.780313492E0
2.501164281E0,-1.003170490E0,-5.147533417E-1,9.780313492E0
2.503178517E0,-9.935936928E-1,-5.051765442E-1,9.782708168E0
2.505192906E0,-9.864110947E-1,-5.051765442E-1,9.792284966E0
2.507177219E0,-9.911994934E-1,-4.955997467E-1,9.797073364E0
2.509190456E0,-9.888052940E-1,-5.003881454E-1,9.797073364E0
2.511175153E0,-9.911994934E-1,-4.979939461E-1,9.799467087E0
2.513188620E0,-9.648633003E-1,-5.123591423E-1,9.799467087E0
2.515172086E0,-9.744400978E-1,-5.099649429E-1,9.789890289E0
2.517185938E0,-9.768342972E-1,-5.195417404E-1,9.794678688E0
2.519169251E0,-9.624691010E-1,-5.171475410E-1,9.799467087E0
2.521183718E0,-9.672574997E-1,-5.075707436E-1,9.799467087E0
2.523167184E0,-9.648633003E-1,-5.219359994E-1,9.794678688E0
2.525181881E0,-9.624691010E-1,-5.195417404E-1,9.797073364E0
2.527164964E0,-9.624691010E-1,-5.243301988E-1,9.794678688E0
2.529180046E0,-9.576807022E-1,-5.243301988E-1,9.789890289E0
2.531164436E0,-9.528923035E-1,-5.315127969E-1,9.785101891E0
2.533176672E0,-9.528923035E-1,-5.315127969E-1,9.777919769E0
2.535191524E0,-9.433154464E-1,-5.315127969E-1,9.763554573E0
2.537174913E0,-9.361328483E-1,-5.315127969E-1,9.763554573E0
2.539189918E0,-9.504981041E-1,-5.267243981E-1,9.765948296E0
2.541172770E0,-9.600749016E-1,-5.291185975E-1,9.777919769E0
2.543186853E0,-9.576807022E-1,-5.243301988E-1,9.775525093E0
2.545171473E0,-9.528923035E-1,-5.315127969E-1,9.787496567E0
2.547186247E0,-9.672574997E-1,-5.482721925E-1,9.794678688E0
2.549168406E0,-9.744400978E-1,-5.410895944E-1,9.801861763E0
2.551184104E0,-9.720458984E-1,-5.243301988E-1,9.811438560E0
2.553166032E0,-9.648633003E-1,-5.410895944E-1,9.799467087E0
2.555181037E0,-9.672574997E-1,-5.410895944E-1,9.792284966E0
2.557163889E0,-9.768342972E-1,-5.315127969E-1,9.785101891E0
2.559177970E0,-9.864110947E-1,-5.315127969E-1,9.789890289E0
2.561191900E0,-1.000776291E0,-5.267243981E-1,9.780313492E0
2.563175520E0,-1.012747288E0,-5.243301988E-1,9.794678688E0
2.565189986E0,-1.015141487E0,-5.339069963E-1,9.804255486E0
2.567173376E0,-1.012747288E0,-5.315127969E-1,9.797073364E0
2.569187305E0,-1.015141487E0,-5.195417404E-1,9.801861763E0
2.571172233E0,-1.019929886E0,-5.075707436E-1,9.801861763E0
2.573186700E0,-1.019929886E0,-5.075707436E-1,9.804255486E0
2.575168782E0,-1.031900883E0,-5.003881454E-1,9.792284966E0
2.577183634E0,-1.046266198E0,-4.979939461E-1,9.782708168E0
2.579167331E0,-1.053448796E0,-4.932055473E-1,9.797073364E0
2.581181413E0,-1.036689281E0,-4.932055473E-1,9.801861763E0
2.583165187E0,-1.029506683E0,-5.003881454E-1,9.794678688E0
2.585179578E0,-1.017535686E0,-4.860229492E-1,9.775525093E0
2.587194352E0,-1.029506683E0,-4.908113480E-1,9.775525093E0
2.589177434E0,-1.024718285E0,-4.932055473E-1,9.780313492E0
2.591192593E0,-1.015141487E0,-4.788403511E-1,9.782708168E0
2.593174984E0,-1.027112484E0,-4.979939461E-1,9.780313492E0
2.595189835E0,-1.019929886E0,-5.075707436E-1,9.768342972E0
2.597173224E0,-1.027112484E0,-5.027823448E-1,9.775525093E0
2.599187306E0,-1.010353088E0,-4.788403511E-1,9.785101891E0
2.601170773E0,-1.000776291E0,-4.979939461E-1,9.789890289E0
2.603185163E0,-9.840168953E-1,-5.099649429E-1,9.775525093E0
2.605168322E0,-9.983820915E-1,-5.099649429E-1,9.773131371E0
2.607182097E0,-9.888052940E-1,-5.099649429E-1,9.785101891E0
2.609166409E0,-9.768342972E-1,-5.291185975E-1,9.777919769E0
2.611178723E0,-9.864110947E-1,-5.171475410E-1,9.770736694E0
2.613195036E0,-9.864110947E-1,-5.171475410E-1,9.770736694E0
2.615178118E0,-9.911994934E-1,-5.147533417E-1,9.773131371E0
2.617191738E0,-9.840168953E-1,-5.051765442E-1,9.775525093E0
2.619175667E0,-9.768342972E-1,-5.003881454E-1,9.775525093E0
2.621190211E0,-9.672574997E-1,-5.075707436E-1,9.780313492E0
2.623174446E0,-9.744400978E-1,-5.099649429E-1,9.785101891E0
2.625187759E0,-9.720458984E-1,-5.171475410E-1,9.792284966E0
2.627171765E0,-9.648633003E-1,-5.075707436E-1,9.787496567E0
2.629185539E0,-9.768342972E-1,-5.027823448E-1,9.785101891E0
2.631169929E0,-9.864110947E-1,-5.003881454E-1,9.777919769E0
2.633183395E0,-9.816226959E-1,-5.051765442E-1,9.777919769E0
2.635166862E0,-9.792284966E-1,-5.099649429E-1,9.785101891E0
2.637181560E0,-9.816226959E-1,-4.955997467E-1,9.775525093E0
2.639164950E0,-9.935936928E-1,-4.908113480E-1,9.775525093E0
2.641179493E0,-9.911994934E-1,-4.860229492E-1,9.761159897E0
2.643193575E0,-1.019929886E0,-4.955997467E-1,9.775525093E0
2.645177351E0,-1.019929886E0,-4.932055473E-1,9.780313492E0
2.647190817E0,-1.015141487E0,-4.955997467E-1,9.792284966E0
2.649176053E0,-9.959878922E-1,-5.075707436E-1,9.792284966E0
2.651189904E0,-9.959878922E-1,-5.171475410E-1,9.782708168E0
2.653173602E0,-1.007958889E0,-5.219359994E-1,9.789890289E0
2.655186838E0,-1.010353088E0,-5.243301988E-1,9.768342972E0
2.657170612E0,-1.017535686E0,-5.219359994E-1,9.763554573E0
2.659184694E0,-1.005564690E0,-5.315127969E-1,9.770736694E0
2.661168393E0,-9.959878922E-1,-5.315127969E-1,9.789890289E0
2.663182628E0,-1.005564690E0,-5.291185975E-1,9.787496567E0
2.665166633E0,-1.003170490E0,-5.243301988E-1,9.799467087E0
2.667180177E0,-1.005564690E0,-5.315127969E-1,9.797073364E0
2.669164105E0,-1.005564690E0,-5.363011956E-1,9.792284966E0
2.671178957E0,-1.000776291E0,-5.267243981E-1,9.780313492E0
2.673193116E0,-9.983820915E-1,-5.219359994E-1,9.787496567E0
2.675176121E0,-9.959878922E-1,-5.243301988E-1,9.782708168E0
2.677190050E0,-9.935936928E-1,-5.243301988E-1,9.785101891E0
2.679174055E0,-9.911994934E-1,-5.339069963E-1,9.785101891E0
2.681187291E0,-1.012747288E0,-5.315127969E-1,9.773131371E0
2.683171834E0,-9.864110947E-1,-5.315127969E-1,9.785101891E0
2.685186070E0,-1.000776291E0,-5.386953950E-1,9.777919769E0
2.687169076E0,-1.022324085E0,-5.291185975E-1,9.777919769E0
2.689183927E0,-1.017535686E0,-5.123591423E-1,9.775525093E0
2.691168240E0,-1.015141487E0,-5.147533417E-1,9.773131371E0
2.693180783E0,-1.017535686E0,-5.147533417E-1,9.787496567E0
2.695165097E0,-1.024718285E0,-5.147533417E-1,9.785101891E0
2.697179025E0,-1.019929886E0,-5.195417404E-1,9.789890289E0
2.699193415E0,-1.012747288E0,-5.171475410E-1,9.785101891E0
2.701176804E0,-1.012747288E0,-5.171475410E-1,9.789890289E0
2.703190733E0,-9.911994934E-1,-5.267243981E-1,9.794678688E0
2.705174662E0,-9.935936928E-1,-5.243301988E-1,9.789890289E0
2.707189743E0,-1.003170490E0,-5.099649429E-1,9.787496567E0
2.709173133E0,-1.024718285E0,-5.051765442E-1,9.792284966E0
2.711187601E0,-1.007958889E0,-5.219359994E-1,9.792284966E0
2.713170067E0,-1.003170490E0,-5.243301988E-1,9.789890289E0
2.715184841E0,-1.000776291E0,-5.147533417E-1,9.792284966E0
2.717168308E0,-1.010353088E0,-5.123591423E-1,9.797073364E0
2.719182698E0,-9.983820915E-1,-5.051765442E-1,9.792284966E0
2.721165857E0,-9.911994934E-1,-5.027823448E-1,9.797073364E0
2.723180247E0,-9.864110947E-1,-4.884171486E-1,9.787496567E0
2.725164252E0,-9.840168953E-1,-4.979939461E-1,9.797073364E0
2.727174103E0,-9.744400978E-1,-5.003881454E-1,9.789890289E0
2.729191340E0,-9.983820915E-1,-4.908113480E-1,9.785101891E0
2.731177191E0,-1.000776291E0,-4.908113480E-1,9.789890289E0
2.733189581E0,-9.911994934E-1,-5.075707436E-1,9.799467087E0
2.735173586E0,-1.000776291E0,-5.051765442E-1,9.799467087E0
2.737187361E0,-9.720458984E-1,-5.075707436E-1,9.806650162E0
2.739171751E0,-9.481038451E-1,-5.123591423E-1,9.804255486E0
2.741185909E0,-9.481038451E-1,-5.147533417E-1,9.792284966E0
2.743169530E0,-9.672574997E-1,-5.075707436E-1,9.782708168E0
2.745183690E0,-9.528923035E-1,-5.027823448E-1,9.782708168E0
2.747167772E0,-9.552865028E-1,-5.027823448E-1,9.770736694E0
2.749181315E0,-9.504981041E-1,-5.147533417E-1,9.777919769E0
2.751165012E0,-9.504981041E-1,-4.979939461E-1,9.780313492E0
2.753179171E0,-9.552865028E-1,-4.932055473E-1,9.782708168E0
2.755193023E0,-9.409212470E-1,-5.003881454E-1,9.773131371E0
2.757177259E0,-9.337386489E-1,-5.123591423E-1,9.763554573E0
2.759190880E0,-9.265560508E-1,-5.147533417E-1,9.770736694E0
2.761174808E0,-9.217676520E-1,-5.099649429E-1,9.763554573E0
2.763188429E0,-9.217676520E-1,-5.267243981E-1,9.785101891E0
2.765172742E0,-9.361328483E-1,-5.243301988E-1,9.792284966E0
2.767186593E0,-9.361328483E-1,-5.003881454E-1,9.787496567E0
2.769171136E0,-9.457096457E-1,-5.003881454E-1,9.785101891E0
2.771185681E0,-9.217676520E-1,-5.075707436E-1,9.789890289E0
2.773168070E0,-9.217676520E-1,-5.171475410E-1,9.794678688E0
2.775182537E0,-9.217676520E-1,-5.147533417E-1,9.789890289E0
2.777165927E0,-9.265560508E-1,-5.195417404E-1,9.797073364E0
2.779180471E0,-9.193734527E-1,-5.291185975E-1,9.806650162E0
2.781164091E0,-9.217676520E-1,-5.219359994E-1,9.811438560E0
2.783177943E0,-9.241618514E-1,-4.955997467E-1,9.804255486E0
2.785192794E0,-9.169792533E-1,-5.075707436E-1,9.792284966E0
2.787176723E0,-9.169792533E-1,-5.171475410E-1,9.792284966E0
2.789189343E0,-9.026140571E-1,-5.099649429E-1,9.794678688E0
2.791174041E0,-9.169792533E-1,-5.099649429E-1,9.797073364E0
2.793188507E0,-9.121908545E-1,-5.219359994E-1,9.799467087E0
2.795171204E0,-9.050082564E-1,-5.099649429E-1,9.785101891E0
2.797185980E0,-9.050082564E-1,-5.171475410E-1,9.782708168E0
2.799169677E0,-9.074024558E-1,-5.147533417E-1,9.792284966E0
2.801183605E0,-9.002198577E-1,-5.291185975E-1,9.794678688E0
2.803167302E0,-9.097966552E-1,-5.243301988E-1,9.785101891E0
2.805181770E0,-9.145850539E-1,-5.075707436E-1,9.785101891E0
2.807164544E0,-9.121908545E-1,-5.123591423E-1,9.792284966E0
2.809178318E0,-9.145850539E-1,-5.123591423E-1,9.794678688E0
2.811193093E0,-9.193734527E-1,-5.075707436E-1,9.797073364E0
2.813177406E0,-9.265560508E-1,-4.955997467E-1,9.797073364E0
2.815191334E0,-9.313444495E-1,-5.051765442E-1,9.797073364E0
2.817174647E0,-9.313444495E-1,-5.123591423E-1,9.780313492E0
2.819189114E0,-9.337386489E-1,-5.123591423E-1,9.787496567E0
2.821172581E0,-9.265560508E-1,-5.003881454E-1,9.785101891E0
2.823186355E0,-9.193734527E-1,-4.788403511E-1,9.782708168E0
2.825170437E0,-9.457096457E-1,-4.884171486E-1,9.780313492E0
2.827184596E0,-9.504981041E-1,-4.955997467E-1,9.785101891E0
2.829167678E0,-9.385270476E-1,-5.051765442E-1,9.770736694E0
2.831183376E0,-9.337386489E-1,-4.979939461E-1,9.777919769E0
2.833165843E0,-9.337386489E-1,-4.908113480E-1,9.770736694E0
2.835180002E0,-9.385270476E-1,-5.099649429E-1,9.761159897E0
2.837194699E0,-9.457096457E-1,-5.027823448E-1,9.765948296E0
2.839177782E0,-9.576807022E-1,-4.860229492E-1,9.763554573E0
2.841191710E0,-9.600749016E-1,-4.932055473E-1,9.751583099E0
2.843175946E0,-9.696516991E-1,-4.932055473E-1,9.758766174E0
2.845190182E0,-9.744400978E-1,-4.955997467E-1,9.758766174E0
2.847172572E0,-9.481038451E-1,-4.908113480E-1,9.773131371E0
2.849187116E0,-9.576807022E-1,-4.908113480E-1,9.780313492E0
2.851169813E0,-9.528923035E-1,-5.075707436E-1,9.785101891E0
2.853184895E0,-9.600749016E-1,-5.123591423E-1,9.782708168E0
2.855168363E0,-9.600749016E-1,-5.075707436E-1,9.780313492E0
2.857183444E0,-9.409212470E-1,-5.027823448E-1,9.777919769E0
2.859166757E0,-9.433154464E-1,-5.099649429E-1,9.787496567E0
2.861181224E0,-9.624691010E-1,-5.051765442E-1,9.787496567E0
2.863164691E0,-9.600749016E-1,-4.836287498E-1,9.792284966E0
2.865178773E0,-9.576807022E-1,-4.884171486E-1,9.789890289E0
2.867193317E0,-9.481038451E-1,-5.051765442E-1,9.794678688E0
2.869176322E0,-9.576807022E-1,-5.003881454E-1,9.792284966E0
2.871191097E0,-9.600749016E-1,-5.027823448E-1,9.785101891E0
2.873174871E0,-9.672574997E-1,-5.171475410E-1,9.794678688E0
2.875188415E0,-9.576807022E-1,-5.075707436E-1,9.801861763E0
2.877171804E0,-9.457096457E-1,-5.027823448E-1,9.797073364E0
2.879186886E0,-9.576807022E-1,-5.171475410E-1,9.804255486E0
2.881170892E0,-9.768342972E-1,-5.123591423E-1,9.804255486E0
2.883183513E0,-9.648633003E-1,-5.171475410E-1,9.801861763E0
2.885167825E0,-9.528923035E-1,-5.195417404E-1,9.799467087E0
2.887181676E0,-9.528923035E-1,-5.003881454E-1,9.799467087E0
2.889166221E0,-9.624691010E-1,-5.051765442E-1,9.799467087E0
2.891180764E0,-9.528923035E-1,-5.195417404E-1,9.787496567E0
2.893164385E0,-9.552865028E-1,-5.147533417E-1,9.775525093E0
2.895177697E0,-9.600749016E-1,-5.123591423E-1,9.782708168E0
2.897192165E0,-9.504981041E-1,-5.291185975E-1,9.777919769E0
2.899175555E0,-9.361328483E-1,-5.267243981E-1,9.777919769E0
2.901189713E0,-9.193734527E-1,-5.267243981E-1,9.777919769E0
2.903173642E0,-9.169792533E-1,-5.243301988E-1,9.773131371E0
2.905188417E0,-9.217676520E-1,-5.363011956E-1,9.785101891E0
2.907172114E0,-9.289502501E-1,-5.363011956E-1,9.794678688E0
2.909185965E0,-9.265560508E-1,-5.363011956E-1,9.787496567E0
2.911171201E0,-9.217676520E-1,-5.363011956E-1,9.785101891E0
2.913183283E0,-9.217676520E-1,-5.291185975E-1,9.792284966E0
2.915166289E0,-9.265560508E-1,-5.267243981E-1,9.787496567E0
2.917180832E0,-9.217676520E-1,-5.099649429E-1,9.787496567E0
2.919164760E0,-9.289502501E-1,-5.099649429E-1,9.789890289E0
2.921178996E0,-9.265560508E-1,-4.932055473E-1,9.801861763E0
2.923192848E0,-9.337386489E-1,-4.884171486E-1,9.797073364E0
2.925177084E0,-9.217676520E-1,-5.051765442E-1,9.782708168E0
2.927190397E0,-9.217676520E-1,-5.051765442E-1,9.785101891E0
2.929175556E0,-9.217676520E-1,-4.979939461E-1,9.789890289E0
2.931189793E0,-9.337386489E-1,-5.075707436E-1,9.782708168E0
2.933171644E0,-9.313444495E-1,-4.979939461E-1,9.777919769E0
2.935186956E0,-9.337386489E-1,-4.740519226E-1,9.782708168E0
2.937169192E0,-9.576807022E-1,-4.860229492E-1,9.780313492E0
2.939183890E0,-9.792284966E-1,-4.860229492E-1,9.770736694E0
2.941167895E0,-9.744400978E-1,-4.979939461E-1,9.775525093E0
2.943181439E0,-9.696516991E-1,-5.099649429E-1,9.773131371E0
2.945165829E0,-9.720458984E-1,-5.147533417E-1,9.775525093E0
2.947179988E0,-9.888052940E-1,-5.051765442E-1,9.787496567E0
2.949194763E0,-9.911994934E-1,-4.979939461E-1,9.787496567E0
2.951178691E0,-9.911994934E-1,-4.932055473E-1,9.785101891E0
2.953192619E0,-9.911994934E-1,-4.908113480E-1,9.787496567E0
2.955175393E0,-1.000776291E0,-5.051765442E-1,9.787496567E0
2.957189168E0,-1.012747288E0,-4.955997467E-1,9.785101891E0
2.959173481E0,-1.015141487E0,-5.171475410E-1,9.792284966E0
2.961187409E0,-1.010353088E0,-5.027823448E-1,9.789890289E0
2.963171106E0,-1.005564690E0,-5.003881454E-1,9.775525093E0
2.965185497E0,-1.005564690E0,-5.003881454E-1,9.787496567E0
2.967168271E0,-1.007958889E0,-5.051765442E-1,9.787496567E0
2.969182199E0,-1.010353088E0,-5.027823448E-1,9.787496567E0
2.971167743E0,-1.019929886E0,-4.740519226E-1,9.777919769E0
2.973180672E0,-1.015141487E0,-4.644751251E-1,9.780313492E0
2.975164600E0,-1.003170490E0,-5.051765442E-1,9.785101891E0
2.977178759E0,-9.983820915E-1,-4.932055473E-1,9.794678688E0
2.979192302E0,-1.003170490E0,-4.884171486E-1,9.787496567E0
2.981176077E0,-9.959878922E-1,-4.788403511E-1,9.765948296E0
2.983191159E0,-9.744400978E-1,-4.884171486E-1,9.758766174E0
2.985174780E0,-9.720458984E-1,-4.979939461E-1,9.753977776E0
2.987189246E0,-9.481038451E-1,-5.027823448E-1,9.770736694E0
2.989172021E0,-9.481038451E-1,-5.386953950E-1,9.794678688E0
2.991186796E0,-9.600749016E-1,-5.458779931E-1,9.799467087E0
2.993170570E0,-9.624691010E-1,-5.434837937E-1,9.825803757E0
2.995183806E0,-9.600749016E-1,-5.482721925E-1,9.837775230E0
2.997168042E0,-9.528923035E-1,-5.458779931E-1,9.835380554E0
2.999181278E0,-9.385270476E-1,-5.219359994E-1,9.832986832E0
3.001165360E0,-9.289502501E-1,-5.339069963E-1,9.840168953E0
3.003179827E0,-9.217676520E-1,-5.123591423E-1,9.837775230E0
3.005193601E0,-9.097966552E-1,-5.099649429E-1,9.813833237E0
3.007177299E0,-9.026140571E-1,-5.051765442E-1,9.799467087E0
3.009192151E0,-8.810662031E-1,-4.836287498E-1,9.775525093E0
3.011177694E0,-8.858546019E-1,-5.051765442E-1,9.761159897E0
3.013189622E0,-8.834604025E-1,-5.075707436E-1,9.758766174E0
3.015173320E0,-8.690952063E-1,-5.027823448E-1,9.763554573E0
3.017187479E0,-8.786720037E-1,-5.075707436E-1,9.773131371E0
3.019170869E0,-8.906430602E-1,-5.099649429E-1,9.768342972E0
3.021185105E0,-8.834604025E-1,-5.267243981E-1,9.768342972E0
3.023169033E0,-8.882488012E-1,-5.339069963E-1,9.785101891E0
3.025183577E0,-8.762778044E-1,-5.315127969E-1,9.792284966E0
3.027166967E0,-8.667010069E-1,-5.363011956E-1,9.797073364E0
3.029181049E0,-8.571242094E-1,-5.219359994E-1,9.804255486E0
3.031166054E0,-8.690952063E-1,-5.195417404E-1,9.787496567E0
3.033178675E0,-9.026140571E-1,-4.932055473E-1,9.787496567E0
3.035192449E0,-9.193734527E-1,-4.884171486E-1,9.789890289E0
3.037176224E0,-9.241618514E-1,-5.051765442E-1,9.797073364E0
3.039190382E0,-9.433154464E-1,-5.123591423E-1,9.794678688E0
3.041174081E0,-9.337386489E-1,-5.027823448E-1,9.789890289E0
3.043187624E0,-9.457096457E-1,-4.979939461E-1,9.797073364E0
3.045172783E0,-9.433154464E-1,-4.908113480E-1,9.794678688E0
3.047183327E0,-9.433154464E-1,-4.836287498E-1,9.801861763E0
3.049169486E0,-9.600749016E-1,-4.812345505E-1,9.787496567E0
3.051184876E0,-9.864110947E-1,-4.884171486E-1,9.809044838E0
3.053167958E0,-9.888052940E-1,-4.884171486E-1,9.804255486E0
3.055182424E0,-1.007958889E0,-4.812345505E-1,9.789890289E0
3.057164892E0,-1.017535686E0,-4.860229492E-1,9.782708168E0
3.059179666E0,-1.017535686E0,-5.027823448E-1,9.794678688E0
3.061194364E0,-1.007958889E0,-5.267243981E-1,9.799467087E0
3.063177753E0,-1.010353088E0,-5.291185975E-1,9.797073364E0
3.065191375E0,-1.012747288E0,-5.171475410E-1,9.794678688E0
3.067176610E0,-1.017535686E0,-5.267243981E-1,9.806650162E0
3.069189154E0,-1.012747288E0,-5.195417404E-1,9.811438560E0
3.071175005E0,-1.015141487E0,-5.123591423E-1,9.797073364E0
3.073187318E0,-1.010353088E0,-4.979939461E-1,9.787496567E0
3.075171093E0,-1.015141487E0,-5.003881454E-1,9.794678688E0
3.077184636E0,-9.983820915E-1,-4.955997467E-1,9.792284966E0
3.079168257E0,-1.012747288E0,-4.860229492E-1,9.770736694E0
3.081182493E0,-1.012747288E0,-4.908113480E-1,9.775525093E0
3.083166422E0,-1.012747288E0,-4.955997467E-1,9.780313492E0
3.085180657E0,-1.012747288E0,-5.051765442E-1,9.794678688E0
3.087194816E0,-1.010353088E0,-5.051765442E-1,9.792284966E0
3.089178206E0,-9.959878922E-1,-5.051765442E-1,9.792284966E0
3.091191366E0,-9.864110947E-1,-5.027823448E-1,9.789890289E0
3.093175448E0,-9.864110947E-1,-5.027823448E-1,9.789890289E0
3.095189607E0,-9.816226959E-1,-4.955997467E-1,9.797073364E0
3.097174227E0,-9.744400978E-1,-4.884171486E-1,9.797073364E0
3.099188310E0,-9.528923035E-1,-5.099649429E-1,9.787496567E0
3.101171469E0,-9.289502501E-1,-5.171475410E-1,9.775525093E0
3.103186166E0,-9.193734527E-1,-5.219359994E-1,9.773131371E0
3.105169863E0,-9.121908545E-1,-5.147533417E-1,9.770736694E0
3.107183714E0,-9.193734527E-1,-5.219359994E-1,9.770736694E0
3.109167105E0,-9.169792533E-1,-5.195417404E-1,9.777919769E0
3.111182572E0,-9.097966552E-1,-5.147533417E-1,9.775525093E0
3.113165884E0,-9.050082564E-1,-5.171475410E-1,9.775525093E0
3.115178582E0,-9.026140571E-1,-5.099649429E-1,9.773131371E0
3.117193972E0,-9.050082564E-1,-5.003881454E-1,9.770736694E0
3.119177593E0,-8.930372596E-1,-5.027823448E-1,9.775525093E0
3.121191213E0,-8.978256583E-1,-5.027823448E-1,9.773131371E0
3.123175141E0,-9.026140571E-1,-5.171475410E-1,9.768342972E0
3.125189378E0,-9.026140571E-1,-5.099649429E-1,9.763554573E0
3.127172383E0,-8.954314590E-1,-5.099649429E-1,9.768342972E0
3.129186926E0,-9.002198577E-1,-5.099649429E-1,9.785101891E0
3.131171547E0,-9.074024558E-1,-5.099649429E-1,9.770736694E0
3.133185707E0,-9.074024558E-1,-4.979939461E-1,9.770736694E0
3.135168404E0,-9.217676520E-1,-4.979939461E-1,9.787496567E0
3.137182870E0,-9.169792533E-1,-4.979939461E-1,9.785101891E0
3.139166337E0,-9.074024558E-1,-5.003881454E-1,9.789890289E0
3.141181420E0,-9.193734527E-1,-4.955997467E-1,9.785101891E0
3.143164425E0,-9.217676520E-1,-4.908113480E-1,9.782708168E0
3.145178353E0,-9.193734527E-1,-4.836287498E-1,9.789890289E0
3.147193358E0,-9.361328483E-1,-4.979939461E-1,9.777919769E0
3.149176517E0,-9.361328483E-1,-5.099649429E-1,9.780313492E0
3.151190984E0,-9.409212470E-1,-5.315127969E-1,9.792284966E0
3.153174682E0,-9.504981041E-1,-5.243301988E-1,9.806650162E0
3.155188225E0,-9.672574997E-1,-5.219359994E-1,9.811438560E0
3.157172153E0,-9.672574997E-1,-5.219359994E-1,9.811438560E0
3.159185467E0,-9.672574997E-1,-5.219359994E-1,9.811438560E0
3.161169703E0,-9.672574997E-1,-5.195417404E-1,9.799467087E0
3.163183862E0,-9.624691010E-1,-5.243301988E-1,9.792284966E0
3.165167328E0,-9.624691010E-1,-5.386953950E-1,9.797073364E0
3.167181719E0,-9.624691010E-1,-5.339069963E-1,9.794678688E0
3.169166416E0,-9.696516991E-1,-5.315127969E-1,9.787496567E0
3.171181190E0,-9.720458984E-1,-5.243301988E-1,9.794678688E0
3.173193195E0,-9.648633003E-1,-5.003881454E-1,9.809044838E0
3.175177201E0,-9.648633003E-1,-5.123591423E-1,9.797073364E0
3.177190668E0,-9.696516991E-1,-5.147533417E-1,9.792284966E0
3.179174750E0,-9.744400978E-1,-5.195417404E-1,9.801861763E0
3.181189216E0,-9.792284966E-1,-5.171475410E-1,9.797073364E0
3.183173452E0,-9.816226959E-1,-5.171475410E-1,9.789890289E0
3.185187612E0,-9.840168953E-1,-5.243301988E-1,9.780313492E0
3.187171617E0,-9.864110947E-1,-5.147533417E-1,9.785101891E0
3.189184853E0,-9.648633003E-1,-5.051765442E-1,9.775525093E0
3.191169473E0,-9.696516991E-1,-5.003881454E-1,9.773131371E0
3.193183018E0,-9.744400978E-1,-4.979939461E-1,9.773131371E0
3.195166715E0,-9.816226959E-1,-5.003881454E-1,9.765948296E0
3.197180335E0,-9.744400978E-1,-4.979939461E-1,9.777919769E0
3.199194417E0,-9.720458984E-1,-5.027823448E-1,9.765948296E0
3.201178192E0,-9.696516991E-1,-5.003881454E-1,9.758766174E0
3.203192274E0,-9.696516991E-1,-4.979939461E-1,9.761159897E0
3.205176587E0,-9.696516991E-1,-5.027823448E-1,9.765948296E0
3.207189515E0,-9.768342972E-1,-5.027823448E-1,9.773131371E0
3.209173829E0,-9.864110947E-1,-5.147533417E-1,9.770736694E0
3.211189834E0,-9.720458984E-1,-5.123591423E-1,9.775525093E0
3.213172300E0,-9.720458984E-1,-5.051765442E-1,9.768342972E0
3.215186767E0,-9.744400978E-1,-5.003881454E-1,9.773131371E0
3.217170234E0,-9.624691010E-1,-5.075707436E-1,9.780313492E0
3.219183701E0,-9.696516991E-1,-5.027823448E-1,9.787496567E0
3.221168014E0,-9.648633003E-1,-5.147533417E-1,9.785101891E0
3.223181326E0,-9.528923035E-1,-5.171475410E-1,9.787496567E0
3.225165255E0,-9.433154464E-1,-5.171475410E-1,9.792284966E0
3.227180030E0,-9.313444495E-1,-5.219359994E-1,9.780313492E0
3.229193266E0,-9.385270476E-1,-5.051765442E-1,9.780313492E0
3.231178809E0,-9.385270476E-1,-5.051765442E-1,9.794678688E0
3.233191506E0,-9.433154464E-1,-5.123591423E-1,9.797073364E0
3.235175128E0,-9.624691010E-1,-5.243301988E-1,9.806650162E0
3.237188748E0,-9.504981041E-1,-5.195417404E-1,9.816226959E0
3.239172984E0,-9.528923035E-1,-5.195417404E-1,9.806650162E0
3.241186835E0,-9.409212470E-1,-5.195417404E-1,9.787496567E0
3.243170610E0,-9.385270476E-1,-5.219359994E-1,9.787496567E0
3.245185308E0,-9.361328483E-1,-5.171475410E-1,9.794678688E0
3.247167774E0,-9.528923035E-1,-5.099649429E-1,9.809044838E0
3.249183779E0,-9.504981041E-1,-5.147533417E-1,9.806650162E0
3.251167477E0,-9.481038451E-1,-5.099649429E-1,9.801861763E0
3.253180098E0,-9.361328483E-1,-5.003881454E-1,9.804255486E0
3.255194564E0,-9.409212470E-1,-4.979939461E-1,9.816226959E0
3.257178031E0,-9.265560508E-1,-5.027823448E-1,9.816226959E0
3.259192498E0,-9.289502501E-1,-5.243301988E-1,9.818621635E0
3.261175888E0,-9.265560508E-1,-5.243301988E-1,9.818621635E0
3.263189970E0,-9.169792533E-1,-5.243301988E-1,9.804255486E0
3.265174052E0,-9.313444495E-1,-5.099649429E-1,9.799467087E0
3.267188749E0,-9.337386489E-1,-4.979939461E-1,9.794678688E0
3.269171601E0,-9.385270476E-1,-4.860229492E-1,9.794678688E0
3.271187529E0,-9.289502501E-1,-4.908113480E-1,9.809044838E0
3.273169381E0,-9.265560508E-1,-4.932055473E-1,9.806650162E0
3.275183924E0,-9.265560508E-1,-4.884171486E-1,9.799467087E0
3.277167238E0,-9.337386489E-1,-4.716577232E-1,9.787496567E0
3.279181089E0,-9.337386489E-1,-4.812345505E-1,9.794678688E0
3.281195863E0,-9.337386489E-1,-4.955997467E-1,9.794678688E0
3.283179560E0,-9.409212470E-1,-4.932055473E-1,9.789890289E0
3.285193720E0,-9.624691010E-1,-4.908113480E-1,9.782708168E0
3.287176879E0,-9.504981041E-1,-4.788403511E-1,9.768342972E0
3.289190346E0,-9.504981041E-1,-4.860229492E-1,9.770736694E0
3.291175582E0,-9.600749016E-1,-4.955997467E-1,9.775525093E0
3.293190434E0,-9.696516991E-1,-4.979939461E-1,9.780313492E0
3.295172516E0,-9.624691010E-1,-4.979939461E-1,9.775525093E0
3.297186751E0,-9.552865028E-1,-5.075707436E-1,9.789890289E0
3.299170679E0,-9.576807022E-1,-5.075707436E-1,9.792284966E0
3.301184839E0,-9.600749016E-1,-5.123591423E-1,9.782708168E0
3.303168537E0,-9.457096457E-1,-5.027823448E-1,9.785101891E0
3.305183003E0,-9.648633003E-1,-4.788403511E-1,9.787496567E0
3.307167316E0,-9.744400978E-1,-4.884171486E-1,9.785101891E0
3.309180629E0,-9.720458984E-1,-5.099649429E-1,9.777919769E0
3.311194711E0,-9.888052940E-1,-5.171475410E-1,9.775525093E0
3.313178716E0,-9.911994934E-1,-5.195417404E-1,9.777919769E0
3.315192645E0,-9.792284966E-1,-5.267243981E-1,9.785101891E0
3.317176650E0,-9.888052940E-1,-5.243301988E-1,9.792284966E0
3.319189502E0,-9.959878922E-1,-5.195417404E-1,9.789890289E0
3.321173814E0,-1.012747288E0,-5.243301988E-1,9.792284966E0
3.323188281E0,-1.022324085E0,-5.123591423E-1,9.777919769E0
3.325171978E0,-1.010353088E0,-4.955997467E-1,9.782708168E0
3.327185215E0,-1.015141487E0,-5.195417404E-1,9.780313492E0
3.329169220E0,-1.010353088E0,-5.003881454E-1,9.758766174E0
3.331182148E0,-1.005564690E0,-4.955997467E-1,9.756371498E0
3.333163769E0,-1.005564690E0,-4.955997467E-1,9.756371498E0
3.335181544E0,-1.012747288E0,-4.979939461E-1,9.758766174E0
3.337165318E0,-1.019929886E0,-5.003881454E-1,9.763554573E0
3.339179400E0,-9.983820915E-1,-4.836287498E-1,9.761159897E0
3.341193943E0,-1.005564690E0,-4.932055473E-1,9.768342972E0
3.343177025E0,-9.911994934E-1,-5.003881454E-1,9.753977776E0
3.345191724E0,-9.840168953E-1,-5.003881454E-1,9.768342972E0
3.347175113E0,-9.720458984E-1,-5.003881454E-1,9.765948296E0
3.349188657E0,-9.600749016E-1,-5.027823448E-1,9.753977776E0
3.351173662E0,-9.624691010E-1,-5.003881454E-1,9.756371498E0
3.353187437E0,-9.672574997E-1,-4.979939461E-1,9.768342972E0
3.355169673E0,-9.744400978E-1,-4.955997467E-1,9.775525093E0
3.357184370E0,-9.672574997E-1,-4.955997467E-1,9.773131371E0
3.359168144E0,-9.457096457E-1,-5.075707436E-1,9.773131371E0
3.361181996E0,-9.481038451E-1,-5.075707436E-1,9.765948296E0
3.363165694E0,-9.457096457E-1,-5.003881454E-1,9.768342972E0
3.365181006E0,-9.528923035E-1,-5.123591423E-1,9.773131371E0
3.367193935E0,-9.433154464E-1,-5.147533417E-1,9.775525093E0
3.369178017E0,-9.385270476E-1,-5.075707436E-1,9.780313492E0
3.371192792E0,-9.385270476E-1,-5.123591423E-1,9.787496567E0
3.373175797E0,-9.337386489E-1,-5.051765442E-1,9.799467087E0
3.375190032E0,-9.385270476E-1,-5.243301988E-1,9.806650162E0
3.377173653E0,-9.361328483E-1,-5.386953950E-1,9.794678688E0
3.379187197E0,-9.481038451E-1,-5.171475410E-1,9.799467087E0
3.381171279E0,-9.552865028E-1,-5.147533417E-1,9.799467087E0
3.383185438E0,-9.409212470E-1,-5.051765442E-1,9.816226959E0
3.385170059E0,-9.385270476E-1,-5.003881454E-1,9.813833237E0
3.387183834E0,-9.409212470E-1,-5.267243981E-1,9.811438560E0
3.389166993E0,-9.313444495E-1,-5.291185975E-1,9.809044838E0
3.391182075E0,-9.169792533E-1,-5.315127969E-1,9.801861763E0
3.393165387E0,-9.217676520E-1,-5.243301988E-1,9.816226959E0
3.395179316E0,-9.265560508E-1,-5.099649429E-1,9.828198433E0
3.397193091E0,-9.289502501E-1,-5.099649429E-1,9.828198433E0
3.399176865E0,-9.265560508E-1,-5.315127969E-1,9.823410034E0
3.401191254E0,-9.289502501E-1,-5.171475410E-1,9.832986832E0
3.403174414E0,-9.289502501E-1,-5.195417404E-1,9.840168953E0
3.405189112E0,-9.241618514E-1,-5.219359994E-1,9.813833237E0
3.407172193E0,-9.337386489E-1,-5.171475410E-1,9.828198433E0
3.409187660E0,-9.409212470E-1,-5.195417404E-1,9.828198433E0
3.411171589E0,-9.457096457E-1,-5.171475410E-1,9.816226959E0
3.413183979E0,-9.361328483E-1,-5.171475410E-1,9.806650162E0
3.415167984E0,-9.337386489E-1,-5.123591423E-1,9.811438560E0
3.417182143E0,-9.337386489E-1,-5.195417404E-1,9.816226959E0
3.419165763E0,-9.265560508E-1,-5.195417404E-1,9.825803757E0
3.421180231E0,-9.241618514E-1,-5.099649429E-1,9.825803757E0
3.423194159E0,-9.145850539E-1,-5.099649429E-1,9.811438560E0
3.425178164E0,-9.217676520E-1,-5.219359994E-1,9.813833237E0
3.427192322E0,-9.337386489E-1,-5.099649429E-1,9.811438560E0
3.429176021E0,-9.313444495E-1,-5.171475410E-1,9.797073364E0
3.431190795E0,-9.193734527E-1,-5.099649429E-1,9.789890289E0
3.433172954E0,-9.241618514E-1,-5.051765442E-1,9.782708168E0
3.435187113E0,-9.241618514E-1,-5.195417404E-1,9.794678688E0
3.437171349E0,-9.265560508E-1,-5.147533417E-1,9.794678688E0
3.439185585E0,-9.337386489E-1,-5.243301988E-1,9.785101891E0
3.441168667E0,-9.337386489E-1,-5.171475410E-1,9.785101891E0
3.443183672E0,-9.241618514E-1,-5.171475410E-1,9.787496567E0
3.445167140E0,-9.074024558E-1,-5.123591423E-1,9.768342972E0
3.447180068E0,-9.097966552E-1,-5.051765442E-1,9.768342972E0
3.449195765E0,-9.217676520E-1,-5.027823448E-1,9.770736694E0
3.451179770E0,-9.145850539E-1,-4.836287498E-1,9.770736694E0
3.453193007E0,-9.169792533E-1,-4.836287498E-1,9.780313492E0
3.455176320E0,-9.050082564E-1,-4.979939461E-1,9.782708168E0
3.457190478E0,-9.217676520E-1,-5.075707436E-1,9.782708168E0
3.459174253E0,-9.265560508E-1,-5.075707436E-1,9.787496567E0
3.461188412E0,-9.217676520E-1,-5.027823448E-1,9.773131371E0
3.463172418E0,-9.265560508E-1,-4.884171486E-1,9.770736694E0
3.465186499E0,-9.289502501E-1,-4.979939461E-1,9.770736694E0
3.467171735E0,-9.696516991E-1,-5.099649429E-1,9.782708168E0
3.469184356E0,-9.672574997E-1,-4.932055473E-1,9.780313492E0
3.471168977E0,-9.792284966E-1,-5.027823448E-1,9.770736694E0
3.473182213E0,-9.864110947E-1,-5.075707436E-1,9.775525093E0
3.475165602E0,-9.911994934E-1,-4.932055473E-1,9.775525093E0
3.477179838E0,-9.983820915E-1,-4.908113480E-1,9.773131371E0
3.479194613E0,-1.012747288E0,-4.908113480E-1,9.775525093E0
3.481178003E0,-1.015141487E0,-4.860229492E-1,9.777919769E0
3.483192162E0,-1.024718285E0,-4.764461517E-1,9.782708168E0
3.485175167E0,-1.022324085E0,-4.740519226E-1,9.777919769E0
3.487189404E0,-1.027112484E0,-4.836287498E-1,9.787496567E0
3.489173947E0,-1.039083481E0,-5.051765442E-1,9.782708168E0
3.491189414E0,-1.012747288E0,-4.955997467E-1,9.777919769E0
3.493171496E0,-1.010353088E0,-4.979939461E-1,9.782708168E0
3.495185732E0,-1.027112484E0,-4.860229492E-1,9.782708168E0
3.497169430E0,-1.019929886E0,-4.884171486E-1,9.789890289E0
3.499183589E0,-1.005564690E0,-5.075707436E-1,9.794678688E0
3.501166901E0,-1.012747288E0,-5.123591423E-1,9.792284966E0
3.503182060E0,-1.007958889E0,-5.147533417E-1,9.799467087E0
3.505164758E0,-1.000776291E0,-5.099649429E-1,9.797073364E0
3.507179302E0,-1.000776291E0,-4.979939461E-1,9.780313492E0
3.509192768E0,-1.003170490E0,-5.123591423E-1,9.782708168E0
3.511178312E0,-1.007958889E0,-5.243301988E-1,9.785101891E0
3.513191318E0,-9.983820915E-1,-5.195417404E-1,9.775525093E0
3.515174092E0,-9.935936928E-1,-5.027823448E-1,9.773131371E0
3.517189097E0,-9.792284966E-1,-5.147533417E-1,9.775525093E0
3.519172256E0,-9.600749016E-1,-5.267243981E-1,9.775525093E0
3.521186724E0,-9.552865028E-1,-5.267243981E-1,9.777919769E0
3.523170344E0,-9.504981041E-1,-5.195417404E-1,9.780313492E0
3.525184810E0,-9.385270476E-1,-5.051765442E-1,9.785101891E0
3.527167046E0,-9.433154464E-1,-5.147533417E-1,9.789890289E0
3.529181821E0,-9.528923035E-1,-5.147533417E-1,9.794678688E0
3.531198057E0,-9.385270476E-1,-5.291185975E-1,9.787496567E0
3.533180524E0,-9.313444495E-1,-5.243301988E-1,9.794678688E0
3.535194375E0,-9.241618514E-1,-5.243301988E-1,9.794678688E0
3.537177765E0,-9.217676520E-1,-5.099649429E-1,9.782708168E0
3.539192232E0,-9.193734527E-1,-5.099649429E-1,9.785101891E0
3.541175699E0,-9.217676520E-1,-5.219359994E-1,9.789890289E0
3.543190165E0,-9.337386489E-1,-5.195417404E-1,9.780313492E0
3.545173786E0,-9.313444495E-1,-5.099649429E-1,9.780313492E0
3.547187407E0,-9.217676520E-1,-4.908113480E-1,9.792284966E0
3.549171104E0,-9.121908545E-1,-4.955997467E-1,9.792284966E0
3.551185879E0,-9.121908545E-1,-5.099649429E-1,9.782708168E0
3.553168960E0,-9.313444495E-1,-4.908113480E-1,9.777919769E0
3.555183120E0,-9.121908545E-1,-4.860229492E-1,9.782708168E0
3.557166818E0,-9.097966552E-1,-4.884171486E-1,9.794678688E0
3.559180900E0,-9.265560508E-1,-5.003881454E-1,9.782708168E0
3.561194828E0,-9.265560508E-1,-4.979939461E-1,9.785101891E0
3.563178526E0,-9.361328483E-1,-4.836287498E-1,9.775525093E0
3.565193300E0,-9.385270476E-1,-4.908113480E-1,9.777919769E0
3.567176382E0,-9.481038451E-1,-4.955997467E-1,9.777919769E0
3.569190156E0,-9.576807022E-1,-5.003881454E-1,9.775525093E0
3.571172700E0,-9.600749016E-1,-5.051765442E-1,9.782708168E0
3.573186244E0,-9.504981041E-1,-5.075707436E-1,9.794678688E0
3.575171788E0,-9.504981041E-1,-5.051765442E-1,9.789890289E0
3.577186485E0,-9.552865028E-1,-5.003881454E-1,9.792284966E0
3.579169644E0,-9.600749016E-1,-4.955997467E-1,9.799467087E0
3.581184111E0,-9.600749016E-1,-4.979939461E-1,9.806650162E0
3.583167809E0,-9.672574997E-1,-5.051765442E-1,9.801861763E0
3.585182275E0,-9.672574997E-1,-5.147533417E-1,9.777919769E0
3.587165588E0,-9.648633003E-1,-5.075707436E-1,9.780313492E0
3.589180132E0,-9.672574997E-1,-5.099649429E-1,9.785101891E0
3.591194522E0,-9.744400978E-1,-5.051765442E-1,9.782708168E0
3.593177681E0,-9.959878922E-1,-5.147533417E-1,9.792284966E0
3.595191455E0,-1.003170490E0,-5.075707436E-1,9.801861763E0
3.597175538E0,-9.864110947E-1,-4.979939461E-1,9.799467087E0
3.599190005E0,-9.840168953E-1,-4.979939461E-1,9.801861763E0
3.601173087E0,-9.816226959E-1,-5.075707436E-1,9.801861763E0
3.603187245E0,-9.792284966E-1,-5.003881454E-1,9.792284966E0
3.605171482E0,-1.005564690E0,-5.003881454E-1,9.809044838E0
3.607184718E0,-1.003170490E0,-4.955997467E-1,9.806650162E0
3.609169031E0,-9.983820915E-1,-5.051765442E-1,9.804255486E0
3.611183882E0,-1.003170490E0,-4.979939461E-1,9.801861763E0
3.613166964E0,-1.003170490E0,-5.003881454E-1,9.799467087E0
3.615180201E0,-9.935936928E-1,-5.075707436E-1,9.804255486E0
3.617195282E0,-9.888052940E-1,-5.075707436E-1,9.797073364E0
3.619178364E0,-9.768342972E-1,-5.267243981E-1,9.792284966E0
3.621193369E0,-9.864110947E-1,-5.219359994E-1,9.787496567E0
3.623176837E0,-9.864110947E-1,-5.291185975E-1,9.782708168E0
3.625190073E0,-9.840168953E-1,-5.051765442E-1,9.785101891E0
3.627175001E0,-9.744400978E-1,-5.051765442E-1,9.773131371E0
3.629188544E0,-9.600749016E-1,-5.075707436E-1,9.777919769E0
3.631172858E0,-9.552865028E-1,-5.123591423E-1,9.775525093E0
3.633187017E0,-9.600749016E-1,-5.219359994E-1,9.775525093E0
3.635169714E0,-9.528923035E-1,-5.219359994E-1,9.773131371E0
3.637183642E0,-9.289502501E-1,-5.363011956E-1,9.770736694E0
3.639167341E0,-9.193734527E-1,-5.123591423E-1,9.765948296E0
3.641182346E0,-9.241618514E-1,-5.027823448E-1,9.768342972E0
3.643195581E0,-9.337386489E-1,-5.099649429E-1,9.780313492E0
3.645179894E0,-9.265560508E-1,-5.147533417E-1,9.780313492E0
3.647193438E0,-9.217676520E-1,-5.171475410E-1,9.780313492E0
3.649177828E0,-9.313444495E-1,-5.051765442E-1,9.785101891E0
3.651192910E0,-9.313444495E-1,-5.027823448E-1,9.789890289E0
3.653174992E0,-9.337386489E-1,-5.099649429E-1,9.797073364E0
3.655189767E0,-9.289502501E-1,-5.027823448E-1,9.792284966E0
3.657173464E0,-9.289502501E-1,-5.051765442E-1,9.775525093E0
3.659187393E0,-9.481038451E-1,-4.979939461E-1,9.777919769E0
3.661171013E0,-9.457096457E-1,-5.195417404E-1,9.799467087E0
3.663185249E0,-9.409212470E-1,-5.147533417E-1,9.792284966E0
3.665169178E0,-9.552865028E-1,-5.123591423E-1,9.787496567E0
3.667184260E0,-9.720458984E-1,-5.003881454E-1,9.787496567E0
3.669167111E0,-9.816226959E-1,-5.027823448E-1,9.789890289E0
3.671182116E0,-9.959878922E-1,-5.123591423E-1,9.804255486E0
3.673195122E0,-9.959878922E-1,-5.147533417E-1,9.806650162E0
3.675178204E0,-9.959878922E-1,-5.147533417E-1,9.804255486E0
3.677192670E0,-1.003170490E0,-5.171475410E-1,9.797073364E0
3.679176291E0,-1.003170490E0,-5.171475410E-1,9.794678688E0
3.681190451E0,-9.959878922E-1,-5.075707436E-1,9.792284966E0
3.683173609E0,-9.888052940E-1,-5.003881454E-1,9.801861763E0
3.685188691E0,-9.816226959E-1,-5.075707436E-1,9.801861763E0
3.687171081E0,-9.959878922E-1,-5.195417404E-1,9.792284966E0
3.689185933E0,-9.959878922E-1,-5.219359994E-1,9.801861763E0
3.691170784E0,-9.888052940E-1,-5.219359994E-1,9.799467087E0
3.693184405E0,-9.744400978E-1,-5.075707436E-1,9.797073364E0
3.695167794E0,-9.744400978E-1,-4.908113480E-1,9.804255486E0
3.697181876E0,-9.720458984E-1,-4.932055473E-1,9.792284966E0
3.699195498E0,-9.744400978E-1,-5.075707436E-1,9.785101891E0
3.701179733E0,-9.768342972E-1,-5.123591423E-1,9.782708168E0
3.703193354E0,-9.744400978E-1,-5.195417404E-1,9.775525093E0
3.705177590E0,-9.720458984E-1,-5.195417404E-1,9.780313492E0
3.707192365E0,-9.792284966E-1,-5.147533417E-1,9.794678688E0
3.709175139E0,-9.648633003E-1,-5.219359994E-1,9.792284966E0
3.711190221E0,-9.648633003E-1,-5.171475410E-1,9.780313492E0
3.713173611E0,-9.600749016E-1,-5.099649429E-1,9.782708168E0
3.715187155E0,-9.720458984E-1,-5.123591423E-1,9.782708168E0
3.717171160E0,-9.696516991E-1,-4.908113480E-1,9.768342972E0
3.719184704E0,-9.624691010E-1,-4.884171486E-1,9.768342972E0
3.721168401E0,-9.481038451E-1,-4.884171486E-1,9.758766174E0
3.723182561E0,-9.600749016E-1,-4.979939461E-1,9.756371498E0
3.725166950E0,-9.696516991E-1,-4.979939461E-1,9.753977776E0
3.727180109E0,-9.481038451E-1,-4.955997467E-1,9.753977776E0
3.729195499E0,-9.576807022E-1,-5.003881454E-1,9.768342972E0
3.731179504E0,-9.672574997E-1,-5.027823448E-1,9.770736694E0
3.733192125E0,-9.672574997E-1,-4.955997467E-1,9.773131371E0
3.735176207E0,-9.600749016E-1,-4.932055473E-1,9.763554573E0
3.737190981E0,-9.648633003E-1,-4.860229492E-1,9.768342972E0
3.739174294E0,-9.600749016E-1,-4.979939461E-1,9.777919769E0
3.741188223E0,-9.504981041E-1,-4.955997467E-1,9.777919769E0
3.743171920E0,-9.337386489E-1,-5.027823448E-1,9.782708168E0
3.745186695E0,-9.504981041E-1,-4.955997467E-1,9.780313492E0
3.747170700E0,-9.457096457E-1,-4.908113480E-1,9.780313492E0
3.749183860E0,-9.457096457E-1,-5.027823448E-1,9.770736694E0
3.751168557E0,-9.457096457E-1,-5.027823448E-1,9.763554573E0
3.753182023E0,-9.457096457E-1,-5.003881454E-1,9.773131371E0
3.755196259E0,-9.528923035E-1,-4.932055473E-1,9.794678688E0
3.757179650E0,-9.504981041E-1,-4.788403511E-1,9.799467087E0
3.759193732E0,-9.504981041E-1,-4.860229492E-1,9.794678688E0
3.761176814E0,-9.361328483E-1,-5.147533417E-1,9.799467087E0
3.763191588E0,-9.457096457E-1,-5.171475410E-1,9.797073364E0
3.765175286E0,-9.361328483E-1,-5.219359994E-1,9.799467087E0
3.767187291E0,-9.313444495E-1,-5.051765442E-1,9.797073364E0
3.769172604E0,-9.457096457E-1,-5.075707436E-1,9.799467087E0
3.771187686E0,-9.504981041E-1,-5.027823448E-1,9.809044838E0
3.773170999E0,-9.528923035E-1,-4.979939461E-1,9.809044838E0
3.775184312E0,-9.409212470E-1,-4.979939461E-1,9.806650162E0
3.777168548E0,-9.241618514E-1,-4.979939461E-1,9.809044838E0
3.779182707E0,-9.457096457E-1,-5.027823448E-1,9.792284966E0
3.781166481E0,-9.457096457E-1,-5.099649429E-1,9.794678688E0
3.783180333E0,-9.576807022E-1,-5.075707436E-1,9.806650162E0
3.785194492E0,-9.624691010E-1,-4.932055473E-1,9.806650162E0
3.787179420E0,-9.648633003E-1,-4.955997467E-1,9.801861763E0
3.789192271E0,-9.576807022E-1,-4.932055473E-1,9.797073364E0
3.791176662E0,-9.528923035E-1,-5.123591423E-1,9.797073364E0
3.793190436E0,-9.624691010E-1,-5.147533417E-1,9.789890289E0
3.795173518E0,-9.840168953E-1,-5.003881454E-1,9.785101891E0
3.797188677E0,-9.911994934E-1,-4.979939461E-1,9.780313492E0
3.799171452E0,-9.959878922E-1,-4.979939461E-1,9.777919769E0
3.801185534E0,-1.003170490E0,-4.979939461E-1,9.777919769E0
3.803169924E0,-9.864110947E-1,-4.908113480E-1,9.775525093E0
3.805183467E0,-9.864110947E-1,-4.836287498E-1,9.777919769E0
3.807167165E0,-9.792284966E-1,-4.932055473E-1,9.782708168E0
3.809181324E0,-9.864110947E-1,-5.123591423E-1,9.780313492E0
3.811194176E0,-9.864110947E-1,-5.123591423E-1,9.780313492E0
3.813176411E0,-9.888052940E-1,-4.979939461E-1,9.775525093E0
3.815194186E0,-9.935936928E-1,-4.908113480E-1,9.785101891E0
3.817176730E0,-9.935936928E-1,-5.051765442E-1,9.789890289E0
3.819191120E0,-9.816226959E-1,-5.051765442E-1,9.775525093E0
3.821175432E0,-9.816226959E-1,-5.027823448E-1,9.770736694E0
3.823189360E0,-9.816226959E-1,-5.171475410E-1,9.770736694E0
3.825172674E0,-9.864110947E-1,-5.291185975E-1,9.770736694E0
3.827187525E0,-9.816226959E-1,-5.219359994E-1,9.770736694E0
3.829170530E0,-9.768342972E-1,-5.075707436E-1,9.787496567E0
3.831185381E0,-9.840168953E-1,-5.171475410E-1,9.785101891E0
3.833168464E0,-9.768342972E-1,-5.219359994E-1,9.789890289E0
3.835182854E0,-9.600749016E-1,-5.243301988E-1,9.789890289E0
3.837166936E0,-9.600749016E-1,-5.123591423E-1,9.782708168E0
3.839180787E0,-9.600749016E-1,-5.195417404E-1,9.787496567E0
3.841194332E0,-9.337386489E-1,-5.267243981E-1,9.794678688E0
3.843177721E0,-9.337386489E-1,-5.243301988E-1,9.794678688E0
3.845192418E0,-9.409212470E-1,-5.171475410E-1,9.797073364E0
3.847175193E0,-9.457096457E-1,-5.171475410E-1,9.799467087E0
3.849189660E0,-9.361328483E-1,-5.315127969E-1,9.804255486E0
3.851174896E0,-9.433154464E-1,-5.339069963E-1,9.799467087E0
3.853187901E0,-9.217676520E-1,-5.410895944E-1,9.787496567E0
3.855171829E0,-9.217676520E-1,-5.315127969E-1,9.780313492E0
3.857186065E0,-9.074024558E-1,-5.339069963E-1,9.777919769E0
3.859169686E0,-8.930372596E-1,-5.267243981E-1,9.794678688E0
3.861184230E0,-8.882488012E-1,-5.219359994E-1,9.797073364E0
3.863167542E0,-8.978256583E-1,-5.267243981E-1,9.797073364E0
3.865181701E0,-9.145850539E-1,-5.243301988E-1,9.777919769E0
3.867195861E0,-9.074024558E-1,-5.195417404E-1,9.780313492E0
3.869179328E0,-9.313444495E-1,-5.027823448E-1,9.785101891E0
3.871194717E0,-9.409212470E-1,-5.075707436E-1,9.770736694E0
3.873177107E0,-9.289502501E-1,-4.979939461E-1,9.773131371E0
3.875191267E0,-9.337386489E-1,-4.955997467E-1,9.780313492E0
3.877175041E0,-9.361328483E-1,-4.932055473E-1,9.777919769E0
3.879189431E0,-9.433154464E-1,-5.027823448E-1,9.785101891E0
3.881172589E0,-9.313444495E-1,-5.171475410E-1,9.782708168E0
3.883187365E0,-9.361328483E-1,-5.075707436E-1,9.775525093E0
3.885170754E0,-9.409212470E-1,-4.836287498E-1,9.761159897E0
3.887184605E0,-9.648633003E-1,-4.836287498E-1,9.770736694E0
3.889168918E0,-9.720458984E-1,-4.812345505E-1,9.780313492E0
3.891184539E0,-9.648633003E-1,-4.788403511E-1,9.794678688E0
3.893165545E0,-9.696516991E-1,-4.620809257E-1,9.777919769E0
3.895180550E0,-9.744400978E-1,-4.620809257E-1,9.773131371E0
3.897194785E0,-9.744400978E-1,-4.692635238E-1,9.773131371E0
3.899178406E0,-9.840168953E-1,-4.836287498E-1,9.780313492E0
3.901192258E0,-9.959878922E-1,-4.788403511E-1,9.782708168E0
3.903175724E0,-9.911994934E-1,-4.860229492E-1,9.777919769E0
3.905190191E0,-9.888052940E-1,-4.740519226E-1,9.777919769E0
3.907174196E0,-1.003170490E0,-4.788403511E-1,9.780313492E0
3.909188587E0,-9.935936928E-1,-4.836287498E-1,9.780313492E0
3.911172669E0,-9.888052940E-1,-4.836287498E-1,9.777919769E0
3.913185520E0,-1.000776291E0,-5.003881454E-1,9.785101891E0
3.915169294E0,-9.935936928E-1,-5.075707436E-1,9.792284966E0
3.917183377E0,-9.959878922E-1,-5.147533417E-1,9.799467087E0
3.919167074E0,-9.696516991E-1,-5.147533417E-1,9.804255486E0
3.921181310E0,-9.840168953E-1,-5.051765442E-1,9.806650162E0
3.923195392E0,-9.888052940E-1,-4.979939461E-1,9.809044838E0
3.925179475E0,-9.840168953E-1,-5.123591423E-1,9.811438560E0
3.927192634E0,-9.816226959E-1,-5.291185975E-1,9.816226959E0
3.929176946E0,-9.768342972E-1,-5.267243981E-1,9.816226959E0
3.931192028E0,-9.840168953E-1,-5.123591423E-1,9.821015358E0
3.933175803E0,-9.744400978E-1,-5.315127969E-1,9.832986832E0
3.935188732E0,-9.696516991E-1,-5.434837937E-1,9.830592155E0
3.937172660E0,-9.696516991E-1,-5.434837937E-1,9.828198433E0
3.939187203E0,-9.552865028E-1,-5.410895944E-1,9.823410034E0
3.941170593E0,-9.504981041E-1,-5.386953950E-1,9.804255486E0
3.943184983E0,-9.552865028E-1,-5.291185975E-1,9.806650162E0
3.945168373E0,-9.528923035E-1,-5.195417404E-1,9.801861763E0
3.947183224E0,-9.481038451E-1,-5.243301988E-1,9.789890289E0
3.949165998E0,-9.504981041E-1,-5.171475410E-1,9.792284966E0
3.951181697E0,-9.481038451E-1,-5.075707436E-1,9.797073364E0
3.953194548E0,-9.289502501E-1,-5.267243981E-1,9.780313492E0
3.955178553E0,-9.457096457E-1,-5.339069963E-1,9.780313492E0
3.957192173E0,-9.528923035E-1,-5.291185975E-1,9.782708168E0
3.959175256E0,-9.361328483E-1,-5.243301988E-1,9.773131371E0
3.961189723E0,-9.193734527E-1,-5.339069963E-1,9.758766174E0
3.963173420E0,-9.265560508E-1,-5.243301988E-1,9.753977776E0
3.965187810E0,-9.313444495E-1,-5.027823448E-1,9.749189377E0
3.967171507E0,-9.385270476E-1,-5.003881454E-1,9.758766174E0
3.969186667E0,-9.528923035E-1,-4.932055473E-1,9.756371498E0
3.971170980E0,-9.528923035E-1,-4.979939461E-1,9.758766174E0
3.973182908E0,-9.528923035E-1,-5.003881454E-1,9.758766174E0
3.975197682E0,-9.672574997E-1,-4.908113480E-1,9.763554573E0
3.977181688E0,-9.600749016E-1,-5.027823448E-1,9.756371498E0
3.979195847E0,-9.504981041E-1,-5.027823448E-1,9.756371498E0
3.981179313E0,-9.481038451E-1,-4.836287498E-1,9.753977776E0
3.983193087E0,-9.600749016E-1,-4.788403511E-1,9.761159897E0
3.985177401E0,-9.648633003E-1,-4.884171486E-1,9.768342972E0
3.987191560E0,-9.888052940E-1,-4.955997467E-1,9.768342972E0
