"Time (s)","Linear Acceleration x (m/s^2)","Linear Acceleration y (m/s^2)","Linear Acceleration z (m/s^2)"
1.516545700E-2,1.243436337E-2,8.254230022E-3,-1.442117691E-1
2.316117100E-2,2.279216051E-2,-5.811393261E-3,-1.395454407E-1
3.115749900E-2,-9.343802929E-3,-6.894546747E-2,-3.104591370E-2
3.918213600E-2,-1.276642084E-2,-5.957847834E-2,5.581665039E-2
4.717792600E-2,-3.832304478E-2,-2.097147703E-2,1.323089600E-1
5.517417700E-2,-2.796649933E-2,2.721226215E-2,1.704950333E-1
6.316958200E-2,-3.133952618E-3,2.969890833E-2,1.680307388E-1
7.116629600E-2,-4.256367683E-3,6.907451153E-2,1.457548141E-1
7.916070100E-2,1.608711481E-2,8.642229438E-2,1.111450195E-1
8.718410700E-2,2.382981777E-2,5.518025160E-2,6.309604645E-2
9.518266600E-2,2.712392807E-2,3.294652700E-2,1.397418976E-2
1.031783800E-1,6.341308355E-2,-2.375245094E-4,-5.455017090E-4
1.111755550E-1,4.211622477E-2,-2.128994465E-2,-8.758544922E-3
1.191694220E-1,6.475502253E-2,-1.614904404E-2,-4.059791565E-3
1.271645970E-1,4.709577560E-2,-5.255955458E-2,9.743690491E-3
1.351605410E-1,5.110585690E-2,-3.543031216E-2,2.614212036E-2
1.431874080E-1,2.552431822E-2,-1.897341013E-2,5.970668793E-2
1.511836600E-1,9.705245495E-3,-1.237338781E-2,4.538440704E-2
1.591779120E-1,-1.564711332E-2,2.279633284E-2,5.260562897E-2
1.671732400E-1,-5.308127403E-2,1.732885838E-2,4.545497894E-2
1.751692610E-1,-5.504745245E-2,4.314690828E-2,4.546165466E-2
1.831653590E-1,-5.717790127E-2,2.923566103E-2,6.997108459E-2
1.911610730E-1,-2.659934759E-2,1.004230976E-2,6.034564972E-2
1.991868630E-1,-3.245353699E-2,2.209872007E-2,7.702064514E-2
2.071822680E-1,-5.024671555E-5,4.319906235E-3,5.805492401E-2
2.151780580E-1,1.764482260E-2,-2.899330854E-2,5.315589905E-2
2.231740020E-1,4.734820127E-2,-2.877968550E-2,4.347229004E-2
2.311701000E-1,6.244748831E-2,-2.242964506E-2,4.023551941E-2
2.391648900E-1,5.934453011E-2,-2.481502295E-2,4.257202148E-2
2.471599110E-1,4.771649837E-2,-2.585852146E-2,3.220272064E-2
2.551863940E-1,5.847340822E-2,-1.168125868E-2,2.428436279E-2
2.631821070E-1,4.466813803E-2,-2.150106430E-2,1.713275909E-2
2.711058200E-1,1.939392090E-2,1.274424791E-2,1.650238037E-2
2.791741490E-1,6.490111351E-3,3.632366657E-2,1.659774780E-2
2.851853190E-1,-2.537417412E-2,3.442585468E-2,1.608943939E-2
2.871690160E-1,-3.016257286E-2,3.682005405E-2,2.087783813E-2
2.951650370E-1,-6.185460091E-2,1.506471634E-2,2.340316772E-2
3.031603660E-1,-6.545841694E-2,1.187753677E-2,3.883075714E-2
3.111877710E-1,-7.373386621E-2,1.441764832E-2,7.725238800E-2
3.191816390E-1,-7.507395744E-2,-4.627287388E-3,8.691978455E-2
3.271774290E-1,-5.041819811E-2,-1.880323887E-2,7.262229919E-2
3.351733730E-1,-5.007797480E-2,-3.072416782E-2,6.786441803E-2
3.431690860E-1,-1.887148619E-2,-1.868575811E-2,6.308555603E-2
3.511660300E-1,-9.246051311E-3,-5.219101906E-2,4.633045197E-2
3.591602050E-1,1.722282171E-2,-2.589243650E-2,2.239799500E-2
3.671858420E-1,2.964210510E-2,-1.166105270E-2,5.666732788E-3
3.751821690E-1,3.047209978E-2,2.547562122E-3,5.724906921E-3
3.831769600E-1,7.012254000E-2,9.953975677E-6,3.431320190E-3
3.911739040E-1,3.827285767E-2,1.881915331E-2,2.509593964E-2
3.991693090E-1,6.684601307E-3,1.615118980E-2,1.566123962E-2
4.071637920E-1,-2.950215340E-2,-3.248155117E-3,5.652236938E-2
4.151598130E-1,-2.003955841E-2,-3.582417965E-3,5.429649353E-2
4.231862190E-1,-1.523512602E-2,-1.593101025E-2,6.644344330E-2
4.311831630E-1,-1.767385006E-2,-1.397264004E-2,9.773921967E-2
4.391777220E-1,-2.971124649E-2,-1.077651978E-4,1.026916504E-1
4.471731280E-1,2.071225643E-2,-7.791042328E-3,7.174968719E-2
4.551697640E-1,8.966743946E-3,-2.007895708E-2,5.758380890E-2
4.631647850E-1,9.141921997E-3,-2.031975985E-2,6.257343292E-2
4.711611910E-1,-9.932816029E-3,-6.123602390E-3,2.206897736E-2
4.791860580E-1,-1.444178820E-2,-2.297192812E-2,1.749992371E-2
4.871815410E-1,-2.609443665E-2,-1.813530922E-3,-2.538871765E-2
4.951774850E-1,-2.089989185E-2,7.327377796E-3,-1.559925079E-2
5.031738130E-1,-3.972637653E-2,1.880306005E-2,-8.213043213E-3
5.111701420E-1,-3.702676296E-2,2.993613482E-2,-5.636215210E-3
5.191646240E-1,-5.347502232E-2,2.668380737E-3,-1.263809204E-2
5.271597220E-1,-2.933317423E-2,-1.023870707E-2,3.781127930E-2
5.351862810E-1,-7.572174072E-3,-8.831381798E-3,6.431770325E-2
5.431816100E-1,1.186811924E-2,-8.904933929E-5,4.535007477E-2
5.511783230E-1,5.067896843E-2,-5.417823792E-3,9.584999084E-2
5.591734210E-1,5.608713627E-2,-1.771187782E-2,9.609317780E-2
5.671679040E-1,1.857942343E-2,3.618240356E-3,9.157085419E-2
5.751644630E-1,7.420539856E-3,1.109838486E-3,7.029628754E-2
5.831596380E-1,-3.726416826E-2,-1.094973087E-2,3.226470947E-2
5.911869670E-1,-8.436375856E-2,-8.733570576E-3,2.056217194E-2
5.991820650E-1,-9.111827612E-2,-1.844465733E-3,-7.934570312E-3
6.071774700E-1,-1.031410694E-1,-9.221613407E-3,-3.168010712E-2
6.151738760E-1,-1.302515864E-1,-2.371335030E-2,-4.351329803E-2
6.231680510E-1,-1.482807398E-1,-2.154827118E-3,-2.665424347E-2
6.311649180E-1,-1.094157696E-1,1.936590672E-2,-3.378868103E-2
6.391597080E-1,-8.793681860E-2,2.909189463E-2,1.888561249E-2
6.471858830E-1,-4.566103220E-2,2.673947811E-2,4.515171051E-2
6.551816730E-1,-4.703289270E-2,7.765054703E-3,6.658744812E-2
6.631773870E-1,-2.748739719E-2,5.607664585E-3,9.275913239E-2
6.711739460E-1,-1.318788528E-2,2.016085386E-2,8.776378632E-2
6.791681200E-1,-1.406848431E-3,2.749598026E-2,9.233283997E-2
6.871636020E-1,1.986378431E-2,-1.290595531E-2,7.056617737E-2
6.951602390E-1,4.371649027E-2,-2.680593729E-2,4.403686523E-2
7.031860290E-1,7.997310162E-2,-3.835827112E-2,5.345821381E-2
7.111818190E-1,6.203120947E-2,-2.603852749E-2,5.337333679E-2
7.191765330E-1,1.026801467E-1,-1.861739159E-2,5.577468872E-2
7.271720150E-1,8.453243971E-2,-2.333152294E-2,4.150199890E-2
7.351683440E-1,8.425086737E-2,-4.199981689E-3,4.647445679E-2
7.431634420E-1,6.079274416E-2,-1.150232553E-2,5.629634857E-2
7.511613090E-1,-2.858400345E-3,2.608895302E-4,5.179405212E-2
7.591859450E-1,-4.956591129E-2,4.830181599E-3,3.773212433E-2
7.671803510E-1,-1.012188792E-1,1.898545027E-2,3.323459625E-2
7.751773720E-1,-1.224472523E-1,2.140146494E-2,2.629470825E-2
7.831723930E-1,-1.253516674E-1,3.130871058E-2,2.887439728E-2
7.911691060E-1,-1.289932728E-1,2.917474508E-2,7.442474365E-3
7.991632810E-1,-1.070357561E-1,1.538825035E-2,2.666473389E-2
8.071589950E-1,-9.260261059E-2,-7.346868515E-4,2.431106567E-2
8.151854770E-1,-4.265284538E-2,-1.924669743E-2,1.473903656E-2
8.231811910E-1,-3.116720915E-2,2.886176109E-3,4.824638367E-2
8.311772120E-1,-4.366737604E-2,3.371715546E-3,3.386020660E-2
8.391726160E-1,-4.902714491E-2,-3.419458866E-3,6.016731262E-2
8.471683300E-1,-3.043264151E-2,-1.517015696E-2,6.012916565E-2
8.551637350E-1,-3.349471092E-2,-2.928835154E-2,5.529403687E-2
8.631588330E-1,-4.393690825E-2,-1.717537642E-2,6.719589233E-2
8.711862390E-1,-1.868706942E-2,2.100825310E-3,1.203918457E-2
8.791809520E-1,-5.884349346E-3,-1.446390152E-2,2.148723602E-2
8.871730500E-1,-9.870827198E-3,-1.182007790E-2,4.600524902E-3
8.951729940E-1,2.689439058E-2,2.188920975E-2,1.405143738E-2
9.031680920E-1,5.189388990E-2,2.211749554E-2,2.591609955E-2
9.111644210E-1,5.091387033E-2,1.764452457E-2,4.500102997E-2
9.191592880E-1,4.296499491E-2,1.788991690E-2,4.494667053E-2
9.271856940E-1,1.857531071E-2,-1.064854860E-2,6.646537781E-2
9.351817150E-1,-3.159642220E-3,1.419305801E-3,9.039592743E-2
9.431765820E-1,-2.709341049E-2,-1.058214903E-2,9.757900238E-2
9.511734490E-1,-3.190493584E-2,-2.261918783E-2,6.405353546E-2
9.591683160E-1,-3.198474646E-2,-2.999234200E-2,6.164169312E-2
9.671627990E-1,-3.208065033E-2,-1.584905386E-2,4.965019226E-2
9.751591270E-1,-1.284998655E-2,5.554616451E-3,3.049564362E-2
9.831852250E-1,-1.758831739E-2,-1.725375652E-3,4.964733124E-2
9.911824770E-1,-1.521474123E-2,-2.568662167E-2,5.922317505E-2
9.991770360E-1,-5.703389645E-3,-3.777301311E-2,6.878852844E-2
1.007171518E0,1.440525055E-3,-3.812921047E-2,4.961109161E-2
1.015168385E0,-1.771670580E-2,-2.532005310E-4,2.803993225E-2
1.023163791E0,-8.091151714E-3,-5.461513996E-3,6.473541260E-3
1.031160427E0,1.836991310E-2,2.038913965E-2,4.063606262E-3
1.039185141E0,-3.158450127E-4,7.764101028E-4,4.079818726E-3
1.047180239E0,-4.508495331E-3,-1.884186268E-2,1.607799530E-2
1.055176798E0,-2.782833576E-2,1.179599762E-2,5.441379547E-2
1.063171896E0,-3.899556398E-2,-5.377233028E-3,8.079910278E-2
1.071168917E0,-2.619171143E-2,3.707826138E-3,8.563423157E-2
1.079163400E0,-6.185770035E-3,-3.033864498E-2,1.096229553E-1
1.087158728E0,-2.788007259E-3,-2.381759882E-2,1.048879623E-1
1.095185211E0,1.287126541E-2,-1.508712769E-2,7.862186432E-2
1.103180386E0,2.498090267E-3,1.495045424E-2,4.757976532E-2
1.111177330E0,-2.185171843E-2,2.822262049E-2,4.602432251E-3
1.119171197E0,-7.693886757E-3,4.142284393E-2,-1.681327820E-2
1.127166910E0,-3.885883093E-2,4.278481007E-2,-2.383899689E-2
1.135163239E0,-3.628784418E-2,2.996659279E-2,-2.365303040E-2
1.143189414E0,-3.117823601E-2,-4.162669182E-3,-6.683349609E-3
1.151185666E0,-3.780931234E-2,3.633499146E-4,4.145240784E-2
1.159181070E0,-4.444783926E-2,-2.121657133E-2,8.241844177E-2
1.167175630E0,-4.175209999E-2,-5.238872766E-2,1.137866974E-1
1.175172266E0,-4.664504528E-2,-4.559922218E-2,9.482002258E-2
1.183167903E0,-2.805978060E-2,-3.904974461E-2,6.622314453E-2
1.191164616E0,-4.110240936E-2,-1.841878891E-2,4.235267639E-2
1.199189252E0,-4.975551367E-2,1.163762808E-2,-1.029109955E-2
1.207184043E0,-4.923307896E-2,5.373200774E-2,-4.381561279E-2
1.215180910E0,-5.601346493E-2,3.621202707E-2,-3.424167633E-2
1.223175777E0,-6.296068430E-2,1.650410891E-2,-1.030635834E-2
1.231173952E0,-7.750439644E-2,1.141482592E-2,2.796745300E-2
1.239167434E0,-9.501677752E-2,1.849943399E-2,7.338333130E-2
1.247162609E0,-8.678090572E-2,1.714885235E-3,4.452991486E-2
1.255189400E0,-1.006215811E-1,-2.928763628E-2,3.718185425E-2
1.263183882E0,-5.962961912E-2,-2.434062958E-2,8.009433746E-2
1.271182057E0,-6.387156248E-2,-8.432942629E-2,8.949661255E-2
1.279176232E0,-7.540899515E-2,-6.790834665E-2,1.707038879E-1
1.287171330E0,-5.691146851E-2,1.554882526E-2,1.081609726E-1
1.295167351E0,-2.771925926E-2,8.258128166E-2,2.636623383E-2
1.303162755E0,7.061558962E-2,7.559144497E-2,-5.065250397E-2
1.311190161E0,1.504043341E-1,-7.697403431E-3,-3.901195526E-2
1.319184644E0,2.225276232E-1,-7.689470053E-2,-1.524448395E-2
1.327179972E0,1.583009362E-1,-8.388584852E-2,3.986930847E-2
1.335175763E0,6.193125248E-2,-5.257326365E-2,8.313560486E-2
1.343171707E0,-1.281213760E-2,7.281064987E-3,1.455507278E-1
1.351168958E0,-7.105284929E-2,6.696978211E-2,9.780216217E-2
1.359163210E0,-5.274051428E-2,-6.005096436E-2,2.371501923E-2
1.367188462E0,-2.842950821E-2,-4.324567318E-2,1.003637314E-1
1.375185021E0,7.399320602E-4,3.304213285E-2,2.223968506E-3
1.383179889E0,-1.100838184E-3,6.638196111E-2,-7.913875580E-2
1.391177448E0,-2.240335941E-2,3.310841322E-2,-7.670974731E-2
1.399170931E0,-3.645223379E-2,1.409959793E-2,2.334594727E-3
1.407166721E0,-3.354233503E-2,1.944482327E-3,7.160186768E-3
1.415193742E0,-5.257809162E-2,2.326464653E-2,3.588962555E-2
1.423188840E0,-3.343957663E-2,4.709461331E-2,-3.051757812E-5
1.431185169E0,-1.676398516E-2,-1.030027866E-2,5.024242401E-2
1.439180574E0,-2.771556377E-3,-4.608434439E-2,1.004953384E-1
1.447174749E0,9.110629559E-3,-1.036584377E-2,8.371734619E-2
1.455172001E0,-1.681333780E-2,-9.133815765E-4,7.177734375E-2
1.463167406E0,-1.909351349E-2,1.371330023E-2,7.898426056E-2
1.471163734E0,-1.585483551E-4,4.467308521E-3,7.179832458E-2
1.479188755E0,3.082877398E-2,-2.155792713E-2,5.264949799E-2
1.487184084E0,-2.431583405E-2,-3.084945679E-2,2.632045746E-2
1.495180720E0,-9.786844254E-3,5.283534527E-3,1.916408539E-2
1.503175511E0,-1.905000210E-2,2.857029438E-3,1.200771332E-2
1.511172224E0,-2.820575237E-2,2.695798874E-3,6.675720215E-5
1.519167245E0,-3.972357512E-2,1.463204622E-2,7.287025452E-3
1.527161420E0,-5.373239517E-2,2.118349075E-4,4.801845551E-2
1.535188902E0,-7.501858473E-2,-7.006406784E-3,8.634757996E-2
1.543184539E0,-5.579984188E-2,1.579523087E-5,8.155632019E-2
1.551180560E0,-4.364854097E-2,-2.886688709E-2,8.395957947E-2
1.559175735E0,-1.272392273E-2,6.972849369E-3,7.436084747E-2
1.567171063E0,-1.058441401E-2,-2.565979958E-3,7.194519043E-2
1.575167084E0,-3.770589828E-3,2.363681793E-3,5.276584625E-2
1.583162567E0,2.716726065E-2,-1.168084145E-2,3.121757507E-2
1.591190588E0,3.442990780E-2,-4.286229610E-3,2.165889740E-2
1.599184147E0,2.289986610E-2,1.015299559E-2,1.930904388E-2
1.607176399E0,2.609217167E-2,1.264607906E-2,-2.161979675E-3
1.615175882E0,-1.852613688E-2,1.275134087E-2,1.228713989E-2
1.623171594E0,-2.453184128E-2,-6.375908852E-3,5.211830139E-3
1.631167307E0,-5.227589607E-2,1.993942261E-2,3.403091431E-2
1.639162329E0,-8.498322964E-2,3.189027309E-3,3.170967102E-2
1.647188196E0,-1.037719250E-1,7.836222649E-4,4.371452332E-2
1.655184294E0,-9.454941750E-2,1.275461912E-2,6.523036957E-2
1.663179699E0,-7.126820087E-2,-8.691489697E-3,3.644466400E-2
1.671176566E0,-4.138040543E-2,-2.043068409E-2,3.873920441E-2
1.679171357E0,-4.532426596E-2,-1.291209459E-2,3.143405914E-2
1.687165916E0,2.234208584E-2,-2.938693762E-2,2.410793304E-2
1.695162553E0,3.270179033E-2,-3.160965443E-2,3.354930878E-2
1.703188420E0,5.787491798E-2,-3.161883354E-2,3.823280334E-2
1.711185595E0,4.552459717E-2,-5.618453026E-3,9.450912476E-3
1.719179769E0,4.833829403E-2,1.559889317E-2,2.144145966E-2
1.727175175E0,1.105988026E-2,1.051813364E-2,3.588294983E-2
1.735170888E0,-1.412504911E-2,1.270592213E-2,7.428455353E-2
1.743166679E0,-3.939616680E-2,2.933698893E-2,6.240177155E-2
1.751163238E0,-6.491947174E-2,1.978337765E-2,6.726455688E-2
1.759187875E0,-5.008512735E-2,-1.478254795E-3,7.211112976E-2
1.767180896E0,-2.846503258E-2,-1.154541969E-3,6.974029541E-2
1.775179377E0,-9.536504745E-3,3.928124905E-3,6.255245209E-2
1.783175014E0,-1.451414824E-2,6.616652012E-3,2.903270721E-2
1.791171958E0,1.185059547E-2,1.157581806E-2,1.467800140E-2
1.799165825E0,4.966139793E-3,-9.825646877E-3,5.136489868E-3
1.807161846E0,8.103668690E-3,4.583239555E-3,7.599830627E-3
1.815188636E0,-2.842128277E-3,7.039427757E-3,1.248359680E-2
1.823184426E0,-6.452679634E-3,-4.915118217E-3,2.935028076E-2
1.831180140E0,-2.914828062E-2,-2.406615019E-2,5.101108551E-2
1.839175545E0,-1.823264360E-2,-1.202774048E-2,7.029056549E-2
1.847170643E0,-3.102457523E-2,9.427249432E-3,6.563949585E-2
1.855166357E0,-2.227485180E-2,-2.695500851E-3,7.056236267E-2
1.863161685E0,-2.081388235E-2,6.787300110E-3,6.111431122E-2
1.871189706E0,-3.607237339E-2,1.153457165E-2,5.167102814E-2
1.879184266E0,-2.973264456E-2,-5.225360394E-3,3.984260559E-2
1.887179056E0,-6.598055363E-3,-7.618904114E-3,3.280448914E-2
1.895174385E0,-2.487063408E-3,-1.710605621E-2,2.099609375E-2
1.903170406E0,-1.051312685E-2,-2.739369869E-3,3.550434113E-2
1.911168042E0,8.205771446E-4,1.960575581E-3,1.650714874E-2
1.919162140E0,-1.876181364E-2,-1.254206896E-2,1.428604126E-2
1.927188007E0,-3.352296352E-2,-1.035332680E-2,3.361415863E-2
1.935183720E0,-2.913177013E-2,1.573246717E-2,1.223945618E-2
1.943179741E0,-5.109447241E-2,-1.136064529E-3,1.720523834E-2
1.951176146E0,-4.452103376E-2,-1.095235348E-3,2.455520630E-2
1.959170321E0,-2.866429090E-2,1.824164391E-2,4.864597321E-2
1.967166034E0,-3.937852383E-2,1.120477915E-2,5.834865570E-2
1.975162363E0,-2.149760723E-2,2.576899529E-2,6.804084778E-2
1.983187615E0,-1.790571213E-2,6.762802601E-3,7.773780823E-2
1.991185174E0,-2.394908667E-2,-3.127318621E-2,6.349372864E-2
1.999179349E0,-1.560044289E-2,-3.338837624E-2,5.643463135E-2
2.007174140E0,-4.603862762E-3,-5.498307943E-2,4.698944092E-2
2.015170468E0,-3.887033463E-2,-1.211148500E-2,4.473781586E-2
2.023167028E0,-1.082491875E-2,1.388150454E-2,1.854515076E-2
2.031163049E0,-1.396667957E-2,3.038644791E-2,-2.861022949E-3
2.039188070E0,-5.562382936E-2,6.291806698E-3,-9.914398193E-3
2.047183398E0,-4.238861799E-2,1.095736027E-2,1.653480530E-2
2.055179189E0,-5.318832397E-2,3.871083260E-3,2.383327484E-2
2.063173902E0,-3.533685207E-2,1.842367649E-2,4.310131073E-2
2.071170846E0,-4.394114017E-2,1.868444681E-2,5.278396606E-2
2.079166329E0,-3.587687016E-2,1.170897484E-2,7.921504974E-2
2.083164185E0,-5.190849304E-2,-9.759724140E-3,7.689476013E-2
2.085178267E0,-4.233169556E-2,2.211332321E-3,8.407783508E-2
2.087160810E0,-2.796649933E-2,-2.577066422E-3,9.604835510E-2
2.095187524E0,-3.468430042E-2,4.654586315E-3,6.975936890E-2
2.103183314E0,-2.965444326E-2,7.020592690E-3,7.217407227E-2
2.111179873E0,-1.282370090E-2,6.970345974E-3,3.387165070E-2
2.119175356E0,-1.288753748E-2,1.167255640E-2,7.524490356E-3
2.127169531E0,-2.970468998E-2,4.037961364E-2,9.912490845E-3
2.135165859E0,-3.917717934E-2,2.846682072E-2,9.924888611E-3
2.143161188E0,-4.880392551E-2,1.431983709E-2,1.950836182E-2
2.151188978E0,-2.026593685E-2,1.220697165E-2,3.386974335E-2
2.159183769E0,-8.606791496E-3,-4.324436188E-3,4.342937469E-2
2.167178251E0,-1.614391804E-3,-8.847415447E-3,6.976222992E-2
2.175174503E0,5.493998528E-3,-1.343560219E-2,7.215881348E-2
2.183170216E0,-6.422281265E-3,-1.332086325E-2,7.695865631E-2
2.191166545E0,-1.101809740E-2,-1.319354773E-2,6.980133057E-2
2.199192105E0,-5.919754505E-3,1.070350409E-2,5.306911469E-2
2.207187279E0,-3.147721291E-3,1.301473379E-2,2.197551727E-2
2.215183300E0,2.187013626E-3,1.044631004E-2,1.483726501E-2
2.223179245E0,1.023083925E-2,2.456784248E-2,7.722854614E-3
2.231175342E0,-7.320046425E-4,1.245939732E-2,1.738929749E-2
2.239170056E0,1.011121273E-2,2.664297819E-2,2.947235107E-2
2.247165230E0,-2.443575859E-2,1.696407795E-2,3.438663483E-2
2.255191405E0,-8.726477623E-3,1.618862152E-4,4.169464111E-2
2.263187656E0,-4.090893269E-2,-4.609584808E-3,5.618953705E-2
2.271183754E0,-2.524507046E-2,-9.288966656E-3,6.589794159E-2
2.279179160E0,-2.649682760E-2,3.532767296E-4,6.122303009E-2
2.287174258E0,-1.576924324E-2,-2.829551697E-2,7.091522217E-2
2.295169356E0,-3.865677118E-2,-1.142805815E-2,4.708003998E-2
2.303166223E0,-3.518652916E-2,7.763862610E-3,4.239845276E-2
2.311192705E0,-2.933263779E-2,1.489114761E-2,2.573966980E-2
2.319187496E0,-3.072500229E-2,2.844095230E-3,1.625633240E-2
2.327182286E0,-2.753472328E-2,1.461726427E-2,1.392841339E-2
2.335178692E0,-4.328536987E-2,3.836393356E-2,4.439353943E-3
2.343174713E0,-6.368660927E-2,-3.369379044E-2,4.538536072E-3
2.351170118E0,-7.715141773E-2,-1.949030161E-2,6.207942963E-2
2.359165447E0,-5.473440886E-2,1.381224394E-2,4.778671265E-2
2.367191314E0,-4.230225086E-2,5.671766400E-2,1.909160614E-2
2.375187412E0,-1.819700003E-2,6.548941135E-3,3.108406067E-2
2.383183049E0,-2.789133787E-2,-2.199083567E-2,7.178401947E-2
2.391179993E0,-2.349269390E-2,-1.244002581E-2,5.259037018E-2
2.399174166E0,2.198451757E-2,1.868987083E-2,5.498409271E-2
2.407169034E0,2.198350430E-2,3.555989265E-2,1.907730103E-2
2.415165901E0,1.495623589E-2,-7.346332073E-3,3.586196899E-2
2.423192691E0,2.727407217E-2,-1.678073406E-2,4.547977448E-2
2.431187789E0,1.841646433E-2,-9.679973125E-3,3.118038177E-2
2.439182887E0,5.171239376E-3,9.387552738E-3,9.737014771E-3
2.447178062E0,-3.193986416E-2,1.171231270E-2,1.942729950E-2
2.455174314E0,-2.590668201E-2,1.156604290E-2,3.630161285E-2
2.463169796E0,-2.715462446E-2,-5.330085754E-3,2.922344208E-2
2.471166356E0,-6.453549862E-2,4.218280315E-3,5.086135864E-2
2.479191607E0,-6.610238552E-2,2.098178864E-2,5.573177338E-2
2.487187090E0,-8.470618725E-2,2.350133657E-2,4.382038116E-2
2.495182496E0,-6.762933731E-2,1.164859533E-2,5.104064941E-2
2.503178517E0,-3.415822983E-2,9.495079517E-3,3.668403625E-2
2.511175153E0,-3.175610304E-2,1.702523232E-2,5.346202850E-2
2.519169251E0,-3.147959709E-3,-1.955807209E-3,5.345916748E-2
2.527164964E0,-3.323376179E-3,-9.010791779E-3,4.866027832E-2
2.535191524E0,1.581168175E-2,-1.610976458E-2,1.753902435E-2
2.543186853E0,1.873373985E-3,-8.874714375E-3,2.955436707E-2
2.551184104E0,-1.179140806E-2,-8.957803249E-3,6.553268433E-2
2.559177970E0,-2.527242899E-2,-1.623362303E-2,4.406642914E-2
2.567173376E0,-5.067694187E-2,-1.643097401E-2,5.133056641E-2
2.575168782E0,-6.887835264E-2,1.465618610E-2,4.663467407E-2
2.583165187E0,-6.583327055E-2,1.466959715E-2,4.909324646E-2
2.591192593E0,-5.117070675E-2,3.634488583E-2,3.715896606E-2
2.599187306E0,-4.644876719E-2,3.652065992E-2,3.955554962E-2
2.607182097E0,-2.520310879E-2,5.493044853E-3,3.952980042E-2
2.615178118E0,-2.793759108E-2,8.464455605E-4,2.753353119E-2
2.623174446E0,-1.143515110E-2,5.687296391E-3,3.948211670E-2
2.631169929E0,-2.363383770E-2,1.520371437E-2,3.227424622E-2
2.639164950E0,-3.114908934E-2,2.464926243E-2,2.983951569E-2
2.647190817E0,-5.303055048E-2,1.963794231E-2,4.655456543E-2
2.655186838E0,-4.850757122E-2,-9.458184242E-3,2.256679535E-2
2.663182628E0,-4.427391291E-2,-1.458078623E-2,4.164791107E-2
2.671178957E0,-4.002475739E-2,-1.248645782E-2,3.439617157E-2
2.679174055E0,-3.128486872E-2,-1.998388767E-2,3.908634186E-2
2.687169076E0,-6.335729361E-2,-1.548182964E-2,3.179550171E-2
2.695165097E0,-6.677126884E-2,-1.438200474E-3,3.886032104E-2
2.703190733E0,-3.457182646E-2,-1.363921165E-2,4.829502106E-2
2.711187601E0,-5.295222998E-2,-8.944869041E-3,4.573726654E-2
2.719182698E0,-4.519957304E-2,7.791519165E-3,4.555797577E-2
2.727174103E0,-2.318596840E-2,1.238179207E-2,4.296398163E-2
2.735173586E0,-5.132299662E-2,7.515013218E-3,5.236053467E-2
2.743169530E0,-1.972717047E-2,5.096197128E-3,3.541374207E-2
2.751165012E0,-4.827439785E-3,1.461601257E-2,3.283500671E-2
2.759190880E0,1.729023457E-2,-2.168715000E-3,2.308082581E-2
2.767186593E0,5.886077881E-3,1.220339537E-2,3.966426849E-2
2.775182537E0,1.868379116E-2,-1.999616623E-3,4.191493988E-2
2.783177943E0,1.490896940E-2,1.718300581E-2,5.614852905E-2
2.791174041E0,2.099418640E-2,2.879142761E-3,4.886436462E-2
2.799169677E0,2.975314856E-2,-1.842737198E-3,4.400062561E-2
2.807164544E0,2.445143461E-2,5.191564560E-4,4.395008087E-2
2.815191334E0,5.020320415E-3,7.600128651E-3,4.870605469E-2
2.823186355E0,1.681596041E-2,3.389269114E-2,3.432178497E-2
2.831183376E0,2.371728420E-3,1.467686892E-2,2.952194214E-2
2.839177782E0,-2.144992352E-2,2.654564381E-2,1.516342163E-2
2.847172572E0,-1.183927059E-2,2.156442404E-2,2.473354340E-2
2.855168363E0,-2.360457182E-2,4.673004150E-3,3.192806244E-2
2.863164691E0,-2.357244492E-2,2.847421169E-2,4.389572144E-2
2.871191097E0,-2.364569902E-2,9.310781956E-3,3.670501709E-2
2.879186886E0,-2.146506310E-2,-5.041420460E-3,5.583858490E-2
2.887181676E0,-1.704418659E-2,1.180452108E-2,5.101966858E-2
2.895177697E0,-2.472352982E-2,-6.544589996E-5,3.421783447E-2
2.903173642E0,1.789742708E-2,-1.191020012E-2,2.460289001E-2
2.911171201E0,1.283454895E-2,-2.387934923E-2,3.654575348E-2
2.919164760E0,5.773842335E-3,2.321183681E-3,4.133987427E-2
2.927190397E0,1.332879066E-2,6.913244724E-3,3.657627106E-2
2.935186956E0,1.947700977E-3,3.777304292E-2,3.422546387E-2
2.943181439E0,-3.342050314E-2,1.721739769E-3,2.469348907E-2
2.951178691E0,-5.453890562E-2,1.842272282E-2,3.670215607E-2
2.959173481E0,-7.825577259E-2,-5.586326122E-3,4.390430450E-2
2.967168271E0,-7.115781307E-2,6.383419037E-3,3.910732269E-2
2.975164600E0,-6.679695845E-2,6.461679935E-3,3.667545319E-2
2.983191159E0,-3.865242004E-2,2.323347330E-2,1.028442383E-2
2.991186796E0,-2.510792017E-2,-3.392833471E-2,5.092144012E-2
2.999181278E0,-4.712820053E-3,-9.758114815E-3,8.434295654E-2
3.007177299E0,3.016269207E-2,7.075190544E-3,5.072784424E-2
3.015173320E0,6.302630901E-2,9.496092796E-3,1.475429535E-2
3.023169033E0,4.378271103E-2,-2.153128386E-2,3.629875183E-2
3.031166054E0,6.337243319E-2,-7.239878178E-3,3.873062134E-2
3.039190382E0,-9.725034237E-3,-3.144741058E-4,4.600620270E-2
3.047183327E0,-8.466899395E-3,2.814978361E-2,5.329704285E-2
3.055182424E0,-7.188433409E-2,3.034305573E-2,4.143238068E-2
3.063177753E0,-7.331854105E-2,-1.768046618E-2,4.870033264E-2
3.071175005E0,-7.787960768E-2,-9.616017342E-4,4.872035980E-2
3.079168257E0,-7.538545132E-2,2.529227734E-2,2.238845825E-2
3.095189607E0,-4.515355825E-2,1.591455936E-2,4.864978790E-2
3.103186166E0,1.626777649E-2,-1.029419899E-2,2.463436127E-2
3.111182572E0,2.495807409E-2,-2.951622009E-3,2.695178986E-2
3.119177593E0,4.105550051E-2,9.090662003E-3,2.689266205E-2
3.127172383E0,3.834551573E-2,1.955330372E-3,1.968193054E-2
3.135168404E0,1.211071014E-2,1.383250952E-2,3.884029388E-2
3.143164425E0,1.252925396E-2,2.098923922E-2,3.409099579E-2
3.151190984E0,-6.078660488E-3,-1.976668835E-2,4.371738434E-2
3.159185467E0,-3.172683716E-2,-1.019728184E-2,6.293678284E-2
3.167181719E0,-2.631169558E-2,-2.223169804E-2,4.623317719E-2
3.175177201E0,-2.831369638E-2,-7.045865059E-4,4.866409302E-2
3.183173452E0,-4.480469227E-2,-5.545377731E-3,4.150485992E-2
3.191169473E0,-3.286534548E-2,1.118946075E-2,2.474212646E-2
3.199194417E0,-3.531974554E-2,8.827090263E-3,1.755428314E-2
3.207189515E0,-4.027450085E-2,8.887529373E-3,2.472496033E-2
3.215186767E0,-3.812587261E-2,1.140844822E-2,2.470779419E-2
3.223181326E0,-1.699632406E-2,-5.241572857E-3,3.903770447E-2
3.231178809E0,-3.069698811E-3,6.928443909E-3,4.618835449E-2
3.239172984E0,-1.767349243E-2,-7.389724255E-3,5.813980103E-2
3.247167774E0,-1.763683558E-2,2.202451229E-3,6.053924561E-2
3.255194564E0,-5.475282669E-3,1.407516003E-2,6.773471832E-2
3.263189970E0,1.890629530E-2,-1.236462593E-2,5.579948425E-2
3.271187529E0,7.381141186E-3,2.098900080E-2,6.062316895E-2
3.279181089E0,3.034651279E-3,3.035604954E-2,4.628753662E-2
3.287176879E0,-1.321786642E-2,3.254896402E-2,1.998996735E-2
3.295172516E0,-2.452588081E-2,1.321119070E-2,2.722644806E-2
3.303168537E0,-7.069408894E-3,8.274257183E-3,3.686332703E-2
3.311194711E0,-4.953008890E-2,-6.190717220E-3,2.734184265E-2
3.319189502E0,-5.635613203E-2,-8.604645729E-3,4.174041748E-2
3.327185215E0,-7.538288832E-2,-8.565485477E-3,3.217792511E-2
3.335181544E0,-7.309347391E-2,1.291298866E-2,1.061725616E-2
3.343177025E0,-5.187702179E-2,1.046228409E-2,5.793571472E-3
3.351173662E0,-2.376770973E-2,1.049882174E-2,8.130073547E-3
3.359168144E0,-7.887065411E-3,3.379225731E-3,2.480792999E-2
3.367193935E0,-6.577968597E-3,-3.750562668E-3,2.710056305E-2
3.375190032E0,-2.746939659E-3,-1.321166754E-2,5.813980103E-2
3.383185438E0,-6.027638912E-3,6.101787090E-3,6.763935089E-2
3.391182075E0,1.716113091E-2,-2.008682489E-2,5.321025848E-2
3.399176865E0,7.070899010E-3,-1.991218328E-2,7.471847534E-2
3.407172193E0,-5.077123642E-4,-5.388498306E-3,7.947635651E-2
3.415167984E0,-6.461739540E-4,-4.537701607E-4,6.271171570E-2
3.423194159E0,1.847159863E-2,2.025306225E-3,6.271266937E-2
3.431190795E0,1.390916109E-2,2.027869225E-3,4.118537903E-2
3.439185585E0,7.933378220E-5,-1.234740019E-2,3.644847870E-2
3.447180068E0,2.478247881E-2,6.785511971E-3,1.976108551E-2
3.455176320E0,3.055220842E-2,1.395505667E-2,3.422069550E-2
3.463172418E0,1.012289524E-2,2.342909575E-2,2.235031128E-2
3.471168977E0,-4.152202606E-2,8.900761604E-3,2.244091034E-2
3.479194613E0,-7.419896126E-2,2.073460817E-2,2.730274200E-2
3.487189404E0,-8.788770437E-2,2.775251865E-2,3.933048248E-2
3.495185732E0,-8.757972717E-2,2.520960569E-2,3.456497192E-2
3.503182060E0,-6.850069761E-2,-3.580152988E-3,5.131340027E-2
3.511178312E0,-6.892746687E-2,-1.318418980E-2,3.690528870E-2
3.519172256E0,-2.158021927E-2,-1.549714804E-2,2.728080750E-2
3.527167046E0,-5.485355854E-3,-3.481268883E-3,4.158401489E-2
3.535194375E0,1.314473152E-2,-1.303011179E-2,4.632377625E-2
3.543190165E0,3.187537193E-3,-8.248388767E-3,3.192234039E-2
3.551185879E0,2.454310656E-2,1.239359379E-3,3.429317474E-2
3.559180900E0,1.030248404E-2,1.076966524E-2,3.430271149E-2
3.567176382E0,-1.084154844E-2,1.547509432E-2,2.954959869E-2
3.575171788E0,-1.255542040E-2,5.832433701E-3,4.158210754E-2
3.583167809E0,-2.847999334E-2,5.790114403E-3,5.363178253E-2
3.591194522E0,-3.481864929E-2,5.638122559E-3,3.455066681E-2
3.599190005E0,-4.363983870E-2,1.277536154E-2,5.377578735E-2
3.607184718E0,-6.232160330E-2,1.511359215E-2,5.860614777E-2
3.615180201E0,-5.248773098E-2,3.105938435E-3,5.623435974E-2
3.623176837E0,-4.548060894E-2,-1.841902733E-2,3.467082977E-2
3.631172858E0,-1.476657391E-2,-1.628994942E-3,2.745056152E-2
3.639167341E0,2.081197500E-2,-1.542687416E-3,1.784515381E-2
3.647193438E0,1.832497120E-2,-6.328344345E-3,3.220176697E-2
3.655189767E0,1.138335466E-2,8.035480976E-3,4.419708252E-2
3.663185249E0,-1.295804977E-4,-4.044294357E-3,4.423522949E-2
3.671182116E0,-5.470311642E-2,-1.792490482E-3,5.624580383E-2
3.679176291E0,-6.144481897E-2,-6.712913513E-3,4.670429230E-2
3.687171081E0,-5.396634340E-2,-9.202897549E-3,4.433441162E-2
3.695167794E0,-3.230011463E-2,1.940715313E-2,5.630970001E-2
3.703193354E0,-3.241562843E-2,-9.412229061E-3,2.756404877E-2
3.711190221E0,-2.306902409E-2,-7.068276405E-3,3.232765198E-2
3.719184704E0,-2.095448971E-2,2.168238163E-2,2.033042908E-2
3.727180109E0,-6.845951080E-3,1.449906826E-2,5.941390991E-3
3.735176207E0,-1.907211542E-2,1.694029570E-2,1.549530029E-2
3.743171920E0,6.928563118E-3,7.477343082E-3,3.462219238E-2
3.751168557E0,-5.326092243E-3,7.659554482E-3,1.545143127E-2
3.759193732E0,-1.031005383E-2,2.445644140E-2,4.655838013E-2
3.767187291E0,8.713245392E-3,5.296528339E-3,4.894065857E-2
3.775184312E0,-9.491443634E-4,1.248079538E-2,5.850887299E-2
3.783180333E0,-1.771402359E-2,2.840816975E-3,5.850505829E-2
3.791176662E0,-1.278769970E-2,-2.057194710E-3,4.893589020E-2
3.799171452E0,-5.565279722E-2,1.229220629E-2,2.980327606E-2
3.815194186E0,-5.341154337E-2,1.941663027E-2,3.696823120E-2
3.823189360E0,-4.170161486E-2,-6.758272648E-3,2.258586884E-2
3.831185381E0,-4.448705912E-2,-6.652414799E-3,3.691864014E-2
3.839180787E0,-2.094072104E-2,-8.965790272E-3,3.927993774E-2
3.847175193E0,-6.754517555E-3,-6.569266319E-3,5.123329163E-2
3.855171829E0,1.705759764E-2,-2.086895704E-2,3.207015991E-2
3.863167542E0,4.101020098E-2,-1.606243849E-2,4.883289337E-2
3.871194717E0,-1.686692238E-3,2.948343754E-3,2.252674103E-2
3.879189431E0,-3.232061863E-3,7.622301579E-3,3.696727753E-2
3.887184605E0,-2.375018597E-2,2.650469542E-2,2.268791199E-2
3.895180550E0,-3.221422434E-2,4.782447219E-2,2.517795563E-2
3.903175724E0,-4.803067446E-2,2.370417118E-2,3.004837036E-2
3.911172669E0,-4.476177692E-2,2.614498138E-2,3.013610840E-2
3.919167074E0,-2.498275042E-2,-4.831612110E-3,5.653953552E-2
3.927192634E0,-3.660231829E-2,-1.889455318E-2,6.856060028E-2
3.935188732E0,-2.445745468E-2,-3.290581703E-2,8.296203613E-2
3.943184983E0,-9.961783886E-3,-1.824337244E-2,5.904769897E-2
3.951181697E0,-2.650141716E-3,3.534138203E-3,4.949569702E-2
3.959175256E0,9.587466717E-3,-1.323223114E-2,2.557849884E-2
3.967171507E0,7.779836655E-3,1.063275337E-2,1.126670837E-2
3.975197682E0,-2.018207312E-2,1.989889145E-2,1.611328125E-2
3.983193087E0,-1.200085878E-2,3.170222044E-2,1.380729675E-2
3.991189801E0,-4.689121246E-2,7.576823235E-3,3.783893585E-2
3.999184822E0,-4.840290546E-2,2.667170763E-2,2.116298676E-2
4.007179612E0,-4.534029961E-2,2.737343311E-3,4.038238525E-2
4.015175325E0,-4.023176432E-2,2.192503214E-2,5.956840515E-2
4.023171116E0,-3.295660019E-2,-9.092748165E-3,9.070873260E-2
4.031197906E0,-3.782898188E-2,-1.620489359E-2,8.112716675E-2
4.039192696E0,-4.508358240E-2,6.158947945E-4,6.436347961E-2
4.047188409E0,-3.806346655E-2,7.823169231E-3,6.195545197E-2
4.063179836E0,-2.681189775E-2,3.438889980E-2,2.040863037E-3
4.071175780E0,-2.023929358E-2,1.542192698E-2,-7.584571838E-3
4.079171263E0,-2.324622869E-2,-1.029372215E-3,-5.234718323E-3
4.087166053E0,2.775788307E-4,-5.649626255E-3,3.543567657E-2
4.095192843E0,-1.182502508E-2,-1.023113728E-2,3.064441681E-2
4.103188787E0,2.530336380E-3,-2.936184406E-3,5.459213257E-2
4.111185501E0,2.412199974E-4,2.336496115E-2,5.938816071E-2
4.119179676E0,-2.844983339E-2,1.836836338E-3,7.375907898E-2
4.127175080E0,-1.173472404E-2,1.145070791E-2,5.939102173E-2
4.135170794E0,-4.650413990E-3,1.612591743E-2,5.458736420E-2
4.143196891E0,5.035758018E-3,8.883237839E-3,4.741096497E-2
4.151194220E0,5.413055420E-3,-3.179013729E-3,2.828979492E-2
4.159188395E0,-1.551300287E-2,-8.035898209E-4,4.032135010E-2
4.167183416E0,-3.139430285E-2,-7.615089417E-4,4.040813446E-2
4.175179514E0,-3.774261475E-2,2.323663235E-2,3.091621399E-2
4.183175227E0,-4.646253586E-2,4.480841756E-2,2.381801605E-2
4.191172171E0,-5.778151751E-2,-6.258487701E-4,3.346061707E-2
4.199198039E0,-6.229633093E-2,2.109241486E-2,3.828525543E-2
4.207193060E0,-6.708174944E-2,4.475653172E-3,5.265808105E-2
4.215188542E0,-6.009763479E-2,-2.734065056E-4,3.109359741E-2
4.223183948E0,-5.104154348E-2,-2.169013023E-4,4.541110992E-2
4.231181123E0,-2.544742823E-2,1.662963629E-2,3.576660156E-2
4.239175682E0,-1.187402010E-2,1.196014881E-2,2.133083344E-2
4.247170703E0,3.979384899E-3,-7.033646107E-3,2.603912354E-2
4.255197263E0,2.480244637E-2,-6.912529469E-3,3.794574738E-2
4.263192668E0,5.320501328E-2,-3.312939405E-2,4.989051819E-2
4.271189843E0,2.939260006E-2,-4.281342030E-2,4.989814758E-2
4.279184095E0,-1.176774502E-3,-2.617752552E-2,6.670475006E-2
4.287178884E0,-1.231485605E-2,-9.327530861E-3,5.960845947E-2
4.295175521E0,-5.222219229E-2,9.891688824E-3,5.729389191E-2
4.303171465E0,-5.401539803E-2,7.703959942E-3,5.736351013E-2
4.311198255E0,-4.184824228E-2,-8.894979954E-3,2.866172791E-2
4.319193045E0,-4.194176197E-2,2.003550529E-2,4.063415527E-2
4.327187220E0,-1.107442379E-2,2.022713423E-2,2.625370026E-2
4.335183626E0,-4.176199436E-3,2.031672001E-2,2.862453461E-2
4.343179570E0,1.718354225E-2,3.484791517E-2,1.664447784E-2
4.351177437E0,7.616579533E-3,1.103693247E-2,4.538249969E-2
4.359171073E0,6.281733513E-4,1.107990742E-2,3.822040558E-2
4.367196556E0,-3.263431787E-2,6.267488003E-3,5.260944366E-2
4.375192654E0,-3.478747606E-2,2.058196068E-2,3.826522827E-2
4.383187983E0,-5.376195908E-2,1.202762127E-3,6.939601898E-2
4.391184927E0,-3.691959381E-2,-3.738164902E-3,4.545402527E-2
4.399179486E0,-5.370134115E-2,-3.937840462E-3,3.825855255E-2
4.407174584E0,-2.996939421E-2,1.514971256E-2,4.781150818E-2
4.415170605E0,-4.221379757E-2,2.705526352E-2,2.623367310E-2
4.423197011E0,-1.389008760E-2,-1.732528210E-3,2.140235901E-2
4.431193955E0,-1.905846596E-2,1.991891861E-2,2.615928650E-2
4.439187513E0,1.422530413E-2,-1.557767391E-3,3.571701050E-2
4.447183227E0,-2.667307854E-4,8.283853531E-4,3.570461273E-2
4.455179940E0,1.421064138E-2,7.971644402E-3,5.247211456E-2
4.463174653E0,1.679736376E-2,7.465481758E-4,4.051780701E-2
4.471171674E0,-2.579563856E-2,-6.489694118E-3,4.056453705E-2
4.479196849E0,-1.584386826E-2,1.253694296E-2,3.101730347E-2
4.483195014E0,-3.702604771E-2,-6.655573845E-3,3.583908081E-2
4.485179096E0,-3.463184834E-2,-1.144403219E-2,2.626228333E-2
4.487191639E0,-2.984344959E-2,-1.867175102E-3,3.105068207E-2
4.495188045E0,-7.044672966E-4,-4.305481911E-3,4.784774780E-2
4.503183451E0,-4.358530045E-2,7.581412792E-3,3.828716278E-2
4.511180703E0,-5.072653294E-3,2.702176571E-3,3.830242157E-2
4.519174800E0,-2.448976040E-3,-1.175385714E-2,2.395534515E-2
4.527170206E0,5.077302456E-3,-2.207398415E-3,3.116989136E-2
4.535196766E0,1.267075539E-2,1.929467916E-2,3.839015961E-2
4.543192094E0,-6.059587002E-3,1.457464695E-2,3.364658356E-2
4.551189731E0,-2.483886480E-2,2.170097828E-2,4.086303711E-2
4.559183598E0,-6.274318695E-2,1.448231936E-2,3.611278534E-2
4.567178388E0,-5.052506924E-2,2.648383379E-2,3.613853455E-2
4.575174640E0,-6.244373322E-2,-4.687726498E-3,5.290031433E-2
4.583170661E0,-3.635960817E-2,-4.729211330E-3,3.850746155E-2
4.591197836E0,-4.860752821E-2,-9.578943253E-3,3.847789764E-2
4.599191702E0,-3.945183754E-2,9.710073471E-3,2.886581421E-2
4.607187031E0,-2.085441351E-2,-2.291023731E-3,3.359889984E-2
4.615183436E0,4.935145378E-3,1.562237740E-4,2.875995636E-2
4.623179150E0,-2.882599831E-3,-6.975591183E-3,3.109550476E-2
4.631175401E0,6.474196911E-3,2.394318581E-4,2.149868011E-2
4.639170807E0,-2.912104130E-3,2.268552780E-4,4.306411743E-2
4.647193059E0,-1.443469524E-2,9.682834148E-3,3.591918945E-2
4.655192157E0,-1.141464710E-2,9.435653687E-3,5.512142181E-2
4.663187793E0,-2.504611015E-2,2.052247524E-3,6.236553192E-2
4.671184506E0,-3.621762991E-2,6.496906281E-3,6.003093719E-2
4.679179220E0,-2.110207081E-2,2.059668303E-2,6.248569489E-2
4.687174010E0,-3.966963291E-2,1.565688848E-2,3.859233856E-2
4.695170646E0,-4.415154457E-2,3.599047661E-3,3.382968903E-2
4.703196514E0,-4.887002707E-2,1.154303551E-3,2.425575256E-2
4.711193150E0,-4.657489061E-2,2.019828558E-2,1.705837250E-2
4.719187325E0,-3.730601072E-2,3.518939018E-3,1.703262329E-2
4.727183038E0,-2.811419964E-2,2.737617493E-2,1.699066162E-2
4.735179136E0,-1.411050558E-2,1.011490822E-3,2.892398834E-2
4.743174542E0,-4.945814610E-3,3.394961357E-3,2.648925781E-2
4.751170870E0,-1.001548767E-2,3.381311893E-3,3.843212128E-2
4.759196352E0,6.616055965E-3,1.284146309E-2,5.517196655E-2
4.767191219E0,6.693482399E-3,-3.986716270E-3,6.235980988E-2
4.775184702E0,-5.081117153E-3,1.026433706E-2,5.997848511E-2
4.783183492E0,-2.416849136E-3,6.196498871E-4,6.000137329E-2
4.791179205E0,-1.147836447E-2,1.244854927E-2,5.525588989E-2
4.799174303E0,-3.009068966E-2,1.475054026E-2,4.333305359E-2
4.807168863E0,-4.140913486E-2,5.101382732E-3,3.621101379E-2
4.815196192E0,-1.433366537E-2,-2.181887627E-3,2.670192719E-2
4.823191905E0,-2.805429697E-2,-7.109522820E-3,2.196884155E-2
4.831188541E0,-4.648768902E-2,-1.264810562E-4,1.963520050E-2
4.839182793E0,-3.636735678E-2,1.164126396E-2,2.686119080E-2
4.847178199E0,-4.075890779E-2,1.624971628E-2,3.886127472E-2
4.855174143E0,-4.048514366E-2,-5.828142166E-4,2.930736542E-2
4.863170241E0,-2.111083269E-2,-7.801592350E-3,4.129886627E-2
4.871196723E0,-2.583372593E-2,-5.404233932E-3,5.327606201E-2
4.879191821E0,-1.144385338E-2,4.157841206E-3,4.848957062E-2
4.887183765E0,-3.068566322E-2,8.923292160E-3,5.326747894E-2
4.895182632E0,-4.758459330E-2,6.531953812E-3,5.085945129E-2
4.903178883E0,-2.625900507E-2,2.324455976E-2,2.210521698E-2
4.911175597E0,-3.382164240E-2,6.506383419E-3,3.164577484E-2
4.919170002E0,-2.464979887E-2,1.374453306E-2,2.203273773E-2
4.927195331E0,-2.267646790E-2,1.134192944E-2,3.156757355E-2
4.935191583E0,-3.873050213E-3,-2.994775772E-3,3.632259369E-2
4.943187296E0,7.810771465E-3,8.956611156E-3,2.910995483E-2
4.951184932E0,-6.736338139E-3,-7.862746716E-3,5.303096771E-2
4.959179107E0,-6.756424904E-3,-3.165185452E-3,4.823684692E-2
4.967173898E0,-1.625788212E-2,6.234705448E-3,4.105186462E-2
4.975169842E0,-2.557998896E-2,1.085561514E-2,3.627967834E-2
4.983195709E0,-2.069538832E-2,1.084411144E-2,3.868293762E-2
4.991192653E0,5.794644356E-3,3.634333611E-3,4.827308655E-2
4.999187212E0,-4.184466600E-2,1.210927963E-3,3.393077850E-2
5.015178870E0,-2.450251579E-2,-1.236259937E-3,4.116821289E-2
5.023174352E0,-4.095387459E-2,5.831778049E-3,3.400897980E-2
5.031170681E0,-4.068428278E-2,9.381175041E-4,1.487636566E-2
5.039195318E0,-3.817498684E-2,-4.020512104E-3,2.206325531E-2
5.047190723E0,-3.321194649E-2,2.943933010E-2,3.883552551E-2
5.055187360E0,-3.545182943E-2,3.640916944E-2,3.165721893E-2
5.063182995E0,-3.290146589E-2,2.803444862E-3,3.645706177E-2
5.071179093E0,-3.516840935E-2,9.880125523E-3,5.801200867E-2
5.079174114E0,-5.669224262E-2,1.217627525E-2,6.758594513E-2
5.087199750E0,-5.189990997E-2,7.251501083E-3,4.603099823E-2
5.095195387E0,-4.715484381E-2,3.341034055E-2,3.883457184E-2
5.103191177E0,-3.796482086E-2,3.100556135E-2,3.640270233E-2
5.111187736E0,-1.708644629E-2,1.909714937E-2,2.915668488E-2
5.119182834E0,8.354783058E-3,2.393871546E-2,2.188968658E-2
5.127177394E0,7.544636726E-3,2.153694630E-2,1.223278046E-2
5.135173646E0,1.178455353E-2,-1.689887047E-2,2.414226532E-2
5.143199897E0,1.873695850E-2,-1.230680943E-2,3.129196167E-2
5.151196842E0,-1.235818863E-2,2.333462238E-2,3.128051758E-2
5.159190940E0,-3.842872381E-2,4.094898701E-3,6.721687317E-2
5.167186961E0,-4.779261351E-2,2.081805468E-2,6.005287170E-2
5.175182982E0,-4.531782866E-2,1.642107964E-3,6.245326996E-2
5.183178387E0,-2.628719807E-2,1.135152578E-2,5.765914917E-2
5.191174485E0,-9.827435017E-3,1.142191887E-2,4.566287994E-2
5.199199429E0,-4.553198814E-4,1.868444681E-2,4.325199127E-2
5.207191989E0,-1.512140036E-2,-1.955121756E-2,2.646732330E-2
5.215191779E0,-3.229200840E-3,-7.608354092E-3,2.885246277E-2
5.223186799E0,-1.506239176E-2,1.380795240E-2,1.210021973E-2
5.231182820E0,-1.702404022E-2,1.600098610E-2,7.343292236E-3
5.239176995E0,-3.325057030E-2,-8.229434490E-3,2.174568176E-2
5.247172785E0,-6.164824963E-2,5.884587765E-3,3.134250641E-2
5.255199883E0,-6.617403030E-2,1.041316986E-2,3.374767303E-2
5.263194981E0,-5.658167601E-2,1.018750668E-2,3.613281250E-2
5.271191540E0,-3.531557322E-2,5.260348320E-3,3.849220276E-2
5.279186715E0,-2.138793468E-2,9.865701199E-3,3.604507446E-2
5.287181736E0,-3.870803118E-2,7.357954979E-3,3.359031677E-2
5.295177527E0,-2.252531052E-2,2.636617422E-2,3.352546692E-2
5.303173855E0,-8.571028709E-3,1.442176104E-2,3.588104248E-2
5.311200646E0,2.828180790E-3,9.642481804E-3,5.019092560E-2
5.319195667E0,-9.677588940E-3,1.685053110E-2,5.253314972E-2
5.327190226E0,-5.247592926E-3,1.697713137E-2,5.489921570E-2
5.335186478E0,-7.801353931E-3,-1.172131300E-2,3.812599182E-2
5.343182499E0,-1.974254847E-2,1.699805260E-2,3.334045410E-2
5.351178289E0,-2.191579342E-2,1.630783081E-4,3.814601898E-2
5.359173618E0,-1.677680016E-2,1.195770502E-2,4.535388947E-2
5.367195562E0,-2.815401554E-2,2.274811268E-3,2.864742279E-2
5.375194968E0,-1.805293560E-2,1.167339087E-2,1.432418823E-2
5.383190603E0,-1.522088051E-2,4.387557507E-3,4.309177399E-2
5.391186932E0,4.348397255E-3,1.841127872E-3,3.115463257E-2
5.399182030E0,-9.388446808E-3,-7.106065750E-4,3.839015961E-2
5.407177204E0,-2.547752857E-2,-1.282554865E-2,3.844833374E-2
5.415173841E0,-6.793957949E-2,1.325368881E-2,5.765056610E-2
5.423199400E0,-8.672404289E-2,1.076030731E-2,3.613471985E-2
5.431195729E0,-6.998974085E-2,2.975210547E-2,3.372955322E-2
5.439190750E0,-4.890686274E-2,8.184969425E-3,2.889442444E-2
5.447182771E0,-4.961031675E-2,-1.331788301E-2,2.403926849E-2
5.455182484E0,-1.457810402E-2,-1.294136047E-3,1.916694641E-2
5.463177044E0,6.270647049E-3,-3.230446577E-2,3.346920013E-2
5.471173680E0,3.224980831E-2,-3.520429134E-3,3.343677521E-2
5.479200086E0,1.063632965E-2,-8.307278156E-3,4.061412811E-2
5.487194030E0,1.070749760E-2,8.472263813E-3,2.625656128E-2
5.495190897E0,-9.410381317E-4,2.029263973E-2,2.867412567E-2
5.503186380E0,-2.454346418E-2,2.256447077E-2,3.349018097E-2
5.511183632E0,-1.205563545E-2,2.725863457E-2,5.029487610E-2
5.519178114E0,-4.997998476E-2,5.525231361E-3,6.468868256E-2
5.527172519E0,-6.414496899E-2,-1.369518042E-2,5.512809753E-2
5.535200310E0,-8.091962337E-2,1.504826546E-2,6.709861755E-2
5.543195715E0,-6.211501360E-2,1.030451059E-2,1.918220520E-2
5.551191966E0,-5.536669493E-2,-1.586556435E-3,9.567260742E-3
5.559186141E0,-4.631119967E-2,8.130013943E-3,2.149391174E-2
5.567181239E0,-1.579201221E-2,1.306247711E-2,1.904773712E-2
5.575177260E0,-4.548907280E-3,2.521127462E-2,2.856254578E-2
5.583172743E0,-1.486814022E-2,1.824313402E-2,5.004882812E-2
5.591200995E0,1.547533274E-2,1.129442453E-2,5.477237701E-2
5.599194323E0,9.993612766E-3,-3.031849861E-3,4.991912842E-2
5.607188114E0,9.600281715E-3,1.134586334E-2,6.185245514E-2
5.615186981E0,2.638918161E-2,2.311313152E-2,5.226707458E-2
5.623181771E0,9.973049164E-3,6.094455719E-3,4.031658173E-2
5.631178407E0,3.692579269E-2,2.249693871E-2,3.556919098E-2
5.639172505E0,-1.732927561E-2,2.230226994E-2,2.127361298E-2
5.647198142E0,-9.313344955E-3,-1.731038094E-3,3.571605682E-2
5.655194470E0,-2.777749300E-2,-8.908212185E-3,3.099536896E-2
5.663189491E0,-4.160130024E-2,-8.920729160E-3,3.344154358E-2
5.671187436E0,-4.836332798E-2,7.852494717E-3,3.108978271E-2
5.679181610E0,-2.646386623E-2,3.073334694E-3,3.351879120E-2
5.687176938E0,-4.305958748E-2,1.036173105E-2,3.114700317E-2
5.695172728E0,-5.520474911E-2,1.746797562E-2,2.633762360E-2
5.703198519E0,-3.856223822E-2,3.158390522E-3,4.780769348E-3
5.711196155E0,-1.015573740E-2,2.231752872E-2,1.671981812E-2
5.719190330E0,1.101481915E-2,1.269078255E-2,3.583431244E-2
5.727185043E0,1.078075171E-2,1.742172241E-2,2.144336700E-2
5.735181987E0,8.403599262E-3,6.322264671E-4,3.341388702E-2
5.743177085E0,-1.298654079E-2,1.254451275E-2,4.539775848E-2
5.751173491E0,-3.916555643E-2,1.246786118E-2,5.498600006E-2
5.759199281E0,-3.897047043E-2,2.676504850E-2,5.739498138E-2
5.767193533E0,-4.369205236E-2,-2.371412516E-2,4.302597046E-2
5.775190708E0,-4.134619236E-2,-6.967961788E-3,6.217575073E-2
5.783185883E0,-5.125510693E-2,1.694518328E-2,2.862167358E-2
5.791182134E0,-4.207432270E-2,7.327497005E-3,2.379226685E-2
5.799177232E0,-3.285354376E-2,2.511501312E-3,1.896762848E-2
5.807172100E0,-6.776511669E-3,1.448690891E-2,1.415348053E-2
5.815199428E0,5.005717278E-3,2.400767803E-2,1.652717590E-2
5.823194526E0,-4.592418671E-3,-2.310514450E-3,2.849674225E-2
5.831190624E0,7.425010204E-3,2.160000801E-2,3.328800201E-2
5.839185338E0,-1.877099276E-2,2.162563801E-2,3.809070587E-2
5.847181050E0,-3.052401543E-2,1.521110535E-4,5.008792877E-2
5.855176532E0,-3.996908665E-2,-4.547834396E-3,5.249881744E-2
5.863172169E0,-2.549457550E-2,9.755373001E-3,4.532432556E-2
5.871199267E0,-3.994119167E-2,3.131791949E-2,2.376937866E-2
5.879193826E0,-3.043788671E-2,7.404208183E-3,2.136993408E-2
5.887189770E0,-3.057068586E-2,2.411043644E-2,9.382247925E-3
5.895186407E0,-4.035872221E-2,2.167779207E-2,6.965637207E-3
5.903181505E0,-3.105950356E-2,1.220721006E-2,3.567409515E-2
5.911177526E0,-3.132969141E-2,-9.304821491E-3,3.325557709E-2
5.919173008E0,-2.909040451E-2,1.470381021E-2,4.521465302E-2
5.927197952E0,-2.204042673E-2,-2.011716366E-3,4.520416260E-2
5.935194204E0,-3.904008865E-2,5.221426487E-3,4.278850555E-2
5.943189994E0,-3.935897350E-2,-1.986861229E-3,5.472755432E-2
5.951186862E0,-2.543175220E-2,2.725005150E-3,1.876735687E-2
5.959181113E0,-1.644128561E-2,-2.164661884E-3,1.391601562E-2
5.975203232E0,-2.962887287E-3,-4.661321640E-3,1.621913910E-2
5.983198407E0,6.211578846E-3,-1.414543390E-2,6.607055664E-3
5.991194967E0,-2.278512716E-2,-2.847814560E-2,4.249572754E-2
5.999189218E0,-3.496384621E-2,-2.162516117E-3,4.008102417E-2
6.007184546E0,-3.014564514E-2,-1.651918888E-2,4.966068268E-2
6.015181183E0,-4.683536291E-2,-4.475235939E-3,5.445957184E-2
6.023176973E0,-3.969395161E-2,-4.454016685E-3,5.206203461E-2
6.031173609E0,-3.504914045E-2,7.640659809E-3,7.120895386E-2
6.039198861E0,-2.327686548E-2,-6.660759449E-3,5.203914642E-2
6.047193959E0,3.919601440E-4,1.724296808E-2,3.764533997E-2
6.055189903E0,2.648121119E-2,3.398022056E-2,2.804279327E-2
6.063185386E0,2.875769138E-2,3.151163459E-2,1.845073700E-2
6.071182560E0,4.330033064E-2,9.909629822E-3,1.367664337E-2
6.079177043E0,1.984930038E-2,1.940149069E-2,2.808570862E-2
6.087171833E0,3.942430019E-3,-1.657336950E-2,3.055953979E-2
6.095198931E0,-2.623492479E-2,-2.388536930E-3,3.543186188E-2
6.103194337E0,-5.650824308E-2,-1.926583052E-2,4.987430573E-2
6.111191281E0,-8.005052805E-2,4.624307156E-3,4.751586914E-2
6.119184917E0,-5.844759941E-2,-5.134403706E-3,4.751205444E-2
6.127180938E0,-6.829220057E-2,9.057819843E-3,3.550624847E-2
6.135176882E0,-4.719883204E-2,1.616358757E-2,2.109336853E-2
6.143202442E0,-3.573077917E-2,1.848477125E-2,2.343368530E-2
6.151199155E0,-3.151762486E-2,-1.993542910E-2,2.337169647E-2
6.159193869E0,-1.053535938E-2,2.071714401E-2,4.486179352E-2
6.167186504E0,1.067900658E-2,2.555137873E-2,2.807140350E-2
6.175184756E0,3.390252590E-3,6.442904472E-3,1.848697662E-2
6.183180392E0,1.067894697E-2,-2.462583780E-2,4.004859924E-2
6.191177952E0,-1.074719429E-2,-2.699184418E-2,5.203247070E-2
6.199202357E0,-3.441423178E-2,1.132440567E-2,6.163787842E-2
6.207198301E0,-2.920073271E-2,2.563333511E-2,4.730987549E-2
6.215193707E0,-2.892088890E-2,-7.483959198E-4,4.015350342E-2
6.223189420E0,-3.824067116E-2,-1.994013786E-2,4.735851288E-2
6.231186134E0,-4.038268328E-2,1.356869936E-2,2.104663849E-2
6.239180847E0,-1.389306784E-2,2.071177959E-2,-5.277633667E-3
6.247175406E0,-1.611018181E-2,2.548456192E-2,1.149845123E-2
6.255202197E0,7.449984550E-4,-8.720755577E-4,3.066158295E-2
6.263198141E0,-1.428246498E-3,-8.732676506E-4,2.589416504E-2
6.271195085E0,8.467912674E-3,3.881216049E-3,3.789424896E-2
6.279189644E0,-1.266592741E-2,1.576679945E-2,4.990196228E-2
6.287184973E0,-4.110527039E-2,6.122052670E-3,4.753208160E-2
6.295180994E0,-4.812490940E-2,1.088511944E-2,4.036521912E-2
6.303175861E0,-4.815232754E-2,-1.303958893E-2,4.754543304E-2
6.311203267E0,-2.673441172E-2,6.031334400E-3,3.555774689E-2
6.319197979E0,-2.218532562E-2,3.611564636E-3,3.313827515E-2
6.327193154E0,-2.960586548E-2,6.022393703E-3,3.551006317E-2
6.335189175E0,1.093488932E-2,1.270890236E-3,2.113151550E-2
6.343185427E0,-3.547489643E-3,1.255214214E-3,2.351284027E-2
6.351180910E0,-8.282423019E-3,1.806646585E-2,2.591514587E-2
6.359176623E0,-2.245587111E-2,6.046235561E-3,2.593135834E-2
6.367201567E0,-1.516234875E-2,2.034145594E-2,2.593898773E-2
6.375197896E0,-3.889590502E-2,1.795732975E-2,2.595996857E-2
6.383193609E0,-3.633117676E-2,2.752700448E-2,3.076457977E-2
6.391190476E0,-4.095470905E-2,1.801788807E-2,4.993820190E-2
6.399184959E0,-2.892726660E-2,8.476078510E-3,4.755020142E-2
6.407179518E0,-3.860127926E-2,-3.525972366E-3,4.753971100E-2
6.415176462E0,-3.146034479E-2,1.227080822E-3,4.274463654E-2
6.423201945E0,-3.640717268E-2,2.260833979E-2,2.356719971E-2
6.431198274E0,-2.224159241E-2,3.401577473E-3,9.180068970E-3
6.439193371E0,-1.053088903E-2,2.017033100E-2,2.352046967E-2
6.455184567E0,-2.549362183E-2,1.073300838E-3,2.585887909E-2
6.463180204E0,5.448281765E-3,3.487408161E-3,3.063106537E-2
6.479202399E0,2.242338657E-2,-6.300747395E-3,6.655502319E-2
6.487196881E0,2.281266451E-2,5.415976048E-3,4.263591766E-2
6.495192902E0,-5.518198013E-4,1.954364777E-2,4.747009277E-2
6.503189308E0,-1.909762621E-2,9.715497494E-3,4.272747040E-2
6.511186175E0,-4.013389349E-2,2.339661121E-3,3.079700470E-2
6.519179811E0,-5.886036158E-2,1.186275482E-2,4.041290283E-2
6.527175525E0,-6.332379580E-2,1.424169540E-2,9.319305420E-3
6.535201930E0,-4.642248154E-2,1.187288761E-2,2.369976044E-2
6.543198028E0,-4.882800579E-2,-1.558065414E-4,2.848434448E-2
6.551194357E0,-4.422694445E-2,2.140825987E-2,9.312629700E-3
6.559188763E0,-3.023779392E-2,-7.128834724E-3,2.365112305E-2
6.567184553E0,5.331635475E-3,-2.159595490E-3,1.644420624E-2
6.575179882E0,-1.656770706E-2,7.604479790E-3,4.754352570E-2
6.583175980E0,-7.339060307E-3,-6.666898727E-3,4.272651672E-2
6.591202770E0,-2.608895302E-4,6.322264671E-4,4.511642456E-2
6.599198175E0,-2.513527870E-4,1.511001587E-2,3.315162659E-2
6.607192043E0,-5.022823811E-3,1.275175810E-2,4.273223877E-2
6.615188679E0,-2.411991358E-2,7.913351059E-3,4.034137726E-2
6.623184392E0,-3.609591722E-2,5.587816238E-3,3.076744080E-2
6.631181259E0,-3.618633747E-2,1.034659147E-2,2.118110657E-2
6.639175203E0,-3.160017729E-2,2.484869957E-2,2.116775513E-2
6.647200762E0,-4.865384102E-2,1.064145565E-2,3.551292419E-2
6.655197091E0,-2.266430855E-2,1.078391075E-2,3.069782257E-2
6.663193035E0,-2.786248922E-2,1.410007477E-3,4.024410248E-2
6.671189671E0,-2.600663900E-2,-2.001470327E-2,4.977416992E-2
6.679184462E0,-9.748876095E-3,-7.940113544E-3,3.057765961E-2
6.687178944E0,4.169285297E-3,2.330505848E-2,3.532886505E-2
6.695175581E0,-5.748748779E-3,1.825869083E-3,3.529834747E-2
6.703201755E0,1.079553366E-2,1.624172926E-2,2.570343018E-2
6.711198161E0,8.372426033E-3,1.386272907E-2,3.288364410E-2
6.719192951E0,-3.422021866E-3,2.340865135E-2,4.247570038E-2
6.727187434E0,-6.863474846E-4,1.142364740E-2,3.053760529E-2
6.735184301E0,-9.802401066E-3,-5.342602730E-3,3.537082672E-2
6.743179784E0,-6.768345833E-3,2.571034431E-2,4.979515076E-2
6.751176420E0,-1.321703196E-2,2.084577084E-2,5.704498291E-2
6.759201672E0,-2.214795351E-2,-9.229183197E-4,4.751968384E-2
6.767196385E0,-2.158510685E-2,1.093715429E-2,4.517555237E-2
6.775193098E0,-5.695962906E-2,2.518802881E-2,3.325080872E-2
6.783188427E0,-5.915081501E-2,1.790899038E-2,3.087234497E-2
6.791185447E0,-7.834386826E-2,-6.067276001E-3,9.319305420E-3
6.799180160E0,-7.873272896E-2,3.528594971E-3,3.561878204E-2
6.807174335E0,-4.593700171E-2,2.748206258E-2,1.639366150E-2
6.815201818E0,-4.196816683E-2,2.035331726E-2,2.110576630E-2
6.823197839E0,-6.985366344E-3,1.319307089E-2,2.340888977E-2
6.831193552E0,-5.523979664E-3,-1.004099846E-3,2.572154999E-2
6.839188343E0,2.473074198E-2,-1.044058800E-2,4.958534241E-2
6.847183979E0,4.827320576E-3,-5.594193935E-3,6.148719788E-2
6.855179077E0,3.319120407E-2,-7.910907269E-3,4.948329926E-2
6.863175790E0,4.281997681E-3,-3.193318844E-3,5.185699463E-2
6.871202811E0,-1.240938902E-2,1.555442810E-3,4.707241058E-2
6.879197294E0,-2.179509401E-2,2.071255445E-2,3.751468658E-2
6.887189622E0,-5.031406879E-2,1.601725817E-2,3.275108337E-2
6.895188490E0,-3.818637133E-2,1.855111122E-2,1.840877533E-2
6.903184203E0,-1.436740160E-2,2.593147755E-2,2.798366547E-2
6.911180224E0,-1.700264215E-2,2.376919985E-2,3.754901886E-2
6.919174399E0,-5.280077457E-3,1.680332422E-2,3.753566742E-2
6.927200574E0,-2.227258682E-2,2.166545391E-2,2.315235138E-2
6.935197441E0,-3.178536892E-3,2.175110579E-2,3.033351898E-2
6.943192615E0,-1.753783226E-2,-4.581928253E-3,2.554607391E-2
6.951188867E0,-3.154277802E-3,-4.587113857E-3,2.315235138E-2
6.959183426E0,-3.912484646E-2,1.206320524E-2,4.229450226E-2
6.967178832E0,-1.039046049E-2,2.138781548E-2,2.312850952E-2
6.975175468E0,-3.181964159E-2,2.352684736E-2,2.791595459E-2
6.983201028E0,-3.175479174E-2,1.611149311E-2,3.269863129E-2
6.991198202E0,-3.417903185E-2,-5.564868450E-3,3.987216949E-2
6.999192070E0,-3.685277700E-2,1.451194286E-3,4.462432861E-2
7.007188091E0,-2.517950535E-2,-1.053994894E-2,4.938316345E-2
7.015184189E0,-1.337665319E-2,-3.384530544E-3,3.739356995E-2
7.023179210E0,-1.108270884E-2,1.303911209E-3,1.583099365E-2
7.031175846E0,-6.232917309E-3,6.063103676E-3,3.259468079E-2
7.039201098E0,-2.520042658E-2,1.283824444E-3,2.064323425E-2
7.047194119E0,-2.976745367E-2,3.648281097E-3,2.305698395E-2
7.055191986E0,-4.631888866E-2,1.321917772E-2,3.983592987E-2
7.063188238E0,-3.432601690E-2,-5.946815014E-3,5.420303345E-2
7.071184259E0,-3.443467617E-2,-1.313602924E-2,3.743267059E-2
7.079179972E0,-3.441917896E-2,-5.904734135E-3,2.546596527E-2
7.087173839E0,-8.015513420E-3,1.805877686E-2,2.547359467E-2
7.095200937E0,1.126986742E-2,3.683388233E-3,3.745651245E-2
7.103196419E0,9.198963642E-3,3.654241562E-3,2.312183380E-2
7.111193055E0,4.323840141E-2,-1.315855980E-2,3.514099121E-2
7.119187538E0,2.719932795E-2,8.226633072E-3,3.759670258E-2
7.127182866E0,-1.256477833E-2,8.089482784E-3,3.049850464E-2
7.135179887E0,-4.286533594E-2,1.509767771E-2,1.141738892E-2
7.143174908E0,-8.530235291E-2,2.459025383E-2,2.823638916E-2
7.151201776E0,-9.685391188E-2,1.974493265E-2,1.869678497E-2
7.159195951E0,-7.309389114E-2,7.726848125E-3,2.107143402E-2
7.167191356E0,-5.677044392E-2,-1.743972301E-3,5.694675446E-2
7.175187993E0,-2.887260914E-2,-1.825642586E-2,4.011821747E-2
7.183183090E0,-3.501236439E-3,-3.005355597E-2,3.045749664E-2
7.191179112E0,4.170536995E-4,8.386850357E-3,1.840686798E-2
7.199204979E0,2.133482695E-2,3.623604774E-3,2.313518524E-2
7.207200307E0,3.058159351E-2,1.280725002E-3,8.741378784E-3
7.215196328E0,1.851612329E-2,-9.614825249E-4,1.592254639E-2
7.223192119E0,-2.954781055E-3,1.596462727E-2,3.509235382E-2
7.231188447E0,-2.741217613E-3,1.377701759E-2,3.272914886E-2
7.239183468E0,-3.120982647E-2,6.863653660E-3,5.671024323E-2
7.247178028E0,-4.534310102E-2,1.673346758E-2,5.435371399E-2
7.255205357E0,-6.440567970E-2,-1.175904274E-2,6.155872345E-2
7.263201377E0,-7.404381037E-2,3.122091293E-4,5.198001862E-2
7.271197705E0,-5.988633633E-2,-6.868481636E-3,4.717159271E-2
7.279192188E0,-1.730644703E-2,-2.048015594E-3,4.472923279E-2
7.287187363E0,-1.322877407E-2,-4.411816597E-3,2.071952820E-2
7.295183615E0,-1.641720533E-2,7.579743862E-3,8.671760559E-3
7.303178789E0,-2.778828144E-3,1.253509521E-2,1.427650452E-3
7.311206195E0,1.818352938E-2,1.508206129E-2,1.574325562E-2
7.319200062E0,2.496850491E-2,9.444952011E-4,3.726482391E-2
7.327196006E0,1.518523693E-2,-8.505046368E-3,4.922199249E-2
7.335192027E0,1.058709621E-2,-8.458137512E-3,3.487777710E-2
7.343187510E0,-1.295858622E-2,-3.720581532E-3,4.449081421E-2
7.351184069E0,-7.488846779E-3,-8.491039276E-3,5.892372131E-2
7.359178860E0,-4.331409931E-3,-1.404106617E-3,3.505039215E-2
7.367201958E0,-3.708612919E-2,9.379982948E-4,2.793884277E-2
7.375200517E0,-4.830628633E-2,2.725017071E-2,2.801132202E-2
7.383196230E0,-5.484151840E-2,-1.518189907E-3,2.567863464E-2
7.391192174E0,-5.678582191E-2,5.761981010E-3,1.615047455E-2
7.399187042E0,-4.473555088E-2,-8.534789085E-3,1.796722412E-3
7.415209161E0,-4.495233297E-2,-1.090347767E-3,3.291320801E-2
7.423205258E0,-1.886916161E-2,-2.246588469E-2,2.332019806E-2
7.431201279E0,-4.853188992E-3,-1.276803017E-2,3.526401520E-2
7.439196376E0,-5.132257938E-3,1.724958420E-3,5.918502808E-2
7.447190859E0,-1.018655300E-2,2.111876011E-2,6.156730652E-2
7.455188034E0,-5.634367466E-3,4.500627518E-3,5.436801910E-2
7.463182824E0,1.349163055E-2,-1.694953442E-2,4.718780518E-2
7.471179768E0,6.370663643E-3,-4.981994629E-3,3.761577606E-2
7.479205328E0,-2.870082855E-3,6.924688816E-3,2.088642120E-2
7.487199887E0,-1.202839613E-2,6.898641586E-3,1.613807678E-2
7.495196447E0,-2.825558186E-2,1.411628723E-2,1.619148254E-2
7.503191929E0,-4.931348562E-2,-2.880489826E-2,1.385402679E-2
7.511187643E0,-3.219085932E-2,4.898548126E-3,2.826404572E-2
7.519183279E0,-5.111378431E-2,-1.412022114E-2,3.308200836E-2
7.527177454E0,-3.902077675E-2,2.953410149E-4,4.267311096E-2
7.535204244E0,-4.135292768E-2,5.137383938E-3,3.071117401E-2
7.543200265E0,-3.889894485E-2,1.719290018E-2,3.072166443E-2
7.551196902E0,-3.183573484E-2,-1.146930456E-2,2.353000641E-2
7.559191769E0,-2.006614208E-2,1.487636566E-2,3.548240662E-2
7.567186789E0,1.202702522E-3,1.254445314E-2,1.869869232E-2
7.575182810E0,-6.213128567E-3,7.898628712E-3,3.544330597E-2
7.583178292E0,-8.768022060E-3,-6.211280823E-3,3.065204620E-2
7.591206006E0,-1.851791143E-2,-6.106078625E-3,2.585315704E-2
7.599199873E0,-6.575942039E-3,3.606498241E-3,3.303909302E-2
7.607195201E0,-8.925020695E-3,1.083081961E-2,4.262256622E-2
7.615191607E0,1.002073288E-3,1.328992844E-2,3.787231445E-2
7.623186397E0,-3.357470036E-3,1.334244013E-2,2.594566345E-2
7.631183880E0,-1.238447428E-2,1.413762569E-3,3.797149658E-2
7.639178132E0,-9.351193905E-3,1.448750496E-3,3.324794769E-2
7.647203922E0,-1.591712236E-2,1.387536526E-3,2.612304688E-2
7.655200635E0,-2.713364363E-2,1.085573435E-2,2.140331268E-2
7.663195656E0,-2.398842573E-2,6.116092205E-3,2.866077423E-2
7.671192600E0,-2.809917927E-2,1.376569271E-3,1.915359497E-2
7.679186545E0,-5.390399694E-2,6.240963936E-3,3.596973419E-2
7.687181642E0,-5.836081505E-2,2.786189318E-2,3.121662140E-2
7.695177971E0,-5.098539591E-2,-9.094476700E-4,3.602218628E-2
7.703204146E0,-4.862034321E-2,1.580864191E-2,4.798793793E-2
7.711201321E0,-5.599540472E-2,2.049487829E-2,2.881050110E-2
7.719195880E0,-3.966790438E-2,2.765774727E-2,3.594970703E-2
7.727190670E0,-4.265993834E-2,1.418411732E-3,3.110790253E-2
7.735186921E0,-3.385317326E-2,3.847956657E-3,2.863979340E-2
7.743182404E0,-3.226864338E-2,2.072989941E-2,2.856731415E-2
7.751178117E0,2.795100212E-3,8.896410465E-3,2.609729767E-2
7.759203984E0,2.352064848E-2,8.986473083E-3,3.320312500E-2
7.767197852E0,1.329958439E-2,-1.480287313E-2,2.357101440E-2
7.775195334E0,-1.105535030E-2,-2.907222509E-2,3.311252594E-2
7.783191124E0,5.635678768E-3,-1.476967335E-2,3.789138794E-2
7.791188299E0,-2.289623022E-2,2.010345459E-3,4.270076752E-2
7.799181859E0,-1.288515329E-2,-1.238042116E-2,4.752922058E-2
7.807177264E0,-2.202188969E-2,-5.203783512E-3,4.996681213E-2
7.815204055E0,-3.827500343E-2,1.641219854E-2,4.283714294E-2
7.823199230E0,-3.536146879E-2,2.597093582E-2,3.330993652E-2
7.831196097E0,-1.825153828E-2,3.324106336E-2,2.137851715E-2
7.839190656E0,-2.284890413E-2,3.564020991E-2,4.055118561E-2
7.847185446E0,-1.787936687E-2,2.135431767E-2,2.860164642E-2
7.855182083E0,-1.046001911E-2,2.385467291E-2,2.623653412E-2
7.863177412E0,8.900344372E-3,4.737436771E-3,2.386379242E-2
7.871205125E0,-2.776443958E-3,2.415359020E-3,4.544448853E-2
7.879199607E0,-3.825718164E-2,2.315759659E-3,2.632808685E-2
7.887194166E0,-3.772366047E-2,-4.954695702E-3,2.637577057E-2
7.895190495E0,-5.162328482E-2,1.165455580E-2,3.838348389E-2
7.903186131E0,-6.073558331E-2,8.998990059E-3,2.644538879E-2
7.911183075E0,-6.998503208E-2,1.481711864E-3,2.167129517E-2
7.919177327E0,-4.822945595E-2,-3.492414951E-3,1.210594177E-2
7.927203194E0,-5.780297518E-2,3.573656082E-3,1.210021973E-2
7.935199523E0,-5.319619179E-2,1.549291611E-2,1.926231384E-2
7.943195236E0,-2.717393637E-2,1.557654142E-2,3.599548340E-2
7.951192180E0,-8.480131626E-3,6.157517433E-3,4.553508759E-2
7.959186355E0,-4.057466984E-3,-5.600690842E-3,4.790401459E-2
7.967181761E0,9.961366653E-3,1.789689064E-3,4.548740387E-2
7.975208474E0,2.169644833E-2,-1.727026701E-2,7.898807526E-2
7.983203572E0,1.702594757E-2,-1.483732462E-2,4.787635803E-2
7.991200901E0,5.698204041E-4,-5.922913551E-4,4.311180115E-2
7.999194768E0,1.075029373E-3,6.437122822E-3,1.921081543E-2
8.007189866E0,-1.970189810E-2,1.353597641E-2,9.705543518E-3
8.015186118E0,-2.616924047E-2,6.271243095E-3,2.413654327E-2
8.023181831E0,-4.000598192E-2,6.188213825E-3,1.700210571E-2
8.031209544E0,-6.230592728E-3,1.101213694E-2,1.942348480E-2
8.039203719E0,-3.240156174E-2,1.342016459E-2,2.662277222E-2
8.047198508E0,-1.308363676E-2,1.582664251E-2,4.100513458E-2
8.055195222E0,-1.532435417E-2,-9.548068047E-4,3.862380981E-2
8.063190935E0,-2.725231647E-2,-9.193420410E-4,4.820728302E-2
8.071187187E0,-3.453236818E-2,-8.864998817E-4,4.580593109E-2
8.079181977E0,-2.995353937E-2,8.749842644E-3,2.902793884E-2
8.087207306E0,-1.353436708E-2,1.836788654E-2,3.139209747E-2
8.095203942E0,-1.852738857E-2,-3.131628036E-3,2.179718018E-2
8.103198656E0,-1.146882772E-2,8.952856064E-3,3.615665436E-2
8.111196215E0,-1.399314404E-2,2.097642422E-2,2.178096771E-2
8.119190159E0,-2.849680185E-2,1.886367798E-3,2.177047729E-2
8.135182124E0,-1.177096367E-2,3.063303232E-2,1.937294006E-2
8.143177530E0,-2.121824026E-2,6.720066071E-3,4.572391510E-2
8.151204397E0,-3.063684702E-2,2.597963810E-2,3.377342224E-2
8.159198880E0,-3.051680326E-2,9.277462959E-3,6.970214844E-2
8.167193901E0,-3.997534513E-2,6.902515888E-3,5.056095123E-2
8.175190537E0,-4.725307226E-2,4.600703716E-3,5.055618286E-2
8.183186250E0,-4.498904943E-2,-4.988491535E-3,4.336071014E-2
8.191182347E0,-4.281109571E-2,1.171475649E-2,1.700019836E-2
8.199207291E0,-4.790782928E-2,2.065479755E-3,2.654361725E-2
8.207203005E0,-1.715016365E-2,-2.620220184E-4,1.214504242E-2
8.215199256E0,-2.226948738E-2,6.953120232E-3,1.450824738E-2
8.223195047E0,1.815325022E-2,-2.618908882E-3,2.166461945E-2
8.231191068E0,1.092088223E-2,-2.598226070E-3,3.602504730E-2
8.239186166E0,-9.170770645E-4,1.639306545E-2,5.518341064E-2
8.247181264E0,-1.024419069E-2,1.863920689E-2,2.886390686E-2
8.255207746E0,-2.422672510E-2,1.136851311E-2,4.326248169E-2
8.263203460E0,-1.671886444E-2,6.446897984E-3,3.610515594E-2
8.271200019E0,-3.809982538E-2,1.361119747E-2,3.851413727E-2
8.279195194E0,-4.276657104E-2,-5.604207516E-3,3.373432159E-2
8.287190292E0,-3.318649530E-2,6.322801113E-3,4.091644287E-2
8.295186544E0,-3.085023165E-2,-1.038348675E-2,2.654743195E-2
8.303181718E0,-1.653575897E-2,-1.276201010E-2,1.936054230E-2
8.311208509E0,-1.656389236E-2,-6.988644600E-4,2.602577209E-3
8.319203530E0,-1.895332336E-2,-5.368709564E-3,1.936912537E-2
8.327195012E0,-9.420514107E-3,1.864939928E-2,2.415657043E-2
8.335193803E0,-2.614003420E-2,9.127378464E-3,2.895164490E-2
8.343190131E0,-2.849906683E-2,9.080827236E-3,3.852939606E-2
8.351187074E0,-1.638072729E-2,2.342212200E-2,3.854274750E-2
8.359181557E0,-1.153773069E-2,1.145368814E-2,2.657794952E-2
8.367206809E0,-2.346879244E-2,9.013533592E-3,3.615665436E-2
8.375202830E0,-2.107554674E-2,1.785814762E-3,2.418231964E-2
8.383198851E0,-2.825790644E-2,4.069447517E-3,3.854274750E-2
8.391195410E0,-1.635605097E-2,1.566946507E-3,2.895259857E-2
8.399190585E0,-4.337012768E-3,6.271243095E-3,7.406234741E-3
8.407185068E0,-1.859581470E-2,1.339340210E-2,9.806632996E-3
8.415181089E0,-2.326655388E-2,3.830432892E-3,2.897262573E-2
8.423208417E0,-2.568262815E-2,3.767669201E-3,3.854370117E-2
8.431203515E0,-3.047382832E-2,2.774542570E-2,3.136348724E-2
8.439198075E0,-3.315174580E-2,-8.191347122E-3,2.894020081E-2
8.447193711E0,-4.541981220E-2,8.537769318E-3,2.890968323E-2
8.455190117E0,-2.421021461E-2,1.327419281E-2,4.323863983E-2
8.463185446E0,1.819610596E-3,1.330077648E-3,1.687431335E-2
8.471181159E0,6.433129311E-3,3.691256046E-3,3.121948242E-2
8.479207411E0,1.841211319E-2,5.990207195E-3,3.360939026E-2
8.487199355E0,-5.438923836E-3,-1.076972485E-2,3.840637207E-2
8.495198530E0,-1.476132870E-2,8.324742317E-3,4.082393646E-2
8.503193551E0,-9.697675705E-3,1.779621840E-2,2.408504486E-2
8.511190878E0,-1.891219616E-2,1.282894611E-2,3.129482269E-2
8.519185592E0,-5.914819241E-2,1.991486549E-2,1.936340332E-2
8.527180382E0,-3.246325254E-2,-1.798033714E-3,3.375530243E-2
8.535207172E0,-2.732980251E-2,-1.616477966E-2,3.378868103E-2
8.543202962E0,-4.865920544E-2,1.257866621E-2,3.381061554E-2
8.551199291E0,-4.625070095E-2,1.502233744E-2,4.578590393E-2
8.559194389E0,-2.488082647E-2,1.023387909E-2,4.337406158E-2
8.567188564E0,-2.272611856E-2,2.694559097E-2,3.137683868E-2
8.575185508E0,-2.780562639E-2,5.322515965E-3,2.416229248E-2
8.583180914E0,-1.609820127E-2,2.940833569E-3,3.850173950E-2
8.591207935E0,-1.634860039E-2,5.479454994E-4,3.608417511E-2
8.599203110E0,-1.399332285E-2,3.010392189E-3,2.411174774E-2
8.607198131E0,-2.846044302E-2,5.654692650E-4,2.649307251E-2
8.615193921E0,-5.008649826E-2,1.489728689E-2,3.606128693E-2
8.623189019E0,-2.641272545E-2,1.244175434E-2,3.363704681E-2
8.631185655E0,-1.231878996E-2,1.000326872E-2,2.882003784E-2
8.639181061E0,-5.466818810E-3,-9.143233299E-3,3.118228912E-2
8.647206313E0,-5.686104298E-3,-1.157391071E-2,3.355312347E-2
8.655202641E0,-1.054596901E-2,2.624869347E-3,2.874851227E-2
8.663197970E0,-1.280039549E-2,2.561926842E-3,5.030727386E-2
8.671195298E0,-2.713519335E-2,1.920080185E-2,3.833293915E-2
8.679189165E0,-2.941024303E-2,-2.360165119E-3,3.355503082E-2
8.687184494E0,-5.098819733E-2,2.637583017E-2,5.270671844E-2
8.695180822E0,-2.467149496E-2,1.696223021E-2,5.031871796E-2
8.703206689E0,-7.972061634E-3,1.465851068E-2,6.468296051E-2
8.711203634E0,6.157279015E-3,1.710301638E-2,3.353691101E-2
8.719197885E0,5.861401558E-3,7.521390915E-3,2.632617950E-2
8.727190445E0,1.772201061E-2,2.183187008E-2,1.912879944E-2
8.735188927E0,3.440082073E-3,1.462537050E-2,9.558677673E-3
8.743184718E0,3.862321377E-3,1.692128181E-2,1.917266846E-2
8.751181662E0,-2.194100618E-2,7.310211658E-3,2.879905701E-2
8.759206606E0,-2.604293823E-2,2.382874489E-3,3.125476837E-2
8.767201396E0,-6.852704287E-2,-4.940330982E-3,3.848934174E-2
8.775198340E0,-7.529670000E-2,-1.004236937E-2,3.851413727E-2
8.783194054E0,-5.835163593E-2,8.857607841E-3,3.851985931E-2
8.791190305E0,-6.312650442E-2,-3.383994102E-3,3.132438660E-2
8.799184557E0,-3.695785999E-2,1.082879305E-2,3.369331360E-2
8.807179655E0,-2.785027027E-2,1.066684723E-3,3.842639923E-2
8.815206676E0,-1.873058081E-2,1.785248518E-2,1.922893524E-2
8.823202465E0,-2.872508764E-2,5.836427212E-3,3.594493866E-2
8.831198179E0,-5.155920982E-3,-3.741741180E-3,3.112030029E-2
8.839193584E0,1.627886295E-2,3.465116024E-3,3.829288483E-2
8.847188913E0,1.976549625E-3,1.303839684E-2,3.590488434E-2
8.855185011E0,7.023870945E-3,-8.574545383E-3,5.029201508E-2
8.863180032E0,-6.882965565E-3,-3.762066364E-3,5.273246765E-2
8.871207207E0,-1.607221365E-2,-1.581484079E-2,4.558372498E-2
8.879201997E0,-4.670614004E-2,1.282405853E-2,4.802131653E-2
8.887196787E0,-2.955794334E-2,-1.571476460E-3,4.087638855E-2
8.895193116E0,-2.198147774E-2,7.682442665E-4,3.851699829E-2
8.903189368E0,-2.415806055E-2,-8.992791176E-3,2.655792236E-2
8.911186004E0,9.585201740E-3,-1.869559288E-3,7.424354553E-3
8.919180179E0,-1.639729738E-2,3.389450908E-2,2.420997620E-2
8.927206123E0,-2.797842026E-2,2.659070492E-2,5.088806152E-3
8.935202375E0,-4.204291105E-2,7.379472256E-3,1.948070526E-2
8.943198088E0,-6.105071306E-2,2.531528473E-3,5.540561676E-2
8.951194186E0,-3.954827785E-2,1.001358032E-4,4.103374481E-2
8.959188669E0,-3.982180357E-2,1.037120819E-4,5.297756195E-2
8.967184074E0,-9.039223194E-3,-1.672542095E-2,3.857517242E-2
8.975180094E0,1.591444016E-4,4.684627056E-3,4.092502594E-2
8.983206192E0,2.384638786E-2,-1.211977005E-2,2.653312683E-2
8.991202829E0,1.638090611E-2,6.962418556E-3,1.692390442E-2
8.999197619E0,1.638907194E-2,3.081610799E-2,2.889156342E-2
9.007193025E0,-7.297337055E-3,4.314959049E-3,1.454353333E-2
9.015188507E0,-2.843046188E-2,2.586317062E-2,1.697826385E-2
9.023184836E0,-2.789437771E-2,1.142019033E-2,3.618049622E-2
9.031211857E0,-5.611747503E-2,2.090013027E-2,2.904224396E-2
9.039206416E0,-6.296116114E-2,8.930265903E-3,3.386402130E-2
9.047198668E0,-7.481271029E-2,-6.052851677E-4,4.345512390E-2
9.055197766E0,-6.535190344E-2,1.895129681E-3,2.190208435E-2
9.063193480E0,-4.888677597E-2,1.146632433E-2,3.623771667E-2
9.071190193E0,-1.586371660E-2,2.589660883E-2,5.773925781E-2
9.079184675E0,-6.846129894E-3,1.878011227E-2,3.135204315E-2
9.087210466E0,-2.700567245E-3,-3.992319107E-4,2.410411835E-2
9.095203179E0,-5.581378937E-3,4.349112511E-3,3.602600098E-2
9.103201585E0,3.558516502E-3,6.627798080E-3,3.597736359E-2
9.111197913E0,1.049715281E-2,6.483435631E-3,1.200389862E-2
9.119193088E0,2.484989166E-2,-3.244876862E-3,3.354167938E-2
9.127188186E0,-1.255691051E-3,1.326370239E-2,3.355121613E-2
9.135184822E0,-5.584239960E-3,-1.210570335E-3,5.274486542E-2
9.143210073E0,-2.174574137E-2,-1.338964701E-2,5.039882660E-2
9.151207633E0,-3.304308653E-2,3.208935261E-3,4.806232452E-2
9.159202346E0,-5.636155605E-2,5.505502224E-3,5.769634247E-2
9.167197752E0,-6.540709734E-2,1.738661528E-2,4.098415375E-2
9.175193157E0,-3.886586428E-2,1.021212339E-2,3.861045837E-2
9.183188563E0,-5.552875996E-2,6.598830223E-4,2.665042877E-2
9.191185507E0,-4.604381323E-2,-4.122912884E-3,2.903556824E-2
9.199210759E0,-3.193575144E-2,2.459317446E-2,5.067825317E-3
9.207205318E0,1.239776611E-3,1.978111267E-2,9.820938110E-3
9.215201570E0,1.303046942E-2,5.418241024E-3,1.459121704E-2
9.223197899E0,2.236533165E-2,-1.129955053E-2,2.893543243E-2
9.231194228E0,8.089542389E-4,-1.123768091E-2,4.090881348E-2
9.239188710E0,-1.835280657E-2,-4.085063934E-3,4.569530487E-2
9.247183885E0,-6.234526634E-3,5.397856236E-3,4.091644287E-2
9.255210675E0,-5.974829197E-3,2.191042900E-2,3.853511810E-2
9.263205389E0,-8.025467396E-3,2.412360907E-2,2.658843994E-2
9.271202717E0,-7.503867149E-3,1.682615280E-2,4.339313507E-2
9.279196815E0,-4.543673992E-2,2.154755592E-2,1.709079742E-2
9.287192221E0,-5.951350927E-2,2.372205257E-3,1.711845398E-2
9.295188318E0,-6.897747517E-2,1.914370060E-2,2.670764923E-2
9.303183647E0,-4.034507275E-2,1.925021410E-2,1.951980591E-2
9.311211360E0,-5.030280352E-2,-2.212047577E-3,3.864002228E-2
9.319205535E0,-4.355454445E-2,-2.846932411E-2,1.944732666E-2
9.335197269E0,-3.913342953E-3,7.654726505E-3,2.174854279E-2
9.343192752E0,-1.627135277E-2,2.821326256E-3,2.410125732E-2
9.351190003E0,-4.488468170E-3,2.713561058E-3,3.365421295E-2
9.359184178E0,9.914338589E-3,1.220756769E-2,2.647209167E-2
9.367209661E0,1.023894548E-2,2.892306447E-2,2.889537811E-2
9.375206374E0,5.890488625E-3,2.168053389E-2,4.330062866E-2
9.383200857E0,-2.234369516E-2,2.398687601E-2,5.531692505E-2
9.391197416E0,-2.178353071E-2,2.469122410E-3,6.255626678E-2
9.399192591E0,-4.031723738E-2,-9.672880173E-3,4.824352264E-2
9.407187304E0,-4.213625193E-2,2.125620842E-3,2.913761139E-2
9.415184325E0,-3.444403410E-2,2.358078957E-2,1.721286774E-2
9.423210193E0,-2.209812403E-2,4.255953431E-2,1.484584808E-2
9.431206444E0,-5.772703886E-2,8.957445621E-3,2.923488617E-2
9.439201235E0,-4.068720341E-2,4.086017609E-3,2.925872803E-2
9.447196024E0,-4.780101776E-2,-7.825195789E-4,3.644466400E-2
9.455192660E0,-2.407014370E-2,1.835310459E-2,3.402709961E-2
9.463188451E0,-4.122549295E-2,-3.177374601E-3,1.483631134E-2
9.471184472E0,-3.450167179E-2,1.547843218E-3,3.872966766E-2
9.479210262E0,-2.303934097E-2,-5.496621132E-3,3.629207611E-2
9.487204821E0,-4.508078098E-3,-1.733204722E-2,2.426624298E-2
9.495200535E0,-1.481777430E-2,2.590820193E-2,1.941299438E-2
9.503196786E0,1.338601112E-3,1.151326299E-2,1.216983795E-2
9.511193731E0,-6.188035011E-3,-1.241791248E-2,3.847217560E-2
9.519188213E0,-8.867561817E-3,-1.954126358E-2,5.281257629E-2
9.527183003E0,-9.153783321E-3,-2.427136898E-2,7.672977448E-2
9.535209794E0,-2.606827021E-2,6.921291351E-3,3.362178802E-2
9.543205507E0,-3.575944901E-2,2.202749252E-3,3.361320496E-2
9.551201913E0,-2.613854408E-2,1.415884495E-2,3.601169586E-2
9.559196626E0,-2.599549294E-2,6.987869740E-3,1.926708221E-2
9.575188360E0,-1.903992891E-2,5.015954375E-2,2.164268494E-2
9.583183227E0,-1.217269897E-2,4.310604930E-2,2.640724182E-2
9.591210864E0,2.814871073E-2,4.969775677E-3,3.116703033E-2
9.599205346E0,3.762555122E-2,-1.890504360E-2,3.834342957E-2
9.607200136E0,2.362477779E-2,-2.214968204E-3,3.358650208E-2
9.615196772E0,-9.300708771E-3,1.196718216E-2,2.884674072E-2
9.623192562E0,-1.577246189E-2,9.273350239E-3,3.129673004E-2
9.631188814E0,-3.671914339E-2,1.624315977E-2,3.373908997E-2
9.639183989E0,-4.582363367E-2,6.432563066E-3,3.856182098E-2
9.647209164E0,-6.464576721E-2,1.435607672E-3,3.140163422E-2
9.655204877E0,-5.717813969E-2,3.631502390E-3,7.477760315E-3
9.663201283E0,-8.589577675E-2,1.064676046E-2,7.470130920E-3
9.671196919E0,-6.446534395E-2,1.311871409E-2,1.225090027E-2
9.679191479E0,-5.518203974E-2,3.224769235E-2,3.376865387E-2
9.687187192E0,-2.696645260E-2,-3.622561693E-3,3.611373901E-2
9.695183136E0,-6.001472473E-3,2.750483155E-2,3.126907349E-2
9.703209388E0,2.955001593E-2,8.500069380E-3,4.321098328E-2
9.711206024E0,2.695846558E-2,6.140232086E-3,2.882862091E-2
9.719200430E0,1.276642084E-2,-1.296928525E-2,4.800128937E-2
9.727195528E0,-8.225381374E-3,-1.778164506E-2,5.284309387E-2
9.735192472E0,-7.552325726E-3,-2.982047200E-2,4.332923889E-2
9.743187570E0,-3.571373224E-2,1.071113348E-2,3.379917145E-2
9.751184822E0,-4.483765364E-2,-1.101499796E-2,2.186489105E-2
9.759209535E0,-3.025490046E-2,2.718788385E-2,7.515907288E-3
9.767201555E0,-1.591640711E-2,1.521992683E-2,3.299713135E-4
9.775200653E0,-1.116526127E-2,-1.504629850E-3,1.948261261E-2
9.783196597E0,1.287704706E-2,3.318488598E-3,2.667713165E-2
9.791193003E0,-1.325666904E-3,8.118629456E-3,4.824066162E-2
9.799188331E0,-1.802545786E-2,2.006128430E-2,2.669811249E-2
9.807182814E0,-5.165141821E-2,1.292571425E-2,4.823684692E-2
9.815209681E0,-5.197966099E-2,1.535764337E-2,4.341793060E-2
9.823205087E0,-2.595567703E-2,1.021087170E-3,4.578399658E-2
9.831201415E0,-3.105485439E-2,-1.419931650E-3,5.772018433E-2
9.839196513E0,-3.131347895E-2,-3.836691380E-3,4.332923889E-2
9.847190996E0,-1.008343697E-2,-2.058869600E-2,3.850936890E-2
9.855187863E0,6.332099438E-3,-1.459836960E-3,3.129196167E-2
9.863182961E0,8.639156818E-3,-1.586565375E-2,9.733200073E-3
9.871210751E0,1.107060909E-2,2.477967739E-2,1.931095123E-2
9.879205772E0,1.669824123E-3,5.522429943E-3,9.745597839E-3
9.887199947E0,-2.659678459E-2,2.697986364E-2,2.415275574E-2
9.895196045E0,-2.609318495E-2,2.211228013E-2,4.095840454E-2
9.903191374E0,-3.037297726E-2,3.162911534E-2,2.903366089E-2
9.911188626E0,-4.912579060E-2,1.243460178E-2,5.301380157E-2
9.919182492E0,-4.166203737E-2,1.252621412E-2,5.543994904E-2
9.927208128E0,-6.303632259E-2,5.929768085E-4,5.306434631E-2
9.935204765E0,-6.051325798E-2,-1.840770245E-3,5.307579041E-2
9.943200170E0,-5.569934845E-2,3.157684207E-2,3.870773315E-2
9.951197037E0,-4.144036770E-2,2.192685008E-2,1.953983307E-2
9.959191520E0,-3.462845087E-2,2.664586902E-2,5.134582520E-3
9.967186618E0,-1.511156559E-3,1.226308942E-2,1.227664948E-2
9.975213716E0,4.230737686E-4,5.059778690E-3,1.223087311E-2
9.983209121E0,2.399510145E-2,-4.529416561E-3,2.416419983E-2
9.991205835E0,-2.163648605E-5,1.640617847E-4,2.654647827E-2
9.999199933E0,-2.159178257E-3,4.773139954E-3,5.529308319E-2
1.000719472E1,7.874727249E-3,9.458661079E-3,5.293750763E-2
1.001519167E1,-2.280271053E-2,-2.663433552E-4,5.297374725E-2
1.002318676E1,-4.386883974E-2,1.986205578E-3,5.780315399E-2
1.003118379E1,-5.298602581E-2,9.060055017E-3,4.587268829E-2
1.003920896E1,-5.260574818E-2,1.133912802E-2,4.111671448E-2
1.004720383E1,-6.660592556E-2,6.537288427E-3,3.157520294E-2
1.005520070E1,-3.782093525E-2,4.135251045E-3,2.679157257E-2
1.006319579E1,-3.551840782E-2,8.915126324E-3,2.199363708E-2
1.007119281E1,-2.611857653E-2,6.562709808E-3,1.718997955E-2
1.007918760E1,-4.870474339E-3,1.622685790E-2,2.434635162E-2
1.008718209E1,4.455506802E-3,6.778091192E-3,1.714611053E-2
1.009520949E1,-2.921491861E-2,-1.712793112E-2,3.389167786E-2
1.010320428E1,-1.244384050E-2,-1.702898741E-2,4.347515106E-2
1.011120092E1,-1.461130381E-2,-3.669857979E-4,4.588699341E-2
1.011919632E1,-1.438385248E-2,6.670296192E-3,3.632545471E-2
1.012719081E1,3.184676170E-4,-5.296289921E-3,3.875255585E-2
1.013518714E1,-8.902728558E-3,1.856487989E-2,1.963043213E-2
1.014321331E1,-1.816189289E-2,1.130938530E-2,2.444648743E-2
1.015120964E1,-3.702467680E-2,1.363790035E-2,3.165531158E-2
1.015920404E1,-2.969735861E-2,1.357945800E-2,3.645515442E-2
1.016719668E1,-4.161083698E-2,8.833646774E-3,1.252079010E-2
1.017519578E1,-4.883879423E-2,4.091322422E-3,1.970005035E-2
1.018319157E1,-3.222864866E-2,1.858726144E-2,3.405761719E-2
1.019118813E1,-3.009366989E-2,-1.006883383E-2,4.121875763E-2
1.019921315E1,-1.611602306E-2,-2.189031243E-2,4.358196259E-2
1.020720794E1,-1.898133755E-2,-2.686560154E-3,4.832649231E-2
1.021520519E1,-1.706349850E-2,1.646926999E-2,3.630924225E-2
1.022320029E1,-7.839918137E-3,-9.891659021E-3,4.584980011E-2
1.023119654E1,-1.277697086E-2,1.880866289E-2,3.625583649E-2
1.023919079E1,1.600605249E-2,4.409283400E-3,3.625965118E-2
1.024718620E1,9.006440639E-3,-5.138963461E-3,4.585552216E-2
1.025521291E1,-1.219284534E-2,1.634895802E-2,4.109859467E-2
1.026320832E1,-7.100224495E-3,4.337072372E-3,3.633880615E-2
1.027120472E1,-1.865887642E-2,-5.225896835E-3,2.201461792E-2
1.027920005E1,-3.731817007E-2,1.870545745E-2,2.924537659E-2
1.029519086E1,-2.677488327E-2,1.145464182E-2,3.412628174E-2
1.030318658E1,-3.350925446E-2,2.097585797E-2,3.895664215E-2
1.031121429E1,-5.941402912E-2,4.188030958E-3,3.181552887E-2
1.031920823E1,-5.661600828E-2,1.135352254E-2,4.143142700E-2
1.032720325E1,-6.600952148E-2,1.378551126E-2,1.751041412E-2
1.033519989E1,-6.143385172E-2,2.337500453E-2,2.706527710E-2
1.034319591E1,-5.956393480E-2,4.346579313E-3,1.265525818E-2
1.035119139E1,-6.508821249E-2,1.873642206E-2,2.934265137E-2
1.035918672E1,-2.282088995E-2,1.641204953E-2,1.968669891E-2
1.036721205E1,-6.964564323E-3,1.172831655E-2,1.481533051E-2
1.037520807E1,1.849156618E-2,2.384158969E-2,5.158424377E-3
1.038320371E1,2.002924681E-2,2.475202084E-3,2.184200287E-2
1.039120165E1,1.225674152E-2,-2.373597026E-2,3.376102448E-2
1.039919521E1,2.390450239E-2,-2.843150496E-2,4.091644287E-2
1.040719000E1,1.432192326E-2,-4.584759474E-3,5.288219452E-2
1.041518656E1,-9.328365326E-3,1.546144485E-4,5.769634247E-2
1.042321220E1,-2.816337347E-2,2.561092377E-3,3.618144989E-2
1.043120914E1,-2.313280106E-2,2.177032828E-2,3.381252289E-2
1.043920386E1,-4.209887981E-2,7.565915585E-3,6.257152557E-2
1.044719895E1,-1.574534178E-2,3.160476685E-2,2.187633514E-2
1.045519567E1,-1.584762335E-2,2.464470267E-2,1.230049133E-2
1.046319015E1,3.251552582E-3,2.250409126E-2,1.470184326E-2
1.047118825E1,5.634963512E-3,5.962789059E-3,2.428913116E-2
1.047921288E1,1.774382591E-2,1.085928082E-2,1.712608337E-2
1.048720521E1,-2.496653795E-2,1.331678033E-2,3.871440887E-2
1.049520400E1,-3.033101559E-3,-3.442019224E-3,4.354095459E-2
1.050319879E1,-4.822212458E-2,-5.779087543E-3,3.639221191E-2
1.051119612E1,-7.189375162E-2,-3.308266401E-3,5.318069458E-2
1.051919030E1,-3.127890825E-2,-3.357201815E-3,3.880500793E-2
1.052718570E1,-3.139495850E-2,1.804652810E-2,4.118061066E-2
1.053521303E1,-2.686697245E-2,-3.531754017E-3,1.721096039E-2
1.054320782E1,-1.279699802E-2,1.798379421E-2,1.239204407E-2
1.055120453E1,-3.464460373E-3,1.078468561E-2,1.236724854E-2
1.055919902E1,-1.808798313E-2,8.413612843E-3,5.159378052E-3
1.056719411E1,-1.350700855E-2,1.095736027E-2,2.190685272E-2
1.057519044E1,-4.189193249E-3,-1.522955298E-2,4.822540283E-2
1.058318608E1,-1.379537582E-2,-5.557030439E-3,5.780315399E-2
1.059121287E1,-8.952498436E-3,-1.501816511E-2,3.866195679E-2
1.059920827E1,-1.612490416E-2,1.756489277E-3,5.302810669E-2
1.060720345E1,-2.796357870E-2,-3.028005362E-3,3.388786316E-2
1.061519970E1,-1.602154970E-2,1.608943939E-2,3.388309479E-2
1.062319518E1,-4.005938768E-2,-5.371153355E-3,1.233100891E-2
1.063119059E1,-3.063493967E-2,-5.281060934E-3,9.925842285E-3
1.063918623E1,-6.781101227E-3,4.308611155E-3,3.414154053E-4
1.064720848E1,7.670044899E-3,1.634311676E-2,2.908325195E-2
1.065520719E1,2.695971727E-2,-1.474475861E-2,3.149318695E-2
1.066320352E1,3.403782845E-3,-2.820342779E-3,2.674102783E-2
1.067119985E1,2.297478914E-2,2.112045884E-2,4.354095459E-2
1.067915978E1,-2.447533607E-2,2.351066470E-2,4.118919373E-2
1.068715510E1,-5.035620928E-2,2.349817753E-2,4.362773895E-2
1.069515081E1,-3.821825981E-2,1.159393787E-2,3.885936737E-2
1.070317737E1,-5.016130209E-2,1.648432016E-2,2.689647675E-2
1.071117392E1,-4.072386026E-2,4.540979862E-3,3.167247772E-2
1.071916809E1,-2.899461985E-2,-1.316666603E-4,2.207756042E-2
1.072716049E1,-3.884828091E-2,-2.638477087E-2,2.444839478E-2
1.073515920E1,-1.276528835E-2,2.397477627E-3,1.963806152E-2
1.074315529E1,-1.057940722E-2,1.682567596E-2,1.483154297E-2
1.075115162E1,-2.033513784E-2,2.648964524E-2,1.481914520E-2
1.075917709E1,3.437578678E-3,1.709091663E-2,1.481151581E-2
1.076717196E1,8.017003536E-3,3.395542502E-2,3.873729706E-2
1.077516797E1,-1.607638597E-2,5.477190018E-3,2.676486969E-2
1.078316368E1,-1.606035233E-2,3.276169300E-3,5.311298370E-2
1.079116093E1,-1.826375723E-2,-6.112635136E-3,5.553627014E-2
1.079915479E1,-2.260726690E-2,-6.114363670E-3,6.276321411E-2
1.080714980E1,-1.258122921E-2,3.507494926E-3,6.280994415E-2
1.081517690E1,-5.765134096E-2,1.294523478E-2,3.411293030E-2
1.082317199E1,-6.228125095E-2,8.294582367E-4,1.496696472E-2
1.083116962E1,-5.271428823E-2,4.140034318E-2,-6.587028503E-3
1.083916371E1,-3.846883774E-2,2.455133200E-2,-1.815795898E-3
1.084715858E1,-2.825021744E-3,7.737040520E-3,1.491355896E-2
1.085515582E1,-1.268607378E-2,7.827341557E-3,2.446746826E-2
1.086315092E1,-2.734082937E-2,-4.096031189E-3,4.598903656E-2
1.087117824E1,-2.748274803E-2,-8.770227432E-3,5.795097351E-2
1.087917218E1,1.165866852E-3,-1.588982344E-2,5.315876007E-2
1.088716696E1,5.970656872E-3,5.632102489E-3,6.513023376E-2
1.089516390E1,6.056785583E-3,1.035523415E-2,5.316352844E-2
1.090315861E1,-5.794525146E-3,7.889747620E-3,4.838371277E-2
1.091115624E1,-5.563080311E-3,1.023405790E-2,1.967334747E-2
1.091915003E1,-1.483172178E-2,-4.222691059E-3,1.730537415E-2
1.092717597E1,-1.925063133E-2,5.164146423E-4,2.974510193E-3
1.093517260E1,-4.278868437E-2,2.858281136E-3,7.800102234E-3
1.094316792E1,-5.683368444E-2,1.960885525E-2,3.043174744E-3
1.095116486E1,-3.513461351E-2,-1.144605875E-2,1.503276825E-2
1.095915880E1,-4.466450214E-2,-2.087599039E-2,3.659248352E-2
1.096715420E1,-3.273135424E-2,8.661746979E-4,5.096435547E-2
1.097515022E1,-3.781235218E-2,1.059073210E-2,4.615402222E-2
1.098317600E1,-3.562766314E-2,-1.249909401E-3,5.811023712E-2
1.099117394E1,-3.600084782E-2,6.004989147E-3,4.610729218E-2
1.099916842E1,-5.396604538E-4,-1.105546951E-3,2.691173553E-2
1.100716290E1,6.274223328E-3,-8.235991001E-3,4.363727570E-2
1.101515914E1,1.087045670E-2,2.291560173E-2,1.728343964E-2
1.102315400E1,-5.947828293E-3,1.094537973E-2,2.924823761E-2
1.103115179E1,-1.533603668E-2,-2.008998394E-2,1.251316071E-2
1.103917650E1,-1.263409853E-2,3.846883774E-3,1.014804840E-2
1.104717090E1,-2.400898933E-2,-5.757808685E-3,2.935981750E-2
1.105516814E1,-3.288525343E-2,1.101607084E-2,3.182411194E-2
1.106316324E1,-4.418611526E-2,3.757476807E-3,3.906917572E-2
1.107116025E1,-5.337733030E-2,1.330941916E-2,3.671169281E-2
1.107915404E1,-7.961529493E-2,3.245237470E-2,3.432655334E-2
1.108714913E1,-7.749712467E-2,1.099884510E-2,2.472686768E-2
1.109517653E1,-3.024542332E-2,1.596629620E-2,2.706909180E-2
1.110317224E1,-2.377498150E-2,1.738250256E-3,2.939891815E-2
1.111116772E1,6.642282009E-3,-1.243656874E-2,3.891563416E-2
1.111916312E1,6.190478802E-3,-1.230370998E-2,2.451229095E-2
1.112715813E1,1.314055920E-2,-2.652406693E-4,2.928161621E-2
1.113515415E1,2.755385637E-2,4.518032074E-3,2.210330963E-2
1.114314955E1,1.577830315E-2,-9.904205799E-3,1.254367828E-2
1.115117726E1,-4.783272743E-4,1.154178381E-2,1.258754730E-2
1.115917181E1,-4.705488682E-3,9.154260159E-3,3.179740906E-2
1.116716721E1,-2.323347330E-2,2.826198936E-2,3.185749054E-2
1.117516323E1,-4.421412945E-2,2.340865135E-2,4.388046265E-2
1.118315863E1,-6.535047293E-2,2.343332767E-2,4.392242432E-2
1.119115526E1,-5.092102289E-2,1.156979799E-2,3.435802460E-2
1.119918082E1,-5.111503601E-2,-2.318024635E-4,2.477073669E-2
1.120717252E1,-4.429185390E-2,-1.450836658E-2,2.234554291E-2
1.121517185E1,-3.983092308E-2,1.437765360E-2,1.753234863E-2
1.122316755E1,-2.099049091E-2,4.795908928E-3,2.947139740E-2
1.123116272E1,5.032360554E-3,2.636075020E-2,2.225971222E-2
1.123915843E1,2.343118191E-3,9.626626968E-3,3.659725189E-2
1.124715345E1,-2.617478371E-3,4.935383797E-3,4.137325287E-2
1.125518062E1,2.282083035E-3,1.455658674E-2,3.659820557E-2
1.126317563E1,-4.072922468E-2,-9.210228920E-3,4.140377045E-2
1.127117265E1,-5.506652594E-2,-2.045333385E-3,2.704048157E-2
1.127916682E1,-5.037784576E-2,2.705097198E-3,1.505661011E-2
1.128716222E1,-4.340827465E-2,1.699638367E-2,2.221584320E-2
1.129515816E1,-5.800753832E-2,7.511675358E-3,1.262092590E-2
1.130315418E1,-3.460645676E-3,3.894567490E-4,2.995491028E-3
1.131118135E1,-1.771628857E-3,7.743537426E-3,2.934455872E-3
1.131917605E1,-7.074058056E-3,-1.126563549E-2,1.965045929E-2
1.132717115E1,2.036333084E-3,-1.835393906E-2,2.200412750E-2
1.133516632E1,-5.348086357E-3,-1.594620943E-2,3.634929657E-2
1.134316202E1,-6.593465805E-4,-6.327807903E-3,4.591846466E-2
1.135115950E1,-5.301177502E-3,-1.584780216E-2,5.311870575E-2
1.135915398E1,-1.233810186E-2,5.687713623E-3,4.116058350E-2
1.136717715E1,-9.705543518E-3,2.730035782E-2,4.358196259E-2
1.137517555E1,-9.672105312E-3,2.973404527E-2,4.358768463E-2
1.138317103E1,-2.484798431E-3,1.291722059E-2,3.879642487E-2
1.139116735E1,-1.342296600E-4,1.790922880E-2,2.443695068E-2
1.139916337E1,-1.203876734E-2,1.199543476E-3,4.360008240E-2
1.140715723E1,-2.373981476E-2,1.088666916E-2,1.490211487E-2
1.141515355E1,-3.529179096E-2,1.338541508E-3,1.255130768E-2
1.142317964E1,-4.927438498E-2,-8.340060711E-3,1.737213135E-2
1.143117597E1,-6.094807386E-2,5.915224552E-3,4.612636566E-2
1.143917145E1,-6.806695461E-2,5.807518959E-3,2.936744690E-2
1.144716346E1,-5.137956142E-2,3.298342228E-3,2.935409546E-2
1.145516217E1,-5.391824245E-2,-1.350188255E-2,3.652000427E-2
1.146315788E1,-3.026813269E-2,3.142356873E-3,2.212047577E-2
1.147115420E1,-1.386660337E-2,3.412523866E-2,1.728916168E-2
1.147917976E1,-7.170021534E-3,1.490598917E-2,2.681541443E-2
1.148717485E1,1.960456371E-3,2.687078714E-2,1.479911804E-2
1.149315371E1,-1.029598713E-2,1.016050577E-2,3.632259369E-2
1.149516810E1,-3.113389015E-3,7.766306400E-3,4.350471497E-2
1.150316657E1,3.035897017E-2,-4.172742367E-3,5.068492889E-2
1.151116351E1,1.866030693E-2,7.806658745E-3,4.831695557E-2
1.151915768E1,-1.431208849E-2,5.352437496E-3,4.118537903E-2
1.152715224E1,-6.487965584E-3,-1.949727535E-3,4.363632202E-2
1.153517925E1,-2.982127666E-2,9.836971760E-3,3.171634674E-2
1.154317496E1,-4.127228260E-2,-1.421695948E-2,1.021385193E-2
1.155117159E1,-5.036503077E-2,9.669601917E-3,1.983547211E-2
1.155916645E1,-2.610242367E-2,1.197957993E-2,2.465152740E-2
1.156716178E1,-2.353835106E-2,7.067978382E-3,5.508422852E-3
1.157515787E1,-6.592512131E-3,2.144217491E-3,1.749134064E-2
1.158315388E1,-1.550912857E-3,1.953601837E-3,1.750659943E-2
1.159118059E1,-6.080865860E-3,2.105271816E-2,2.710628510E-2
1.159917515E1,-2.497118711E-2,2.580225468E-2,2.952480316E-2
1.160716770E1,-4.409694672E-2,-5.373060703E-3,3.910160065E-2
1.161516587E1,-5.869370699E-2,1.135462523E-2,5.104827881E-2
1.162316104E1,-4.466998577E-2,-7.797002792E-3,3.904247284E-2
1.163115921E1,-3.320461512E-2,-1.010334492E-2,3.899669647E-2
1.163915338E1,-1.696151495E-2,-7.662177086E-3,3.415966034E-2
1.164717855E1,6.463766098E-3,6.721556187E-3,2.453327179E-2
1.165517464E1,2.300810814E-2,-2.743303776E-3,1.733493805E-2
1.166317035E1,1.333808899E-2,-3.522038460E-4,2.211380005E-2
1.167116752E1,1.587390900E-3,1.400512457E-2,3.889465332E-2
1.167916108E1,-9.963572025E-3,-2.854585648E-3,2.935409546E-2
1.168715709E1,-2.618300915E-2,1.617479324E-2,3.418922424E-2
1.169515342E1,-5.204355717E-2,1.369965076E-2,2.944469452E-2
1.170317874E1,-5.642437935E-2,1.598304510E-2,4.145050049E-2
1.171117598E1,-5.140376091E-2,1.614689827E-3,3.907871246E-2
1.171917016E1,-5.369192362E-2,-5.623102188E-3,2.711582184E-2
1.172716556E1,-4.896950722E-2,2.550780773E-2,2.471446991E-2
1.173516188E1,-5.880093575E-2,1.357430220E-2,3.187465668E-2
1.174315728E1,-2.319914103E-2,6.381034851E-3,1.508331299E-2
1.175115422E1,-1.883041859E-2,1.635730267E-3,1.025581360E-2
1.175917847E1,-2.640998363E-2,1.121932268E-2,2.458190918E-2
1.176717356E1,6.664037704E-3,4.122436047E-3,1.496601105E-2
1.177517080E1,1.352542639E-2,-1.977860928E-2,2.690696716E-2
1.178316590E1,8.556783199E-3,-2.999544144E-3,3.167915344E-2
1.179116222E1,2.299958467E-2,2.805021405E-2,2.928829193E-2
1.179915708E1,-2.458441257E-2,3.974497318E-3,4.128265381E-2
1.180715187E1,-1.677274704E-4,1.823282242E-2,3.414058685E-2
1.181517958E1,-3.310322762E-2,3.706157207E-3,3.897857666E-2
1.182317459E1,-3.018981218E-2,8.343994617E-3,3.423404694E-2
1.183117184E1,-3.456848860E-2,3.475070000E-3,2.948188782E-2
1.183916539E1,-2.956646681E-2,3.486990929E-3,4.386806488E-2
1.184716110E1,-4.388654232E-2,-1.333183050E-2,2.232265472E-2
1.185515689E1,-2.718609571E-2,1.541161537E-2,1.274108887E-2
1.186315221E1,-2.014130354E-2,3.416299820E-3,7.543563843E-4
1.187117992E1,-8.349895477E-3,1.776921749E-2,3.130912781E-3
1.187917532E1,-2.289271355E-2,1.063561440E-2,1.987457275E-2
1.188716980E1,-3.503930569E-2,-8.428335190E-3,1.267910004E-2
1.189516612E1,-2.554959059E-2,-6.021678448E-3,3.182506561E-2
1.190316129E1,-1.119190454E-2,-5.981683731E-3,4.140377045E-2
1.191115792E1,-1.349622011E-2,5.991697311E-3,4.141235352E-2
1.191915271E1,-1.344728470E-2,8.257627487E-3,4.619979858E-2
1.192717818E1,-2.296942472E-2,2.258574963E-2,5.338478088E-2
1.193517458E1,-8.596420288E-3,8.196115494E-3,4.859542847E-2
1.194317022E1,-1.816976070E-2,1.299345493E-2,2.704906464E-2
1.195116654E1,-3.731131554E-2,1.771819592E-2,2.465248108E-2
1.195916102E1,-3.258663416E-2,5.693018436E-3,1.746177673E-2
1.196715680E1,-2.550989389E-2,1.756906509E-2,2.941703796E-2
1.197515243E1,-4.476535320E-2,1.973867416E-2,2.221202850E-2
1.198317891E1,-4.968142509E-2,2.205759287E-2,6.475448608E-4
1.199117462E1,-2.353298664E-2,7.647752762E-3,2.935791016E-2
1.199917040E1,-2.617055178E-2,1.478821039E-2,2.214908600E-2
1.200716457E1,-1.931148767E-2,2.804338932E-3,2.929782867E-2
1.201516120E1,1.392269135E-2,-9.141087532E-3,2.687740326E-2
1.202315660E1,-3.006815910E-3,1.237052679E-2,4.601287842E-2
1.203115377E1,-7.851362228E-3,1.710444689E-2,4.121685028E-2
1.203917848E1,-2.442407608E-2,-2.221226692E-3,4.361915588E-2
1.204717358E1,-1.207357645E-2,-4.744112492E-3,4.365062714E-2
1.205516959E1,-6.867468357E-3,1.419460773E-2,1.973915100E-2
1.206316522E1,-1.344954967E-2,1.635250449E-2,2.936267853E-2
1.207116285E1,-1.758438349E-2,6.532251835E-3,1.504993439E-2
1.207915641E1,-1.933103800E-2,6.422340870E-3,3.905105591E-2
1.208718189E1,-2.808523178E-2,-3.294706345E-3,-3.970146179E-3
1.209517790E1,3.541815281E-2,3.686547279E-3,6.078815460E-2
1.210317307E1,2.495628595E-2,-1.586571336E-2,3.936862946E-2
1.211117086E1,-1.202231646E-2,5.309283733E-3,4.905891418E-2
1.211916418E1,-4.195964336E-2,4.325157404E-2,1.564121246E-2
1.212716074E1,-5.002254248E-2,6.702256203E-2,1.417160034E-3
1.213515614E1,-2.202463150E-2,1.184675097E-2,3.030872345E-2
1.214318292E1,-3.732794523E-2,-2.171957493E-2,9.270191193E-2
1.215117986E1,-4.369693995E-2,-1.960200071E-2,4.249095917E-2
1.215917441E1,-8.864372969E-2,-5.490660667E-3,6.619453430E-3
1.216716666E1,-8.813959360E-2,1.829931140E-2,-2.914428711E-3
1.217516514E1,-7.099503279E-2,2.536344528E-2,-1.963996887E-2
1.218316031E1,-4.237508774E-2,1.341089606E-2,9.078979492E-3
1.219115632E1,-5.256742239E-2,1.835265756E-2,2.339076996E-2
1.219918211E1,-3.424286842E-2,6.590217352E-3,3.289508820E-2
1.220717759E1,-3.998935223E-3,-5.250602961E-3,5.196666718E-2
1.221517414E1,-2.467751503E-3,-2.667152882E-2,5.428028107E-2
1.222316923E1,2.318394184E-2,-4.331466556E-2,5.182456970E-2
1.223116594E1,3.469586372E-3,-2.535164356E-3,6.613731384E-2
1.223915980E1,-1.696884632E-3,-9.608209133E-3,6.610488892E-2
1.224715582E1,2.442187071E-2,1.199525595E-2,5.411434174E-2
1.225518199E1,5.157649517E-3,7.297635078E-3,4.453086853E-2
1.226317731E1,1.713269949E-2,2.656158805E-2,8.625030518E-3
1.227117487E1,5.311071873E-3,4.024803638E-4,-1.050472260E-2
1.227916904E1,8.196592331E-3,2.938657999E-2,1.527786255E-3
1.228716390E1,-1.042276621E-2,3.194859624E-2,1.595497131E-2
1.229516053E1,-3.156387806E-2,1.538008451E-2,2.318954468E-2
1.230315562E1,-3.598904610E-2,-1.806390285E-2,2.801704407E-2
1.231118325E1,-4.766011238E-2,-2.280786633E-2,3.523159027E-2
1.231917781E1,-3.322857618E-2,5.875021219E-3,4.002475739E-2
1.232717221E1,-6.204539537E-2,-1.413285732E-3,3.522205353E-2
1.233516892E1,-5.495423079E-2,2.466508746E-2,1.365184784E-2
1.234316432E1,-1.933884621E-2,6.079971790E-4,6.433486938E-3
1.235116064E1,-1.721739769E-2,-1.853567362E-2,1.119518280E-2
1.235915573E1,-7.886886597E-4,1.254296303E-2,1.594829559E-2
1.236718129E1,6.148338318E-3,1.488089561E-2,1.352691650E-2
1.237517792E1,-2.746957541E-2,1.486036181E-2,1.351547241E-2
1.238317386E1,-2.742576599E-2,2.928042412E-2,3.507041931E-2
1.239117018E1,-3.691667318E-2,1.021593809E-2,2.311325073E-2
1.239916443E1,-3.441506624E-2,-1.548826694E-3,5.186462402E-2
1.240715944E1,-3.909105062E-2,-1.574519277E-2,5.667304993E-2
1.241515554E1,-1.982080936E-2,-1.090046763E-2,4.950428009E-2
1.242318202E1,-1.015299559E-2,1.026451588E-3,3.514671326E-2
1.243117834E1,-5.717277527E-4,-3.835439682E-3,6.412506104E-3
1.243917305E1,-1.727962494E-2,-1.478433609E-3,8.810997009E-3
1.244716791E1,-1.480174065E-2,1.294273138E-2,1.121520996E-2
1.245516446E1,-5.180597305E-3,-1.328229904E-3,1.601314545E-2
1.246315994E1,-7.438719273E-3,5.892604589E-3,1.124000549E-2
1.247115588E1,2.526819706E-3,1.311808825E-2,2.325248718E-2
1.247918151E1,5.273282528E-3,5.897521973E-3,4.004478455E-2
1.248717630E1,-2.779090405E-2,2.497327328E-2,4.008769989E-2
1.249517324E1,-4.662013054E-2,2.238988876E-2,3.053283691E-2
1.250316887E1,-4.403567314E-2,7.849037647E-3,2.336025238E-2
1.251116519E1,-4.170376062E-2,5.276471376E-3,1.855659485E-2
1.251915974E1,-4.657179117E-2,2.192100883E-2,3.530216217E-2
1.252715476E1,-1.571440697E-2,-2.098649740E-3,2.090644836E-2
1.253518193E1,-1.129627228E-2,5.086958408E-3,2.086925507E-2
1.254317694E1,-2.360290289E-2,-9.275883436E-3,2.083587646E-2
1.255117365E1,-1.446294785E-2,1.471275091E-2,-7.524490356E-4
1.255916898E1,-3.871917725E-4,2.859383821E-3,4.012107849E-3
1.256716292E1,1.919031143E-3,6.740987301E-4,1.598453522E-2
1.257515978E1,-1.232415438E-2,1.987022161E-2,2.318191528E-2
1.258315464E1,-3.119003773E-2,2.230599523E-2,4.236698151E-2
1.259118142E1,-1.642268896E-2,4.138943553E-2,4.958534241E-2
1.259917713E1,-3.522849083E-2,1.498657465E-2,5.440521240E-2
1.260717223E1,-4.212540388E-2,2.925068140E-3,4.964065552E-2
1.261516878E1,-4.433470964E-2,1.004642248E-2,3.289794922E-2
1.262316387E1,-4.681539536E-2,5.105078220E-3,2.569770813E-2
1.263116050E1,-4.931342602E-2,1.221561432E-2,2.568435669E-2
1.263915537E1,-4.718661308E-2,1.217040420E-2,1.368427277E-2
1.264717777E1,-3.786945343E-2,9.775251150E-3,1.844692230E-2
1.265517694E1,-2.391391993E-2,2.646148205E-3,2.319717407E-2
1.266317226E1,-5.331039429E-4,-1.407074928E-2,1.835441589E-2
1.267116897E1,2.287566662E-2,-6.794720888E-3,1.830577850E-2
1.267916368E1,1.543998718E-2,7.671654224E-3,1.589012146E-2
1.268715877E1,2.256244421E-2,7.694512606E-3,3.503894806E-2
1.269515548E1,8.375465870E-3,-1.940667629E-3,4.463100433E-2
1.270318126E1,-5.461335182E-3,-6.834208965E-3,3.989028931E-2
1.271117736E1,-1.438266039E-2,2.171385288E-2,3.994655609E-2
1.271917245E1,-3.042829037E-2,2.160352468E-2,3.522396088E-2
1.272716723E1,-4.425573349E-2,7.081031799E-3,3.766441345E-2
1.273516379E1,-4.869639874E-2,-9.717285633E-3,2.812099457E-2
1.274315865E1,-4.136133194E-2,-1.445424557E-2,2.574348450E-2
1.275115582E1,-4.368144274E-2,9.566426277E-3,2.815055847E-2
1.275918114E1,-2.943927050E-2,2.419114113E-3,2.813911438E-2
1.276717616E1,-1.059341431E-2,1.917180419E-2,4.166603088E-3
1.277517194E1,-2.996206284E-2,-4.744321108E-3,1.132774353E-2
1.278316788E1,9.543299675E-4,4.901230335E-3,1.849460602E-2
1.279116459E1,3.201723099E-3,2.487719059E-3,3.044891357E-2
1.279915907E1,-8.889257908E-3,7.167726755E-3,1.367187500E-2
1.280715416E1,-6.511628628E-3,1.672202349E-2,3.521728516E-2
1.281518126E1,1.029568911E-2,2.630174160E-2,5.437564850E-2
1.283117260E1,-2.780127525E-2,9.509474039E-3,3.763580322E-2
1.283916807E1,-3.490704298E-2,1.184797287E-2,2.806377411E-2
1.284716370E1,-2.997738123E-2,3.818288445E-2,2.568340302E-2
1.285515980E1,-1.802194118E-2,1.422235370E-2,1.371097565E-2
1.286315397E1,-3.001117706E-2,-1.419484615E-4,-3.050804138E-3
1.287118190E1,-1.816970110E-2,2.294659615E-3,1.848602295E-2
1.287917615E1,-3.743028641E-2,-2.482384443E-3,1.847553253E-2
1.288716817E1,-3.978842497E-2,4.622817039E-3,1.847553253E-2
1.289516788E1,-3.249996901E-2,4.529684782E-3,4.721164703E-2
1.290316320E1,-2.048516273E-2,-5.162984133E-3,3.045082092E-2
1.291116014E1,-3.726774454E-2,6.717503071E-3,2.805042267E-2
1.291915431E1,-3.967481852E-2,6.752461195E-3,3.044414520E-2
1.292718048E1,-2.551996708E-2,1.163333654E-2,4.000377655E-2
1.293517596E1,-1.147717237E-2,-2.680450678E-3,3.039741516E-2
1.294317166E1,-1.652091742E-2,-2.925693989E-4,5.910205841E-2
1.295116891E1,-2.625334263E-2,-7.439881563E-3,3.754138947E-2
1.295916339E1,-7.170081139E-3,-9.859055281E-3,3.513813019E-2
1.296715871E1,1.142621040E-4,-2.672114968E-2,3.035449982E-2
1.297515419E1,-3.788566589E-2,-4.932284355E-4,3.277492523E-2
1.298318028E1,-3.993880749E-2,6.599605083E-3,4.074096680E-3
1.299117791E1,-4.675281048E-2,2.328145504E-2,2.326011658E-2
1.299917139E1,-1.761674881E-2,1.610743999E-2,2.090740204E-2
1.300716656E1,-2.215188742E-2,8.949846029E-3,2.572250366E-2
1.301516350E1,-1.483571529E-2,1.627829671E-2,4.010868073E-2
1.302315790E1,-1.243990660E-2,9.196579456E-3,3.053665161E-2
1.303115584E1,-5.137383938E-3,-3.350079060E-4,2.815723419E-2
1.303918047E1,-7.370293140E-3,9.197890759E-3,4.253673553E-2
1.304717525E1,-2.159917355E-2,1.380544901E-2,1.859855652E-2
1.305517158E1,-6.963908672E-3,1.362922788E-2,2.340602875E-2
1.306316752E1,-2.814322710E-2,8.734315634E-3,1.625442505E-2
1.307116323E1,-2.787142992E-2,-5.683660507E-3,3.303813934E-2
1.307915863E1,-5.632394552E-2,8.804976940E-3,2.349567413E-2
1.308718426E1,-5.143749714E-2,1.136347651E-2,1.633071899E-2
1.309518089E1,-6.122314930E-2,-7.582694292E-3,3.068637848E-2
1.310317598E1,-5.464857817E-2,1.881760359E-2,2.105140686E-2
1.311117284E1,-3.152835369E-2,4.521638155E-3,9.002685547E-3
1.311916740E1,1.130819321E-3,1.180389524E-2,1.849746704E-2
1.312716157E1,9.806632996E-3,-7.246553898E-3,3.038311005E-2
1.313515851E1,4.276990891E-3,-3.119111061E-2,4.467296600E-2
1.314318460E1,8.494496346E-3,7.198452950E-3,2.786159515E-2
1.315118038E1,1.787424088E-2,-1.670712233E-2,4.939079285E-2
1.315917609E1,-6.042718887E-3,9.720206261E-3,5.418682098E-2
1.316717111E1,-1.062965393E-2,1.452952623E-2,6.139087677E-2
1.317516412E1,-2.475672960E-2,1.937696338E-2,4.705238342E-2
1.318316229E1,-1.738113165E-2,1.469457150E-2,4.468250275E-2
1.319115862E1,-5.206406116E-3,1.970481873E-2,1.837921143E-2
1.319918479E1,-1.462960243E-2,1.276406646E-2,2.798366547E-2
1.320717919E1,1.420080662E-2,2.256962657E-2,1.842784882E-2
1.321517651E1,9.752452374E-3,8.308172226E-3,1.607322693E-2
1.322317099E1,-2.556496859E-2,1.071304083E-2,6.556510925E-3
1.323116754E1,-4.164159298E-2,-3.602057695E-3,2.578163147E-2
1.323916294E1,-6.022530794E-2,-1.329594851E-2,3.301525116E-2
1.324715834E1,-6.708222628E-2,5.718022585E-3,4.979991913E-2
1.325518398E1,-6.688010693E-2,-1.365122199E-2,1.389694214E-2
1.326317992E1,-5.737698078E-2,1.489123702E-2,1.627349854E-2
1.327117601E1,-4.330134392E-2,9.982317686E-3,9.056091309E-3
1.327917110E1,-3.895062208E-2,7.689744234E-3,9.017944336E-3
1.328716558E1,-1.570552588E-2,5.534648895E-3,1.614189148E-2
1.329516182E1,-2.115625143E-2,3.407478333E-3,3.045463562E-2
1.330315784E1,9.392917156E-3,1.084458828E-2,4.238033295E-2
1.331118524E1,3.053009510E-2,1.105135679E-2,3.995609283E-2
1.331917949E1,2.792960405E-2,2.783954144E-2,4.472541809E-2
1.332717458E1,6.466388702E-3,8.724719286E-3,2.558135986E-2
1.333517121E1,-5.221068859E-3,8.714824915E-3,4.715824127E-2
1.334316653E1,-1.203823090E-2,2.317652106E-2,4.241085052E-2
1.335116378E1,-9.239315987E-3,1.727402210E-3,2.809143066E-2
1.335915772E1,-6.433308125E-3,8.848845959E-3,2.094745636E-2
1.336718043E1,-4.186159372E-2,8.879303932E-3,3.057384491E-2
1.337517952E1,-5.624532700E-3,-5.508154631E-3,1.863479614E-2
1.338317523E1,-1.504182816E-2,8.845239878E-3,2.104377747E-2
1.339117225E1,-5.327463150E-4,4.048913717E-3,9.086608887E-3
1.339916642E1,9.137749672E-3,1.719295979E-3,4.501247406E-2
1.340716151E1,2.112984657E-3,9.074002504E-3,3.546047211E-2
1.341515783E1,-2.159363031E-2,1.871463656E-2,3.548717499E-2
1.342318362E1,-3.089362383E-2,1.894623041E-3,4.269504547E-2
1.343118033E1,-5.216121674E-2,-2.887219191E-3,3.793525696E-2
1.343917442E1,-5.204343796E-2,-5.315661430E-3,2.597332001E-2
1.344716990E1,-2.816992998E-2,-5.433619022E-3,1.159572601E-2
1.345516622E1,-4.510194063E-2,-6.644725800E-4,2.833747864E-2
1.346316223E1,-2.386379242E-2,4.211485386E-3,2.591514587E-2
1.347115887E1,-2.421820164E-2,-1.241770387E-2,2.109813690E-2
1.347918350E1,-1.747024059E-2,-2.420353889E-2,2.824783325E-2
1.348717913E1,-5.614161491E-3,9.420037270E-3,3.302955627E-2
1.349517545E1,6.388843060E-3,1.902920008E-2,3.782272339E-2
1.350317093E1,-1.738518476E-2,3.101250529E-2,4.981136322E-2
1.351116695E1,-1.954472065E-2,1.428353786E-2,3.307723999E-2
1.351916196E1,-3.126150370E-2,2.627041936E-2,3.549671173E-2
1.352715705E1,-3.106850386E-2,2.149277925E-2,3.551769257E-2
1.353518361E1,-3.563207388E-2,4.679143429E-3,1.877784729E-2
1.354317901E1,-3.310054541E-2,2.380919456E-2,2.836704254E-2
1.355117533E1,-3.550136089E-2,1.421833038E-2,2.597141266E-2
1.355917012E1,-4.041379690E-2,2.386116982E-2,2.356815338E-2
1.356716490E1,-5.738830566E-2,1.200020313E-2,3.312873840E-2
1.357516184E1,-3.394174576E-2,2.410769463E-2,2.111530304E-2
1.358315717E1,-3.224277496E-2,-9.237706661E-3,3.063106537E-2
1.359118456E1,-1.150786877E-2,2.968370914E-3,2.577304840E-2
1.359917874E1,1.637959480E-2,-1.630723476E-3,5.203533173E-2
1.360717106E1,1.577430964E-2,1.525998116E-2,4.479789734E-2
1.361516961E1,2.751713991E-2,1.278072596E-2,3.519439697E-2
1.362316563E1,1.086407900E-2,1.746016741E-2,2.083396912E-2
1.363116218E1,1.606470346E-2,3.158077598E-2,4.719924927E-2
1.363915728E1,-1.197999716E-2,2.664604783E-2,1.852989197E-2
1.364718291E1,-1.356583834E-2,1.932513714E-2,2.099800110E-2
1.365517862E1,-2.709281445E-2,2.170890570E-2,3.544712067E-2
1.366317432E1,-2.400612831E-2,1.447367668E-2,3.790760040E-2
1.367117088E1,-5.214947462E-2,2.541244030E-3,2.839279175E-2
1.367916566E1,-5.177986622E-2,2.576351166E-3,3.321933746E-2
1.368716114E1,-4.199028015E-2,1.214748621E-2,2.126884460E-2
1.369515685E1,-4.443967342E-2,1.455008984E-2,1.647567749E-2
1.370318333E1,-3.984260559E-2,2.173274755E-2,1.885128021E-2
1.371117996E1,-2.581906319E-2,9.837448597E-3,2.121448517E-2
1.371917405E1,-2.378940582E-2,9.871602058E-3,2.026557922E-3
1.372716976E1,2.190470695E-3,-6.885051727E-3,1.156711578E-2
1.373516524E1,1.144570112E-2,2.693831921E-3,2.829456329E-2
1.374316087E1,-5.376279354E-3,-4.438161850E-3,4.265689850E-2
1.375115811E1,-7.699608803E-3,9.930253029E-3,3.308677673E-2
1.375918336E1,-3.331303596E-4,2.901634574E-2,5.225563049E-2
1.376717784E1,-2.521336079E-3,1.207798719E-2,3.790187836E-2
1.377517447E1,-2.368581295E-2,2.635386586E-2,4.272365570E-2
1.378316987E1,-2.104705572E-2,-7.294237614E-3,3.795337677E-2
1.379116650E1,-2.800232172E-2,9.411692619E-3,-5.122184753E-3
1.379916067E1,-2.781546116E-2,3.332594037E-2,1.165390015E-2
1.380715646E1,-2.046728134E-2,2.131938934E-2,2.124595642E-2
1.381518286E1,-3.713148832E-2,-1.935088634E-2,1.886367798E-2
1.382317864E1,-3.951340914E-2,7.006347179E-3,6.895065308E-3
1.383117520E1,-6.353926659E-2,1.423841715E-2,1.646518707E-2
1.383916967E1,-3.018701077E-2,1.425439119E-2,2.842044830E-2
1.384716484E1,-3.534585238E-2,7.104337215E-3,4.275035858E-2
1.385516055E1,-1.412320137E-2,7.117092609E-3,5.468940735E-2
1.386315657E1,-7.316410542E-3,-2.408802509E-3,3.549957275E-2
1.387118328E1,-5.100309849E-3,7.115960121E-3,4.266357422E-2
1.387917868E1,2.030432224E-3,1.668196917E-2,3.308010101E-2
1.389516925E1,-4.551291466E-3,1.427042484E-2,2.595615387E-2
1.390316495E1,5.525410175E-3,1.423096657E-2,4.036998749E-2
1.391116243E1,-1.313012838E-2,-1.611709595E-4,2.126502991E-2
1.391915629E1,-3.884696960E-2,6.981015205E-3,2.850818634E-2
1.392718185E1,-4.078465700E-2,1.887315512E-2,2.376174927E-2
1.393517825E1,-3.319758177E-2,2.123057842E-3,1.661968231E-2
1.394317365E1,-4.003769159E-2,2.122998238E-3,1.665401459E-2
1.395117051E1,-3.995227814E-2,2.609041333E-2,2.624130249E-2
1.395916499E1,-1.836150885E-2,9.331882000E-3,3.821754456E-2
1.396715985E1,-2.564728260E-2,3.328016400E-2,3.341865540E-2
1.397518748E1,-2.821791172E-2,2.200722694E-3,3.340339661E-2
1.398318265E1,-1.405465603E-2,6.962180138E-3,2.619838715E-2
1.399117890E1,-2.621388435E-2,9.407103062E-3,2.378845215E-2
1.399917368E1,-3.369104862E-2,-4.847407341E-3,1.658153534E-2
1.400716878E1,-4.852396250E-2,-1.917636395E-2,2.371978760E-2
1.401516510E1,-3.461939096E-2,7.279157639E-3,1.170730591E-2
1.402316081E1,-4.089295864E-3,2.649369836E-2,1.404476166E-2
1.403115690E1,-3.570079803E-2,7.389247417E-3,2.357578278E-2
1.403918184E1,-7.634580135E-3,-6.893038750E-3,1.393699646E-2
1.404717693E1,-3.495395184E-3,-4.316329956E-3,1.866912842E-2
1.405517410E1,-1.114475727E-2,1.251757145E-2,3.777980804E-2
1.406316920E1,5.157589912E-4,-1.852959394E-2,3.775215149E-2
1.407116675E1,-1.157069206E-2,-4.096269608E-3,3.534984589E-2
1.407916038E1,-3.545993567E-2,1.749259233E-2,5.211734772E-2
1.408718617E1,-2.346843481E-2,2.232563496E-2,5.451488495E-2
1.409518164E1,-2.577769756E-2,1.049453020E-2,5.692577362E-2
1.410317766E1,-1.849007607E-2,5.807101727E-3,3.778743744E-2
1.411117421E1,8.742213249E-4,3.224137425E-2,4.499626160E-2
1.411916869E1,1.785230637E-2,2.748635411E-2,2.826023102E-2
1.412716440E1,1.582664251E-2,2.748385072E-2,1.632595062E-2
1.413515957E1,-1.716148853E-2,1.063251495E-2,1.876926422E-2
1.414318689E1,-9.402394295E-3,2.249675989E-2,1.403331757E-2
1.415118298E1,-3.522944450E-2,2.007830143E-2,1.168918610E-2
1.415917808E1,-6.122958660E-2,1.762038469E-2,2.129650116E-2
1.416717248E1,-5.370903015E-2,5.600810051E-3,3.569316864E-2
1.417516880E1,-6.796598434E-2,7.923543453E-3,5.245971680E-2
1.418316428E1,-6.089979410E-2,-4.147052765E-3,4.525947571E-2
1.419116122E1,-5.161851645E-2,1.008802652E-2,3.325271606E-2
1.419918647E1,-3.279286623E-2,1.227986813E-2,3.081512451E-2
1.420718148E1,-1.397132874E-2,2.171832323E-2,1.401519775E-2
1.421517811E1,-7.173299789E-3,2.164292336E-2,2.115440369E-2
1.422317328E1,-2.704858780E-3,4.909992218E-3,9.153366089E-3
1.423116984E1,-1.253676414E-2,5.033195019E-3,3.068161011E-2
1.423916470E1,-1.508927345E-2,1.474130154E-2,3.546047211E-2
1.424715918E1,1.575767994E-3,-1.922070980E-3,4.982089996E-2
1.425518627E1,-1.278859377E-2,1.484000683E-2,4.742813110E-2
1.426318252E1,-4.847002029E-2,7.663488388E-3,4.745197296E-2
1.427117853E1,-1.957964897E-2,5.752444267E-4,3.071308136E-2
1.427917209E1,-3.376108408E-2,-1.832187176E-3,3.791332245E-2
1.428716810E1,-2.651059628E-2,-6.548225880E-3,2.116394043E-2
1.429516473E1,-2.414977551E-2,7.872641087E-3,2.834701538E-2
1.430315990E1,-9.719550610E-3,7.845401764E-3,4.409790039E-3
1.431118630E1,9.523093700E-3,3.052473068E-3,1.399517059E-2
1.431918147E1,2.172017097E-2,5.447328091E-3,2.359485626E-2
1.432717649E1,1.733070612E-2,1.260107756E-2,1.645088196E-2
1.433517289E1,1.126646996E-3,2.695736289E-2,2.847766876E-2
1.434316852E1,-3.422212601E-2,2.212119102E-2,3.571414948E-2
1.435116492E1,-5.782663822E-2,-1.816928387E-3,4.771900177E-2
1.435916032E1,-6.003236771E-2,5.342304707E-3,5.731391907E-2
1.437518159E1,-1.037144661E-2,-1.139962673E-2,2.852249146E-2
1.438317722E1,-2.290642262E-2,-2.095919847E-2,1.649475098E-2
1.439117323E1,-3.059279919E-2,-1.895785332E-3,4.468917847E-3
1.439916863E1,7.317304611E-3,-6.660699844E-3,4.430770874E-3
1.440716319E1,-1.668930054E-6,2.448076010E-2,9.205818176E-3
1.441515982E1,7.113933563E-3,5.347132683E-3,2.835369110E-2
1.442318560E1,-9.448230267E-3,1.495182514E-2,4.034519196E-2
1.443118193E1,-1.624745131E-2,2.215671539E-2,4.517364502E-2
1.443917710E1,-3.506147861E-2,2.223521471E-2,6.436729431E-2
1.444717219E1,-4.182273149E-2,1.748442650E-2,6.201648712E-2
1.445516782E1,-4.404944181E-2,7.882654667E-3,6.682014465E-2
1.446316391E1,-5.127602816E-2,1.024776697E-2,4.287242889E-2
1.447116024E1,-5.617898703E-2,3.168156743E-2,2.130699158E-2
1.447918518E1,-2.779412270E-2,1.977151632E-2,1.888084412E-2
1.448718050E1,-4.261338711E-2,6.500482559E-4,2.077102661E-3
1.449517682E1,-1.681870222E-2,-1.120299101E-2,1.878929138E-2
1.450317284E1,4.229962826E-3,1.995605230E-2,2.352905273E-2
1.451116893E1,-8.095502853E-3,-3.984749317E-3,2.828121185E-2
1.451916402E1,6.069958210E-3,6.774067879E-4,4.022598267E-2
1.452715935E1,2.284711599E-2,1.490885019E-2,4.979705811E-2
1.453518613E1,3.868877888E-3,2.672502398E-2,6.417369843E-2
1.454318092E1,-4.218220711E-4,2.579748631E-3,2.590465546E-2
1.455117824E1,-7.002174854E-3,2.427399158E-3,2.835273743E-2
1.455917272E1,-2.793997526E-2,2.261698246E-3,2.601051331E-2
1.456716750E1,-2.742266655E-2,4.520118237E-3,2.126693726E-2
1.457516291E1,-4.855167866E-2,9.264945984E-3,3.088378906E-2
1.458315946E1,-6.985348463E-2,2.038598061E-3,1.654052734E-2
1.459118601E1,-4.348802567E-2,2.118211985E-2,1.175498962E-2
1.459918103E1,-2.696675062E-2,1.398813725E-2,1.173019409E-2
1.460717704E1,-2.496331930E-2,-4.061460495E-4,6.900787354E-3
1.461517222E1,-1.342558861E-2,-1.003256440E-2,4.461288452E-3
1.462316815E1,1.740109921E-2,-4.743933678E-4,2.597713470E-2
1.463116448E1,1.017236710E-2,8.955746889E-3,3.793716431E-2
1.463915903E1,-8.942544460E-3,6.496667862E-3,2.836132050E-2
1.464718451E1,3.136515617E-3,2.559417486E-2,3.794574738E-2
1.465518091E1,-2.545070648E-2,1.594629884E-2,4.513835907E-2
1.466317662E1,-6.221055984E-3,1.605629921E-3,3.317737579E-2
1.467117294E1,-1.106923819E-2,1.121339202E-2,4.274940491E-2
1.467916765E1,-4.232645035E-2,1.669108868E-3,3.076648712E-2
1.468716313E1,-3.523343801E-2,1.604178548E-2,4.272842407E-2
1.469515937E1,-2.821826935E-2,8.855134249E-3,1.637458801E-2
1.470318501E1,-2.603083849E-2,8.863538504E-3,2.114391327E-2
1.471118195E1,-2.143216133E-2,1.851516962E-2,2.591609955E-2
1.471917642E1,-4.081332684E-2,2.088192105E-2,2.110385895E-2
1.472717113E1,-2.667611837E-2,1.133567095E-2,2.108287811E-2
1.473516776E1,-2.686655521E-2,1.617109776E-2,3.782558441E-2
1.474316324E1,-2.477449179E-2,1.132532954E-2,4.018592834E-2
1.475115926E1,-3.481984138E-3,6.558895111E-3,4.734420776E-2
1.475918442E1,-1.088094711E-2,1.377847791E-2,5.450725555E-2
1.476718021E1,-1.442134380E-3,1.127311587E-2,4.012203217E-2
1.477517676E1,-8.701324463E-3,1.358035207E-2,3.292751312E-2
1.478317193E1,-6.208300591E-3,-5.655586720E-3,2.575111389E-2
1.479116764E1,-1.794385910E-2,2.537447214E-2,2.337551117E-2
1.479916273E1,-3.433436155E-2,-3.379195929E-3,3.059387207E-2
1.480715814E1,-3.410726786E-2,8.604049683E-3,2.822303772E-2
1.481518492E1,-2.429944277E-2,6.218433380E-3,1.388168335E-2
1.482318024E1,-1.456403732E-2,1.502335072E-3,1.629447937E-2
1.483117634E1,-1.696324348E-2,-1.524144411E-2,2.347850800E-2
1.483917143E1,-5.050075054E-2,1.343923807E-2,2.586841583E-2
1.484716683E1,-3.382688761E-2,3.492391109E-2,3.303909302E-2
1.485516308E1,-3.381383419E-2,8.489876986E-3,4.021739960E-2
1.486315909E1,-2.186399698E-2,8.465051651E-3,4.260826111E-2
1.487118596E1,-3.874242306E-2,2.756673098E-2,4.259395599E-2
1.487918074E1,-3.174895048E-2,1.079830527E-2,4.496765137E-2
1.488717522E1,-3.449875116E-2,3.585159779E-3,1.859569550E-2
1.489517177E1,-4.923141003E-2,1.250952482E-3,1.616668701E-2
1.490316786E1,-1.384133101E-2,2.758863568E-2,1.850891113E-2
1.491116411E1,-1.433306932E-2,1.323217154E-2,1.606559753E-2
1.491915890E1,1.145792007E-2,-3.526777029E-3,4.040718079E-3
1.492718414E1,1.103305817E-2,-3.460586071E-3,2.075958252E-2
1.493518085E1,2.037560940E-2,-2.024585009E-2,2.791786194E-2
1.494317594E1,1.795840263E-2,-1.553127170E-2,4.227828979E-2
1.495117188E1,-1.296782494E-2,-1.277983189E-3,4.947376251E-2
1.495916698E1,-3.433829546E-2,3.424197435E-3,4.709339142E-2
1.496716238E1,-3.902393579E-2,2.731713653E-2,3.752422333E-2
1.497515839E1,-3.177094460E-2,2.502018213E-2,2.795982361E-2
1.498318495E1,-2.946323156E-2,1.558884978E-2,3.274726868E-2
1.499118127E1,-2.497088909E-2,1.350164413E-2,2.794456482E-2
1.499917575E1,-3.778576851E-3,1.853933930E-2,2.313327789E-2
1.500717115E1,1.008474827E-2,2.110433578E-2,2.309226990E-2
1.501516716E1,2.456307411E-4,1.169276237E-2,3.920555115E-3
1.502316218E1,3.122508526E-2,1.654803753E-2,2.066802979E-2
1.503115881E1,4.998683929E-3,-2.325773239E-4,1.349639893E-2
1.503918413E1,5.263090134E-4,-3.811120987E-4,3.267383575E-2
1.504717946E1,-3.990739584E-2,-1.011067629E-2,4.226970673E-2
1.505517586E1,-3.948205709E-2,-1.504084468E-2,3.033351898E-2
1.506317157E1,-7.024741173E-2,1.469463110E-3,3.514480591E-2
1.507116789E1,-4.377311468E-2,1.276314259E-3,3.036117554E-2
1.507916237E1,-6.059169769E-2,2.747353911E-2,2.555847168E-2
1.508715708E1,-6.553709507E-2,2.498421073E-2,2.553844452E-2
1.509518455E1,-4.426044226E-2,2.731308341E-2,3.029632568E-2
1.510317988E1,-3.270405531E-2,1.072078943E-3,2.547168732E-2
1.511117620E1,-1.176518202E-2,1.076000929E-2,3.978157043E-2
1.511917076E1,-2.870440483E-3,-1.122057438E-3,4.690074921E-2
1.512716616E1,1.079815626E-2,8.458405733E-3,3.964805603E-2
1.513516217E1,1.516467333E-2,8.399277925E-3,3.481483459E-2
1.514318834E1,1.259768009E-2,5.962640047E-3,3.958415985E-2
1.515118497E1,1.982700825E-2,1.149773598E-3,2.522182465E-2
1.515918037E1,8.206009865E-3,-1.326858997E-3,4.201221466E-2
1.516717508E1,-1.514565945E-2,-3.842353821E-3,3.009319305E-2
1.517517048E1,-7.433533669E-3,8.420050144E-4,3.493022919E-2
1.518316680E1,-3.309971094E-2,8.107423782E-4,3.870964050E-3
1.519116313E1,-3.512084484E-2,1.511809230E-2,3.024101257E-2
1.519918814E1,-2.526485920E-2,1.985499263E-2,1.536369324E-3
1.520718108E1,-1.304119825E-2,-1.731604338E-3,1.592445374E-2
1.521517956E1,-2.238440514E-2,2.455946803E-2,2.073383331E-2
1.522317465E1,-4.121559858E-2,4.605627060E-2,3.273487091E-2
1.523117244E1,-6.034129858E-2,7.615596056E-3,3.512477875E-2
1.523916599E1,-5.567252636E-2,-4.424780607E-3,2.313804626E-2
1.524716086E1,-4.880344868E-2,9.803831577E-3,3.267669678E-2
1.525518826E1,-8.619785309E-3,7.336914539E-3,2.543830872E-2
1.526318273E1,7.590711117E-3,-1.422989368E-2,1.580524445E-2
1.527117998E1,-2.516686916E-3,2.537935972E-3,2.532958984E-2
1.527917530E1,1.871031523E-2,-4.650175571E-3,2.529811859E-2
1.528717009E1,6.584286690E-3,-1.900753379E-2,2.528285980E-2
1.529516610E1,2.027332783E-3,1.201304793E-2,2.769470215E-2
1.530316220E1,-4.706263542E-3,4.730582237E-3,1.815795898E-2
1.531118960E1,-8.937060833E-3,1.666849852E-2,3.257751465E-2
1.531918377E1,-4.424601793E-2,1.663598418E-2,3.263664246E-2
1.532717886E1,-5.811697245E-2,2.612546086E-2,5.422878265E-2
1.533517511E1,-6.746530533E-2,1.879736781E-2,4.227352142E-2
1.534317089E1,-6.741535664E-2,9.255141020E-3,5.424976349E-2
1.535116806E1,-5.081844330E-2,1.171922684E-2,4.226779938E-2
1.535916162E1,-2.962893248E-2,-2.576351166E-3,3.505229950E-2
1.536718717E1,-2.779495716E-2,-2.477973700E-3,2.063560486E-2
1.537518380E1,-2.604472637E-2,2.622517943E-2,3.732967377E-2
1.538317928E1,2.117037773E-3,6.992906332E-3,1.811599731E-2
1.539117614E1,1.599907875E-2,9.314566851E-3,-1.090049744E-3
1.539917008E1,2.768588066E-2,1.164433360E-2,1.803112030E-2
1.540716610E1,8.443534374E-3,3.066349030E-2,2.040958405E-2
1.541516150E1,1.518070698E-3,1.378616691E-2,2.521800995E-2
1.542318736E1,-1.250565052E-2,1.844853163E-2,3.721714020E-2
1.543118368E1,1.466274261E-5,6.328463554E-3,4.684162140E-2
1.543917939E1,-1.153153181E-2,3.881603479E-3,4.209232330E-2
1.544717410E1,-4.704910517E-2,2.772289515E-2,4.930877686E-2
1.545517050E1,-3.486394882E-2,2.287426591E-2,2.299118042E-2
1.546316652E1,-3.716498613E-2,2.039444447E-2,1.820755005E-2
1.547116276E1,-2.045440674E-2,3.954100609E-2,2.299118042E-2
1.547918747E1,-3.976821899E-2,1.271128654E-3,6.217002869E-3
1.548718310E1,-1.838332415E-2,-5.834907293E-3,2.535820007E-2
1.549517858E1,-1.385593414E-2,8.575946093E-3,1.575851440E-2
1.550317452E1,1.226907969E-2,2.300685644E-2,1.574039459E-2
1.551117153E1,-7.013380527E-3,-3.378719091E-3,1.811981201E-2
1.551916570E1,-9.450256824E-3,1.326382160E-3,2.768802643E-2
1.552716080E1,2.478718758E-3,1.322948933E-2,2.768039703E-2
1.553518727E1,-4.701793194E-3,2.031514049E-2,4.922294617E-2
1.554318360E1,-1.902025938E-2,2.013286948E-2,3.964138031E-2
1.555117954E1,-7.017552853E-3,8.094578981E-3,5.161285400E-2
1.555917378E1,-6.896317005E-3,-1.593887806E-3,3.725433350E-2
1.556716949E1,9.983718395E-3,-1.667261124E-3,3.007888794E-2
1.557516551E1,-1.613837481E-2,6.608366966E-4,3.728008270E-2
1.558316122E1,-1.359009743E-2,7.709681988E-3,1.813507080E-2
1.559118854E1,-3.014069796E-2,1.958248019E-2,1.575660706E-2
1.559918302E1,-3.251218796E-2,1.959824562E-2,1.575946808E-2
1.560717842E1,-2.776479721E-2,1.489576697E-2,1.097202301E-2
1.561517389E1,-6.387680769E-2,7.696330547E-3,2.771091461E-2
1.562316991E1,-2.585059404E-2,1.008749008E-2,2.528667450E-2
1.563116623E1,-3.808695078E-2,-1.913338900E-3,3.244304657E-2
1.563916071E1,-1.682126522E-2,1.236534119E-2,3.001499176E-2
1.564718688E1,9.292125702E-3,2.787500620E-3,2.999305725E-2
1.565518251E1,1.823782921E-3,2.668499947E-2,3.953933716E-2
1.566317768E1,4.086136818E-3,1.221361756E-2,2.515506744E-2
1.567117554E1,1.842784882E-2,4.983812571E-3,1.557350159E-2
1.567916933E1,6.686747074E-3,2.412417531E-2,3.235530853E-2
1.568716442E1,-2.159279585E-2,1.690879464E-2,2.282238007E-2
1.569516105E1,-2.588737011E-2,4.961997271E-3,3.244972229E-2
1.570318730E1,-4.221403599E-2,2.907812595E-4,3.010463715E-2
1.571118362E1,-3.717684746E-2,1.465234160E-2,1.815891266E-2
1.571917864E1,-3.951287270E-2,7.516443729E-3,2.774333954E-2
1.572717319E1,-3.946191072E-2,5.172580481E-3,5.408668518E-2
1.573516975E1,-3.708124161E-2,4.459917545E-4,3.014659882E-2
1.574316461E1,-3.611028194E-3,1.228767633E-2,4.689502716E-2
1.575116178E1,-1.319181919E-2,4.996925592E-3,4.928302765E-2
1.575918672E1,-2.030336857E-2,1.210057735E-2,2.773857117E-2
1.576718212E1,-2.748709917E-2,1.679575443E-2,3.012752533E-2
1.577517821E1,-4.183095694E-2,2.381226420E-2,2.293872833E-2
1.578317354E1,-2.761340141E-2,2.629604936E-2,1.380920410E-3
1.579117109E1,-5.429828167E-2,7.146805525E-3,2.768325806E-2
1.579916557E1,-4.745566845E-2,4.774242640E-3,3.483200073E-2
1.581518783E1,-5.481302738E-3,2.525866032E-3,3.472709656E-2
1.582318254E1,-1.347243786E-3,-9.375870228E-3,2.269458771E-2
1.583117886E1,-6.914019585E-3,-1.409500837E-2,3.219699860E-2
1.583917372E1,-1.465541124E-2,-9.301960468E-3,2.735328674E-2
1.584716882E1,-3.073871136E-3,-9.303599596E-3,4.168033600E-2
1.585516445E1,1.421630383E-3,-2.210348845E-3,5.361652374E-2
1.586316054E1,-1.140415668E-3,-2.175509930E-3,4.641914368E-2
1.587118848E1,-3.941452503E-2,2.710491419E-3,6.079292297E-2
1.587918211E1,-1.782375574E-2,5.174338818E-3,4.164695740E-2
1.588717774E1,-1.290023327E-2,2.205011249E-2,4.884815216E-2
1.589517407E1,3.932237625E-3,1.254069805E-2,4.646587372E-2
1.590316954E1,6.412386894E-3,7.804274559E-3,2.732276917E-2
1.591116617E1,8.976757526E-3,1.982954144E-2,2.015972137E-2
1.591916088E1,1.169127226E-2,3.176096082E-2,2.019023895E-2
1.592718613E1,-2.173483372E-3,2.974569798E-3,1.305484772E-2
1.593518315E1,-2.803027630E-2,1.969408989E-2,1.788902283E-2
1.594317785E1,-6.348800659E-2,1.241120696E-2,4.426574707E-2
1.595117387E1,-6.564158201E-2,-1.158645749E-2,3.949832916E-2
1.595916927E1,-7.988840342E-2,-4.409909248E-3,4.190349579E-2
1.596716382E1,-5.610603094E-2,-2.032488585E-3,3.231048584E-2
1.597519092E1,-5.403780937E-2,3.097355366E-4,2.748680115E-2
1.598318655E1,-3.539943695E-2,1.225340366E-2,2.025127411E-2
1.599118326E1,-1.916939020E-2,-2.052187920E-3,1.301860809E-2
1.599917804E1,-5.616545677E-4,9.922653437E-3,2.972412109E-2
1.600717252E1,1.102131605E-2,-1.403129101E-2,3.686714172E-2
1.601516884E1,1.809167862E-2,9.942412376E-3,3.925228119E-2
