"Time (s)","Gyroscope x (rad/s)","Gyroscope y (rad/s)","Gyroscope z (rad/s)"
7.073300000E-3,-3.622430861E-1,-6.389650702E-1,7.391469181E-2
9.178603000E-3,-3.622430861E-1,-6.389650702E-1,7.391469181E-2
1.116190800E-2,-3.622430861E-1,-6.389650702E-1,7.391469181E-2
1.317728900E-2,-3.622430861E-1,-6.389650702E-1,7.391469181E-2
1.515697800E-2,-3.622430861E-1,-6.389650702E-1,7.391469181E-2
1.717335900E-2,-3.622430861E-1,-6.389650702E-1,7.391469181E-2
1.915797000E-2,-3.622430861E-1,-6.389650702E-1,7.391469181E-2
2.117242800E-2,-3.622430861E-1,-6.389650702E-1,7.391469181E-2
2.315542500E-2,-3.622430861E-1,-6.389650702E-1,7.391469181E-2
2.517019100E-2,-3.622430861E-1,-6.389650702E-1,7.391469181E-2
2.715334100E-2,-3.622430861E-1,-6.389650702E-1,7.391469181E-2
2.916749100E-2,-3.622430861E-1,-6.389650702E-1,7.391469181E-2
3.115141100E-2,-3.622430861E-1,-6.389650702E-1,7.391469181E-2
3.316502300E-2,-3.622430861E-1,-6.389650702E-1,7.391469181E-2
3.517909600E-2,-3.622430861E-1,-6.389650702E-1,7.391469181E-2
3.716255300E-2,-3.622430861E-1,-6.389650702E-1,7.391469181E-2
3.917755000E-2,-3.622430861E-1,-6.389650702E-1,7.391469181E-2
4.116131600E-2,-3.622430861E-1,-6.389650702E-1,7.391469181E-2
4.317477400E-2,-3.622430861E-1,-6.389650702E-1,7.391469181E-2
4.515884700E-2,-3.622430861E-1,-6.389650702E-1,7.391469181E-2
4.717292100E-2,-3.622430861E-1,-6.389650702E-1,7.391469181E-2
4.915576300E-2,-3.622430861E-1,-6.389650702E-1,7.391469181E-2
5.116683700E-2,-3.622430861E-1,-6.389650702E-1,7.391469181E-2
5.315383300E-2,-3.622430861E-1,-6.389650702E-1,7.391469181E-2
5.516921400E-2,-3.622430861E-1,-6.389650702E-1,7.391469181E-2
5.715228800E-2,-3.622430861E-1,-6.389650702E-1,7.391469181E-2
5.916620700E-2,-3.622430861E-1,-6.389650702E-1,7.391469181E-2
6.115135800E-2,-3.622430861E-1,-6.389650702E-1,7.391469181E-2
6.316458400E-2,-3.622430861E-1,-6.389650702E-1,7.391469181E-2
6.517819700E-2,-3.622430861E-1,-6.389650702E-1,7.391469181E-2
6.716211600E-2,-3.622430861E-1,-6.389650702E-1,7.391469181E-2
6.917572800E-2,-3.622430861E-1,-6.389650702E-1,7.391469181E-2
7.115972400E-2,-6.597344875E-1,4.276056774E-3,3.292563558E-1
7.317387400E-2,-6.670648456E-1,2.932153270E-2,3.365867436E-1
7.515779400E-2,-6.695083380E-1,4.153883830E-2,3.390302062E-1
7.717171300E-2,-6.774495840E-1,6.841690838E-2,3.494149148E-1
7.915501800E-2,-6.835582256E-1,9.285151958E-2,3.579670191E-1
8.117047500E-2,-6.884451509E-1,1.050688252E-1,3.634648323E-1
8.315316500E-2,-6.957755089E-1,1.258382350E-1,3.714060783E-1
8.516708400E-2,-7.012733221E-1,1.472185254E-1,3.775147200E-1
8.715046600E-2,-7.061602473E-1,1.576032341E-1,3.824016452E-1
8.916484600E-2,-7.128797174E-1,1.777617931E-1,3.872885704E-1
9.117907300E-2,-7.202101350E-1,1.973094791E-1,3.958406746E-1
9.316368500E-2,-7.220427394E-1,2.028072625E-1,3.976732790E-1
9.517752700E-2,-7.305948138E-1,2.174680233E-1,4.001167417E-1
9.716052400E-2,-7.360926270E-1,2.266310006E-1,4.043927789E-1
9.917498200E-2,-7.397578359E-1,2.302961946E-1,4.019493461E-1
1.011592870E-1,-7.489207983E-1,2.382374406E-1,4.062253833E-1
1.031725900E-1,-7.574729323E-1,2.425135076E-1,4.062253833E-1
1.051568180E-1,-7.605272532E-1,2.431243658E-1,4.086688459E-1
1.071701220E-1,-7.678576112E-1,2.394591719E-1,4.086688459E-1
1.091540410E-1,-7.690793276E-1,2.351831198E-1,4.074471295E-1
1.111688840E-1,-7.757988572E-1,2.247984111E-1,4.111123085E-1
1.131519570E-1,-7.782423496E-1,2.107485086E-1,4.105014503E-1
1.151651850E-1,-7.812966704E-1,2.009746730E-1,4.117231667E-1
1.171802580E-1,-7.843509912E-1,1.783726513E-1,4.123340547E-1
1.191636390E-1,-7.880161405E-1,1.569923609E-1,4.129449129E-1
1.211783280E-1,-7.880161405E-1,1.459967941E-1,4.153883755E-1
1.231620940E-1,-7.935139537E-1,1.203404516E-1,4.147774875E-1
1.251752440E-1,-7.965682745E-1,9.529497474E-2,4.196644127E-1
1.271592400E-1,-7.990117669E-1,8.307767659E-2,4.202753007E-1
1.291734680E-1,-8.020660877E-1,5.497787148E-2,4.221078753E-1
1.311564640E-1,-8.051204085E-1,3.237585723E-2,4.202753007E-1
1.331703070E-1,-8.063421249E-1,1.954768784E-2,4.208861589E-1
1.351555330E-1,-8.106181622E-1,-6.108652335E-3,4.202753007E-1
1.371687610E-1,-8.118399382E-1,-1.954768784E-2,4.202753007E-1
1.391525260E-1,-8.161159754E-1,-4.764748737E-2,4.178318381E-1
1.411675230E-1,-8.155050874E-1,-7.330382615E-2,4.184426963E-1
1.431497500E-1,-8.148942590E-1,-8.735372871E-2,4.178318381E-1
1.451648230E-1,-8.155050874E-1,-1.136209369E-1,4.184426963E-1
1.471789740E-1,-8.106181622E-1,-1.380555481E-1,4.208861589E-1
1.491623550E-1,-8.100073338E-1,-1.502728462E-1,4.208861589E-1
1.511776590E-1,-8.063421249E-1,-1.728748679E-1,4.227187634E-1
1.531598860E-1,-8.045095205E-1,-1.918116808E-1,4.221078753E-1
1.551748830E-1,-7.990117669E-1,-2.028072625E-1,4.221078753E-1
1.571574180E-1,-7.965682745E-1,-2.223549485E-1,4.196644127E-1
1.591724920E-1,-7.916813493E-1,-2.376265824E-1,4.196644127E-1
1.611570260E-1,-7.886270285E-1,-2.455678284E-1,4.172209501E-1
1.631705600E-1,-7.849618196E-1,-2.590068579E-1,4.135557711E-1
1.651543270E-1,-7.782423496E-1,-2.700024247E-1,4.111123085E-1
1.671680920E-1,-7.770205736E-1,-2.736676335E-1,4.074471295E-1
1.691511660E-1,-7.715228200E-1,-2.761110961E-1,4.056145251E-1
1.711657000E-1,-7.696902156E-1,-2.767219543E-1,4.031710625E-1
1.731801590E-1,-7.641924024E-1,-2.742784917E-1,3.976732790E-1
1.751637700E-1,-7.580837607E-1,-2.706133127E-1,3.982841372E-1
1.771767670E-1,-7.574729323E-1,-2.663372457E-1,3.958406746E-1
1.791616090E-1,-7.525860071E-1,-2.547308207E-1,3.946189582E-1
1.811761440E-1,-7.489207983E-1,-2.370157093E-1,3.970624208E-1
1.831595260E-1,-7.464773059E-1,-2.290744632E-1,3.982841372E-1
1.851729830E-1,-7.440338731E-1,-2.076941878E-1,4.007275999E-1
1.871569800E-1,-7.379252315E-1,-1.857030392E-1,4.025602043E-1
1.891712070E-1,-7.367035151E-1,-1.710422635E-1,4.013384581E-1
1.911552040E-1,-7.305948138E-1,-1.484402567E-1,4.105014503E-1
1.931686610E-1,-7.312057018E-1,-1.209513173E-1,4.141666293E-1
1.951515050E-1,-7.275404930E-1,-1.050688252E-1,4.172209501E-1
1.971665010E-1,-7.244861722E-1,-7.757988572E-2,4.251621962E-1
1.991499590E-1,-7.208209634E-1,-5.131268129E-2,4.306600094E-1
2.011644170E-1,-7.183775306E-1,-3.665191308E-2,4.343251884E-1
2.031778740E-1,-7.171558142E-1,-1.038470957E-2,4.386012554E-1
2.051613330E-1,-7.165449262E-1,6.108652451E-4,4.392121136E-1
2.071757900E-1,-7.128797174E-1,2.382374369E-2,4.440990388E-1
2.091597870E-1,-7.104362845E-1,4.642575979E-2,4.495968223E-1
2.111710910E-1,-7.110471725E-1,5.681046844E-2,4.495968223E-1
2.131573190E-1,-7.098253965E-1,7.574728876E-2,4.508185387E-1
2.151714690E-1,-7.086036801E-1,9.162978828E-2,4.520402849E-1
2.171551580E-1,-7.067710757E-1,9.590584040E-2,4.532620013E-1
2.191695390E-1,-7.024950385E-1,1.075122803E-1,4.520402849E-1
2.211553810E-1,-7.018841505E-1,1.160643995E-1,4.508185387E-1
2.231673780E-1,-6.994407177E-1,1.191187203E-1,4.508185387E-1
2.251510660E-1,-6.963863969E-1,1.178969890E-1,4.471533597E-1
2.271652170E-1,-6.896668673E-1,1.130100712E-1,4.434881806E-1
2.291794440E-1,-6.908885837E-1,1.093448773E-1,4.416555762E-1
2.311636710E-1,-6.829473376E-1,9.773843735E-2,4.373795092E-1
2.331772830E-1,-6.798930168E-1,8.246681094E-2,4.294382632E-1
2.351600490E-1,-6.750060916E-1,7.452555746E-2,4.276056588E-1
2.371753530E-1,-6.719517708E-1,5.192354694E-2,4.190535545E-1
2.391591180E-1,-6.658431292E-1,3.970624134E-2,4.159992337E-1
2.411732690E-1,-6.585127115E-1,1.282817032E-2,4.092797041E-1
2.431562650E-1,-6.511823535E-1,-1.343903504E-2,4.025602043E-1
2.451707230E-1,-6.475171447E-1,-2.687807009E-2,3.982841372E-1
2.471544120E-1,-6.407976151E-1,-5.375614017E-2,3.903428912E-1
2.491685630E-1,-6.310238242E-1,-8.002334833E-2,3.793473244E-1
2.511519430E-1,-6.261368990E-1,-9.285151958E-2,3.750712574E-1
2.531661710E-1,-6.163630486E-1,-1.178969890E-1,3.683517575E-1
2.551510900E-1,-6.096435189E-1,-1.429424733E-1,3.573561609E-1
2.571636240E-1,-6.035348773E-1,-1.545489132E-1,3.524692357E-1
2.591783910E-1,-5.907067060E-1,-1.771509200E-1,3.426954150E-1
2.611630020E-1,-5.839871764E-1,-1.948660165E-1,3.353650272E-1
2.631763070E-1,-5.791002512E-1,-2.040289938E-1,3.304781020E-1
2.651596870E-1,-5.711590052E-1,-2.193006277E-1,3.225368559E-1
2.671737610E-1,-5.644394755E-1,-2.278527319E-1,3.170390725E-1
2.691583730E-1,-5.577199459E-1,-2.388483137E-1,3.060434759E-1
2.711719850E-1,-5.503895879E-1,-2.449569702E-1,3.023782969E-1
2.731547500E-1,-5.430592299E-1,-2.474004179E-1,2.993239760E-1
2.751691310E-1,-5.326744914E-1,-2.522873580E-1,2.926044464E-1
2.771531280E-1,-5.247332454E-1,-2.516764700E-1,2.877175212E-1
2.791669700E-1,-5.210680366E-1,-2.486221492E-1,2.852740586E-1
2.811510440E-1,-5.119050741E-1,-2.474004179E-1,2.816088796E-1
2.831651170E-1,-4.984660447E-1,-2.425135076E-1,2.773328125E-1
2.851792680E-1,-4.966334403E-1,-2.357939780E-1,2.773328125E-1
2.871632640E-1,-4.874704778E-1,-2.247984111E-1,2.724458873E-1
2.891771840E-1,-4.740314186E-1,-2.125810981E-1,2.730567753E-1
2.911598720E-1,-4.715879560E-1,-2.058615834E-1,2.718350291E-1
2.931737910E-1,-4.618141353E-1,-1.924225539E-1,2.706133127E-1
2.951589420E-1,-4.550946057E-1,-1.795943826E-1,2.669481039E-1
2.971730920E-1,-4.502076805E-1,-1.728748679E-1,2.681698501E-1
2.991561660E-1,-4.404338300E-1,-1.624901593E-1,2.645046413E-1
3.011712390E-1,-4.392121136E-1,-1.563815027E-1,2.638937831E-1
3.031546200E-1,-4.306600094E-1,-1.490511149E-1,2.663372457E-1
3.051682320E-1,-4.257730842E-1,-1.447750628E-1,2.632829249E-1
3.071513060E-1,-4.196644127E-1,-1.429424733E-1,2.651155293E-1
3.091659940E-1,-4.117231667E-1,-1.429424733E-1,2.632829249E-1
3.111499910E-1,-4.056145251E-1,-1.466076523E-1,2.614503205E-1
3.131629870E-1,-4.019493461E-1,-1.502728462E-1,2.614503205E-1
3.151776750E-1,-3.946189582E-1,-1.576032341E-1,2.583959997E-1
3.171610570E-1,-3.854559660E-1,-1.734857261E-1,2.553416789E-1
3.191752070E-1,-3.830125034E-1,-1.820378453E-1,2.535090744E-1
3.211595890E-1,-3.750712574E-1,-2.015855312E-1,2.480112910E-1
3.231728150E-1,-3.646865487E-1,-2.235766798E-1,2.437352389E-1
3.251567350E-1,-3.634648323E-1,-2.370157093E-1,2.400700450E-1
3.271711930E-1,-3.549126983E-1,-2.657263875E-1,2.327396572E-1
3.291543440E-1,-3.445279896E-1,-2.938261926E-1,2.241875380E-1
3.311687240E-1,-3.384193480E-1,-3.133738637E-1,2.193006277E-1
3.331540280E-1,-3.274237812E-1,-3.445279896E-1,2.119702399E-1
3.351669480E-1,-3.225368559E-1,-3.591887653E-1,2.052507252E-1
3.371496360E-1,-3.115412891E-1,-3.927863538E-1,1.912008226E-1
3.391640950E-1,-3.029891551E-1,-4.251621962E-1,1.808161139E-1
3.411795530E-1,-2.974913716E-1,-4.422664344E-1,1.734857261E-1
3.431623190E-1,-2.864958048E-1,-4.721988440E-1,1.631010175E-1
3.451760840E-1,-2.767219543E-1,-5.015203953E-1,1.472185254E-1
3.471600810E-1,-2.681698501E-1,-5.149593949E-1,1.429424733E-1
3.491742310E-1,-2.565633953E-1,-5.430592299E-1,1.307251602E-1
3.511588420E-1,-2.455678284E-1,-5.650503635E-1,1.166752651E-1
3.531717620E-1,-2.406809032E-1,-5.772676468E-1,1.105666086E-1
3.551558350E-1,-2.278527319E-1,-5.949827433E-1,9.590584040E-2
3.571696780E-1,-2.174680233E-1,-6.084218025E-1,8.368854225E-2
3.591533670E-1,-2.119702399E-1,-6.120869517E-1,7.696902007E-2
3.611687480E-1,-1.985312104E-1,-6.194173694E-1,6.536258012E-2
3.631514370E-1,-1.924225539E-1,-6.194173694E-1,5.803219974E-2
3.651656640E-1,-1.771509200E-1,-6.175847650E-1,4.703662544E-2
3.671492760E-1,-1.661553532E-1,-6.078109145E-1,3.481931984E-2
3.691634260E-1,-1.557706445E-1,-6.047565937E-1,3.237585723E-2
3.711738840E-1,-1.429424733E-1,-5.894849896E-1,1.710422710E-2
3.731600340E-1,-1.270599663E-1,-5.674937963E-1,1.038470957E-2
3.751754160E-1,-1.221730486E-1,-5.571091175E-1,2.443460980E-3
3.771588730E-1,-1.093448773E-1,-5.296201706E-1,-6.108652335E-3
3.791729470E-1,-9.285151958E-2,-5.009095073E-1,-1.466076635E-2
3.811578660E-1,-8.613199741E-2,-4.856378734E-1,-1.832595654E-2
3.831711710E-1,-7.513642311E-2,-4.508185387E-1,-2.504547499E-2
3.851538590E-1,-6.658431143E-2,-4.117231667E-1,-2.993239649E-2
3.871693170E-1,-5.986479297E-2,-3.915646076E-1,-3.298672289E-2
3.891523910E-1,-5.070181563E-2,-3.500257730E-1,-3.970624134E-2
3.911674640E-1,-4.398229718E-2,-3.066543639E-1,-4.092797264E-2
3.931505380E-1,-4.031710699E-2,-2.852740586E-1,-4.276056588E-2
3.951637640E-1,-3.176499158E-2,-2.431243658E-1,-4.214970022E-2
3.971781460E-1,-2.687807009E-2,-2.015855312E-1,-4.092797264E-2
3.991625270E-1,-2.260201424E-2,-1.795943826E-1,-4.214970022E-2
4.011769080E-1,-1.466076635E-2,-1.398881376E-1,-3.665191308E-2
4.031600580E-1,-1.343903504E-2,-1.197295859E-1,-3.604105115E-2
4.051735930E-1,-7.330383174E-3,-8.124507964E-2,-3.115412779E-2
4.071569740E-1,-4.886921961E-3,-4.520402849E-2,-2.565634064E-2
4.091710470E-1,-2.443460980E-3,-3.298672289E-2,-2.015855350E-2
4.111553520E-1,-6.108652451E-4,6.108652451E-4,-1.404990070E-2
4.131704250E-1,7.941247895E-3,2.748893574E-2,-1.160643995E-2
4.151535760E-1,7.330383174E-3,3.726277873E-2,-1.099557430E-2
4.171664180E-1,1.099557430E-2,5.742133409E-2,-8.552113548E-3
4.191513380E-1,1.527163107E-2,7.024950534E-2,-6.719517522E-3
4.211658720E-1,1.527163107E-2,7.819075137E-2,-6.719517522E-3
4.231491760E-1,1.771509275E-2,8.552113175E-2,-6.108652335E-3
4.251630960E-1,2.015855350E-2,8.735372871E-2,-7.941247895E-3
4.271775540E-1,2.076941915E-2,8.674286306E-2,-7.941247895E-3
4.291599350E-1,2.260201424E-2,8.185594529E-2,-1.404990070E-2
4.311759310E-1,2.504547499E-2,7.574728876E-2,-1.466076635E-2
4.331593900E-1,2.504547499E-2,6.108652428E-2,-1.832595654E-2
4.351729240E-1,2.565634064E-2,4.581489414E-2,-2.504547499E-2
4.371563060E-1,2.565634064E-2,3.481931984E-2,-2.565634064E-2
4.391701480E-1,2.809980139E-2,8.552113548E-3,-3.298672289E-2
4.411553750E-1,2.809980139E-2,-1.832595654E-2,-3.970624134E-2
4.431679870E-1,2.809980139E-2,-3.604105115E-2,-4.092797264E-2
4.451519830E-1,3.176499158E-2,-6.719517708E-2,-4.825835302E-2
4.471658260E-1,2.932153270E-2,-1.001819000E-1,-5.803219974E-2
4.491491300E-1,3.115412779E-2,-1.191187203E-1,-5.864306539E-2
4.511605120E-1,3.237585723E-2,-1.551597714E-1,-6.536258012E-2
4.531774310E-1,3.359758854E-2,-1.893682331E-1,-7.086037099E-2
4.551611200E-1,3.237585723E-2,-2.064724565E-1,-7.635815442E-2
4.571755780E-1,3.115412779E-2,-2.412917763E-1,-8.063421398E-2
4.591584200E-1,2.871066704E-2,-2.730567753E-1,-8.674286306E-2
4.611749550E-1,2.993239649E-2,-2.883284092E-1,-8.979719132E-2
4.631571820E-1,2.748893574E-2,-3.170390725E-1,-9.529497474E-2
4.651713330E-1,2.809980139E-2,-3.298672438E-1,-9.651670605E-2
4.671552520E-1,2.687807009E-2,-3.555235863E-1,-1.007927656E-1
4.691694800E-1,2.748893574E-2,-3.750712574E-1,-1.050688252E-1
4.711533990E-1,2.382374369E-2,-3.830125034E-1,-1.050688252E-1
4.731673190E-1,2.015855350E-2,-3.976732790E-1,-1.087340117E-1
4.751503150E-1,1.954768784E-2,-4.092797041E-1,-1.093448773E-1
4.771653880E-1,1.588249579E-2,-4.117231667E-1,-1.111774743E-1
4.791786930E-1,1.160643995E-2,-4.172209501E-1,-1.111774743E-1
4.811635350E-1,7.941247895E-3,-4.159992337E-1,-1.099557430E-1
4.831770700E-1,4.886921961E-3,-4.123340547E-1,-1.093448773E-1
4.851608350E-1,-2.443460980E-3,-4.056145251E-1,-1.062905490E-1
4.871743710E-1,-6.719517522E-3,-3.952298164E-1,-1.032362282E-1
4.891580590E-1,-9.162978269E-3,-3.897320330E-1,-9.896016866E-2
4.911721330E-1,-1.588249579E-2,-3.714060783E-1,-9.224065393E-2
4.931570520E-1,-2.015855350E-2,-3.530801237E-1,-8.857546002E-2
4.951703560E-1,-2.565634064E-2,-3.402519524E-1,-8.429940045E-2
4.971533530E-1,-3.176499158E-2,-3.164281845E-1,-7.757988572E-2
4.991681950E-1,-3.420845419E-2,-3.066543639E-1,-7.330382615E-2
5.011518070E-1,-3.848451003E-2,-2.809980214E-1,-6.230825558E-2
5.031662650E-1,-4.642575979E-2,-2.528982162E-1,-5.436700583E-2
5.051493390E-1,-4.764748737E-2,-2.400700450E-1,-4.886921868E-2
5.071634890E-1,-5.558873713E-2,-2.131919712E-1,-3.909537569E-2
5.091777170E-1,-5.742133409E-2,-1.869247705E-1,-3.115412779E-2
5.111620200E-1,-6.230825558E-2,-1.722639948E-1,-2.504547499E-2
5.131764010E-1,-6.902777404E-2,-1.441642046E-1,-1.466076635E-2
5.151588590E-1,-7.452555746E-2,-1.203404516E-1,-4.886921961E-3
5.171730860E-1,-7.757988572E-2,-1.093448773E-1,-6.108652451E-4
5.191567750E-1,-8.368854225E-2,-8.674286306E-2,7.941247895E-3
5.211720790E-1,-8.979719132E-2,-6.475171447E-2,1.710422710E-2
5.231543070E-1,-8.979719132E-2,-5.497787148E-2,1.893682219E-2
5.251687640E-1,-9.162978828E-2,-3.787364438E-2,2.809980139E-2
5.271523770E-1,-9.651670605E-2,-2.932153270E-2,3.115412779E-2
5.291665270E-1,-1.020144969E-1,-1.771509275E-2,3.970624134E-2
5.311492930E-1,-1.056796908E-1,-9.162978269E-3,4.520402849E-2
5.331635200E-1,-1.056796908E-1,-5.497787148E-3,4.886921868E-2
5.351789000E-1,-1.075122803E-1,-6.108652451E-4,5.375614017E-2
5.371622820E-1,-1.087340117E-1,-6.108652451E-4,5.619960278E-2
5.391764320E-1,-1.111774743E-1,-2.443460980E-3,5.925392732E-2
5.411607370E-1,-1.123992056E-1,-4.886921961E-3,6.291911751E-2
5.431742710E-1,-1.142318025E-1,-1.099557430E-2,6.414084882E-2
5.451575760E-1,-1.166752651E-1,-1.527163107E-2,6.352998316E-2
5.471723410E-1,-1.154535338E-1,-2.443460934E-2,6.658431143E-2
5.491557230E-1,-1.191187203E-1,-3.481931984E-2,6.780604273E-2
5.511707950E-1,-1.203404516E-1,-3.970624134E-2,6.902777404E-2
5.531532530E-1,-1.185078546E-1,-4.948008433E-2,7.024950534E-2
5.551671730E-1,-1.197295859E-1,-6.414084882E-2,6.963863969E-2
5.571514000E-1,-1.172861308E-1,-6.963863969E-2,6.963863969E-2
5.591655510E-1,-1.209513173E-1,-8.307767659E-2,7.024950534E-2
5.611502390E-1,-1.209513173E-1,-9.101892263E-2,6.841690838E-2
5.631637740E-1,-1.203404516E-1,-1.044579595E-1,6.780604273E-2
5.651766170E-1,-1.203404516E-1,-1.185078546E-1,6.780604273E-2
5.671609980E-1,-1.197295859E-1,-1.258382350E-1,6.414084882E-2
5.691750710E-1,-1.203404516E-1,-1.417207420E-1,6.597344577E-2
5.711582210E-1,-1.221730486E-1,-1.514945775E-1,6.536258012E-2
5.731741410E-1,-1.197295859E-1,-1.600466967E-1,6.658431143E-2
5.751569060E-1,-1.197295859E-1,-1.716531366E-1,6.658431143E-2
5.771699030E-1,-1.203404516E-1,-1.820378453E-1,6.780604273E-2
5.791545150E-1,-1.197295859E-1,-1.893682331E-1,6.841690838E-2
5.811689730E-1,-1.203404516E-1,-1.960877478E-1,6.902777404E-2
5.831516620E-1,-1.160643995E-1,-2.028072625E-1,6.841690838E-2
5.851658120E-1,-1.160643995E-1,-2.058615834E-1,6.841690838E-2
5.871498080E-1,-1.117883399E-1,-2.113593817E-1,7.086037099E-2
5.891636510E-1,-1.111774743E-1,-2.156354338E-1,6.719517708E-2
5.911784940E-1,-1.105666086E-1,-2.156354338E-1,7.024950534E-2
5.931621820E-1,-1.087340117E-1,-2.174680233E-1,6.780604273E-2
5.951757180E-1,-1.044579595E-1,-2.174680233E-1,6.719517708E-2
5.971596370E-1,-1.014036313E-1,-2.162462920E-1,6.536258012E-2
5.991737870E-1,-9.957103431E-2,-2.156354338E-1,6.291911751E-2
6.011583990E-1,-9.773843735E-2,-2.138028294E-1,6.291911751E-2
6.031713960E-1,-9.712757170E-2,-2.095267773E-1,5.742133409E-2
6.051550070E-1,-9.407325089E-2,-2.040289938E-1,5.742133409E-2
6.071694650E-1,-9.346238524E-2,-2.021963894E-1,5.436700583E-2
6.091532310E-1,-9.101892263E-2,-1.948660165E-1,5.192354694E-2
6.111639190E-1,-9.101892263E-2,-1.912008226E-1,4.581489414E-2
6.131802240E-1,-8.918632567E-2,-1.857030392E-1,4.398229718E-2
6.151651430E-1,-8.979719132E-2,-1.802052408E-1,4.031710699E-2
6.171790630E-1,-8.857546002E-2,-1.753183305E-1,4.031710699E-2
6.191632900E-1,-8.735372871E-2,-1.716531366E-1,3.848451003E-2
6.211775180E-1,-8.674286306E-2,-1.655444801E-1,3.726277873E-2
6.231612060E-1,-8.857546002E-2,-1.576032341E-1,3.665191308E-2
6.251747410E-1,-8.613199741E-2,-1.533271819E-1,3.543018550E-2
6.271581220E-1,-8.552113175E-2,-1.466076523E-1,3.543018550E-2
6.291725030E-1,-8.613199741E-2,-1.417207420E-1,3.298672289E-2
6.311571150E-1,-8.735372871E-2,-1.337794960E-1,3.359758854E-2
6.331707270E-1,-8.429940045E-2,-1.301143020E-1,3.420845419E-2
6.351540310E-1,-8.796459436E-2,-1.227839142E-1,3.481931984E-2
6.371681810E-1,-8.552113175E-2,-1.166752651E-1,3.420845419E-2
6.391516400E-1,-8.491026610E-2,-1.069014147E-1,3.665191308E-2
6.411666360E-1,-8.674286306E-2,-1.075122803E-1,3.787364438E-2
6.431494020E-1,-8.674286306E-2,-1.020144969E-1,3.604105115E-2
6.451638590E-1,-8.491026610E-2,-9.651670605E-2,3.909537569E-2
6.471774710E-1,-8.491026610E-2,-9.590584040E-2,3.909537569E-2
6.491610830E-1,-8.735372871E-2,-9.834930301E-2,4.031710699E-2
6.511749250E-1,-8.735372871E-2,-9.834930301E-2,3.970624134E-2
6.531599220E-1,-8.735372871E-2,-9.957103431E-2,3.970624134E-2
6.551736880E-1,-8.796459436E-2,-1.044579595E-1,4.214970022E-2
6.571570690E-1,-8.735372871E-2,-1.075122803E-1,4.153883830E-2
6.591722190E-1,-8.979719132E-2,-1.178969890E-1,4.337143153E-2
6.611556010E-1,-8.918632567E-2,-1.307251602E-1,4.398229718E-2
6.631697510E-1,-9.101892263E-2,-1.368338168E-1,4.520402849E-2
6.651530540E-1,-9.162978828E-2,-1.508837193E-1,4.398229718E-2
6.671665900E-1,-9.101892263E-2,-1.673770845E-1,4.459316283E-2
6.691499700E-1,-9.224065393E-2,-1.765400618E-1,4.520402849E-2
6.711651210E-1,-9.224065393E-2,-1.924225539E-1,4.398229718E-2
6.731487330E-1,-9.285151958E-2,-2.131919712E-1,4.398229718E-2
6.751629600E-1,-9.224065393E-2,-2.241875380E-1,4.337143153E-2
6.771764180E-1,-9.407325089E-2,-2.419026345E-1,4.398229718E-2
6.791601070E-1,-9.407325089E-2,-2.620611787E-1,4.459316283E-2
6.811751800E-1,-9.285151958E-2,-2.730567753E-1,4.337143153E-2
6.831583300E-1,-9.285151958E-2,-2.889392674E-1,4.459316283E-2
6.851718650E-1,-9.712757170E-2,-3.048217595E-1,4.642575979E-2
6.871554770E-1,-9.468411654E-2,-3.121521473E-1,4.825835302E-2
6.891702430E-1,-9.590584040E-2,-3.262020350E-1,5.009094998E-2
6.911527010E-1,-9.285151958E-2,-3.316998184E-1,5.131268129E-2
6.931672360E-1,-9.346238524E-2,-3.445279896E-1,4.948008433E-2
6.951521550E-1,-9.529497474E-2,-3.530801237E-1,5.436700583E-2
6.971650750E-1,-9.468411654E-2,-3.573561609E-1,5.436700583E-2
6.991496870E-1,-9.651670605E-2,-3.652974069E-1,5.864306539E-2
7.011643750E-1,-9.590584040E-2,-3.701843321E-1,5.681046844E-2
7.031785260E-1,-9.651670605E-2,-3.714060783E-1,5.986479297E-2
7.051612910E-1,-9.773843735E-2,-3.750712574E-1,6.230825558E-2
7.071755190E-1,-9.712757170E-2,-3.781255782E-1,6.475171447E-2
7.091591300E-1,-9.651670605E-2,-3.762930036E-1,6.780604273E-2
7.111732810E-1,-9.468411654E-2,-3.769038618E-1,6.841690838E-2
7.131570460E-1,-9.712757170E-2,-3.744603992E-1,6.902777404E-2
7.151708130E-1,-9.590584040E-2,-3.738495409E-1,6.963863969E-2
7.171551160E-1,-9.407325089E-2,-3.701843321E-1,6.902777404E-2
7.191687280E-1,-9.346238524E-2,-3.677408695E-1,7.147123665E-2
7.211530320E-1,-9.407325089E-2,-3.646865487E-1,7.330382615E-2
7.231667980E-1,-9.162978828E-2,-3.604104817E-1,7.635815442E-2
7.251499480E-1,-9.407325089E-2,-3.579670191E-1,7.574728876E-2
7.271640980E-1,-8.918632567E-2,-3.524692357E-1,7.574728876E-2
7.291784800E-1,-8.796459436E-2,-3.512475193E-1,7.635815442E-2
7.311621680E-1,-8.491026610E-2,-3.494149148E-1,7.696902007E-2
7.331775500E-1,-8.552113175E-2,-3.451388776E-1,7.696902007E-2
7.351606230E-1,-8.307767659E-2,-3.420845270E-1,7.696902007E-2
7.371736190E-1,-8.063421398E-2,-3.414736688E-1,7.819075137E-2
7.391576160E-1,-7.452555746E-2,-3.396410644E-1,7.757988572E-2
7.411726890E-1,-7.269296050E-2,-3.378084898E-1,7.819075137E-2
7.431551470E-1,-7.086037099E-2,-3.365867436E-1,7.819075137E-2
7.451699120E-1,-6.780604273E-2,-3.359758854E-1,7.757988572E-2
7.471532940E-1,-6.230825558E-2,-3.329215646E-1,7.513642311E-2
7.491673670E-1,-5.925392732E-2,-3.335324228E-1,7.574728876E-2
7.511514410E-1,-5.681046844E-2,-3.341432810E-1,7.391469181E-2
7.531658980E-1,-5.192354694E-2,-3.310889602E-1,6.902777404E-2
7.551488940E-1,-4.825835302E-2,-3.335324228E-1,7.024950534E-2
7.571633530E-1,-4.581489414E-2,-3.298672438E-1,6.841690838E-2
7.591772720E-1,-4.276056588E-2,-3.298672438E-1,6.536258012E-2
7.611612690E-1,-3.848451003E-2,-3.280346394E-1,6.352998316E-2
7.631744190E-1,-3.359758854E-2,-3.255911767E-1,6.291911751E-2
7.651588010E-1,-3.115412779E-2,-3.262020350E-1,6.108652428E-2
7.671722580E-1,-2.626720630E-2,-3.255911767E-1,6.291911751E-2
7.691565630E-1,-2.382374369E-2,-3.243694305E-1,6.108652428E-2
7.711670970E-1,-2.076941915E-2,-3.243694305E-1,5.864306539E-2
7.731544780E-1,-1.771509275E-2,-3.243694305E-1,6.047565863E-2
7.751683210E-1,-1.466076635E-2,-3.225368559E-1,5.986479297E-2
7.771517020E-1,-1.343903504E-2,-3.243694305E-1,5.803219974E-2
7.791670830E-1,-6.719517522E-3,-3.243694305E-1,6.108652428E-2
7.811507720E-1,-1.221730490E-3,-3.243694305E-1,6.108652428E-2
7.831646150E-1,-1.221730490E-3,-3.231477141E-1,5.986479297E-2
7.851781490E-1,3.054326167E-3,-3.249803185E-1,6.047565863E-2
7.871624540E-1,7.941247895E-3,-3.231477141E-1,5.986479297E-2
7.891762190E-1,9.162978269E-3,-3.268128932E-1,5.864306539E-2
7.911596770E-1,1.282817032E-2,-3.255911767E-1,5.742133409E-2
7.931744430E-1,1.649336144E-2,-3.280346394E-1,5.864306539E-2
7.951571310E-1,1.710422710E-2,-3.274237812E-1,5.681046844E-2
7.971712820E-1,2.199114859E-2,-3.323107064E-1,5.681046844E-2
7.991556630E-1,2.321287990E-2,-3.329215646E-1,5.497787148E-2
8.011703520E-1,2.809980139E-2,-3.390302062E-1,5.558873713E-2
8.031531170E-1,3.054326214E-2,-3.457497358E-1,5.253441259E-2
8.051670370E-1,3.237585723E-2,-3.481931984E-1,5.192354694E-2
8.071504180E-1,3.604105115E-2,-3.579670191E-1,5.070181563E-2
8.091647990E-1,3.848451003E-2,-3.665191531E-1,4.764748737E-2
8.111482570E-1,4.092797264E-2,-3.720169365E-1,4.520402849E-2
8.131639450E-1,4.520402849E-2,-3.854559660E-1,4.581489414E-2
8.151777890E-1,5.131268129E-2,-3.988949955E-1,4.276056588E-2
8.171593230E-1,5.253441259E-2,-4.050036669E-1,4.214970022E-2
8.191750120E-1,5.681046844E-2,-4.227187634E-1,3.848451003E-2
8.211596240E-1,5.986479297E-2,-4.312708676E-1,3.848451003E-2
8.231725440E-1,6.352998316E-2,-4.447098970E-1,3.543018550E-2
8.251559240E-1,6.658431143E-2,-4.612032473E-1,3.359758854E-2
8.271703820E-1,7.024950534E-2,-4.667010605E-1,3.054326214E-2
8.291539940E-1,7.513642311E-2,-4.825835526E-1,2.809980139E-2
8.311687600E-1,8.002334833E-2,-4.990769029E-1,2.687807009E-2
8.331516030E-1,8.063421398E-2,-5.045747161E-1,2.321287990E-2
8.351656760E-1,8.491026610E-2,-5.149593949E-1,2.015855350E-2
8.371490570E-1,9.162978828E-2,-5.271766782E-1,1.404990070E-2
8.391635150E-1,9.101892263E-2,-5.338962078E-1,1.649336144E-2
8.411786660E-1,9.773843735E-2,-5.455026627E-1,1.160643995E-2
8.431617390E-1,1.038470939E-1,-5.552765131E-1,9.162978269E-3
8.451758120E-1,1.075122803E-1,-5.601634383E-1,6.719517522E-3
8.471595780E-1,1.123992056E-1,-5.693264008E-1,1.832595794E-3
8.491733430E-1,1.185078546E-1,-5.748242140E-1,0.000000000E0
8.511568020E-1,1.221730486E-1,-5.803219676E-1,0.000000000E0
8.531702590E-1,1.295034289E-1,-5.839871764E-1,-2.443460980E-3
8.551552560E-1,1.319468915E-1,-5.882632136E-1,-3.665191587E-3
8.571687910E-1,1.398881376E-1,-5.913175344E-1,-4.886921961E-3
8.591524030E-1,1.496619880E-1,-5.931501389E-1,-5.497787148E-3
8.611681680E-1,1.545489132E-1,-5.937610269E-1,-5.497787148E-3
8.631499350E-1,1.631010175E-1,-5.949827433E-1,-6.719517522E-3
8.651644690E-1,1.728748679E-1,-5.962044597E-1,-6.108652335E-3
8.671783110E-1,1.777617931E-1,-5.968153477E-1,-7.941247895E-3
8.691622310E-1,1.844813079E-1,-5.974262357E-1,-6.719517522E-3
8.711767660E-1,1.985312104E-1,-6.035348773E-1,-9.773843922E-3
8.731601470E-1,2.021963894E-1,-6.017022729E-1,-8.552113548E-3
8.751746050E-1,2.150245607E-1,-6.096435189E-1,-7.330383174E-3
8.771579860E-1,2.260201424E-1,-6.145304441E-1,-7.941247895E-3
8.791718290E-1,2.315179259E-1,-6.175847650E-1,-1.038470957E-2
8.811564410E-1,2.455678284E-1,-6.291912198E-1,-1.160643995E-2
8.831702060E-1,2.583959997E-1,-6.389650702E-1,-1.160643995E-2
8.851527410E-1,2.675589919E-1,-6.456845403E-1,-1.343903504E-2
8.871680450E-1,2.822197378E-1,-6.640105247E-1,-1.466076635E-2
8.891508880E-1,2.901609838E-1,-6.707300544E-1,-1.649336144E-2
8.911647310E-1,3.048217595E-1,-6.896668673E-1,-2.015855350E-2
8.931502650E-1,3.219259977E-1,-7.116580009E-1,-2.504547499E-2
8.951634160E-1,3.286454976E-1,-7.244861722E-1,-2.809980139E-2
8.971770270E-1,3.433062732E-1,-7.513642311E-1,-3.481931984E-2
8.991612550E-1,3.604104817E-1,-7.819074988E-1,-4.337143153E-2
9.011754050E-1,3.714060783E-1,-7.959573865E-1,-4.703662544E-2
9.031594010E-1,3.885102868E-1,-8.319984674E-1,-5.864306539E-2
9.051727060E-1,4.086688459E-1,-8.704829812E-1,-7.086037099E-2
9.071567020E-1,4.208861589E-1,-8.912523985E-1,-7.757988572E-2
9.091704680E-1,4.434881806E-1,-9.352346659E-1,-9.162978828E-2
9.111542330E-1,4.667010605E-1,-9.816604257E-1,-1.105666086E-1
9.131686920E-1,4.795292318E-1,-1.007316828E0,-1.172861308E-1
9.151520720E-1,5.033529401E-1,-1.058629513E0,-1.386664063E-1
9.171667620E-1,5.277875662E-1,-1.108720422E0,-1.618792862E-1
9.191499120E-1,5.406157374E-1,-1.139263630E0,-1.722639948E-1
9.211652150E-1,5.687155724E-1,-1.192408919E0,-1.991420686E-1
9.231479810E-1,5.827654600E-1,-1.219897866E0,-2.089159191E-1
9.251618240E-1,6.096435189E-1,-1.275486588E0,-2.370157093E-1
9.271763590E-1,6.395758986E-1,-1.329853654E0,-2.645046413E-1
9.291599710E-1,6.560692787E-1,-1.353066564E0,-2.779437006E-1
9.311708140E-1,6.872233748E-1,-1.402546644E0,-3.084869385E-1
9.331571940E-1,7.165449262E-1,-1.451415777E0,-3.365867436E-1
9.351722680E-1,7.318165898E-1,-1.472185254E0,-3.506366611E-1
9.371550330E-1,7.648032904E-1,-1.515556693E0,-3.817907870E-1
9.391697990E-1,7.941248417E-1,-1.559538960E0,-4.117231667E-1
9.411544110E-1,8.087855577E-1,-1.579086661E0,-4.282165468E-1
9.431670220E-1,8.417723179E-1,-1.612073421E0,-4.575380683E-1
9.451507890E-1,8.698720932E-1,-1.648725271E0,-4.880813360E-1
9.471651690E-1,8.845328689E-1,-1.666440368E0,-5.039638281E-1
9.491486280E-1,9.144652486E-1,-1.696983695E0,-5.345070958E-1
9.511637010E-1,9.334021211E-1,-1.711033583E0,-5.479460955E-1
9.531769290E-1,9.596692920E-1,-1.737911582E0,-5.772676468E-1
9.551612320E-1,9.908234477E-1,-1.764178872E0,-6.084218025E-1
9.571743820E-1,1.008538485E0,-1.776396155E0,-6.194173694E-1
9.591584560E-1,1.039081812E0,-1.797776461E0,-6.499606371E-1
9.611737600E-1,1.072679400E0,-1.822821856E0,-6.756169796E-1
9.631559880E-1,1.089783549E0,-1.835039139E0,-6.878342628E-1
9.651704450E-1,1.121548533E0,-1.855197787E0,-7.177666426E-1
9.671541340E-1,1.154535294E0,-1.875356317E0,-7.409795523E-1
9.691688230E-1,1.170417786E0,-1.885740995E0,-7.550294399E-1
9.711513580E-1,1.205237150E0,-1.902845263E0,-7.812966704E-1
9.731669700E-1,1.244332552E0,-1.919949412E0,-8.081747293E-1
9.751500430E-1,1.262047648E0,-1.929112434E0,-8.179485798E-1
9.771633470E-1,1.302364707E0,-1.942551494E0,-8.442157507E-1
9.791781120E-1,1.339016676E0,-1.956601381E0,-8.692612648E-1
9.811629560E-1,1.356731653E0,-1.961488247E0,-8.796459436E-1
9.831758750E-1,1.398270488E0,-1.972483873E0,-9.065240026E-1
9.851593330E-1,1.417207360E0,-1.975538254E0,-9.193521738E-1
9.871743290E-1,1.455691934E0,-1.987755537E0,-9.425650835E-1
9.891571720E-1,1.496619821E0,-1.998140216E0,-9.669997096E-1
9.911719380E-1,1.515556693E0,-2.003638029E0,-9.798278809E-1
9.931553190E-1,1.555262923E0,-2.010968447E0,-1.004262447E0
9.951694690E-1,1.594358325E0,-2.019520521E0,-1.027475357E0
9.971536960E-1,1.613295078E0,-2.020742178E0,-1.040914416E0
9.991663080E-1,1.652390480E0,-2.029905319E0,-1.064738154E0
1.001151535E0,1.689042449E0,-2.036013842E0,-1.089783549E0
1.003164455E0,1.708590150E0,-2.038457394E0,-1.103222609E0
1.005148451E0,1.742187738E0,-2.045176744E0,-1.128268123E0
1.007162679E0,1.781283021E0,-2.053729057E0,-1.153313637E0
1.009177059E0,1.800219893E0,-2.058005095E0,-1.169196129E0
1.011160133E0,1.839926124E0,-2.065946341E0,-1.194852471E0
1.013173668E0,1.880854130E0,-2.076941729E0,-1.225395679E0
1.015158664E0,1.902234316E0,-2.084272146E0,-1.237002134E0
1.017172122E0,1.944384098E0,-2.092824221E0,-1.268156290E0
1.019155888E0,1.966375232E0,-2.101376534E0,-1.284649611E0
1.021171192E0,2.010357618E0,-2.112982988E0,-1.318247199E0
1.023154265E0,2.051896334E0,-2.125811100E0,-1.354288220E0
1.025168108E0,2.075109243E0,-2.134974003E0,-1.373835921E0
1.027151489E0,2.112982988E0,-2.145358801E0,-1.412320495E0
1.029166025E0,2.149634838E0,-2.157576084E0,-1.455080986E0
1.031150867E0,2.167349815E0,-2.159408569E0,-1.477072120E0
1.033163478E0,2.201558352E0,-2.166738987E0,-1.522887111E0
1.035177321E0,2.230879784E0,-2.169793367E0,-1.565036774E0
1.037161086E0,2.245540619E0,-2.171625853E0,-1.588249683E0
1.039175237E0,2.272418737E0,-2.169182539E0,-1.635286212E0
1.041159849E0,2.298686028E0,-2.167960644E0,-1.681101203E0
1.043173615E0,2.309681416E0,-2.166128159E0,-1.701870561E0
1.045156996E0,2.332894325E0,-2.160019398E0,-1.747074604E0
1.047171223E0,2.351220369E0,-2.151467323E0,-1.792278647E0
1.049154604E0,2.362826824E0,-2.146580458E0,-1.809993744E0
1.051168061E0,2.382374525E0,-2.138028383E0,-1.852143407E0
1.053152982E0,2.392148256E0,-2.130697966E0,-1.873523712E0
1.055166901E0,2.408641577E0,-2.123367548E0,-1.913229942E0
1.057149052E0,2.427578449E0,-2.116037130E0,-1.951103568E0
1.059164432E0,2.432465315E0,-2.110539436E0,-1.970651269E0
1.061148429E0,2.449569702E0,-2.100765467E0,-2.009135723E0
1.063161964E0,2.464841366E0,-2.089159250E0,-2.045787811E0
1.065176422E0,2.474004269E0,-2.084882975E0,-2.060448408E0
1.067160034E0,2.486832380E0,-2.072665691E0,-2.095878601E0
1.069173876E0,2.502714872E0,-2.062281132E0,-2.125811100E0
1.071157873E0,2.510656118E0,-2.056783199E0,-2.143526077E0
1.073171792E0,2.524095297E0,-2.044565916E0,-2.175901890E0
1.075155481E0,2.538145065E0,-2.031737804E0,-2.206445217E0
1.077169631E0,2.544253826E0,-2.026240110E0,-2.222327709E0
1.079153243E0,2.556471109E0,-2.015855312E0,-2.254703522E0
1.081167470E0,2.574186087E0,-2.008524895E0,-2.288301229E0
1.083151159E0,2.584570885E0,-2.007914066E0,-2.306627274E0
1.085165540E0,2.601675034E0,-1.998751044E0,-2.342057467E0
1.087149228E0,2.610838175E0,-1.995696783E0,-2.363437653E0
1.089162764E0,2.621222734E0,-1.987144589E0,-2.403143883E0
1.091172914E0,2.629163980E0,-1.976759911E0,-2.444071770E0
1.093160988E0,2.629774809E0,-1.967597008E0,-2.466063023E0
1.095174830E0,2.638326883E0,-1.951103568E0,-2.509434462E0
1.097158750E0,2.645657301E0,-1.931555867E0,-2.550362349E0
1.099172284E0,2.649933338E0,-1.919949412E0,-2.571742773E0
1.101156974E0,2.659707308E0,-1.896736622E0,-2.615725040E0
1.103171354E0,2.667648554E0,-1.871691108E0,-2.659096479E0
1.105154119E0,2.671313763E0,-1.858862996E0,-2.682309389E0
1.107168655E0,2.677422285E0,-1.834428310E0,-2.720793724E0
1.109151651E0,2.682920218E0,-1.804495931E0,-2.765387058E0
1.111167109E0,2.682309389E0,-1.789835215E0,-2.784323692E0
1.113150798E0,2.682309389E0,-1.757459283E0,-2.827695131E0
1.115163949E0,2.680476665E0,-1.740965962E0,-2.848464727E0
1.117178406E0,2.676811457E0,-1.709811807E0,-2.886338234E0
1.119161557E0,2.668870211E0,-1.670105577E0,-2.923601151E0
1.121176322E0,2.665815830E0,-1.649947047E0,-2.943148851E0
1.123159626E0,2.661539793E0,-1.610851645E0,-2.981633186E0
1.125174161E0,2.652987719E0,-1.568701982E0,-3.011565685E0
1.127157542E0,2.649933338E0,-1.546710849E0,-3.028059006E0
1.129172001E0,2.645046473E0,-1.500895858E0,-3.058602333E0
1.131154766E0,2.637105227E0,-1.456913590E0,-3.085480452E0
1.133170378E0,2.634050846E0,-1.433089852E0,-3.098308563E0
1.135153836E0,2.627331495E0,-1.382998943E0,-3.120299578E0
1.137166140E0,2.618779421E0,-1.334129691E0,-3.137403965E0
1.139151598E0,2.616335869E0,-1.310305953E0,-3.146566868E0
1.141166056E0,2.608394623E0,-1.258993268E0,-3.161838531E0
1.143149206E0,2.598009825E0,-1.210124016E0,-3.175277472E0
1.145162664E0,2.596177340E0,-1.185689449E0,-3.182607889E0
1.147177122E0,2.589457750E0,-1.137431145E0,-3.189327478E0
1.149160503E0,2.586403370E0,-1.112996459E0,-3.196047068E0
1.151175654E0,2.579684019E0,-1.070235968E0,-3.204599142E0
1.153158958E0,2.570520878E0,-1.023810148E0,-3.214372873E0
1.155172493E0,2.566855669E0,-1.005484223E0,-3.219870806E0
1.157155643E0,2.561968803E0,-9.718865752E-1,-3.227812052E0
1.159170331E0,2.555249214E0,-9.450085163E-1,-3.238196611E0
1.161154636E0,2.552805901E0,-9.327912331E-1,-3.241861820E0
1.163167940E0,2.547307968E0,-9.138544202E-1,-3.255911827E0
1.165151321E0,2.546086311E0,-9.046914577E-1,-3.265685558E0
1.167166087E0,2.540588617E0,-9.004153609E-1,-3.271794319E0
1.169149776E0,2.537534237E0,-9.053022861E-1,-3.285233259E0
1.171163233E0,2.534479856E0,-9.138544202E-1,-3.301726580E0
1.173177384E0,2.530814648E0,-9.205739498E-1,-3.307835340E0
1.175161996E0,2.527760267E0,-9.413433671E-1,-3.323717833E0
1.177175222E0,2.526538610E0,-9.682214260E-1,-3.342654705E0
1.179158912E0,2.522262573E0,-9.816604257E-1,-3.351206779E0
1.181175292E0,2.522262573E0,-1.013425469E0,-3.368310928E0
1.183157366E0,2.522262573E0,-1.033583999E0,-3.377473831E0
1.185170901E0,2.522873402E0,-1.069014192E0,-3.399465084E0
1.187155205E0,2.519819021E0,-1.106887817E0,-3.422677994E0
1.189169432E0,2.518597364E0,-1.125824690E0,-3.433062792E0
1.191154275E0,2.512488842E0,-1.164919972E0,-3.459329844E0
1.193166656E0,2.508212805E0,-1.204626322E0,-3.484986305E0
1.195150961E0,2.505158424E0,-1.226617455E0,-3.496592760E0
1.197164495E0,2.495384455E0,-1.264491081E0,-3.524692535E0
1.199148183E0,2.488665104E0,-1.301142931E0,-3.555235624E0
1.201163565E0,2.483167171E0,-1.319468975E0,-3.569285631E0
1.203176176E0,2.476447821E0,-1.351844788E0,-3.605326653E0
1.205160173E0,2.471560717E0,-1.381166339E0,-3.638924360E0
1.207175246E0,2.467284679E0,-1.396438003E0,-3.656639338E0
1.209157628E0,2.459343433E0,-1.423926830E0,-3.695123911E0
1.211171470E0,2.444682598E0,-1.445918083E0,-3.734830141E0
1.213157083E0,2.437352419E0,-1.455080986E0,-3.754988670E0
1.215170002E0,2.415361166E0,-1.467909217E0,-3.795305729E0
1.217153382E0,2.403754711E0,-1.474017859E0,-3.814853430E0
1.219167533E0,2.376265764E0,-1.482569933E0,-3.852727175E0
1.221152145E0,2.351831198E0,-1.489900351E0,-3.886324644E0
1.223165988E0,2.338392258E0,-1.491122007E0,-3.902207136E0
1.225149291E0,2.309070587E0,-1.491732955E0,-3.932139635E0
1.227163519E0,2.281581640E0,-1.487456918E0,-3.957795858E0
1.229177669E0,2.263255835E0,-1.483791709E0,-3.971235037E0
1.231161666E0,2.233934164E0,-1.472185254E0,-3.991393566E0
1.233175124E0,2.202169180E0,-1.456302762E0,-4.006054401E0
1.235159120E0,2.187508345E0,-1.448361516E0,-4.015217304E0
1.237173040E0,2.160019398E0,-1.428813815E0,-4.018271446E0
1.239156728E0,2.132530689E0,-1.404379249E0,-4.024380207E0
1.241172340E0,2.120313168E0,-1.392161846E0,-4.025601864E0
1.243155106E0,2.096489429E0,-1.368338108E0,-4.026212692E0
1.245168718E0,2.087326527E0,-1.357953429E0,-4.024380207E0
1.247151714E0,2.064113617E0,-1.329242826E0,-4.019493103E0
1.249166788E0,2.036013842E0,-1.299921274E0,-4.017660618E0
1.251149938E0,2.023796558E0,-1.289536476E0,-4.014606476E0
1.253163395E0,1.996307611E0,-1.263269305E0,-4.011551857E0
1.255178162E0,1.970651269E0,-1.235780358E0,-4.006665230E0
1.257162234E0,1.955379605E0,-1.224784851E0,-4.004832745E0
1.259176001E0,1.929112434E0,-1.200350165E0,-4.002999783E0
1.261160920E0,1.903456092E0,-1.180191636E0,-4.006054401E0
1.263174224E0,1.893682241E0,-1.172250390E0,-4.002999783E0
1.265157528E0,1.870469332E0,-1.154535294E0,-4.006665230E0
1.267171756E0,1.849089146E0,-1.142318010E0,-4.007886887E0
1.269155675E0,1.836260915E0,-1.136820197E0,-4.008497715E0
1.271170133E0,1.814269781E0,-1.131322384E0,-4.013384819E0
1.273153514E0,1.791056871E0,-1.132544160E0,-4.018271446E0
1.275167356E0,1.786780834E0,-1.134987593E0,-4.017660618E0
1.277151123E0,1.770287514E0,-1.139874578E0,-4.022547722E0
1.279165888E0,1.767843962E0,-1.140485406E0,-4.031099796E0
1.281149577E0,1.759902716E0,-1.142318010E0,-4.045760632E0
1.283163035E0,1.747074604E0,-1.140485406E0,-4.062253952E0
1.285177262E0,1.738522530E0,-1.141096234E0,-4.072027683E0
1.287160874E0,1.717142224E0,-1.134376764E0,-4.098294735E0
1.289175101E0,1.695151091E0,-1.128878951E0,-4.118453503E0
1.291158713E0,1.684155464E0,-1.125824690E0,-4.130671024E0
1.293173171E0,1.660331726E0,-1.116050839E0,-4.156938076E0
1.295157475E0,1.633453608E0,-1.105055213E0,-4.175874710E0
1.297170164E0,1.623068929E0,-1.100779176E0,-4.187481403E0
1.299154468E0,1.594358325E0,-1.083064079E0,-4.208250523E0
1.301169233E0,1.562593341E0,-1.058629513E0,-4.222300529E0
1.303152846E0,1.545489073E0,-1.047023058E0,-4.230241776E0
1.305166688E0,1.518000126E0,-1.012203693E0,-4.242459297E0
1.307149839E0,1.485624313E0,-9.694431424E-1,-4.246735096E0
1.309164219E0,1.470352650E0,-9.474520087E-1,-4.247345924E0
1.311148600E0,1.445918083E0,-8.943067193E-1,-4.243070126E0
1.313162366E0,1.430035591E0,-8.686503768E-1,-4.243070126E0
1.315175593E0,1.404379249E0,-8.118399382E-1,-4.236350536E0
1.317159898E0,1.373225093E0,-7.489207983E-1,-4.231463432E0
1.319173740E0,1.356120825E0,-7.171558142E-1,-4.225354671E0
1.321158968E0,1.317636371E0,-6.517932415E-1,-4.216802597E0
1.323171271E0,1.284038782E0,-5.876523852E-1,-4.202753067E0
1.325154730E0,1.267545342E0,-5.528330207E-1,-4.197255135E0
1.327168803E0,1.238223910E0,-4.874704778E-1,-4.184426785E0
1.329153107E0,1.213789225E0,-4.214970171E-1,-4.165490150E0
1.331163257E0,1.200350165E0,-3.946189582E-1,-4.156327248E0
1.333181177E0,1.179580808E0,-3.347541690E-1,-4.136168480E0
1.335164789E0,1.153924465E0,-2.791654170E-1,-4.114177227E0
1.337148785E0,1.139874578E0,-2.571742535E-1,-4.102571011E0
1.339162397E0,1.116050839E0,-2.193006277E-1,-4.083023071E0
1.341177778E0,1.091005325E0,-1.857030392E-1,-4.063475609E0
1.343161083E0,1.078177214E0,-1.722639948E-1,-4.050647259E0
1.345174079E0,1.053742528E0,-1.582140923E-1,-4.032932281E0
1.347158305E0,1.036027431E0,-1.545489132E-1,-4.022547722E0
1.349172226E0,1.012203693E0,-1.600466967E-1,-4.006665230E0
1.351156837E0,9.834930301E-1,-1.789835095E-1,-3.990782738E0
1.353170680E0,9.694431424E-1,-1.887573600E-1,-3.985895634E0
1.355153445E0,9.425650835E-1,-2.247984111E-1,-3.973678350E0
1.357167904E0,9.169087410E-1,-2.712241709E-1,-3.962071896E0
1.359151823E0,9.004153609E-1,-2.962696552E-1,-3.958406687E0
1.361167512E0,8.747590184E-1,-3.500257730E-1,-3.950465441E0
1.363149124E0,8.466592431E-1,-4.111123085E-1,-3.937637329E0
1.365164120E0,8.356636763E-1,-4.440990388E-1,-3.931528807E0
1.367147270E0,8.075638413E-1,-5.106833577E-1,-3.926030874E0
1.369161113E0,7.757988572E-1,-5.766568184E-1,-3.912591934E0
1.371175571E0,7.605272532E-1,-6.102544069E-1,-3.908926725E0
1.373159798E0,7.275404930E-1,-6.798930168E-1,-3.897320271E0
1.375173103E0,6.963863969E-1,-7.483099103E-1,-3.885713816E0
1.377156483E0,6.811147332E-1,-7.825183868E-1,-3.877772570E0
1.379172173E0,6.487388611E-1,-8.472700715E-1,-3.866776943E0
1.381156169E0,6.346889734E-1,-8.833111525E-1,-3.860668421E0
1.383169318E0,6.059783101E-1,-9.474520087E-1,-3.848451138E0
1.385152085E0,5.760459304E-1,-1.006705880E0,-3.835622787E0
1.387166619E0,5.644394755E-1,-1.040914416E0,-3.830125093E0
1.389150232E0,5.357288122E-1,-1.092227101E0,-3.820962191E0
1.391165074E0,5.088507533E-1,-1.141707182E0,-3.816686153E0
1.393148378E0,4.893030524E-1,-1.162476540E0,-3.815464258E0
1.395162836E0,4.538728893E-1,-1.204015374E0,-3.817907810E0
1.397176448E0,4.190535545E-1,-1.243721604E0,-3.819740295E0
1.399160983E0,4.013384581E-1,-1.260215044E0,-3.819129467E0
1.401174286E0,3.634648323E-1,-1.286482215E0,-3.830125093E0
1.403157668E0,3.280346394E-1,-1.310305953E0,-3.836233854E0
1.405172664E0,3.115412891E-1,-1.318858027E0,-3.842342377E0
1.407155815E0,2.730567753E-1,-1.332907915E0,-3.850894451E0
1.409169888E0,2.547308207E-1,-1.339627504E0,-3.857003212E0
1.411153039E0,2.156354338E-1,-1.337794900E0,-3.869831324E0
1.413167496E0,1.765400618E-1,-1.330464482E0,-3.876550913E0
1.415151416E0,1.545489132E-1,-1.321912408E0,-3.878994226E0
1.417165643E0,1.105666086E-1,-1.301753879E0,-3.883881330E0
1.419149024E0,7.024950534E-2,-1.271821499E0,-3.881437778E0
1.421164098E0,5.314527452E-2,-1.252273798E0,-3.878994226E0
1.423177632E0,1.710422710E-2,-1.211345792E0,-3.873496532E0
1.425161014E0,-1.771509275E-2,-1.158200502E0,-3.863722563E0
1.427175471E0,-3.726277873E-2,-1.130100727E0,-3.855781317E0
1.429159084E0,-7.269296050E-2,-1.069625020E0,-3.835011959E0
1.431173541E0,-1.075122803E-1,-9.999864101E-1,-3.807523012E0
1.433156307E0,-1.233947799E-1,-9.669997096E-1,-3.791029692E0
1.435171073E0,-1.557706445E-1,-8.930850029E-1,-3.759264708E0
1.437154530E0,-1.820378453E-1,-8.173376918E-1,-3.719558477E0
1.439168604E0,-1.973094791E-1,-7.770205736E-1,-3.700010777E0
1.441153293E0,-2.211332172E-1,-6.957755089E-1,-3.652363300E0
1.443166213E0,-2.339613885E-1,-6.536257863E-1,-3.629761219E0
1.445149593E0,-2.535090744E-1,-5.705481172E-1,-3.578448534E0
1.447164283E0,-2.755002379E-1,-4.929682612E-1,-3.521638155E0
1.449147663E0,-2.858849466E-1,-4.532620013E-1,-3.495981693E0
1.451161506E0,-3.084869385E-1,-3.756821156E-1,-3.439782143E0
1.453176887E0,-3.316998184E-1,-3.048217595E-1,-3.383582592E0
1.455160344E0,-3.408628106E-1,-2.730567753E-1,-3.354871988E0
1.457173572E0,-3.597996235E-1,-2.089159191E-1,-3.298061371E0
1.459157568E0,-3.769038618E-1,-1.576032341E-1,-3.239418507E0
1.461172258E0,-3.885102868E-1,-1.307251602E-1,-3.210096836E0
1.463155100E0,-3.995058835E-1,-8.857546002E-2,-3.153286457E0
1.465169251E0,-4.129449129E-1,-5.314527452E-2,-3.101362944E0
1.467152939E0,-4.172209501E-1,-3.726277873E-2,-3.073262930E0
1.469167705E0,-4.276056588E-1,-1.527163107E-2,-3.018896103E0
1.471151086E0,-4.318817258E-1,0.000000000E0,-2.991407156E0
1.473164851E0,-4.410447180E-1,4.886921961E-3,-2.939483643E0
1.475149156E0,-4.489859641E-1,3.665191587E-3,-2.890003443E0
1.477163075E0,-4.508185387E-1,3.054326167E-3,-2.863736153E0
1.479177226E0,-4.569272101E-1,-9.162978269E-3,-2.817921400E0
1.481161529E0,-4.612032473E-1,-2.993239649E-2,-2.772717237E0
1.483174449E0,-4.648684561E-1,-4.276056588E-2,-2.750115395E0
1.485158445E0,-4.654793143E-1,-7.880161703E-2,-2.709798336E0
1.487171673E0,-4.654793143E-1,-1.197295859E-1,-2.671924591E0
1.489156515E0,-4.624249935E-1,-1.429424733E-1,-2.652376890E0
1.491167050E0,-4.642575979E-1,-1.966986060E-1,-2.619390249E0
1.493153431E0,-4.660901725E-1,-2.553416789E-1,-2.589457750E0
1.495167889E0,-4.667010605E-1,-2.858849466E-1,-2.579072952E0
1.497151963E0,-4.728097022E-1,-3.512475193E-1,-2.552195072E0
1.499166113E0,-4.813618064E-1,-4.178318381E-1,-2.532036543E0
1.501151033E0,-4.844161272E-1,-4.508185387E-1,-2.521651745E0
1.503163875E0,-4.941899776E-1,-5.186246037E-1,-2.507601738E0
1.505147333E0,-4.960225821E-1,-5.522221923E-1,-2.500271559E0
1.507161483E0,-5.070181489E-1,-6.212499738E-1,-2.489275932E0
1.509175864E0,-5.186246037E-1,-6.829473376E-1,-2.479501963E0
1.511159323E0,-5.204572082E-1,-7.147123218E-1,-2.475836754E0
1.513174319E0,-5.332853794E-1,-7.690793276E-1,-2.465452194E0
1.515157162E0,-5.436700583E-1,-8.228355050E-1,-2.457510948E0
1.517171542E0,-5.479460955E-1,-8.460483551E-1,-2.452013016E0
1.519155232E0,-5.577199459E-1,-8.869763613E-1,-2.441628456E0
1.521170305E0,-5.662720799E-1,-9.230173826E-1,-2.432465315E0
1.523153148E0,-5.711590052E-1,-9.388998747E-1,-2.424524069E0
1.525166990E0,-5.778785348E-1,-9.645562172E-1,-2.408641577E0
1.527150371E0,-5.888741016E-1,-9.828822017E-1,-2.392148256E0
1.529165060E0,-5.907067060E-1,-9.883799553E-1,-2.383596182E0
1.531147825E0,-6.010913849E-1,-9.938777685E-1,-2.360383272E0
1.533162976E0,-6.114761233E-1,-9.914342761E-1,-2.337781191E0
1.535177049E0,-6.169738770E-1,-9.908234477E-1,-2.326174736E0
1.537159892E0,-6.285803318E-1,-9.822713137E-1,-2.302350998E0
1.539174350E0,-6.352998614E-1,-9.743300676E-1,-2.287079573E0
1.541160116E0,-6.432411075E-1,-9.584475756E-1,-2.259590626E0
1.543171881E0,-6.456845403E-1,-9.437867999E-1,-2.229047298E0
1.545155878E0,-6.487388611E-1,-9.340129495E-1,-2.213164806E0
1.547170336E0,-6.475171447E-1,-9.126327038E-1,-2.180178165E0
1.549154024E0,-6.438519955E-1,-8.918632865E-1,-2.145969629E0
1.551169021E0,-6.450737119E-1,-8.796459436E-1,-2.125811100E0
1.553151555E0,-6.420193911E-1,-8.588765264E-1,-2.084272146E0
1.555165629E0,-6.401867867E-1,-8.405506015E-1,-2.044565916E0
1.557149318E0,-6.389650702E-1,-8.313875794E-1,-2.021353006E0
1.559163545E0,-6.359107494E-1,-8.130616546E-1,-1.977981687E0
1.561147772E0,-6.328563690E-1,-7.959573865E-1,-1.927890658E0
1.563161615E0,-6.310238242E-1,-7.874053121E-1,-1.907121301E0
1.565175457E0,-6.304129362E-1,-7.690793276E-1,-1.860084653E0
1.567159530E0,-6.322455406E-1,-7.550294399E-1,-1.814269781E0
1.569173681E0,-6.316346526E-1,-7.470881939E-1,-1.791667819E0
1.571156446E0,-6.334672570E-1,-7.342600226E-1,-1.748296380E0
1.573170213E0,-6.334672570E-1,-7.299839854E-1,-1.726916075E0
1.575154593E0,-6.359107494E-1,-7.171558142E-1,-1.687820673E0
1.577169283E0,-6.352998614E-1,-7.067710757E-1,-1.649947047E0
1.579152125E0,-6.328563690E-1,-7.018841505E-1,-1.631010175E0
1.581167199E0,-6.273586154E-1,-6.963863969E-1,-1.595579982E0
1.583150810E0,-6.255260110E-1,-6.908885837E-1,-1.561982393E0
1.585164960E0,-6.261368990E-1,-6.884451509E-1,-1.546099901E0
1.587148111E0,-6.224716902E-1,-6.860016584E-1,-1.518610954E0
1.589162491E0,-6.175847650E-1,-6.841690540E-1,-1.490511179E0
1.591177258E0,-6.145304441E-1,-6.853908300E-1,-1.476461291E0
1.593159715E0,-6.108652353E-1,-6.811147332E-1,-1.453859329E0
1.595174174E0,-6.065891981E-1,-6.786713004E-1,-1.433089852E0
1.597157631E0,-6.059783101E-1,-6.805039048E-1,-1.420872569E0
1.599172013E0,-5.992587805E-1,-6.829473376E-1,-1.403157473E0
1.601156086E0,-5.992587805E-1,-6.792821288E-1,-1.384831548E0
1.603169543E0,-5.980370641E-1,-6.792821288E-1,-1.374446750E0
1.605153310E0,-5.937610269E-1,-6.774495840E-1,-1.361007810E0
1.607167383E0,-5.943718553E-1,-6.756169796E-1,-1.353677392E0
1.609150841E0,-5.913175344E-1,-6.725626588E-1,-1.339016676E0
1.611164914E0,-5.925393105E-1,-6.658431292E-1,-1.327410221E0
1.613149603E0,-5.900958180E-1,-6.603453159E-1,-1.318858027E0
1.615163984E0,-5.876523852E-1,-6.517932415E-1,-1.307862520E0
1.617146135E0,-5.876523852E-1,-6.383541822E-1,-1.295034289E0
1.619161285E0,-5.876523852E-1,-6.322455406E-1,-1.287703991E0
1.621175742E0,-5.815436840E-1,-6.139195561E-1,-1.272432327E0
1.623159662E0,-5.772676468E-1,-5.925393105E-1,-1.255328059E0
1.625173197E0,-5.723807216E-1,-5.803219676E-1,-1.247386813E0
1.627156348E0,-5.681046844E-1,-5.540547967E-1,-1.228450060E0
1.629170497E0,-5.601634383E-1,-5.277875662E-1,-1.209513187E0
1.631155417E0,-5.564982295E-1,-5.125159621E-1,-1.197295904E0
1.633168029E0,-5.473352671E-1,-4.862487316E-1,-1.175915599E0
1.635152257E0,-5.467243791E-1,-4.703662395E-1,-1.162476540E0
1.637166099E0,-5.412266254E-1,-4.428772926E-1,-1.136820197E0
1.639150480E0,-5.332853794E-1,-4.135557711E-1,-1.109331250E0
1.641164553E0,-5.283984542E-1,-3.964515328E-1,-1.094670534E0
1.643147934E0,-5.192354321E-1,-3.695734739E-1,-1.068403363E0
1.645161546E0,-5.106833577E-1,-3.390302062E-1,-1.038470864E0
1.647175927E0,-5.045747161E-1,-3.268128932E-1,-1.026253581E0
1.649159693E0,-4.899139404E-1,-3.023782969E-1,-9.944885969E-1
1.651170151E0,-4.752531648E-1,-2.767219543E-1,-9.651671052E-1
1.653156532E0,-4.679227769E-1,-2.675589919E-1,-9.492846131E-1
1.655171990E0,-4.563163519E-1,-2.443460971E-1,-9.187413454E-1
1.657155910E0,-4.471533597E-1,-2.309070677E-1,-8.949176073E-1
1.659168906E0,-4.410447180E-1,-2.241875380E-1,-8.820894361E-1
1.661154671E0,-4.312708676E-1,-2.150245607E-1,-8.582656980E-1
1.663167976E0,-4.251621962E-1,-2.125810981E-1,-8.399397135E-1
1.665151280E0,-4.184426963E-1,-2.156354338E-1,-8.283332586E-1
1.667165200E0,-4.098905921E-1,-2.186897546E-1,-8.100073338E-1
1.669148273E0,-4.050036669E-1,-2.217440903E-1,-8.032878041E-1
1.671163039E0,-3.952298164E-1,-2.370157093E-1,-7.880161405E-1
1.673177420E0,-3.878994286E-1,-2.553416789E-1,-7.745771408E-1
1.675160570E0,-3.830125034E-1,-2.681698501E-1,-7.678576112E-1
1.677175028E0,-3.695734739E-1,-2.938261926E-1,-7.544185519E-1
1.679158101E0,-3.610213697E-1,-3.219259977E-1,-7.452555895E-1
1.681173406E0,-3.549126983E-1,-3.365867436E-1,-7.391469479E-1
1.683157094E0,-3.494149148E-1,-3.659082949E-1,-7.293730974E-1
1.685170937E0,-3.402519524E-1,-3.995058835E-1,-7.214318514E-1
1.687154010E0,-3.371976018E-1,-4.153883755E-1,-7.147123218E-1
1.689167930E0,-3.286454976E-1,-4.477642179E-1,-7.079927921E-1
1.691151234E0,-3.176499307E-1,-4.758640230E-1,-6.976081133E-1
1.693166077E0,-3.145956099E-1,-4.862487316E-1,-6.927211881E-1
1.695149765E0,-3.036000133E-1,-5.100724697E-1,-6.805039048E-1
1.697162992E0,-2.889392674E-1,-5.283984542E-1,-6.670648456E-1
1.699177681E0,-2.834414840E-1,-5.357288122E-1,-6.609562039E-1
1.701162370E0,-2.693915665E-1,-5.497786999E-1,-6.407976151E-1
1.703176136E0,-2.620611787E-1,-5.564982295E-1,-6.291912198E-1
1.705159209E0,-2.480112910E-1,-5.626068711E-1,-6.096435189E-1
1.707173129E0,-2.382374406E-1,-5.674937963E-1,-5.882632136E-1
1.709157048E0,-2.351831198E-1,-5.674937963E-1,-5.784893632E-1
1.711171506E0,-2.223549485E-1,-5.656611919E-1,-5.540547967E-1
1.713154964E0,-2.101376504E-1,-5.650503635E-1,-5.332853794E-1
1.715169652E0,-2.064724565E-1,-5.638286471E-1,-5.198463202E-1
1.717152803E0,-1.936442852E-1,-5.619960427E-1,-5.027421117E-1
1.719167184E0,-1.863138974E-1,-5.522221923E-1,-4.801400900E-1
1.721151488E0,-1.795943826E-1,-5.473352671E-1,-4.728097022E-1
1.723164792E0,-1.667662114E-1,-5.393940210E-1,-4.532620013E-1
1.725148174E0,-1.569923609E-1,-5.265658498E-1,-4.373795092E-1
1.727162939E0,-1.533271819E-1,-5.210680366E-1,-4.318817258E-1
1.729176474E0,-1.447750628E-1,-5.064072609E-1,-4.184426963E-1
1.731160778E0,-1.374446750E-1,-4.911356568E-1,-4.098905921E-1
1.733173697E0,-1.319468915E-1,-4.813618064E-1,-4.050036669E-1
1.735158617E0,-1.276708394E-1,-4.599815309E-1,-3.958406746E-1
1.737172152E0,-1.240056455E-1,-4.495968223E-1,-3.921754956E-1
1.739155841E0,-1.203404516E-1,-4.306600094E-1,-3.885102868E-1
1.741170606E0,-1.160643995E-1,-4.056145251E-1,-3.830125034E-1
1.743153911E0,-1.117883399E-1,-3.940080702E-1,-3.799581826E-1
1.745168138E0,-1.093448773E-1,-3.677408695E-1,-3.775147200E-1
1.747151212E0,-1.050688252E-1,-3.420845270E-1,-3.720169365E-1
1.749165592E0,-1.044579595E-1,-3.286454976E-1,-3.714060783E-1
1.751150511E0,-1.020144969E-1,-3.011565804E-1,-3.640756905E-1
1.753163201E0,-9.773843735E-2,-2.785545588E-1,-3.597996235E-1
1.755146812E0,-9.834930301E-2,-2.669481039E-1,-3.573561609E-1
1.757161040E0,-9.468411654E-2,-2.498438805E-1,-3.451388776E-1
1.759175113E0,-9.407325089E-2,-2.333505303E-1,-3.329215646E-1
1.761160110E0,-9.224065393E-2,-2.266310006E-1,-3.286454976E-1
1.763173644E0,-8.796459436E-2,-2.180788964E-1,-3.145956099E-1
1.765157026E0,-8.918632567E-2,-2.131919712E-1,-3.066543639E-1
1.767171714E0,-8.613199741E-2,-2.119702399E-1,-2.901609838E-1
1.769154172E0,-8.491026610E-2,-2.113593817E-1,-2.712241709E-1
1.771168400E0,-8.246681094E-2,-2.138028294E-1,-2.614503205E-1
1.773153011E0,-8.246681094E-2,-2.186897546E-1,-2.443460971E-1
1.775167162E0,-7.696902007E-2,-2.302961946E-1,-2.284636050E-1
1.777149312E0,-7.819075137E-2,-2.376265824E-1,-2.193006277E-1
1.779164924E0,-7.757988572E-2,-2.498438805E-1,-2.070833147E-1
1.781148689E0,-7.391469181E-2,-2.693915665E-1,-1.912008226E-1
1.783161917E0,-7.208210230E-2,-2.785545588E-1,-1.863138974E-1
1.785176298E0,-7.147123665E-2,-2.981022298E-1,-1.753183305E-1
1.787159986E0,-7.024950534E-2,-3.213151097E-1,-1.685988009E-1
1.789173906E0,-7.086037099E-2,-3.323107064E-1,-1.618792862E-1
1.791158133E0,-7.269296050E-2,-3.536909819E-1,-1.563815027E-1
1.793171668E0,-7.147123665E-2,-3.781255782E-1,-1.551597714E-1
1.795155357E0,-7.147123665E-2,-3.909537494E-1,-1.557706445E-1
1.797169892E0,-7.513642311E-2,-4.105014503E-1,-1.545489132E-1
1.799153273E0,-7.269296050E-2,-4.214970171E-1,-1.551597714E-1
1.801168577E0,-7.513642311E-2,-4.379903674E-1,-1.588249654E-1
1.803151343E0,-7.635815442E-2,-4.544837475E-1,-1.606575549E-1
1.805165185E0,-7.635815442E-2,-4.612032473E-1,-1.649336219E-1
1.807148643E0,-7.819075137E-2,-4.728097022E-1,-1.685988009E-1
1.809163024E0,-7.635815442E-2,-4.795292318E-1,-1.753183305E-1
1.811173790E0,-8.124507964E-2,-4.807509482E-1,-1.753183305E-1
1.813160863E0,-7.819075137E-2,-4.795292318E-1,-1.789835095E-1
1.815175014E0,-7.819075137E-2,-4.740314186E-1,-1.838704348E-1
1.817158779E0,-7.757988572E-2,-4.703662395E-1,-1.838704348E-1
1.819172853E0,-7.574728876E-2,-4.526511431E-1,-1.875356287E-1
1.821157541E0,-7.574728876E-2,-4.349360466E-1,-1.887573600E-1
1.823170691E0,-7.513642311E-2,-4.239404798E-1,-1.893682331E-1
1.825154458E0,-7.330382615E-2,-3.952298164E-1,-1.863138974E-1
1.827168915E0,-7.086037099E-2,-3.677408695E-1,-1.844813079E-1
1.829151374E0,-6.963863969E-2,-3.530801237E-1,-1.814269722E-1
1.831167062E0,-6.475171447E-2,-3.188716471E-1,-1.759291887E-1
1.833150367E0,-6.475171447E-2,-3.005456924E-1,-1.747074574E-1
1.835164824E0,-6.414084882E-2,-2.706133127E-1,-1.673770845E-1
1.837147898E0,-5.803219974E-2,-2.388483137E-1,-1.612684280E-1
1.839161202E0,-5.436700583E-2,-2.235766798E-1,-1.576032341E-1
1.841177198E0,-5.131268129E-2,-1.954768747E-1,-1.496619880E-1
1.843159656E0,-5.070181563E-2,-1.649336219E-1,-1.404990107E-1
1.845174037E0,-4.581489414E-2,-1.508837193E-1,-1.356120855E-1
1.847157726E0,-4.214970022E-2,-1.264491081E-1,-1.276708394E-1
1.849171645E0,-3.848451003E-2,-1.020144969E-1,-1.191187203E-1
1.851155258E0,-3.543018550E-2,-9.285151958E-2,-1.136209369E-1
1.853170100E0,-3.298672289E-2,-6.963863969E-2,-1.081231460E-1
1.855153097E0,-2.809980139E-2,-5.070181563E-2,-1.014036313E-1
1.857166631E0,-2.748893574E-2,-4.153883830E-2,-9.896016866E-2
1.859151244E0,-2.504547499E-2,-2.443460934E-2,-9.224065393E-2
1.861165778E0,-2.015855350E-2,-8.552113548E-3,-8.674286306E-2
1.863149774E0,-1.649336144E-2,-1.832595794E-3,-8.491026610E-2
1.865162617E0,-1.160643995E-2,1.160643995E-2,-8.124507964E-2
1.867176844E0,-1.099557430E-2,1.710422710E-2,-7.635815442E-2
1.869160841E0,-5.497787148E-3,2.993239649E-2,-7.330382615E-2
1.871174914E0,-3.054326167E-3,4.031710699E-2,-6.719517708E-2
1.873158296E0,-1.832595794E-3,4.459316283E-2,-6.719517708E-2
1.875172138E0,1.832595794E-3,5.742133409E-2,-6.169738993E-2
1.877155904E0,6.108652335E-3,6.414084882E-2,-5.803219974E-2
1.879170285E0,4.276056774E-3,6.597344577E-2,-5.925392732E-2
1.881154588E0,4.886921961E-3,7.208210230E-2,-5.681046844E-2
1.883168509E0,6.108652335E-3,7.574728876E-2,-5.497787148E-2
1.885152120E0,5.497787148E-3,7.941248268E-2,-5.192354694E-2
1.887166271E0,6.108652335E-3,8.185594529E-2,-5.436700583E-2
1.889149344E0,6.108652335E-3,8.674286306E-2,-5.253441259E-2
1.891162879E0,4.886921961E-3,8.979719132E-2,-5.314527452E-2
1.893177721E0,4.276056774E-3,9.285151958E-2,-5.253441259E-2
1.895161718E0,4.886921961E-3,9.834930301E-2,-4.886921868E-2
1.897175253E0,4.276056774E-3,1.007927656E-1,-4.825835302E-2
1.899159480E0,6.719517522E-3,1.038470939E-1,-4.764748737E-2
1.901174323E0,4.886921961E-3,1.044579595E-1,-4.581489414E-2
1.903157626E0,4.276056774E-3,1.111774743E-1,-4.337143153E-2
1.905171470E0,6.108652335E-3,1.136209369E-1,-3.970624134E-2
1.907155158E0,3.665191587E-3,1.178969890E-1,-3.665191308E-2
1.909169386E0,1.832595794E-3,1.172861308E-1,-3.604105115E-2
1.911152766E0,6.108652451E-4,1.209513173E-1,-2.993239649E-2
1.913167148E0,6.108652451E-4,1.221730486E-1,-2.993239649E-2
1.915150221E0,-1.221730490E-3,1.209513173E-1,-2.687807009E-2
1.917165063E0,1.832595794E-3,1.185078546E-1,-2.504547499E-2
1.919148752E0,-1.832595794E-3,1.191187203E-1,-2.504547499E-2
1.921163210E0,-1.832595794E-3,1.172861308E-1,-2.199114859E-2
1.923146822E0,-4.276056774E-3,1.117883399E-1,-1.954768784E-2
1.925160664E0,-5.497787148E-3,1.099557430E-1,-1.893682219E-2
1.927174585E0,-6.108652335E-3,1.026253626E-1,-1.832595654E-2
1.929157888E0,-7.941247895E-3,9.712757170E-2,-1.710422710E-2
1.931171424E0,-1.099557430E-2,9.468411654E-2,-1.771509275E-2
1.933156343E0,-1.466076635E-2,8.674286306E-2,-1.832595654E-2
1.935170877E0,-1.527163107E-2,8.246681094E-2,-1.954768784E-2
1.937153028E0,-1.710422710E-2,7.574728876E-2,-1.893682219E-2
1.939167793E0,-2.138028294E-2,6.841690838E-2,-2.015855350E-2
1.941152944E0,-2.260201424E-2,6.536258012E-2,-1.954768784E-2
1.943165248E0,-2.504547499E-2,5.681046844E-2,-2.199114859E-2
1.945149245E0,-2.748893574E-2,5.375614017E-2,-2.260201424E-2
1.947163472E0,-2.687807009E-2,5.009094998E-2,-2.260201424E-2
1.949147161E0,-2.932153270E-2,4.642575979E-2,-2.260201424E-2
1.951161311E0,-2.932153270E-2,4.153883830E-2,-2.199114859E-2
1.953175461E0,-3.054326214E-2,4.214970022E-2,-2.199114859E-2
1.955158842E0,-3.115412779E-2,4.031710699E-2,-2.199114859E-2
1.957172992E0,-3.115412779E-2,3.909537569E-2,-2.015855350E-2
1.959156989E0,-3.115412779E-2,3.909537569E-2,-1.771509275E-2
1.961171370E0,-3.237585723E-2,3.604105115E-2,-1.649336144E-2
1.963154828E0,-3.359758854E-2,3.726277873E-2,-1.343903504E-2
1.965168978E0,-3.237585723E-2,3.665191308E-2,-9.773843922E-3
1.967152898E0,-3.298672289E-2,3.726277873E-2,-5.497787148E-3
1.969166817E0,-3.481931984E-2,3.543018550E-2,-5.497787148E-3
1.971149814E0,-3.237585723E-2,3.787364438E-2,-1.832595794E-3
1.973163426E0,-3.115412779E-2,3.726277873E-2,0.000000000E0
1.975148576E0,-3.420845419E-2,3.665191308E-2,2.443460980E-3
1.977162111E0,-3.420845419E-2,3.604105115E-2,7.330383174E-3
1.979175953E0,-3.543018550E-2,3.665191308E-2,8.552113548E-3
1.981161258E0,-3.176499158E-2,3.481931984E-2,8.552113548E-3
1.983173869E0,-3.298672289E-2,3.481931984E-2,1.160643995E-2
1.985157482E0,-3.359758854E-2,3.604105115E-2,1.343903504E-2
1.987171708E0,-3.420845419E-2,3.848451003E-2,1.221730467E-2
1.989154782E0,-3.176499158E-2,3.909537569E-2,9.773843922E-3
1.991169855E0,-3.237585723E-2,4.276056588E-2,9.773843922E-3
1.993153544E0,-3.176499158E-2,4.642575979E-2,9.162978269E-3
1.995166694E0,-3.115412779E-2,4.886921868E-2,1.038470957E-2
1.997150998E0,-2.809980139E-2,4.948008433E-2,6.719517522E-3
1.999165457E0,-3.054326214E-2,5.497787148E-2,5.497787148E-3
2.001149760E0,-3.176499158E-2,5.986479297E-2,3.054326167E-3
2.003162680E0,-2.748893574E-2,6.291911751E-2,3.054326167E-3
2.005176907E0,-2.626720630E-2,6.780604273E-2,3.054326167E-3
2.007161135E0,-2.626720630E-2,7.696902007E-2,-6.108652451E-4
2.009174977E0,-2.443460934E-2,8.246681094E-2,1.221730490E-3
2.011158435E0,-2.321287990E-2,8.613199741E-2,-3.054326167E-3
2.013173432E0,-2.199114859E-2,9.590584040E-2,-7.941247895E-3
2.015156889E0,-2.076941915E-2,1.014036313E-1,-5.497787148E-3
2.017169425E0,-1.771509275E-2,1.050688252E-1,-1.038470957E-2
2.019154421E0,-1.649336144E-2,1.142318025E-1,-7.330383174E-3
2.021169418E0,-1.710422710E-2,1.178969890E-1,-8.552113548E-3
2.023152260E0,-1.343903504E-2,1.270599663E-1,-6.108652335E-3
2.025166642E0,-1.160643995E-2,1.307251602E-1,-7.941247895E-3
2.027150022E0,-9.773843922E-3,1.319468915E-1,-6.719517522E-3
2.029163634E0,-9.162978269E-3,1.392772794E-1,-2.443460980E-3
2.031149169E0,-7.330383174E-3,1.411098689E-1,-1.832595794E-3
2.033162011E0,-5.497787148E-3,1.441642046E-1,-1.221730490E-3
2.035175931E0,-1.832595794E-3,1.484402567E-1,4.886921961E-3
2.037159543E0,0.000000000E0,1.472185254E-1,6.108652335E-3
2.039173693E0,6.108652451E-4,1.496619880E-1,8.552113548E-3
2.041158613E0,-6.108652451E-4,1.496619880E-1,1.038470957E-2
2.043171533E0,1.832595794E-3,1.472185254E-1,1.404990070E-2
2.045155298E0,3.054326167E-3,1.453859210E-1,1.588249579E-2
2.047169678E0,4.276056774E-3,1.417207420E-1,1.832595654E-2
2.049152829E0,3.665191587E-3,1.380555481E-1,2.260201424E-2
2.051163825E0,3.054326167E-3,1.343903542E-1,2.626720630E-2
2.053150361E0,4.276056774E-3,1.252273768E-1,3.054326214E-2
2.055165049E0,5.497787148E-3,1.209513173E-1,3.115412779E-2
2.057149123E0,6.108652335E-3,1.130100712E-1,3.543018550E-2
2.059162888E0,4.276056774E-3,1.069014147E-1,3.848451003E-2
2.061147578E0,7.330383174E-3,1.026253626E-1,3.970624134E-2
2.063161035E0,5.497787148E-3,9.468411654E-2,4.398229718E-2
2.065174954E0,6.719517522E-3,8.857546002E-2,4.520402849E-2
2.067157951E0,7.330383174E-3,8.063421398E-2,4.642575979E-2
2.069172486E0,4.276056774E-3,7.024950534E-2,4.764748737E-2
2.071157021E0,4.886921961E-3,6.597344577E-2,4.948008433E-2
2.073170633E0,6.719517522E-3,5.619960278E-2,5.009094998E-2
2.075153706E0,6.108652335E-3,4.398229718E-2,5.192354694E-2
2.077168164E0,4.276056774E-3,3.909537569E-2,5.314527452E-2
2.079151546E0,3.054326167E-3,2.993239649E-2,5.070181563E-2
2.081165926E0,4.276056774E-3,1.893682219E-2,5.009094998E-2
2.083148999E0,3.054326167E-3,1.466076635E-2,4.886921868E-2
2.085164073E0,0.000000000E0,7.941247895E-3,4.825835302E-2
2.087147146E0,-6.108652451E-4,-1.832595794E-3,4.520402849E-2
2.089161682E0,6.108652451E-4,-7.941247895E-3,4.031710699E-2
2.091175139E0,-2.443460980E-3,-1.221730467E-2,3.848451003E-2
2.093160367E0,-2.443460980E-3,-1.771509275E-2,3.726277873E-2
2.095174209E0,-3.054326167E-3,-2.138028294E-2,3.115412779E-2
2.097156437E0,-3.665191587E-3,-2.443460934E-2,2.626720630E-2
2.099172048E0,-5.497787148E-3,-2.504547499E-2,2.504547499E-2
2.101155198E0,-6.719517522E-3,-2.687807009E-2,1.893682219E-2
2.103169887E0,-8.552113548E-3,-2.565634064E-2,1.527163107E-2
2.105152653E0,-8.552113548E-3,-2.687807009E-2,1.099557430E-2
2.107166803E0,-9.162978269E-3,-2.321287990E-2,6.719517522E-3
2.109150492E0,-1.038470957E-2,-1.954768784E-2,6.108652451E-4
2.111164719E0,-1.160643995E-2,-1.343903504E-2,0.000000000E0
2.113148100E0,-1.160643995E-2,-1.221730467E-2,-3.665191587E-3
2.115162251E0,-1.282817032E-2,-2.443460980E-3,-7.941247895E-3
2.117175478E0,-1.282817032E-2,3.665191587E-3,-1.282817032E-2
2.119160012E0,-1.466076635E-2,1.649336144E-2,-1.588249579E-2
2.121175394E0,-1.527163107E-2,2.809980139E-2,-2.076941915E-2
2.123157621E0,-1.588249579E-2,3.420845419E-2,-2.260201424E-2
2.125172002E0,-1.649336144E-2,4.764748737E-2,-2.565634064E-2
2.127155691E0,-1.649336144E-2,5.681046844E-2,-2.687807009E-2
2.129169918E0,-1.649336144E-2,7.147123665E-2,-2.993239649E-2
2.131153222E0,-1.710422710E-2,8.552113175E-2,-3.359758854E-2
2.133167065E0,-1.710422710E-2,9.224065393E-2,-3.420845419E-2
2.135151369E0,-1.771509275E-2,1.075122803E-1,-3.726277873E-2
2.137164903E0,-1.649336144E-2,1.215621829E-1,-3.848451003E-2
2.139148900E0,-1.710422710E-2,1.276708394E-1,-3.787364438E-2
2.141163358E0,-1.649336144E-2,1.398881376E-1,-3.970624134E-2
2.143147355E0,-1.588249579E-2,1.496619880E-1,-3.909537569E-2
2.145161197E0,-1.588249579E-2,1.569923609E-1,-3.787364438E-2
2.147175040E0,-1.404990070E-2,1.631010175E-1,-3.543018550E-2
2.149159421E0,-1.404990070E-2,1.716531366E-1,-3.420845419E-2
2.151173802E0,-1.466076635E-2,1.747074574E-1,-3.298672289E-2
2.153156875E0,-1.343903504E-2,1.789835095E-1,-3.237585723E-2
2.155170794E0,-1.343903504E-2,1.857030392E-1,-2.871066704E-2
2.157154407E0,-1.282817032E-2,1.844813079E-1,-2.687807009E-2
2.159169172E0,-1.343903504E-2,1.869247705E-1,-2.504547499E-2
2.161152861E0,-1.282817032E-2,1.887573600E-1,-2.443460934E-2
2.163166704E0,-1.282817032E-2,1.881465018E-1,-2.138028294E-2
2.165150701E0,-1.221730467E-2,1.869247705E-1,-1.588249579E-2
2.167164235E0,-1.221730467E-2,1.869247705E-1,-1.832595654E-2
2.169148001E0,-1.160643995E-2,1.826487035E-1,-1.343903504E-2
2.171162074E0,-1.038470957E-2,1.777617931E-1,-1.160643995E-2
2.173176839E0,-9.773843922E-3,1.734857261E-1,-1.099557430E-2
2.175159913E0,-1.038470957E-2,1.643227488E-1,-6.108652335E-3
2.177172832E0,-1.282817032E-2,1.551597714E-1,-6.108652335E-3
2.179157137E0,-1.343903504E-2,1.521054506E-1,-5.497787148E-3
2.181173441E0,-1.160643995E-2,1.392772794E-1,-4.276056774E-3
2.183155899E0,-1.466076635E-2,1.288925707E-1,-3.054326167E-3
2.185169511E0,-1.466076635E-2,1.227839142E-1,-4.276056774E-3
2.187153431E0,-1.466076635E-2,1.093448773E-1,-3.054326167E-3
2.189167658E0,-1.771509275E-2,9.468411654E-2,-1.832595794E-3
2.191152270E0,-1.771509275E-2,8.918632567E-2,-1.221730490E-3
2.193165420E0,-1.954768784E-2,7.208210230E-2,-6.108652451E-4
2.195149416E0,-1.893682219E-2,6.291911751E-2,6.108652451E-4
2.197162413E0,-1.893682219E-2,5.009094998E-2,-1.832595794E-3
2.199146101E0,-2.199114859E-2,3.420845419E-2,-1.832595794E-3
2.201161406E0,-2.443460934E-2,2.809980139E-2,-3.054326167E-3
2.203175325E0,-2.626720630E-2,1.282817032E-2,-2.443460980E-3
2.205158091E0,-2.565634064E-2,1.221730490E-3,-4.276056774E-3
2.207172856E0,-2.626720630E-2,-4.276056774E-3,-3.054326167E-3
2.209155623E0,-2.626720630E-2,-1.649336144E-2,-1.832595794E-3
2.211169772E0,-2.626720630E-2,-2.443460934E-2,-3.665191587E-3
2.213155307E0,-2.687807009E-2,-2.809980139E-2,-4.886921961E-3
2.215167842E0,-2.748893574E-2,-3.298672289E-2,-3.054326167E-3
2.217151531E0,-2.932153270E-2,-3.665191308E-2,-3.054326167E-3
2.219165682E0,-2.871066704E-2,-4.031710699E-2,-3.665191587E-3
2.221150985E0,-2.993239649E-2,-3.970624134E-2,-3.054326167E-3
2.223164213E0,-3.054326214E-2,-4.092797264E-2,-5.497787148E-3
2.225147901E0,-3.176499158E-2,-4.092797264E-2,-7.941247895E-3
2.227161745E0,-3.237585723E-2,-4.153883830E-2,-6.108652335E-3
2.229175894E0,-3.054326214E-2,-3.848451003E-2,-6.719517522E-3
2.231160198E0,-2.993239649E-2,-3.420845419E-2,-9.162978269E-3
2.233173964E0,-3.115412779E-2,-3.054326214E-2,-7.941247895E-3
2.235157422E0,-2.993239649E-2,-2.748893574E-2,-1.099557430E-2
2.237170880E0,-3.054326214E-2,-2.382374369E-2,-9.162978269E-3
2.239154953E0,-3.237585723E-2,-1.588249579E-2,-1.160643995E-2
2.241170335E0,-3.237585723E-2,-1.221730467E-2,-1.160643995E-2
2.243153100E0,-3.115412779E-2,-5.497787148E-3,-1.404990070E-2
2.245166943E0,-3.237585723E-2,4.886921961E-3,-1.221730467E-2
2.247150632E0,-2.687807009E-2,8.552113548E-3,-1.343903504E-2
2.249165705E0,-2.809980139E-2,1.404990070E-2,-1.343903504E-2
2.251147855E0,-2.687807009E-2,2.382374369E-2,-1.282817032E-2
2.253163851E0,-2.748893574E-2,2.932153270E-2,-1.282817032E-2
2.255146848E0,-2.443460934E-2,3.604105115E-2,-1.404990070E-2
2.257159460E0,-2.443460934E-2,4.276056588E-2,-1.404990070E-2
2.259175149E0,-2.260201424E-2,4.948008433E-2,-1.404990070E-2
2.261159222E0,-2.076941915E-2,5.436700583E-2,-1.221730467E-2
2.263172681E0,-2.260201424E-2,5.925392732E-2,-1.343903504E-2
2.265155523E0,-2.138028294E-2,6.475171447E-2,-1.221730467E-2
2.267169980E0,-1.649336144E-2,7.024950534E-2,-9.773843922E-3
2.269153900E0,-1.771509275E-2,7.513642311E-2,-1.221730467E-2
2.271169281E0,-1.588249579E-2,7.696902007E-2,-1.038470957E-2
2.273152124E0,-1.588249579E-2,8.124507964E-2,-9.162978269E-3
2.275165889E0,-1.527163107E-2,8.246681094E-2,-9.162978269E-3
2.277149886E0,-1.588249579E-2,8.246681094E-2,-7.941247895E-3
2.279163190E0,-1.404990070E-2,8.552113175E-2,-9.773843922E-3
2.281147726E0,-1.404990070E-2,8.552113175E-2,-7.330383174E-3
2.283161337E0,-1.466076635E-2,8.307767659E-2,-9.162978269E-3
2.285175487E0,-1.282817032E-2,8.246681094E-2,-9.773843922E-3
2.287159407E0,-1.588249579E-2,8.185594529E-2,-1.160643995E-2
2.289173326E0,-1.404990070E-2,8.246681094E-2,-1.221730467E-2
2.291156631E0,-1.710422710E-2,7.880161703E-2,-1.160643995E-2
2.293170781E0,-1.588249579E-2,7.635815442E-2,-1.588249579E-2
2.295155162E0,-1.343903504E-2,7.391469181E-2,-1.649336144E-2
2.297168389E0,-1.343903504E-2,7.391469181E-2,-1.893682219E-2
2.299152694E0,-1.282817032E-2,6.902777404E-2,-2.076941915E-2
2.301167382E0,-1.466076635E-2,6.719517708E-2,-2.199114859E-2
2.303150532E0,-1.466076635E-2,6.658431143E-2,-2.076941915E-2
2.305165221E0,-1.343903504E-2,6.230825558E-2,-2.199114859E-2
2.307147986E0,-1.343903504E-2,5.864306539E-2,-2.260201424E-2
2.309162214E0,-1.343903504E-2,5.375614017E-2,-2.321287990E-2
2.311146210E0,-1.527163107E-2,4.948008433E-2,-2.443460934E-2
2.313160669E0,-1.466076635E-2,4.459316283E-2,-2.687807009E-2
2.315174511E0,-1.649336144E-2,4.214970022E-2,-2.687807009E-2
2.317157816E0,-1.588249579E-2,3.543018550E-2,-2.993239649E-2
2.319172350E0,-1.649336144E-2,3.054326214E-2,-3.420845419E-2
2.321156039E0,-1.466076635E-2,2.626720630E-2,-3.176499158E-2
2.323169881E0,-1.588249579E-2,2.321287990E-2,-3.481931984E-2
2.325153877E0,-1.221730467E-2,1.771509275E-2,-3.543018550E-2
2.327167951E0,-1.466076635E-2,1.588249579E-2,-3.848451003E-2
2.329151332E0,-1.282817032E-2,1.221730467E-2,-4.031710699E-2
2.331164637E0,-1.588249579E-2,1.099557430E-2,-3.787364438E-2
2.333149479E0,-1.771509275E-2,7.330383174E-3,-4.031710699E-2
2.335163707E0,-1.527163107E-2,7.941247895E-3,-4.092797264E-2
2.337146703E0,-1.893682219E-2,6.108652335E-3,-4.153883830E-2
2.339162161E0,-1.771509275E-2,2.443460980E-3,-4.337143153E-2
2.341145849E0,-1.893682219E-2,1.221730490E-3,-4.092797264E-2
2.343159384E0,-1.832595654E-2,4.276056774E-3,-4.337143153E-2
2.345173227E0,-1.893682219E-2,3.054326167E-3,-4.031710699E-2
2.347155992E0,-1.893682219E-2,4.276056774E-3,-3.909537569E-2
2.349170759E0,-2.015855350E-2,6.719517522E-3,-3.909537569E-2
2.351154447E0,-1.771509275E-2,7.941247895E-3,-3.543018550E-2
2.353168213E0,-1.771509275E-2,1.038470957E-2,-3.726277873E-2
2.355151978E0,-1.710422710E-2,1.160643995E-2,-3.481931984E-2
2.357166360E0,-1.588249579E-2,1.771509275E-2,-3.298672289E-2
2.359149741E0,-1.588249579E-2,2.015855350E-2,-3.237585723E-2
2.361164890E0,-1.527163107E-2,2.443460934E-2,-2.809980139E-2
2.363147041E0,-1.527163107E-2,3.054326214E-2,-2.626720630E-2
2.365161730E0,-1.588249579E-2,3.176499158E-2,-2.626720630E-2
2.367175957E0,-1.527163107E-2,3.604105115E-2,-2.443460934E-2
2.369159569E0,-1.343903504E-2,4.398229718E-2,-1.954768784E-2
2.371170027E0,-1.221730467E-2,4.459316283E-2,-1.893682219E-2
2.373156485E0,-1.221730467E-2,5.131268129E-2,-1.527163107E-2
2.375171943E0,-1.282817032E-2,5.681046844E-2,-1.038470957E-2
2.377155016E0,-1.099557430E-2,5.742133409E-2,-7.941247895E-3
2.379169474E0,-9.773843922E-3,6.414084882E-2,-6.108652335E-3
2.381154086E0,-1.160643995E-2,6.780604273E-2,-3.665191587E-3
2.383167005E0,-9.162978269E-3,6.597344577E-2,-1.832595794E-3
2.385151002E0,-9.162978269E-3,6.719517708E-2,2.443460980E-3
2.387164845E0,-1.160643995E-2,6.780604273E-2,3.665191587E-3
2.389149072E0,-1.221730467E-2,6.780604273E-2,6.108652335E-3
2.391163299E0,-1.160643995E-2,6.475171447E-2,6.108652335E-3
2.393147219E0,-1.404990070E-2,6.536258012E-2,8.552113548E-3
2.395160754E0,-1.404990070E-2,6.414084882E-2,6.719517522E-3
2.397174596E0,-1.588249579E-2,6.352998316E-2,8.552113548E-3
2.399158670E0,-1.649336144E-2,6.414084882E-2,1.160643995E-2
2.401174281E0,-1.649336144E-2,5.925392732E-2,9.773843922E-3
2.403157047E0,-1.771509275E-2,5.803219974E-2,8.552113548E-3
2.405170966E0,-1.954768784E-2,5.742133409E-2,9.162978269E-3
2.407154040E0,-2.138028294E-2,5.558873713E-2,9.773843922E-3
2.409167883E0,-2.138028294E-2,5.497787148E-2,1.160643995E-2
2.411151495E0,-2.260201424E-2,5.131268129E-2,9.162978269E-3
2.413166337E0,-2.260201424E-2,4.948008433E-2,9.162978269E-3
2.415149948E0,-2.443460934E-2,4.337143153E-2,9.162978269E-3
2.417163176E0,-2.382374369E-2,3.909537569E-2,8.552113548E-3
2.419146865E0,-2.565634064E-2,3.298672289E-2,6.108652335E-3
2.421163554E0,-2.626720630E-2,3.176499158E-2,6.108652335E-3
2.423145088E0,-2.626720630E-2,2.199114859E-2,2.443460980E-3
2.425158931E0,-2.687807009E-2,1.893682219E-2,0.000000000E0
2.427173620E0,-2.871066704E-2,1.404990070E-2,-3.054326167E-3
2.429157001E0,-2.809980139E-2,7.330383174E-3,-5.497787148E-3
2.431171767E0,-2.871066704E-2,1.832595794E-3,-7.330383174E-3
2.433155455E0,-2.871066704E-2,-6.108652451E-4,-9.773843922E-3
2.435169606E0,-3.054326214E-2,-4.276056774E-3,-1.221730467E-2
2.437153294E0,-3.115412779E-2,-8.552113548E-3,-1.160643995E-2
2.439166830E0,-3.115412779E-2,-9.773843922E-3,-1.343903504E-2
2.441151826E0,-2.993239649E-2,-1.527163107E-2,-1.221730467E-2
2.443164669E0,-2.932153270E-2,-1.771509275E-2,-1.649336144E-2
2.445148049E0,-2.748893574E-2,-1.954768784E-2,-1.343903504E-2
2.447162585E0,-2.809980139E-2,-2.565634064E-2,-1.527163107E-2
2.449145658E0,-2.626720630E-2,-2.748893574E-2,-1.588249579E-2
2.451157885E0,-2.504547499E-2,-2.748893574E-2,-1.404990070E-2
2.453174497E0,-2.565634064E-2,-2.871066704E-2,-1.527163107E-2
2.455158570E0,-2.382374369E-2,-2.871066704E-2,-1.588249579E-2
2.457172105E0,-2.138028294E-2,-3.054326214E-2,-1.343903504E-2
2.459156024E0,-2.076941915E-2,-2.871066704E-2,-1.160643995E-2
2.461171175E0,-1.954768784E-2,-2.993239649E-2,-1.343903504E-2
2.463154787E0,-1.893682219E-2,-2.809980139E-2,-1.038470957E-2
2.465167784E0,-1.832595654E-2,-2.382374369E-2,-1.038470957E-2
2.467151395E0,-1.527163107E-2,-2.443460934E-2,-9.773843922E-3
2.469164699E0,-1.527163107E-2,-1.771509275E-2,-7.941247895E-3
2.471150850E0,-1.282817032E-2,-1.404990070E-2,-7.330383174E-3
2.473163153E0,-1.527163107E-2,-1.038470957E-2,-7.941247895E-3
2.475146535E0,-1.221730467E-2,-5.497787148E-3,-6.108652335E-3
2.477161839E0,-1.160643995E-2,0.000000000E0,-4.276056774E-3
2.479144682E0,-1.099557430E-2,1.221730490E-3,-2.443460980E-3
2.481159755E0,-6.108652335E-3,8.552113548E-3,-3.054326167E-3
2.483173213E0,-6.108652335E-3,1.404990070E-2,0.000000000E0
2.485156978E0,-6.719517522E-3,1.527163107E-2,2.443460980E-3
2.487170744E0,-4.886921961E-3,2.260201424E-2,6.108652451E-4
2.489155356E0,-4.276056774E-3,2.321287990E-2,3.665191587E-3
2.491168583E0,-6.108652335E-3,2.871066704E-2,6.108652335E-3
2.493152964E0,-4.276056774E-3,3.237585723E-2,4.276056774E-3
2.495166807E0,-4.886921961E-3,3.359758854E-2,6.719517522E-3
2.497149881E0,-6.719517522E-3,3.970624134E-2,8.552113548E-3
2.499164569E0,-4.276056774E-3,3.726277873E-2,1.038470957E-2
2.501149874E0,-5.497787148E-3,4.153883830E-2,7.941247895E-3
2.503161870E0,-7.330383174E-3,4.337143153E-2,6.108652335E-3
2.505145867E0,-1.038470957E-2,4.337143153E-2,4.886921961E-3
2.507159632E0,-8.552113548E-3,4.459316283E-2,3.665191587E-3
2.509173782E0,-1.038470957E-2,4.703662544E-2,3.054326167E-3
2.511158086E0,-1.221730467E-2,4.642575979E-2,-1.221730490E-3
2.513171929E0,-1.160643995E-2,4.214970022E-2,-2.443460980E-3
2.515155695E0,-1.343903504E-2,4.276056588E-2,-4.276056774E-3
2.517170383E0,-1.160643995E-2,4.214970022E-2,-5.497787148E-3
2.519153534E0,-1.343903504E-2,4.031710699E-2,-7.941247895E-3
2.521168222E0,-1.343903504E-2,3.848451003E-2,-9.773843922E-3
2.523151296E0,-1.404990070E-2,3.909537569E-2,-1.160643995E-2
2.525165446E0,-1.710422710E-2,3.665191308E-2,-1.282817032E-2
2.527147980E0,-1.832595654E-2,3.420845419E-2,-1.588249579E-2
2.529163054E0,-1.954768784E-2,3.359758854E-2,-1.466076635E-2
2.531145820E0,-1.771509275E-2,2.809980139E-2,-1.527163107E-2
2.533160509E0,-2.138028294E-2,2.626720630E-2,-1.710422710E-2
2.535175351E0,-2.260201424E-2,2.260201424E-2,-1.649336144E-2
2.537158656E0,-2.565634064E-2,2.138028294E-2,-1.771509275E-2
2.539172267E0,-2.504547499E-2,1.832595654E-2,-1.466076635E-2
2.541156880E0,-2.748893574E-2,1.710422710E-2,-1.832595654E-2
2.543170414E0,-2.687807009E-2,1.282817032E-2,-1.954768784E-2
2.545154025E0,-2.565634064E-2,7.330383174E-3,-1.588249579E-2
2.547168253E0,-3.115412779E-2,7.941247895E-3,-1.710422710E-2
2.549151865E0,-3.237585723E-2,4.886921961E-3,-1.588249579E-2
2.551166400E0,-3.054326214E-2,1.221730490E-3,-1.466076635E-2
2.553150088E0,-3.237585723E-2,6.108652451E-4,-1.527163107E-2
2.555163547E0,-3.115412779E-2,-3.054326167E-3,-1.221730467E-2
2.557147928E0,-3.176499158E-2,-5.497787148E-3,-1.343903504E-2
2.559162078E0,-3.481931984E-2,-4.886921961E-3,-1.404990070E-2
2.561146921E0,-3.359758854E-2,-7.941247895E-3,-1.038470957E-2
2.563159917E0,-3.604105115E-2,-7.941247895E-3,-1.221730467E-2
2.565174067E0,-3.665191308E-2,-9.162978269E-3,-9.773843922E-3
2.567157448E0,-3.787364438E-2,-9.162978269E-3,-1.160643995E-2
2.569171291E0,-3.787364438E-2,-8.552113548E-3,-9.773843922E-3
2.571154595E0,-3.604105115E-2,-7.941247895E-3,-9.773843922E-3
2.573170053E0,-3.604105115E-2,-8.552113548E-3,-7.941247895E-3
2.575153126E0,-3.787364438E-2,-7.941247895E-3,-8.552113548E-3
2.577166354E0,-3.665191308E-2,-5.497787148E-3,-9.773843922E-3
2.579151504E0,-3.726277873E-2,-2.443460980E-3,-9.773843922E-3
2.581165962E0,-3.543018550E-2,-3.054326167E-3,-7.941247895E-3
2.583149035E0,-3.787364438E-2,0.000000000E0,-7.330383174E-3
2.585162647E0,-3.604105115E-2,1.832595794E-3,-7.941247895E-3
2.587146644E0,-3.848451003E-2,6.108652335E-3,-7.941247895E-3
2.589160486E0,-3.543018550E-2,1.038470957E-2,-7.941247895E-3
2.591174945E0,-3.665191308E-2,1.221730467E-2,-4.276056774E-3
2.593158633E0,-3.481931984E-2,1.649336144E-2,-1.832595794E-3
2.595172707E0,-3.420845419E-2,2.076941915E-2,0.000000000E0
2.597155549E0,-3.237585723E-2,2.382374369E-2,-1.832595794E-3
2.599170314E0,-3.481931984E-2,2.993239649E-2,1.221730490E-3
2.601154311E0,-3.298672289E-2,3.237585723E-2,1.832595794E-3
2.603168076E0,-3.054326214E-2,3.481931984E-2,3.054326167E-3
2.605151150E0,-2.809980139E-2,3.726277873E-2,6.108652335E-3
2.607165685E0,-3.176499158E-2,3.970624134E-2,4.886921961E-3
2.609150220E0,-2.932153270E-2,3.909537569E-2,2.443460980E-3
2.611161370E0,-2.993239649E-2,4.031710699E-2,4.276056774E-3
2.613177367E0,-2.871066704E-2,4.031710699E-2,5.497787148E-3
2.615161671E0,-2.871066704E-2,3.909537569E-2,4.276056774E-3
2.617145590E0,-2.932153270E-2,3.970624134E-2,1.221730490E-3
2.619158818E0,-2.809980139E-2,3.726277873E-2,6.108652451E-4
2.621174275E0,-3.054326214E-2,3.665191308E-2,0.000000000E0
2.623157349E0,-3.115412779E-2,3.543018550E-2,-1.832595794E-3
2.625171191E0,-3.176499158E-2,3.420845419E-2,-2.443460980E-3
2.627154881E0,-3.237585723E-2,3.359758854E-2,-1.832595794E-3
2.629168338E0,-3.237585723E-2,3.298672289E-2,-3.665191587E-3
2.631153335E0,-2.871066704E-2,3.054326214E-2,-3.665191587E-3
2.633166793E0,-3.237585723E-2,3.054326214E-2,-6.108652335E-3
2.635150250E0,-2.932153270E-2,2.932153270E-2,-3.665191587E-3
2.637165017E0,-3.054326214E-2,3.115412779E-2,-5.497787148E-3
2.639148397E0,-3.237585723E-2,3.054326214E-2,-6.719517522E-3
2.641163163E0,-3.237585723E-2,2.993239649E-2,-6.108652335E-3
2.643146775E0,-3.298672289E-2,2.932153270E-2,-4.886921961E-3
2.645159772E0,-3.420845419E-2,2.809980139E-2,-5.497787148E-3
2.647174229E0,-3.359758854E-2,2.687807009E-2,-6.719517522E-3
2.649157919E0,-3.420845419E-2,2.626720630E-2,-4.886921961E-3
2.651171453E0,-3.237585723E-2,2.199114859E-2,-5.497787148E-3
2.653156988E0,-3.237585723E-2,2.076941915E-2,-4.276056774E-3
2.655169831E0,-3.237585723E-2,1.893682219E-2,-4.276056774E-3
2.657152673E0,-3.237585723E-2,1.649336144E-2,-3.665191587E-3
2.659167978E0,-3.115412779E-2,1.649336144E-2,-4.276056774E-3
2.661151974E0,-2.993239649E-2,1.527163107E-2,-3.665191587E-3
2.663165278E0,-2.932153270E-2,1.466076635E-2,-4.886921961E-3
2.665149197E0,-2.932153270E-2,1.527163107E-2,-5.497787148E-3
2.667163117E0,-2.871066704E-2,1.466076635E-2,-4.276056774E-3
2.669147344E0,-2.748893574E-2,1.343903504E-2,-4.276056774E-3
2.671160957E0,-2.809980139E-2,1.221730467E-2,-4.276056774E-3
2.673175645E0,-2.748893574E-2,1.282817032E-2,-5.497787148E-3
2.675158795E0,-2.443460934E-2,1.038470957E-2,-4.276056774E-3
2.677173176E0,-2.382374369E-2,1.282817032E-2,-3.665191587E-3
2.679156865E0,-2.382374369E-2,1.282817032E-2,-1.221730490E-3
2.681170785E0,-2.260201424E-2,9.773843922E-3,-6.108652451E-4
2.683154396E0,-2.015855350E-2,9.773843922E-3,-6.108652451E-4
2.685169239E0,-1.954768784E-2,7.941247895E-3,-3.054326167E-3
2.687152928E0,-1.893682219E-2,9.162978269E-3,-1.221730490E-3
2.689166463E0,-1.954768784E-2,7.941247895E-3,1.221730490E-3
2.691149228E0,-1.588249579E-2,7.941247895E-3,1.221730490E-3
2.693163378E0,-1.588249579E-2,1.038470957E-2,0.000000000E0
2.695148221E0,-1.588249579E-2,8.552113548E-3,3.665191587E-3
2.697162371E0,-1.404990070E-2,1.160643995E-2,6.719517522E-3
2.699145214E0,-1.404990070E-2,1.099557430E-2,7.941247895E-3
2.701160903E0,-1.404990070E-2,1.282817032E-2,9.162978269E-3
2.703174130E0,-1.527163107E-2,1.343903504E-2,8.552113548E-3
2.705157511E0,-1.038470957E-2,1.343903504E-2,1.221730467E-2
2.707171970E0,-1.160643995E-2,1.404990070E-2,1.221730467E-2
2.709155043E0,-1.404990070E-2,1.221730467E-2,1.466076635E-2
2.711170731E0,-1.221730467E-2,1.282817032E-2,1.466076635E-2
2.713153497E0,-8.552113548E-3,9.773843922E-3,1.771509275E-2
2.715167570E0,-1.099557430E-2,9.162978269E-3,1.710422710E-2
2.717151259E0,-9.773843922E-3,7.330383174E-3,1.893682219E-2
2.719165717E0,-9.162978269E-3,5.497787148E-3,2.321287990E-2
2.721149483E0,-1.099557430E-2,4.886921961E-3,2.199114859E-2
2.723163018E0,-1.038470957E-2,1.832595794E-3,2.321287990E-2
2.725146938E0,-7.941247895E-3,-1.221730490E-3,2.443460934E-2
2.727160549E0,-9.162978269E-3,-1.832595794E-3,2.382374369E-2
2.729175007E0,-6.719517522E-3,-5.497787148E-3,2.626720630E-2
2.731158080E0,-7.330383174E-3,-7.941247895E-3,2.443460934E-2
2.733174307E0,-7.941247895E-3,-9.162978269E-3,2.321287990E-2
2.735156535E0,-4.276056774E-3,-1.160643995E-2,2.138028294E-2
2.737169762E0,-6.108652335E-3,-1.404990070E-2,2.138028294E-2
2.739154297E0,-4.276056774E-3,-1.649336144E-2,2.199114859E-2
2.741170293E0,-1.832595794E-3,-1.771509275E-2,2.138028294E-2
2.743152213E0,-2.443460980E-3,-1.710422710E-2,2.199114859E-2
2.745166056E0,6.108652451E-4,-1.771509275E-2,1.954768784E-2
2.747150282E0,1.832595794E-3,-1.954768784E-2,1.893682219E-2
2.749163895E0,1.221730490E-3,-1.832595654E-2,1.954768784E-2
2.751148429E0,3.665191587E-3,-1.832595654E-2,1.771509275E-2
2.753162042E0,3.665191587E-3,-1.832595654E-2,1.649336144E-2
2.755145730E0,5.497787148E-3,-1.710422710E-2,1.649336144E-2
2.757158573E0,7.941247895E-3,-1.710422710E-2,1.649336144E-2
2.759173646E0,8.552113548E-3,-1.466076635E-2,1.710422710E-2
2.761157720E0,6.108652335E-3,-1.282817032E-2,1.588249579E-2
2.763172100E0,8.552113548E-3,-1.282817032E-2,1.710422710E-2
2.765154558E0,8.552113548E-3,-1.160643995E-2,1.588249579E-2
2.767168786E0,1.343903504E-2,-9.773843922E-3,1.527163107E-2
2.769152705E0,1.282817032E-2,-5.497787148E-3,1.404990070E-2
2.771166240E0,1.527163107E-2,-1.832595794E-3,1.221730467E-2
2.773150313E0,1.588249579E-2,-1.832595794E-3,1.282817032E-2
2.775164464E0,1.649336144E-2,0.000000000E0,1.160643995E-2
2.777148152E0,1.649336144E-2,2.443460980E-3,1.038470957E-2
2.779162226E0,1.588249579E-2,4.276056774E-3,7.941247895E-3
2.781146838E0,1.649336144E-2,6.719517522E-3,6.719517522E-3
2.783160680E0,1.771509275E-2,6.108652335E-3,6.108652335E-3
2.785174215E0,1.710422710E-2,3.665191587E-3,2.443460980E-3
2.787158211E0,1.649336144E-2,5.497787148E-3,-1.221730490E-3
2.789172747E0,1.649336144E-2,4.276056774E-3,0.000000000E0
2.791156666E0,1.710422710E-2,3.665191587E-3,-3.054326167E-3
2.793170817E0,1.588249579E-2,3.054326167E-3,-7.330383174E-3
2.795153044E0,1.649336144E-2,2.443460980E-3,-1.099557430E-2
2.797168041E0,1.649336144E-2,1.221730490E-3,-1.404990070E-2
2.799151498E0,1.404990070E-2,1.221730490E-3,-1.527163107E-2
2.801166879E0,1.588249579E-2,2.443460980E-3,-1.771509275E-2
2.803149260E0,1.710422710E-2,1.221730490E-3,-1.954768784E-2
2.805163410E0,1.404990070E-2,6.108652451E-4,-2.199114859E-2
2.807147715E0,1.404990070E-2,0.000000000E0,-2.199114859E-2
2.809161019E0,1.221730467E-2,-2.443460980E-3,-2.687807009E-2
2.811174554E0,1.466076635E-2,-1.221730490E-3,-2.504547499E-2
2.813159165E0,1.832595654E-2,-3.665191587E-3,-2.871066704E-2
2.815173624E0,1.771509275E-2,-6.719517522E-3,-2.809980139E-2
2.817156697E0,1.771509275E-2,-7.330383174E-3,-3.054326214E-2
2.819172308E0,1.771509275E-2,-9.773843922E-3,-3.237585723E-2
2.821155382E0,1.954768784E-2,-1.221730467E-2,-3.115412779E-2
2.823168917E0,1.832595654E-2,-1.343903504E-2,-3.481931984E-2
2.825153221E0,1.954768784E-2,-1.527163107E-2,-3.359758854E-2
2.827166448E0,2.015855350E-2,-1.954768784E-2,-3.481931984E-2
2.829150214E0,1.893682219E-2,-2.015855350E-2,-3.543018550E-2
2.831165518E0,2.199114859E-2,-2.199114859E-2,-3.848451003E-2
2.833147361E0,1.954768784E-2,-2.382374369E-2,-3.848451003E-2
2.835162127E0,2.076941915E-2,-2.565634064E-2,-3.726277873E-2
2.837145585E0,2.382374369E-2,-2.626720630E-2,-3.909537569E-2
2.839159427E0,2.199114859E-2,-2.871066704E-2,-3.726277873E-2
2.841175116E0,2.321287990E-2,-2.932153270E-2,-3.909537569E-2
2.843158420E0,2.199114859E-2,-3.054326214E-2,-3.970624134E-2
2.845171724E0,2.382374369E-2,-2.932153270E-2,-3.970624134E-2
2.847155336E0,2.321287990E-2,-3.115412779E-2,-3.970624134E-2
2.849169794E0,2.321287990E-2,-3.115412779E-2,-3.848451003E-2
2.851153175E0,2.504547499E-2,-3.115412779E-2,-3.604105115E-2
2.853166710E0,2.382374369E-2,-2.687807009E-2,-3.848451003E-2
2.855151630E0,2.382374369E-2,-2.809980139E-2,-3.909537569E-2
2.857165780E0,2.382374369E-2,-2.626720630E-2,-3.970624134E-2
2.859148853E0,2.443460934E-2,-2.321287990E-2,-3.665191308E-2
2.861164311E0,2.138028294E-2,-2.076941915E-2,-3.848451003E-2
2.863146692E0,2.321287990E-2,-2.015855350E-2,-3.787364438E-2
2.865161151E0,2.382374369E-2,-1.649336144E-2,-3.420845419E-2
2.867175300E0,2.443460934E-2,-1.466076635E-2,-3.481931984E-2
2.869158759E0,2.565634064E-2,-1.343903504E-2,-3.298672289E-2
2.871174370E0,2.382374369E-2,-1.221730467E-2,-3.176499158E-2
2.873156521E0,2.321287990E-2,-1.038470957E-2,-3.237585723E-2
2.875170363E0,2.015855350E-2,-8.552113548E-3,-3.115412779E-2
2.877154359E0,2.260201424E-2,-7.941247895E-3,-2.932153270E-2
2.879167664E0,2.138028294E-2,-7.330383174E-3,-2.871066704E-2
2.881152891E0,1.832595654E-2,-3.054326167E-3,-2.626720630E-2
2.883166426E0,1.893682219E-2,-3.665191587E-3,-2.504547499E-2
2.885150730E0,1.710422710E-2,-3.054326167E-3,-2.504547499E-2
2.887164265E0,1.527163107E-2,0.000000000E0,-2.565634064E-2
2.889147338E0,1.588249579E-2,6.108652451E-4,-2.260201424E-2
2.891161181E0,1.588249579E-2,6.108652451E-4,-2.260201424E-2
2.893146331E0,1.282817032E-2,6.108652451E-4,-2.199114859E-2
2.895160174E0,1.160643995E-2,-1.221730490E-3,-2.138028294E-2
2.897173478E0,1.221730467E-2,-6.108652451E-4,-2.321287990E-2
2.899158090E0,8.552113548E-3,-3.054326167E-3,-2.076941915E-2
2.901172779E0,6.108652335E-3,-4.276056774E-3,-2.321287990E-2
2.903154929E0,3.665191587E-3,-4.886921961E-3,-2.321287990E-2
2.905169157E0,2.443460980E-3,-7.941247895E-3,-2.321287990E-2
2.907152768E0,3.665191587E-3,-8.552113548E-3,-2.321287990E-2
2.909166996E0,-6.108652451E-4,-1.221730467E-2,-2.565634064E-2
2.911150992E0,-3.054326167E-3,-1.282817032E-2,-2.626720630E-2
2.913165065E0,-1.832595794E-3,-1.527163107E-2,-2.382374369E-2
2.915149139E0,-4.276056774E-3,-1.893682219E-2,-2.504547499E-2
2.917162673E0,-4.886921961E-3,-1.832595654E-2,-2.626720630E-2
2.919146362E0,-7.330383174E-3,-1.832595654E-2,-2.443460934E-2
2.921161435E0,-9.162978269E-3,-2.260201424E-2,-2.687807009E-2
2.923174971E0,-1.160643995E-2,-2.565634064E-2,-2.321287990E-2
2.925158582E0,-1.160643995E-2,-2.809980139E-2,-2.382374369E-2
2.927172810E0,-1.527163107E-2,-3.176499158E-2,-2.565634064E-2
2.929156191E0,-1.404990070E-2,-3.665191308E-2,-2.260201424E-2
2.931166571E0,-1.649336144E-2,-3.787364438E-2,-2.443460934E-2
2.933153645E0,-1.404990070E-2,-4.398229718E-2,-2.138028294E-2
2.935168103E0,-1.771509275E-2,-4.886921868E-2,-2.138028294E-2
2.937151792E0,-1.710422710E-2,-5.253441259E-2,-2.199114859E-2
2.939166326E0,-1.771509275E-2,-5.681046844E-2,-2.015855350E-2
2.941150246E0,-1.771509275E-2,-5.681046844E-2,-2.199114859E-2
2.943163858E0,-1.832595654E-2,-6.169738993E-2,-2.015855350E-2
2.945148163E0,-2.076941915E-2,-6.475171447E-2,-2.199114859E-2
2.947161620E0,-1.954768784E-2,-6.658431143E-2,-2.015855350E-2
2.949144770E0,-1.771509275E-2,-6.780604273E-2,-1.893682219E-2
2.951160152E0,-1.832595654E-2,-6.841690838E-2,-1.893682219E-2
2.953173994E0,-2.015855350E-2,-6.841690838E-2,-2.138028294E-2
2.955156683E0,-2.199114859E-2,-6.536258012E-2,-2.260201424E-2
2.957171448E0,-2.199114859E-2,-6.169738993E-2,-2.138028294E-2
2.959154522E0,-2.015855350E-2,-6.291911751E-2,-2.260201424E-2
2.961170595E0,-2.138028294E-2,-5.681046844E-2,-2.260201424E-2
2.963152669E0,-2.076941915E-2,-5.314527452E-2,-2.138028294E-2
2.965167434E0,-2.076941915E-2,-4.948008433E-2,-2.260201424E-2
2.967150200E0,-1.771509275E-2,-4.520402849E-2,-2.076941915E-2
2.969164427E0,-2.138028294E-2,-4.031710699E-2,-2.015855350E-2
2.971148039E0,-1.893682219E-2,-3.726277873E-2,-1.832595654E-2
2.973163113E0,-1.893682219E-2,-3.054326214E-2,-1.832595654E-2
2.975146493E0,-1.893682219E-2,-2.993239649E-2,-1.771509275E-2
2.977159490E0,-1.771509275E-2,-2.321287990E-2,-1.710422710E-2
2.979174871E0,-1.832595654E-2,-1.404990070E-2,-1.588249579E-2
2.981159483E0,-1.832595654E-2,-1.099557430E-2,-1.343903504E-2
2.983172402E0,-1.771509275E-2,-8.552113548E-3,-1.527163107E-2
2.985156091E0,-1.893682219E-2,-1.221730490E-3,-1.466076635E-2
2.987170549E0,-1.954768784E-2,1.221730490E-3,-1.343903504E-2
2.989153622E0,-1.832595654E-2,1.832595794E-3,-1.527163107E-2
2.991168927E0,-1.649336144E-2,5.497787148E-3,-1.404990070E-2
2.993151154E0,-1.771509275E-2,9.773843922E-3,-1.282817032E-2
2.995165228E0,-1.710422710E-2,1.038470957E-2,-1.466076635E-2
2.997148916E0,-1.404990070E-2,1.404990070E-2,-1.404990070E-2
2.999163682E0,-1.710422710E-2,1.649336144E-2,-1.404990070E-2
3.001147447E0,-1.466076635E-2,1.771509275E-2,-1.527163107E-2
3.003161214E0,-1.404990070E-2,1.893682219E-2,-1.527163107E-2
3.005145286E0,-1.343903504E-2,2.015855350E-2,-1.588249579E-2
3.007159436E0,-1.160643995E-2,2.382374369E-2,-1.527163107E-2
3.009173203E0,-1.038470957E-2,2.199114859E-2,-1.649336144E-2
3.011156275E0,-1.343903504E-2,2.321287990E-2,-1.588249579E-2
3.013170119E0,-9.773843922E-3,2.382374369E-2,-1.588249579E-2
3.015154807E0,-7.941247895E-3,2.321287990E-2,-1.710422710E-2
3.017168881E0,-8.552113548E-3,2.138028294E-2,-1.466076635E-2
3.019152569E0,-7.941247895E-3,1.954768784E-2,-1.343903504E-2
3.021167643E0,-7.941247895E-3,2.015855350E-2,-1.527163107E-2
3.023149870E0,-8.552113548E-3,1.771509275E-2,-1.527163107E-2
3.025164558E0,-6.719517522E-3,1.771509275E-2,-1.038470957E-2
3.027147401E0,-7.330383174E-3,1.466076635E-2,-1.099557430E-2
3.029162474E0,-7.941247895E-3,1.160643995E-2,-1.160643995E-2
3.031146702E0,-8.552113548E-3,9.162978269E-3,-1.221730467E-2
3.033159621E0,-8.552113548E-3,7.330383174E-3,-8.552113548E-3
3.035173849E0,-7.941247895E-3,3.054326167E-3,-8.552113548E-3
3.037157230E0,-8.552113548E-3,1.832595794E-3,-7.330383174E-3
3.039171996E0,-8.552113548E-3,-6.108652451E-4,-7.330383174E-3
3.041156223E0,-8.552113548E-3,-4.886921961E-3,-4.886921961E-3
3.043169526E0,-9.773843922E-3,-6.108652335E-3,-3.054326167E-3
3.045153446E0,-9.162978269E-3,-8.552113548E-3,-4.886921961E-3
3.047167596E0,-9.162978269E-3,-1.038470957E-2,-1.221730490E-3
3.049151285E0,-9.773843922E-3,-9.773843922E-3,-4.276056774E-3
3.051164281E0,-7.330383174E-3,-1.404990070E-2,-6.108652451E-4
3.053149817E0,-9.162978269E-3,-1.588249579E-2,-6.108652451E-4
3.055163890E0,-1.038470957E-2,-1.588249579E-2,1.221730490E-3
3.057146425E0,-9.773843922E-3,-1.649336144E-2,6.108652451E-4
3.059161729E0,-9.773843922E-3,-1.771509275E-2,4.886921961E-3
3.061145494E0,-1.038470957E-2,-1.771509275E-2,3.054326167E-3
3.063158953E0,-1.038470957E-2,-1.893682219E-2,4.276056774E-3
3.065173180E0,-1.038470957E-2,-1.649336144E-2,7.941247895E-3
3.067155946E0,-9.773843922E-3,-1.588249579E-2,8.552113548E-3
3.069170403E0,-9.162978269E-3,-1.527163107E-2,8.552113548E-3
3.071155247E0,-9.162978269E-3,-1.527163107E-2,7.941247895E-3
3.073168243E0,-7.330383174E-3,-1.099557430E-2,8.552113548E-3
3.075152547E0,-7.941247895E-3,-1.160643995E-2,1.038470957E-2
3.077165774E0,-6.108652335E-3,-7.941247895E-3,1.221730467E-2
3.079150078E0,-7.330383174E-3,-5.497787148E-3,1.160643995E-2
3.081164229E0,-7.941247895E-3,-3.665191587E-3,1.649336144E-2
3.083147917E0,-6.719517522E-3,-6.108652451E-4,1.649336144E-2
3.085161683E0,-7.330383174E-3,3.665191587E-3,1.710422710E-2
3.087145448E0,-6.719517522E-3,4.886921961E-3,2.199114859E-2
3.089159522E0,-5.497787148E-3,7.941247895E-3,2.015855350E-2
3.091170595E0,-3.665191587E-3,1.466076635E-2,2.687807009E-2
3.093157131E0,-3.054326167E-3,1.588249579E-2,2.809980139E-2
3.095172127E0,-1.221730490E-3,1.649336144E-2,3.054326214E-2
3.097154892E0,6.108652451E-4,2.138028294E-2,3.176499158E-2
3.099169043E0,3.054326167E-3,2.565634064E-2,3.787364438E-2
3.101154654E0,5.497787148E-3,2.809980139E-2,3.787364438E-2
3.103166959E0,9.773843922E-3,3.115412779E-2,4.092797264E-2
3.105150955E0,7.941247895E-3,3.237585723E-2,4.153883830E-2
3.107165029E0,1.221730467E-2,3.481931984E-2,4.581489414E-2
3.109148717E0,1.038470957E-2,3.543018550E-2,4.948008433E-2
3.111163176E0,1.160643995E-2,3.848451003E-2,4.825835302E-2
3.113145941E0,1.527163107E-2,3.970624134E-2,5.009094998E-2
3.115160783E0,1.404990070E-2,4.031710699E-2,5.375614017E-2
3.117144088E0,1.649336144E-2,4.276056588E-2,5.253441259E-2
3.119158315E0,1.466076635E-2,4.153883830E-2,5.375614017E-2
3.121173312E0,1.649336144E-2,4.092797264E-2,5.436700583E-2
3.123156384E0,1.893682219E-2,3.909537569E-2,5.253441259E-2
3.125170843E0,1.588249579E-2,4.337143153E-2,5.375614017E-2
3.127154224E0,1.404990070E-2,4.520402849E-2,5.375614017E-2
3.129167451E0,1.343903504E-2,4.825835302E-2,5.192354694E-2
3.131151140E0,1.160643995E-2,4.764748737E-2,5.314527452E-2
3.133167520E0,7.941247895E-3,4.948008433E-2,4.764748737E-2
3.135149979E0,9.773843922E-3,4.948008433E-2,4.703662544E-2
3.137163129E0,1.038470957E-2,4.825835302E-2,4.520402849E-2
3.139147818E0,6.719517522E-3,4.642575979E-2,4.398229718E-2
3.141162276E0,6.719517522E-3,4.703662544E-2,4.092797264E-2
3.143145273E0,4.276056774E-3,4.703662544E-2,3.848451003E-2
3.145159192E0,3.054326167E-3,4.642575979E-2,3.604105115E-2
3.147173342E0,1.221730490E-3,4.825835302E-2,2.871066704E-2
3.149156723E0,6.108652451E-4,4.520402849E-2,2.687807009E-2
3.151171796E0,-6.108652451E-4,4.886921868E-2,2.504547499E-2
3.153154562E0,-6.108652451E-4,5.009094998E-2,2.076941915E-2
3.155169328E0,-3.054326167E-3,5.253441259E-2,1.893682219E-2
3.157152401E0,-6.108652451E-4,5.497787148E-2,1.588249579E-2
3.159166244E0,-6.108652335E-3,5.681046844E-2,1.343903504E-2
3.161151164E0,-1.221730490E-3,6.169738993E-2,1.038470957E-2
3.163164314E0,-3.054326167E-3,6.291911751E-2,8.552113548E-3
3.165148618E0,-3.665191587E-3,6.536258012E-2,6.719517522E-3
3.167162230E0,-3.665191587E-3,6.719517708E-2,8.552113548E-3
3.169145611E0,-4.276056774E-3,6.902777404E-2,6.719517522E-3
3.171159992E0,-2.443460980E-3,6.780604273E-2,7.330383174E-3
3.173175065E0,-2.443460980E-3,6.719517708E-2,4.276056774E-3
3.175158139E0,-4.276056774E-3,6.841690838E-2,4.886921961E-3
3.177172904E0,-3.665191587E-3,6.780604273E-2,4.886921961E-3
3.179156286E0,-3.054326167E-3,6.719517708E-2,5.497787148E-3
3.181171435E0,-3.665191587E-3,6.230825558E-2,6.108652335E-3
3.183153817E0,-1.832595794E-3,5.742133409E-2,6.719517522E-3
3.185167736E0,-3.665191587E-3,5.497787148E-2,7.330383174E-3
3.187151425E0,-3.054326167E-3,5.009094998E-2,7.941247895E-3
3.189165575E0,-6.108652451E-4,4.398229718E-2,1.099557430E-2
3.191150494E0,-1.221730490E-3,4.092797264E-2,7.941247895E-3
3.193163953E0,-2.443460980E-3,3.665191308E-2,9.162978269E-3
3.195147641E0,6.108652451E-4,2.626720630E-2,7.941247895E-3
3.197161254E0,-1.832595794E-3,2.321287990E-2,8.552113548E-3
3.199145173E0,-1.221730490E-3,1.710422710E-2,7.330383174E-3
3.201160016E0,-3.054326167E-3,1.404990070E-2,7.330383174E-3
3.203173243E0,-2.443460980E-3,4.276056774E-3,7.330383174E-3
3.205156932E0,-3.665191587E-3,-1.832595794E-3,7.330383174E-3
3.207171082E0,-4.886921961E-3,-4.276056774E-3,4.886921961E-3
3.209154693E0,-3.665191587E-3,-1.160643995E-2,3.665191587E-3
3.211167921E0,-6.108652335E-3,-1.588249579E-2,3.665191587E-3
3.213153148E0,-8.552113548E-3,-1.649336144E-2,2.443460980E-3
3.215166145E0,-6.719517522E-3,-2.138028294E-2,2.443460980E-3
3.217149448E0,-7.330383174E-3,-2.565634064E-2,2.443460980E-3
3.219164292E0,-7.941247895E-3,-2.565634064E-2,1.221730490E-3
3.221148826E0,-9.773843922E-3,-2.626720630E-2,0.000000000E0
3.223161823E0,-9.162978269E-3,-2.626720630E-2,0.000000000E0
3.225146050E0,-1.038470957E-2,-2.321287990E-2,1.221730490E-3
3.227159661E0,-1.404990070E-2,-2.199114859E-2,1.221730490E-3
3.229174120E0,-1.221730467E-2,-1.954768784E-2,1.832595794E-3
3.231158039E0,-1.160643995E-2,-1.954768784E-2,3.054326167E-3
3.233171344E0,-1.282817032E-2,-1.771509275E-2,2.443460980E-3
3.235154647E0,-1.282817032E-2,-1.527163107E-2,1.832595794E-3
3.237169490E0,-1.466076635E-2,-1.160643995E-2,4.886921961E-3
3.239152871E0,-1.588249579E-2,-9.773843922E-3,3.665191587E-3
3.241167945E0,-1.466076635E-2,-7.941247895E-3,3.665191587E-3
3.243151864E0,-1.466076635E-2,-4.276056774E-3,3.054326167E-3
3.245166014E0,-1.649336144E-2,1.832595794E-3,6.108652335E-3
3.247149165E0,-1.466076635E-2,3.665191587E-3,6.108652335E-3
3.249163238E0,-1.710422710E-2,6.108652335E-3,6.719517522E-3
3.251145773E0,-1.832595654E-2,1.221730467E-2,8.552113548E-3
3.253160231E0,-1.710422710E-2,1.160643995E-2,7.941247895E-3
3.255175612E0,-1.832595654E-2,1.771509275E-2,5.497787148E-3
3.257158685E0,-1.649336144E-2,2.199114859E-2,5.497787148E-3
3.259172451E0,-1.710422710E-2,2.260201424E-2,5.497787148E-3
3.261157755E0,-1.954768784E-2,2.687807009E-2,4.886921961E-3
3.263170367E0,-1.893682219E-2,2.932153270E-2,7.941247895E-3
3.265154364E0,-1.954768784E-2,3.176499158E-2,6.719517522E-3
3.267167898E0,-1.954768784E-2,3.176499158E-2,5.497787148E-3
3.269151895E0,-1.832595654E-2,3.176499158E-2,5.497787148E-3
3.271166891E0,-2.076941915E-2,3.420845419E-2,4.886921961E-3
3.273150888E0,-1.893682219E-2,3.359758854E-2,5.497787148E-3
3.275163807E0,-1.771509275E-2,3.176499158E-2,5.497787148E-3
3.277147496E0,-1.771509275E-2,3.237585723E-2,6.108652335E-3
3.279162262E0,-1.649336144E-2,2.932153270E-2,5.497787148E-3
3.281146027E0,-1.771509275E-2,2.748893574E-2,4.886921961E-3
3.283159870E0,-1.466076635E-2,2.565634064E-2,7.330383174E-3
3.285173943E0,-1.404990070E-2,2.382374369E-2,6.108652335E-3
3.287157017E0,-1.466076635E-2,1.954768784E-2,5.497787148E-3
3.289171244E0,-1.343903504E-2,1.832595654E-2,6.719517522E-3
3.291154933E0,-1.343903504E-2,1.343903504E-2,9.162978269E-3
3.293169314E0,-1.282817032E-2,1.221730467E-2,7.941247895E-3
3.295153311E0,-1.343903504E-2,1.038470957E-2,1.038470957E-2
3.297167230E0,-1.160643995E-2,3.665191587E-3,1.221730467E-2
3.299151533E0,-1.282817032E-2,3.665191587E-3,9.162978269E-3
3.301165915E0,-1.038470957E-2,1.221730490E-3,1.038470957E-2
3.303148142E0,-9.162978269E-3,6.108652451E-4,1.038470957E-2
3.305162831E0,-7.330383174E-3,-3.665191587E-3,1.221730467E-2
3.307145981E0,-7.941247895E-3,-5.497787148E-3,1.221730467E-2
3.309159824E0,-6.108652335E-3,-7.330383174E-3,1.588249579E-2
3.311174820E0,-4.886921961E-3,-1.038470957E-2,1.343903504E-2
3.313157663E0,-3.054326167E-3,-1.038470957E-2,1.588249579E-2
3.315172967E0,-2.443460980E-3,-1.099557430E-2,1.466076635E-2
3.317156117E0,-1.832595794E-3,-1.282817032E-2,1.710422710E-2
3.319169960E0,1.221730490E-3,-1.282817032E-2,1.588249579E-2
3.321155418E0,2.443460980E-3,-1.343903504E-2,1.588249579E-2
3.323167107E0,1.832595794E-3,-1.343903504E-2,1.771509275E-2
3.325151487E0,1.832595794E-3,-1.221730467E-2,1.771509275E-2
3.327165331E0,3.665191587E-3,-1.160643995E-2,1.710422710E-2
3.329148634E0,3.054326167E-3,-1.160643995E-2,1.649336144E-2
3.331161324E0,3.665191587E-3,-1.038470957E-2,1.404990070E-2
3.333146781E0,3.054326167E-3,-6.719517522E-3,1.282817032E-2
3.335161546E0,4.886921961E-3,-5.497787148E-3,1.404990070E-2
3.337145313E0,4.276056774E-3,-5.497787148E-3,1.221730467E-2
3.339159155E0,3.665191587E-3,-3.665191587E-3,1.038470957E-2
3.341174152E0,4.886921961E-3,0.000000000E0,1.221730467E-2
3.343157225E0,3.665191587E-3,3.665191587E-3,1.099557430E-2
3.345171376E0,5.497787148E-3,4.276056774E-3,9.773843922E-3
3.347154833E0,2.443460980E-3,6.719517522E-3,9.162978269E-3
3.349168984E0,4.886921961E-3,9.162978269E-3,8.552113548E-3
3.351153826E0,2.443460980E-3,9.773843922E-3,6.719517522E-3
3.353167131E0,2.443460980E-3,1.527163107E-2,6.108652335E-3
3.355149896E0,2.443460980E-3,1.466076635E-2,6.719517522E-3
3.357164584E0,4.276056774E-3,1.832595654E-2,7.941247895E-3
3.359147658E0,2.443460980E-3,2.138028294E-2,6.108652335E-3
3.361163039E0,2.443460980E-3,2.199114859E-2,6.108652335E-3
3.363146190E0,4.276056774E-3,2.321287990E-2,7.330383174E-3
3.365160032E0,3.054326167E-3,2.504547499E-2,6.719517522E-3
3.367174106E0,4.276056774E-3,2.871066704E-2,7.941247895E-3
3.369158179E0,2.443460980E-3,3.176499158E-2,5.497787148E-3
3.371171945E0,3.054326167E-3,2.993239649E-2,9.162978269E-3
3.373156249E0,3.665191587E-3,3.298672289E-2,9.162978269E-3
3.375169552E0,3.054326167E-3,3.726277873E-2,1.160643995E-2
3.377153165E0,7.330383174E-3,3.420845419E-2,1.282817032E-2
3.379167930E0,7.330383174E-3,3.359758854E-2,1.466076635E-2
3.381152850E0,8.552113548E-3,3.604105115E-2,1.466076635E-2
3.383165231E0,7.941247895E-3,3.543018550E-2,1.527163107E-2
3.385149151E0,9.162978269E-3,3.543018550E-2,1.710422710E-2
3.387163993E0,1.099557430E-2,3.115412779E-2,1.893682219E-2
3.389146759E0,1.099557430E-2,3.176499158E-2,1.832595654E-2
3.391162371E0,1.466076635E-2,2.748893574E-2,1.832595654E-2
3.393144828E0,1.404990070E-2,2.443460934E-2,2.138028294E-2
3.395159056E0,1.588249579E-2,2.138028294E-2,2.138028294E-2
3.397172590E0,1.404990070E-2,1.771509275E-2,2.382374369E-2
3.399156895E0,1.527163107E-2,1.404990070E-2,2.382374369E-2
3.401171968E0,1.527163107E-2,7.330383174E-3,2.260201424E-2
3.403155042E0,1.588249579E-2,4.276056774E-3,2.443460934E-2
3.405168269E0,1.527163107E-2,6.108652451E-4,2.382374369E-2
3.407151958E0,1.404990070E-2,-6.108652335E-3,2.382374369E-2
3.409166646E0,1.527163107E-2,-1.099557430E-2,2.199114859E-2
3.411149104E0,1.466076635E-2,-1.160643995E-2,2.382374369E-2
3.413163255E0,1.466076635E-2,-2.015855350E-2,2.260201424E-2
3.415146712E0,1.404990070E-2,-2.321287990E-2,2.321287990E-2
3.417162094E0,1.466076635E-2,-2.809980139E-2,2.076941915E-2
3.419145167E0,1.282817032E-2,-3.115412779E-2,1.893682219E-2
3.421161087E0,1.160643995E-2,-3.543018550E-2,1.771509275E-2
3.423144160E0,1.160643995E-2,-3.543018550E-2,1.588249579E-2
3.425158080E0,9.773843922E-3,-3.726277873E-2,1.282817032E-2
3.427171845E0,1.099557430E-2,-3.787364438E-2,1.099557430E-2
3.429155610E0,8.552113548E-3,-3.787364438E-2,9.162978269E-3
3.431169992E0,1.038470957E-2,-3.665191308E-2,6.719517522E-3
3.433153373E0,7.941247895E-3,-3.665191308E-2,6.108652335E-3
3.435166908E0,7.941247895E-3,-3.298672289E-2,5.497787148E-3
3.437150673E0,9.773843922E-3,-2.993239649E-2,4.276056774E-3
3.439165363E0,6.108652335E-3,-2.565634064E-2,3.054326167E-3
3.441149743E0,8.552113548E-3,-2.138028294E-2,4.276056774E-3
3.443162586E0,9.773843922E-3,-1.466076635E-2,3.665191587E-3
3.445147198E0,1.038470957E-2,-1.282817032E-2,4.886921961E-3
3.447160425E0,9.162978269E-3,-7.330383174E-3,7.330383174E-3
3.449144422E0,1.343903504E-2,-3.665191587E-3,7.941247895E-3
3.451157648E0,1.038470957E-2,1.832595794E-3,1.038470957E-2
3.453172799E0,1.404990070E-2,5.497787148E-3,1.282817032E-2
3.455156795E0,1.588249579E-2,7.330383174E-3,1.404990070E-2
3.457169715E0,1.343903504E-2,1.160643995E-2,1.649336144E-2
3.459154019E0,1.710422710E-2,1.221730467E-2,1.832595654E-2
3.461169939E0,1.832595654E-2,1.527163107E-2,1.832595654E-2
3.463151781E0,1.832595654E-2,1.588249579E-2,2.199114859E-2
3.465166623E0,2.076941915E-2,1.588249579E-2,2.504547499E-2
3.467149390E0,2.199114859E-2,1.466076635E-2,2.809980139E-2
3.469163463E0,2.138028294E-2,1.588249579E-2,2.809980139E-2
3.471147844E0,2.382374369E-2,1.160643995E-2,2.626720630E-2
3.473160994E0,2.626720630E-2,1.038470957E-2,2.687807009E-2
3.475144991E0,2.809980139E-2,7.941247895E-3,2.687807009E-2
3.477159218E0,2.565634064E-2,7.330383174E-3,2.748893574E-2
3.479173599E0,2.443460934E-2,4.886921961E-3,2.871066704E-2
3.481158903E0,2.626720630E-2,2.443460980E-3,2.748893574E-2
3.483171438E0,2.687807009E-2,-2.443460980E-3,2.748893574E-2
3.485155204E0,2.687807009E-2,-4.276056774E-3,2.626720630E-2
3.487169277E0,2.626720630E-2,-9.773843922E-3,2.565634064E-2
3.489152658E0,2.687807009E-2,-1.404990070E-2,2.443460934E-2
3.491164731E0,2.748893574E-2,-1.343903504E-2,2.626720630E-2
3.493150267E0,2.626720630E-2,-2.015855350E-2,2.382374369E-2
3.495164955E0,2.626720630E-2,-2.260201424E-2,2.382374369E-2
3.497148337E0,2.443460934E-2,-2.871066704E-2,2.321287990E-2
3.499162563E0,2.443460934E-2,-2.993239649E-2,2.015855350E-2
3.501147714E0,2.504547499E-2,-3.359758854E-2,2.015855350E-2
3.503161326E0,2.687807009E-2,-3.359758854E-2,1.832595654E-2
3.505144014E0,2.565634064E-2,-3.787364438E-2,1.710422710E-2
3.507158550E0,2.687807009E-2,-3.909537569E-2,1.466076635E-2
3.509171469E0,2.321287990E-2,-3.848451003E-2,1.404990070E-2
3.511156312E0,2.626720630E-2,-4.092797264E-2,1.527163107E-2
3.513170769E0,2.199114859E-2,-4.092797264E-2,1.404990070E-2
3.515154228E0,2.626720630E-2,-3.848451003E-2,1.282817032E-2
3.517167762E0,2.443460934E-2,-3.848451003E-2,1.038470957E-2
3.519151375E0,2.321287990E-2,-3.909537569E-2,9.773843922E-3
3.521166755E0,2.382374369E-2,-3.787364438E-2,1.099557430E-2
3.523149597E0,2.443460934E-2,-3.543018550E-2,8.552113548E-3
3.525163748E0,2.504547499E-2,-3.481931984E-2,8.552113548E-3
3.527146437E0,2.504547499E-2,-3.359758854E-2,8.552113548E-3
3.529161203E0,2.382374369E-2,-3.115412779E-2,1.038470957E-2
3.531144353E0,2.260201424E-2,-2.809980139E-2,9.773843922E-3
3.533159734E0,2.504547499E-2,-2.748893574E-2,1.099557430E-2
3.535174423E0,2.565634064E-2,-2.504547499E-2,9.773843922E-3
3.537156650E0,2.504547499E-2,-2.076941915E-2,1.160643995E-2
3.539171723E0,2.687807009E-2,-1.771509275E-2,1.588249579E-2
3.541155104E0,2.687807009E-2,-1.466076635E-2,1.527163107E-2
3.543169486E0,2.932153270E-2,-9.162978269E-3,1.954768784E-2
3.545153174E0,3.054326214E-2,-7.941247895E-3,2.321287990E-2
3.547166171E0,3.054326214E-2,-6.108652335E-3,2.443460934E-2
3.549150705E0,3.298672289E-2,-6.108652451E-4,2.871066704E-2
3.551165549E0,3.237585723E-2,1.221730490E-3,3.359758854E-2
3.553148314E0,3.420845419E-2,1.221730490E-3,3.359758854E-2
3.555162388E0,3.481931984E-2,4.886921961E-3,3.909537569E-2
3.557145768E0,3.604105115E-2,3.054326167E-3,3.909537569E-2
3.559160303E0,3.604105115E-2,5.497787148E-3,4.214970022E-2
3.561144838E0,3.787364438E-2,6.719517522E-3,4.642575979E-2
3.563158142E0,3.787364438E-2,1.832595794E-3,4.886921868E-2
3.565171677E0,3.787364438E-2,1.221730490E-3,5.070181563E-2
3.567155289E0,3.726277873E-2,1.832595794E-3,5.192354694E-2
3.569169517E0,3.848451003E-2,-1.221730490E-3,5.314527452E-2
3.571152282E0,3.787364438E-2,-1.221730490E-3,5.558873713E-2
3.573166971E0,3.726277873E-2,-2.443460980E-3,5.497787148E-2
3.575151583E0,3.481931984E-2,-5.497787148E-3,5.681046844E-2
3.577165117E0,3.787364438E-2,-1.160643995E-2,5.925392732E-2
3.579148806E0,3.481931984E-2,-1.404990070E-2,5.864306539E-2
3.581164187E0,3.481931984E-2,-1.527163107E-2,5.619960278E-2
3.583147338E0,3.481931984E-2,-2.076941915E-2,6.169738993E-2
3.585160795E0,3.359758854E-2,-2.443460934E-2,5.925392732E-2
3.587143946E0,3.176499158E-2,-2.626720630E-2,6.169738993E-2
3.589159019E0,3.237585723E-2,-2.993239649E-2,5.803219974E-2
3.591173478E0,3.054326214E-2,-3.359758854E-2,6.169738993E-2
3.593156474E0,2.871066704E-2,-3.420845419E-2,6.047565863E-2
3.595170623E0,2.993239649E-2,-3.543018550E-2,5.925392732E-2
3.597154620E0,2.993239649E-2,-3.970624134E-2,6.047565863E-2
3.599168463E0,2.748893574E-2,-3.787364438E-2,6.047565863E-2
3.601153152E0,2.932153270E-2,-3.970624134E-2,6.230825558E-2
3.603166686E0,3.054326214E-2,-3.787364438E-2,6.047565863E-2
3.605150376E0,2.932153270E-2,-3.543018550E-2,6.352998316E-2
3.607164141E0,3.054326214E-2,-3.359758854E-2,6.841690838E-2
3.609147600E0,3.115412779E-2,-2.871066704E-2,6.841690838E-2
3.611161442E0,3.420845419E-2,-2.565634064E-2,7.208210230E-2
3.613146668E0,3.420845419E-2,-1.893682219E-2,7.513642311E-2
3.615159896E0,3.420845419E-2,-1.588249579E-2,7.696902007E-2
3.617142892E0,3.848451003E-2,-1.038470957E-2,8.002334833E-2
3.619157351E0,4.153883830E-2,-2.443460980E-3,8.552113175E-2
3.621173039E0,4.520402849E-2,0.000000000E0,8.674286306E-2
3.623155805E0,4.825835302E-2,7.330383174E-3,9.468411654E-2
3.625169955E0,5.009094998E-2,1.221730467E-2,9.590584040E-2
3.627153029E0,5.436700583E-2,2.138028294E-2,1.026253626E-1
3.629167871E0,6.291911751E-2,2.993239649E-2,1.087340117E-1
3.631152098E0,6.230825558E-2,3.543018550E-2,1.142318025E-1
3.633165710E0,7.024950534E-2,4.581489414E-2,1.209513173E-1
3.635148476E0,7.635815442E-2,5.803219974E-2,1.301143020E-1
3.637162319E0,8.063421398E-2,6.414084882E-2,1.356120855E-1
3.639146853E0,8.796459436E-2,7.452555746E-2,1.411098689E-1
3.641161389E0,9.407325089E-2,8.613199741E-2,1.533271819E-1
3.643144154E0,1.007927656E-1,9.224065393E-2,1.588249654E-1
3.645158305E0,1.075122803E-1,1.032362282E-1,1.692096740E-1
3.647172147E0,1.166752651E-1,1.130100712E-1,1.795943826E-1
3.649156143E0,1.215621829E-1,1.185078546E-1,1.844813079E-1
3.651166832E0,1.295034289E-1,1.319468915E-1,1.936442852E-1
3.653153674E0,1.398881376E-1,1.398881376E-1,2.070833147E-1
3.655168133E0,1.459967941E-1,1.472185254E-1,2.113593817E-1
3.657151744E0,1.539380401E-1,1.612684280E-1,2.247984111E-1
3.659166280E0,1.600466967E-1,1.649336219E-1,2.290744632E-1
3.661150584E0,1.692096740E-1,1.795943826E-1,2.412917763E-1
3.663163811E0,1.789835095E-1,1.893682331E-1,2.535090744E-1
3.665147423E0,1.802052408E-1,1.991420686E-1,2.577851415E-1
3.667160957E0,1.899790913E-1,2.101376504E-1,2.700024247E-1
3.669145647E0,1.948660165E-1,2.260201424E-1,2.822197378E-1
3.671160335E0,2.009746730E-1,2.302961946E-1,2.889392674E-1
3.673143716E0,2.076941878E-1,2.467895597E-1,3.042109013E-1
3.675157020E0,2.125810981E-1,2.620611787E-1,3.158173263E-1
3.677171171E0,2.138028294E-1,2.669481039E-1,3.219259977E-1
3.679155090E0,2.211332172E-1,2.809980214E-1,3.347541690E-1
3.681169933E0,2.266310006E-1,2.968805134E-1,3.512475193E-1
3.683153237E0,2.247984111E-1,3.115412891E-1,3.579670191E-1
3.685165926E0,2.247984111E-1,3.274237812E-1,3.720169365E-1
3.687150230E0,2.260201424E-1,3.433062732E-1,3.811798990E-1
3.689164611E0,2.266310006E-1,3.506366611E-1,3.982841372E-1
3.691147761E0,2.266310006E-1,3.677408695E-1,4.153883755E-1
3.693162834E0,2.278527319E-1,3.781255782E-1,4.251621962E-1
3.695146524E0,2.260201424E-1,3.940080702E-1,4.459316432E-1
3.697159135E0,2.235766798E-1,4.147774875E-1,4.636467099E-1
3.699174132E0,2.217440903E-1,4.214970171E-1,4.740314186E-1
3.701158743E0,2.186897546E-1,4.392121136E-1,4.911356568E-1
3.703172587E0,2.125810981E-1,4.538728893E-1,5.161811113E-1
3.705155660E0,2.107485086E-1,4.593706727E-1,5.259549618E-1
3.707170117E0,2.046398520E-1,4.709770977E-1,5.461135507E-1
3.709153576E0,2.009746730E-1,4.813618064E-1,5.705481172E-1
3.711168264E0,1.966986060E-1,4.880813360E-1,5.803219676E-1
3.713152030E0,1.918116808E-1,4.954117239E-1,6.059783101E-1
3.715165257E0,1.838704348E-1,5.015203953E-1,6.298020482E-1
3.717149254E0,1.795943826E-1,5.033529401E-1,6.401867867E-1
3.719163404E0,1.710422635E-1,5.082398653E-1,6.640105247E-1
3.721147708E0,1.692096740E-1,5.088507533E-1,6.774495840E-1
3.723161858E0,1.618792862E-1,5.082398653E-1,7.024950385E-1
3.725144316E0,1.521054506E-1,5.064072609E-1,7.287622094E-1
3.727159082E0,1.484402567E-1,5.057964325E-1,7.391469479E-1
3.729173770E0,1.392772794E-1,5.021312237E-1,7.629706860E-1
3.731155921E0,1.270599663E-1,4.990769029E-1,7.910705209E-1
3.733170994E0,1.240056455E-1,4.948008358E-1,8.038986921E-1
3.735154991E0,1.130100712E-1,4.893030524E-1,8.265006542E-1
3.737168603E0,1.032362282E-1,4.844161272E-1,8.521569967E-1
3.739152215E0,1.007927656E-1,4.807509482E-1,8.686503768E-1
3.741167596E0,9.101892263E-2,4.709770977E-1,8.973610401E-1
3.743150438E0,8.002334833E-2,4.654793143E-1,9.230173826E-1
3.745164512E0,7.757988572E-2,4.612032473E-1,9.382890463E-1
3.747147662E0,7.269296050E-2,4.526511431E-1,9.682214260E-1
3.749162043E0,6.291911751E-2,4.447098970E-1,9.975429177E-1
3.751146424E0,6.291911751E-2,4.434881806E-1,1.012203693E0
3.753159652E0,5.436700583E-2,4.392121136E-1,1.040914416E0
3.755143263E0,4.948008433E-2,4.392121136E-1,1.058629513E0
3.757157491E0,4.642575979E-2,4.361577928E-1,1.091616154E0
3.759172179E0,4.092797264E-2,4.392121136E-1,1.120937705E0
3.761156560E0,3.909537569E-2,4.410447180E-1,1.137431145E0
3.763170018E0,3.665191308E-2,4.410447180E-1,1.167974353E0
3.765153399E0,3.359758854E-2,4.459316432E-1,1.202182770E0
3.767167550E0,3.420845419E-2,4.440990388E-1,1.218676209E0
3.769151007E0,3.054326214E-2,4.514294267E-1,1.249219418E0
3.771164850E0,2.993239649E-2,4.557054639E-1,1.284038782E0
3.773149077E0,2.932153270E-2,4.593706727E-1,1.301753879E0
3.775163228E0,2.871066704E-2,4.685336351E-1,1.338405728E0
3.777146609E0,3.054326214E-2,4.795292318E-1,1.376890302E0
3.779161374E0,3.176499158E-2,4.862487316E-1,1.397048831E0
3.781146294E0,3.054326214E-2,5.009095073E-1,1.434311628E0
3.783158905E0,3.054326214E-2,5.198463202E-1,1.474628687E0
3.785172518E0,2.932153270E-2,5.308418870E-1,1.494787216E0
3.787155898E0,2.871066704E-2,5.522221923E-1,1.538769603E0
3.789170049E0,2.748893574E-2,5.626068711E-1,1.559538960E0
3.791154891E0,2.809980139E-2,5.815436840E-1,1.602910399E0
3.793168427E0,3.115412779E-2,6.053674817E-1,1.647503614E0
3.795151577E0,2.932153270E-2,6.139195561E-1,1.669494748E0
3.797165650E0,3.054326214E-2,6.340781450E-1,1.713477015E0
3.799150031E0,3.115412779E-2,6.517932415E-1,1.759902716E0
3.801165412E0,3.054326214E-2,6.609562039E-1,1.781893969E0
3.803147563E0,3.237585723E-2,6.737843752E-1,1.827708840E0
3.805161636E0,3.115412779E-2,6.945537925E-1,1.874134541E0
3.807145633E0,3.115412779E-2,7.043276429E-1,1.899180055E0
3.809159552E0,2.809980139E-2,7.214318514E-1,1.949881911E0
3.811142010E0,2.626720630E-2,7.415903807E-1,1.999972820E0
3.813156391E0,2.748893574E-2,7.507534027E-1,2.024407387E0
3.815171771E0,1.954768784E-2,7.733554244E-1,2.079385281E0
3.817155230E0,1.649336144E-2,7.947356701E-1,2.131919622E0
3.819169688E0,1.282817032E-2,8.069530129E-1,2.157576084E0
3.821154608E0,8.552113548E-3,8.307767510E-1,2.214386463E0
3.823167834E0,5.497787148E-3,8.429940343E-1,2.240042925E0
3.825150293E0,1.221730490E-3,8.680394888E-1,2.295020819E0
3.827165289E0,-5.497787148E-3,8.961393237E-1,2.351220369E0
3.829148132E0,-1.038470957E-2,9.089674950E-1,2.378709316E0
3.831163820E0,-1.771509275E-2,9.321803451E-1,2.432465315E0
3.833146587E0,-2.748893574E-2,9.553932548E-1,2.488054037E0
3.835160044E0,-3.115412779E-2,9.663888216E-1,2.514321327E0
3.837144117E0,-4.276056588E-2,9.853256345E-1,2.566244841E0
3.839158806E0,-5.253441259E-2,9.999864101E-1,2.615114212E0
3.841173264E0,-5.742133409E-2,1.004873276E0,2.642603159E0
3.843156338E0,-6.963863969E-2,1.014647126E0,2.689028740E0
3.845170257E0,-8.124507964E-2,1.018312335E0,2.736065388E0
3.847153639E0,-8.857546002E-2,1.021366715E0,2.753780603E0
3.849168327E0,-1.014036313E-1,1.016479731E0,2.798373699E0
3.851151093E0,-1.099557430E-1,1.015868902E0,2.817921400E0
3.853166551E0,-1.252273768E-1,1.010982037E0,2.857016802E0
3.855149547E0,-1.392772794E-1,1.003040791E0,2.893057823E0
3.857162544E0,-1.490511149E-1,9.975429177E-1,2.911383867E0
3.859147463E0,-1.637118906E-1,9.859365225E-1,2.946814060E0
3.861162460E0,-1.795943826E-1,9.718865752E-1,2.982855082E0
3.863145840E0,-1.881465018E-1,9.645562172E-1,2.998737574E0
3.865158837E0,-2.034181207E-1,9.511171579E-1,3.032945871E0
3.867173603E0,-2.217440903E-1,9.382890463E-1,3.068376064E0
3.869156907E0,-2.321287990E-1,9.279043078E-1,3.085480452E0
3.871172057E0,-2.474004179E-1,9.132435322E-1,3.122743130E0
3.873155438E0,-2.632829249E-1,8.967501521E-1,3.156951666E0
3.875168589E0,-2.736676335E-1,8.881980777E-1,3.175888300E0
3.877153200E0,-2.883284092E-1,8.668177724E-1,3.212540388E0
3.879166505E0,-3.023782969E-1,8.454375267E-1,3.249192238E0
3.881150808E0,-3.103195429E-1,8.326093554E-1,3.266907215E0
3.883164652E0,-3.262020350E-1,8.057312369E-1,3.306613684E0
3.885148340E0,-3.347541690E-1,7.892379165E-1,3.324328661E0
3.887162414E0,-3.494149148E-1,7.586946487E-1,3.364034891E0
3.889145871E0,-3.652974069E-1,7.202101350E-1,3.401908636E0
3.891155714E0,-3.714060783E-1,6.988298297E-1,3.421456337E0
3.893174480E0,-3.885102868E-1,6.572909951E-1,3.459329844E0
3.895157784E0,-4.056145251E-1,6.090326309E-1,3.494760036E0
3.897172319E0,-4.111123085E-1,5.821545720E-1,3.513086081E0
3.899155930E0,-4.245513380E-1,5.326744914E-1,3.548516273E0
3.901170697E0,-4.428772926E-1,4.752531648E-1,3.579059362E0
3.903153846E0,-4.483750761E-1,4.459316432E-1,3.591887712E0
3.905167997E0,-4.624249935E-1,3.854559660E-1,3.623652697E0
3.907151070E0,-4.783074856E-1,3.255911767E-1,3.654806852E0
3.909165759E0,-4.850270152E-1,2.932153046E-1,3.668856621E0
3.911149756E0,-4.996877611E-1,2.315179259E-1,3.694513083E0
3.913164290E0,-5.125159621E-1,1.643227488E-1,3.719558477E0
3.915147672E0,-5.174028873E-1,1.337794960E-1,3.731775761E0
3.917161437E0,-5.314527750E-1,7.147123665E-2,3.755599499E0
3.919144588E0,-5.363397002E-1,3.848451003E-2,3.767205954E0
3.921159968E0,-5.455026627E-1,-2.382374369E-2,3.789808035E0
3.923142350E0,-5.552765131E-1,-8.368854225E-2,3.809355736E0
3.925156884E0,-5.613851547E-1,-1.099557430E-1,3.819129467E0
3.927170419E0,-5.717698932E-1,-1.692096740E-1,3.839898825E0
3.929154416E0,-5.791002512E-1,-2.235766798E-1,3.854559660E0
3.931168489E0,-5.815436840E-1,-2.492330223E-1,3.861890078E0
3.933152870E0,-5.894849896E-1,-2.956587672E-1,3.877772570E0
3.935167020E0,-5.968153477E-1,-3.420845270E-1,3.893655062E0
3.937149479E0,-5.980370641E-1,-3.610213697E-1,3.899763823E0
3.939163936E0,-5.992587805E-1,-4.043927789E-1,3.913202763E0
3.941149087E0,-6.023131609E-1,-4.386012554E-1,3.927252769E0
3.943162083E0,-6.029239893E-1,-4.557054639E-1,3.933972120E0
3.945146002E0,-6.023131609E-1,-4.886921942E-1,3.943135262E0
3.947159845E0,-6.047565937E-1,-5.161811113E-1,3.956574202E0
3.949143226E0,-6.041457057E-1,-5.314527750E-1,3.963904619E0
3.951158069E0,-6.041457057E-1,-5.564982295E-1,3.973678350E0
3.953172142E0,-6.053674817E-1,-5.662720799E-1,3.977343559E0
3.955155216E0,-6.017022729E-1,-5.888741016E-1,3.988950014E0
3.957169443E0,-5.974262357E-1,-6.114761233E-1,3.994447947E0
3.959153440E0,-5.949827433E-1,-6.212499738E-1,4.000556469E0
3.961168513E0,-5.913175344E-1,-6.395758986E-1,4.011551857E0
3.963150970E0,-5.888741016E-1,-6.530149579E-1,4.016438961E0
3.965165044E0,-5.852088928E-1,-6.627888083E-1,4.020104408E0
