"Time (s)","Linear Acceleration x (m/s^2)","Linear Acceleration y (m/s^2)","Linear Acceleration z (m/s^2)"
1.515697800E-2,-2.254071236E-1,7.286400795E-1,-8.186807632E-1
2.315542500E-2,-2.083368301E-1,7.012658119E-1,-8.912401199E-1
3.115141100E-2,-1.152074337E-1,6.136946678E-1,-8.653278351E-1
3.917755000E-2,-7.807350159E-2,5.547552109E-1,-8.025512695E-1
4.717292100E-2,-1.202063560E-1,5.147771835E-1,-6.538848877E-1
5.516921400E-2,-8.789110184E-2,4.625873566E-1,-7.391867638E-1
6.316458400E-2,-4.848504066E-2,4.388551712E-1,-7.650403976E-1
7.115972400E-2,-7.516860962E-2,3.940782547E-1,-7.328429222E-1
7.915501800E-2,-1.121542454E-1,3.537387848E-1,-6.245226860E-1
8.715046600E-2,-9.194684029E-2,2.429704666E-1,-4.913120270E-1
9.517752700E-2,-1.055986881E-1,1.129956245E-1,-4.252014160E-1
1.031725900E-1,-1.501071453E-1,4.160594940E-2,-4.017639160E-1
1.111688840E-1,-2.491310835E-1,3.110504150E-2,-3.221120834E-1
1.191636390E-1,-3.767358065E-1,-1.287508011E-2,-2.893090248E-1
1.271592400E-1,-4.369742870E-1,-4.217576981E-2,-3.184142113E-1
1.351555330E-1,-4.702390432E-1,-1.083140373E-1,-3.493123055E-1
1.431497500E-1,-4.806109667E-1,-1.408762932E-1,-2.890429497E-1
1.511776590E-1,-4.914978743E-1,-1.996426582E-1,-2.310042381E-1
1.591724920E-1,-2.519710064E-1,-3.303170204E-1,-2.256407738E-1
1.671680920E-1,-9.851455688E-4,-4.090638161E-1,-2.579746246E-1
1.751637700E-1,1.945294142E-1,-4.975256920E-1,-2.557430267E-1
1.831595260E-1,3.049818277E-1,-5.258545876E-1,-2.541542053E-1
1.911552040E-1,3.332692385E-1,-5.173487663E-1,-2.353796959E-1
1.991499590E-1,2.765947580E-1,-5.236606598E-1,-1.570377350E-1
2.071757900E-1,2.950639725E-1,-5.135855675E-1,-7.851362228E-2
2.151714690E-1,2.004171610E-1,-5.120368004E-1,2.030134201E-2
2.231673780E-1,8.504414558E-2,-5.359649658E-1,1.592054367E-1
2.311636710E-1,-4.164695740E-3,-6.059637070E-1,3.161082268E-1
2.391591180E-1,-7.140493393E-2,-6.461992264E-1,4.294171333E-1
2.471544120E-1,-1.166353226E-1,-7.238330841E-1,4.607577324E-1
2.551510900E-1,-9.839057922E-2,-7.320928574E-1,4.194426537E-1
2.631763070E-1,-1.910495758E-2,-7.143549919E-1,3.508458138E-1
2.711719850E-1,1.035164595E-1,-6.830849648E-1,2.535023689E-1
2.791669700E-1,2.142027617E-1,-6.521849632E-1,2.271537781E-1
2.871632640E-1,2.765846252E-1,-6.074800491E-1,1.744565964E-1
2.951589420E-1,3.097125292E-1,-5.894365311E-1,1.471538544E-1
3.031546200E-1,3.098496199E-1,-5.731167793E-1,1.539173126E-1
3.111499910E-1,2.776187658E-1,-5.581569672E-1,2.743873596E-1
3.191752070E-1,2.061372995E-1,-5.662355423E-1,3.360848427E-1
3.271711930E-1,1.169605255E-1,-5.902924538E-1,4.520554543E-1
3.351669480E-1,6.983768940E-2,-6.020193100E-1,5.602293015E-1
3.431623190E-1,4.473817348E-2,-5.920543671E-1,5.863580704E-1
3.511588420E-1,1.417354345E-1,-5.704545975E-1,6.616692543E-1
3.591533670E-1,2.851011753E-1,-5.515880585E-1,6.231069565E-1
3.671492760E-1,5.106509924E-1,-5.639190674E-1,5.517301559E-1
3.751754160E-1,6.917018890E-1,-5.885682106E-1,4.248428345E-1
3.831711710E-1,8.403658867E-1,-6.324586868E-1,1.868748665E-1
3.911674640E-1,8.416788578E-1,-5.970540047E-1,-6.195449829E-2
3.991625270E-1,7.496408224E-1,-5.389652252E-1,-1.845884323E-1
4.071569740E-1,5.642675161E-1,-4.310860634E-1,-2.758727074E-1
4.151535760E-1,3.935908079E-1,-3.731651306E-1,-2.846322060E-1
4.231491760E-1,1.880868673E-1,-3.793873787E-1,-2.603893280E-1
4.311759310E-1,-1.087784767E-2,-3.587551117E-1,-2.288846970E-1
4.391701480E-1,-2.339377403E-1,-3.403630257E-1,-1.612143517E-1
4.471658260E-1,-4.212517738E-1,-3.434829712E-1,-1.237583160E-1
4.551611200E-1,-5.335662365E-1,-3.293962479E-1,-1.226658821E-1
4.631571820E-1,-5.600864887E-1,-2.800917625E-1,-2.070040703E-1
4.711533990E-1,-4.916511774E-1,-2.091302872E-1,-3.117408752E-1
4.791786930E-1,-3.340148926E-1,-1.495833397E-1,-4.391503334E-1
4.871743710E-1,-2.560416460E-1,-8.266210556E-2,-5.038685799E-1
4.951703560E-1,-1.772278547E-1,-3.501319885E-2,-5.403141975E-1
5.031662650E-1,-1.161208153E-1,2.621793747E-2,-5.280084610E-1
5.111620200E-1,-1.093864441E-1,6.754779816E-2,-4.793591499E-1
5.191567750E-1,-1.921476126E-1,1.318616867E-1,-4.356527328E-1
5.271523770E-1,-2.804629803E-1,1.762576103E-1,-3.751606941E-1
5.351789000E-1,-3.538086414E-1,1.864638329E-1,-2.950062752E-1
5.431742710E-1,-4.395216703E-1,1.577863693E-1,-1.994996071E-1
5.511707950E-1,-4.956321716E-1,1.027140617E-1,-1.737351418E-1
5.591655510E-1,-5.057909489E-1,3.344917297E-2,-1.717624664E-1
5.671609980E-1,-4.329589605E-1,-3.563022614E-2,-1.859316826E-1
5.751569060E-1,-3.807446957E-1,-7.830238342E-2,-1.994132996E-1
5.831516620E-1,-3.228217363E-1,-9.944581985E-2,-1.812076569E-1
5.911784940E-1,-2.377972603E-1,-1.377739906E-1,-1.725163460E-1
5.991737870E-1,-1.071332693E-1,-1.958374977E-1,-2.044873238E-1
6.071694650E-1,-3.605413437E-2,-2.185626030E-1,-2.627916336E-1
6.151651430E-1,-2.539157867E-5,-2.318620682E-1,-3.350811005E-1
6.231612060E-1,-1.965796947E-2,-2.280750275E-1,-3.851051331E-1
6.311571150E-1,-1.056091785E-1,-2.068514824E-1,-3.888816833E-1
6.391516400E-1,-1.641635895E-1,-1.277818680E-1,-3.852348328E-1
6.471774710E-1,-2.283793688E-1,-7.492637634E-2,-3.531394005E-1
6.551736880E-1,-2.846261263E-1,-3.439474106E-2,-2.786512375E-1
6.631697510E-1,-3.123327494E-1,1.013755798E-2,-1.716303825E-1
6.711651210E-1,-2.509384155E-1,-6.173133850E-3,-7.249069214E-2
6.791601070E-1,-2.093641758E-1,9.982585907E-3,-2.881097794E-2
6.871554770E-1,-1.566540003E-1,8.418560028E-3,1.226568222E-2
6.951521550E-1,-8.974277973E-2,2.759599686E-2,4.425048828E-4
7.031785260E-1,-2.024352551E-2,6.279516220E-2,3.385734558E-2
7.111732810E-1,6.211423874E-2,7.824468613E-2,5.022764206E-2
7.191687280E-1,9.594595432E-2,5.490398407E-2,6.616735458E-2
7.271640980E-1,1.321494579E-1,5.037260056E-2,6.729125977E-2
7.351606230E-1,7.776641846E-2,4.778289795E-2,7.722806931E-2
7.431551470E-1,3.341615200E-2,3.507852554E-2,4.793882370E-2
7.511514410E-1,-3.584623337E-3,-9.286403656E-3,-3.717422485E-3
7.591772720E-1,-1.934683323E-2,-6.377172470E-2,-5.603122711E-2
7.671722580E-1,-3.292489052E-2,-1.378889084E-1,-8.739995956E-2
7.751683210E-1,1.339673996E-3,-2.004818916E-1,-6.192827225E-2
7.831646150E-1,1.642227173E-2,-2.060427666E-1,-3.226947784E-2
7.911596770E-1,5.287170410E-2,-2.264895439E-1,2.064895630E-2
7.991556630E-1,6.022691727E-2,-2.259531021E-1,7.049703598E-2
8.071504180E-1,1.424813271E-2,-2.403211594E-1,1.389679909E-1
8.151777890E-1,-4.489898682E-2,-2.623929977E-1,1.592645645E-1
8.231725440E-1,-7.458043098E-2,-2.491908073E-1,1.601262093E-1
8.311687600E-1,-1.059665680E-1,-2.557525635E-1,1.990857124E-1
8.391635150E-1,-6.989026070E-2,-2.391133308E-1,1.802992821E-1
8.471595780E-1,1.911926270E-2,-2.545433044E-1,2.448086739E-1
8.551552560E-1,8.222556114E-2,-2.807788849E-1,3.083462715E-1
8.631499350E-1,1.416609287E-1,-3.490004539E-1,3.921217918E-1
8.711767660E-1,2.074475288E-1,-4.594602585E-1,5.003962517E-1
8.791718290E-1,2.101542950E-1,-5.525345802E-1,6.567826271E-1
8.871680450E-1,2.449328899E-1,-6.405129433E-1,8.778514862E-1
8.951634160E-1,2.507052422E-1,-6.856122017E-1,1.074810028E0
9.031594010E-1,2.971208096E-1,-7.289891243E-1,1.384458542E0
9.111542330E-1,3.832857609E-1,-9.122095108E-1,1.728898048E0
9.191499120E-1,5.097348690E-1,-1.082080841E0,1.918646812E0
9.271763590E-1,6.435072422E-1,-1.328794479E0,2.133506298E0
9.351722680E-1,8.332076073E-1,-1.529156685E0,2.198121071E0
9.431670220E-1,1.113397837E0,-1.709809303E0,2.236776829E0
9.511637010E-1,1.295599222E0,-1.789798260E0,2.285213947E0
9.591584560E-1,1.498792648E0,-1.850467205E0,2.427327156E0
9.671541340E-1,1.654786348E0,-1.911402702E0,2.595675468E0
9.751500430E-1,1.701891184E0,-1.987548828E0,2.730185032E0
9.831758750E-1,1.789815187E0,-2.031512260E0,2.701106548E0
9.911719380E-1,1.912197351E0,-2.094103813E0,2.673388004E0
9.991663080E-1,2.055069447E0,-2.094293594E0,2.654445648E0
1.007162679E0,2.163639307E0,-2.075626850E0,2.673283100E0
1.015158664E0,2.304027796E0,-2.091764927E0,2.897974014E0
1.023154265E0,2.608812332E0,-2.175969124E0,2.970342159E0
1.031150867E0,2.853043079E0,-2.277859211E0,2.823572636E0
1.039175237E0,3.056068420E0,-2.301556587E0,2.610158443E0
1.047171223E0,3.082470894E0,-2.278214931E0,2.527301788E0
1.055166901E0,3.059063435E0,-2.252325535E0,2.508851528E0
1.063161964E0,2.953790188E0,-2.180269718E0,2.474175930E0
1.071157873E0,2.791162491E0,-2.211128235E0,2.456988811E0
1.079153243E0,2.672293663E0,-2.227902412E0,2.405317307E0
1.087149228E0,2.761753559E0,-2.394806385E0,2.439112663E0
1.095174830E0,2.853632450E0,-2.427341461E0,1.998986721E0
1.103171354E0,2.908621788E0,-2.361855030E0,1.831530094E0
1.111167109E0,2.909647465E0,-2.256234169E0,1.566924095E0
1.119161557E0,2.929755211E0,-2.011974335E0,1.203014374E0
1.127157542E0,2.795725822E0,-1.905973434E0,1.040607452E0
1.135153836E0,2.463740349E0,-1.784683943E0,9.061655998E-1
1.143149206E0,2.099244595E0,-1.730139971E0,8.388295174E-1
1.151175654E0,1.758475304E0,-1.776373148E0,8.598089218E-1
1.159170331E0,1.472393990E0,-1.865105152E0,9.454917908E-1
1.167166087E0,1.200472832E0,-2.037066460E0,1.107800484E0
1.175161996E0,8.308448792E-1,-2.123843908E0,1.216962814E0
1.183157366E0,4.802546501E-1,-2.257898569E0,1.246459007E0
1.191154275E0,2.688856125E-1,-2.320984840E0,9.833011627E-1
1.199148183E0,3.012833595E-1,-2.364044666E0,5.370631218E-1
1.207175246E0,5.570230484E-1,-2.473618746E0,2.523174286E-1
1.215170002E0,9.163894653E-1,-2.432597160E0,-4.808278084E-1
1.223165988E0,1.004257202E0,-2.418950796E0,-8.294110298E-1
1.231161666E0,7.896451950E-1,-2.218229532E0,-1.104644299E0
1.239156728E0,3.548822403E-1,-2.047160149E0,-1.047523022E0
1.247151714E0,7.471942902E-2,-2.047945023E0,-8.114256859E-1
1.255178162E0,-5.784130096E-2,-1.979175568E0,-7.773461342E-1
1.263174224E0,-1.737208366E-1,-1.993186831E0,-6.516051292E-1
1.271170133E0,-3.198504448E-1,-1.959894061E0,-5.518946648E-1
1.279165888E0,-3.662495613E-1,-1.963098049E0,-3.911828995E-2
1.287160874E0,-1.997385025E-1,-1.954612970E0,-6.874508858E-1
1.295157475E0,-9.066390991E-2,-1.865944147E0,-1.302458048E0
1.303152846E0,-2.528486252E-1,-1.711434841E0,-1.771672487E0
1.311148600E0,-6.739478111E-1,-1.418330431E0,-1.911093235E0
1.319173740E0,-9.112639427E-1,-1.298165679E0,-2.052186728E0
1.327168803E0,-1.217485905E0,-1.246426821E0,-2.037469625E0
1.335164789E0,-1.627687454E0,-1.226093054E0,-1.753626347E0
1.343161083E0,-1.834419727E0,-1.264990568E0,-1.562163353E0
1.351156837E0,-1.942241192E0,-1.237714291E0,-1.250905514E0
1.359151823E0,-2.066171646E0,-1.264356375E0,-1.018678665E0
1.367147270E0,-2.394241333E0,-1.243054867E0,-1.139847279E0
1.375173103E0,-2.734913349E0,-1.202316999E0,-1.427659035E0
1.383169318E0,-2.851601124E0,-1.192082405E0,-1.533576727E0
1.391165074E0,-2.636285305E0,-1.148043156E0,-1.708011627E0
1.399160983E0,-2.119684696E0,-1.096255302E0,-2.028222322E0
1.407155815E0,-1.524500847E0,-1.053004265E0,-2.217060089E0
1.415151416E0,-1.268807411E0,-1.072500229E0,-2.494076729E0
1.423177632E0,-1.285924435E0,-1.096071720E0,-2.477240086E0
1.431173541E0,-1.695135117E0,-1.088097572E0,-2.513837814E0
1.439168604E0,-2.146085739E0,-1.107896328E0,-2.310456038E0
1.447164283E0,-2.665225744E0,-1.111335754E0,-2.129673958E0
1.455160344E0,-2.974768877E0,-1.123510838E0,-2.153501034E0
1.463155100E0,-3.248965263E0,-1.162819862E0,-1.921161294E0
1.471151086E0,-3.435216904E0,-1.175704002E0,-1.708124399E0
1.479177226E0,-3.506937265E0,-1.188277245E0,-1.592788219E0
1.487171673E0,-3.436041832E0,-1.180188179E0,-1.369432926E0
1.495167889E0,-3.133300781E0,-1.218348026E0,-1.375728369E0
1.503163875E0,-2.698899984E0,-1.208925247E0,-1.409118652E0
1.511159323E0,-2.389765978E0,-1.285049438E0,-1.386467934E0
1.519155232E0,-2.236130476E0,-1.344110489E0,-1.323669672E0
1.527150371E0,-2.276911974E0,-1.412786961E0,-1.187114954E0
1.535177049E0,-2.307637691E0,-1.394768715E0,-1.211920261E0
1.543171881E0,-2.353532314E0,-1.347037792E0,-1.108762503E0
1.551169021E0,-2.484664917E0,-1.293339729E0,-1.023943901E0
1.559163545E0,-2.627937317E0,-1.260241032E0,-9.540092945E-1
1.567159530E0,-2.651111603E0,-1.245044708E0,-9.462442398E-1
1.575154593E0,-2.469134808E0,-1.278705597E0,-9.718518257E-1
1.583150810E0,-2.210262775E0,-1.316763878E0,-1.097383976E0
1.591177258E0,-1.898028851E0,-1.336357117E0,-1.173105240E0
1.599172013E0,-1.559749365E0,-1.360180378E0,-1.231881618E0
1.607167383E0,-1.306968451E0,-1.381657600E0,-1.220977783E0
1.615163984E0,-1.114222527E0,-1.398818016E0,-1.073999405E0
1.623159662E0,-1.155176640E0,-1.397498608E0,-8.705990314E-1
1.631155417E0,-1.293448687E0,-1.406412601E0,-6.730504036E-1
1.639150480E0,-1.521857738E0,-1.351344585E0,-5.364902020E-1
1.647175927E0,-1.726610422E0,-1.294150829E0,-3.890748024E-1
1.655171990E0,-1.834117174E0,-1.218560219E0,-2.917499542E-1
1.663167976E0,-1.665603995E0,-1.096004963E0,-3.132019043E-1
1.671163039E0,-1.441395640E0,-9.891309738E-1,-1.511259079E-1
1.679158101E0,-1.255388737E0,-8.746147156E-1,4.025125504E-2
1.687154010E0,-1.187749147E0,-8.150887489E-1,2.095985413E-1
1.695149765E0,-1.374607086E0,-7.363948822E-1,3.805565834E-1
1.703176136E0,-1.650560617E0,-7.321195602E-1,5.293107033E-1
1.711171506E0,-1.732971549E0,-6.702599525E-1,4.563322067E-1
1.719167184E0,-1.537796497E0,-5.385141373E-1,5.342307091E-1
1.727162939E0,-1.272035956E0,-4.016585350E-1,5.516815186E-1
1.735158617E0,-9.670549631E-1,-2.959632874E-1,5.031576157E-1
1.743153911E0,-7.763693333E-1,-2.671422958E-1,4.421019554E-1
1.751150511E0,-7.904231548E-1,-2.266244888E-1,3.404045105E-1
1.759175113E0,-9.697358608E-1,-2.028284073E-1,3.276839256E-1
1.767171714E0,-1.201781750E0,-1.642618179E-1,3.905229568E-1
1.775167162E0,-1.312086225E0,-1.584510803E-1,4.342617989E-1
1.783161917E0,-1.214475036E0,-1.447095871E-1,3.838210106E-1
1.791158133E0,-9.144108295E-1,-3.951168060E-2,3.215065002E-1
1.799153273E0,-5.732889175E-1,4.213333130E-2,2.312660217E-1
1.807148643E0,-2.441065311E-1,1.094875336E-1,1.305847168E-1
1.815175014E0,-3.726029396E-2,1.480274200E-1,4.616594315E-2
1.823170691E0,-2.167224884E-2,1.312036514E-1,-1.714134216E-2
1.831167062E0,-1.239404678E-1,9.970378876E-2,-3.149366379E-2
1.839161202E0,-2.306396961E-1,6.570529938E-2,2.138185501E-2
1.847157726E0,-3.225986958E-1,-6.340980530E-3,1.072807312E-1
1.855153097E0,-4.234356880E-1,1.513290405E-2,1.376695633E-1
1.863149774E0,-4.491723776E-1,6.044197083E-2,1.392817497E-1
1.871174914E0,-4.622837305E-1,9.309101105E-2,5.825901031E-2
1.879170285E0,-4.134644270E-1,1.631317139E-1,-2.786970139E-2
1.887166271E0,-3.360902071E-1,2.060165405E-1,-1.541028023E-1
1.895161718E0,-2.709817886E-1,2.052278519E-1,-2.251191139E-1
1.903157626E0,-3.103836775E-1,1.512212753E-1,-2.750768661E-1
1.911152766E0,-2.939711809E-1,9.466362000E-2,-2.759537697E-1
1.919148752E0,-2.510398626E-1,5.980873108E-2,-2.999081612E-1
1.927174585E0,-1.677005291E-1,4.670047760E-2,-3.444347382E-1
1.935170877E0,-8.499264717E-2,6.026840210E-2,-3.593826294E-1
1.943165248E0,-7.846856117E-2,9.299755096E-2,-3.709878922E-1
1.951161311E0,-1.395666599E-1,1.727485657E-1,-4.117927551E-1
1.959156989E0,-2.361010313E-1,1.986293793E-1,-3.930606842E-1
1.967152898E0,-3.146154881E-1,2.709178925E-1,-3.672738075E-1
1.975148576E0,-3.297767639E-1,2.846117020E-1,-3.325796127E-1
1.983173869E0,-2.873156071E-1,2.550840378E-1,-2.617053986E-1
1.991169855E0,-2.006171942E-1,1.787366867E-1,-2.041587830E-1
1.999165457E0,-1.010694504E-1,1.348466873E-1,-1.843066216E-1
2.007161135E0,-2.232933044E-2,7.331752777E-2,-1.737284660E-1
2.015156889E0,5.506277084E-4,7.038974762E-2,-1.386113167E-1
2.023152260E0,-3.401279449E-2,8.481788635E-2,-1.381392479E-1
2.031149169E0,-9.718263149E-2,7.813739777E-2,-1.169934273E-1
2.039173693E0,-1.651569605E-1,8.125591278E-2,-1.106095314E-1
2.047169678E0,-2.807064056E-1,1.010541916E-1,-1.185545921E-1
2.055165049E0,-3.910167217E-1,8.708000183E-2,-1.142058372E-1
2.063161035E0,-4.361983538E-1,6.557178497E-2,-1.189355850E-1
2.071157021E0,-4.189324379E-1,4.877471924E-2,-9.005451202E-2
2.079151546E0,-2.902849913E-1,7.053470612E-2,-9.224843979E-2
2.087147146E0,-9.731853008E-2,9.542751312E-2,-9.466600418E-2
2.095174209E0,7.832849026E-2,1.426343918E-1,-1.164298058E-1
2.103169887E0,2.157646418E-1,1.619691849E-1,-9.097480774E-2
2.111164719E0,3.305760622E-1,1.652183533E-1,-9.030914307E-2
2.119160012E0,3.736304045E-1,1.877355576E-1,-1.258058548E-1
2.127155691E0,3.387061357E-1,1.838226318E-1,-1.136841774E-1
2.135151369E0,2.500228882E-1,1.368160248E-1,-7.819271088E-2
2.143147355E0,1.058655977E-1,1.042108536E-1,-6.039810181E-2
2.151173802E0,-3.415071964E-2,1.052751541E-1,-1.971483231E-2
2.159169172E0,-1.776320934E-1,7.791233063E-2,1.742076874E-2
2.167164235E0,-2.774442434E-1,5.563640594E-2,3.696775436E-2
2.175159913E0,-3.270574808E-1,4.786682129E-2,6.108093262E-2
2.183155899E0,-3.391367197E-1,1.624107361E-2,5.424404144E-2
2.191152270E0,-3.230762482E-1,1.580142975E-2,8.106994629E-2
2.199146101E0,-2.791597843E-1,1.546001434E-2,7.696199417E-2
2.207172856E0,-2.005089521E-1,-1.404762268E-3,7.050371170E-2
2.215167842E0,-1.185305119E-1,3.414154053E-3,9.333610535E-3
2.223164213E0,-3.075134754E-2,-1.072502136E-2,-4.924058914E-2
2.231160198E0,6.090104580E-2,-4.617977142E-2,-7.915019989E-2
2.239154953E0,1.068310738E-1,-3.125667572E-2,-7.803583145E-2
2.247150632E0,8.865237236E-2,-3.534889221E-2,-5.586719513E-2
2.255146848E0,6.645286083E-2,-1.563358307E-2,-6.487989426E-2
2.263172681E0,2.599656582E-2,2.783203125E-2,-6.910467148E-2
2.271169281E0,-3.291618824E-2,1.141414642E-1,-8.988857269E-2
2.279163190E0,-2.923333645E-2,1.762771606E-1,-4.811143875E-2
2.287159407E0,-1.582002640E-2,1.783037186E-1,-8.490848541E-2
2.295155162E0,-3.336822987E-2,1.850137711E-1,-4.734277725E-2
2.303150532E0,-6.501197815E-2,1.507663727E-1,-4.769420624E-2
2.311146210E0,-5.609714985E-2,1.044998169E-1,-4.788684845E-2
2.319172350E0,-4.744076729E-2,8.697128296E-2,-4.798412323E-2
2.327167951E0,-4.377746582E-2,3.349781036E-2,-4.075002670E-2
2.335163707E0,-5.932927132E-2,5.178928375E-2,-6.688547134E-2
2.343159384E0,-1.035047770E-1,9.159278870E-2,-6.426000595E-2
2.351154447E0,-1.212122440E-1,4.042148590E-2,-7.366895676E-2
2.359149741E0,-1.626385450E-1,2.982807159E-2,-8.771276474E-2
2.367175957E0,-2.082905769E-1,-2.161026001E-2,-1.136670113E-1
2.375171943E0,-2.484217882E-1,8.121490479E-3,-1.179161072E-1
2.383167005E0,-2.353574038E-1,6.392860413E-2,-1.338305473E-1
2.391163299E0,-1.553784609E-1,1.435718536E-1,-8.483600616E-2
2.399158670E0,-1.355346441E-1,1.730079651E-1,-6.937408447E-2
2.407154040E0,-1.469234228E-1,2.120590210E-1,-4.676055908E-2
2.415149948E0,-1.203335524E-1,1.603345871E-1,-4.594850540E-2
2.423145088E0,-4.923772812E-2,1.185398102E-1,-3.106784821E-2
2.431171767E0,-5.054509640E-2,1.176643372E-1,-1.398134232E-2
2.439166830E0,-5.226182938E-2,1.169586182E-1,-1.143169403E-2
2.447162585E0,-4.733276367E-2,1.116685867E-1,2.445650101E-2
2.455158570E0,-3.108131886E-2,1.160402298E-1,2.212762833E-2
2.463154787E0,-1.766836643E-2,1.179885864E-1,-8.693218231E-3
2.471150850E0,-6.970167160E-3,1.175756454E-1,3.643035889E-3
2.479144682E0,-2.002131939E-2,1.482858658E-1,2.069139481E-2
2.487170744E0,-5.679559708E-2,1.406250000E-1,2.581167221E-2
2.495166807E0,-5.738627911E-2,1.401615143E-1,2.361154556E-2
2.503161870E0,-1.496410370E-2,1.494455338E-1,3.786945343E-2
2.511158086E0,2.768552303E-2,1.014852524E-1,3.006887436E-2
2.519153534E0,3.467607498E-2,5.841159821E-2,5.212783813E-3
2.527147980E0,2.746951580E-2,2.735519409E-2,-1.740503311E-2
2.535175351E0,2.021157742E-2,-2.507972717E-2,-1.878261566E-2
2.543170414E0,-4.180788994E-3,-6.046485901E-2,2.491092682E-2
2.551166400E0,-2.898812294E-2,-9.566211700E-2,1.093864441E-2
2.559162078E0,-2.326810360E-2,-1.235065460E-1,1.362800598E-2
2.567157448E0,-2.273201942E-2,-1.248159409E-1,8.903026581E-3
2.575153126E0,-1.757395267E-2,-1.212558746E-1,3.999900818E-2
2.583149035E0,-2.905595303E-2,-9.851074219E-2,7.338094711E-2
2.591174945E0,-7.851481438E-2,-5.893611908E-2,1.041054726E-1
2.599170314E0,-1.014066935E-1,-2.411270142E-2,1.011528969E-1
2.607165685E0,-7.134270668E-2,2.025699615E-2,7.420825958E-2
2.615161671E0,-7.682919502E-3,5.020141602E-2,5.693244934E-2
2.623157349E0,-2.295827866E-2,8.002471924E-2,1.352977753E-2
2.631153335E0,-3.333139420E-2,5.240345001E-2,1.554250717E-2
2.639148397E0,-1.034302711E-1,5.094909668E-2,-8.272314072E-2
2.647174229E0,-1.230223179E-1,-7.940292358E-3,-3.267908096E-2
2.655169831E0,-1.426440477E-1,-7.881164551E-2,-8.936882019E-3
2.663165278E0,-1.361269951E-1,-1.544818878E-1,7.720470428E-3
2.671160957E0,-1.223859787E-1,-1.918964386E-1,5.311489105E-3
2.679156865E0,-9.918808937E-2,-1.958341599E-1,-1.133537292E-2
2.687152928E0,-9.306645393E-2,-1.376409531E-1,-3.720664978E-2
2.695148221E0,-9.903347492E-2,-1.739311218E-2,-6.983423233E-2
2.703174130E0,-1.528872252E-1,7.871437073E-2,-8.053207397E-2
2.711170731E0,-1.896185875E-1,1.099510193E-1,-5.262374878E-2
2.719165717E0,-2.116636038E-1,1.049518585E-1,-6.730604172E-2
2.727160549E0,-1.930226088E-1,8.538532257E-2,-6.243467331E-2
2.735156535E0,-1.553369761E-1,6.802368164E-2,-5.715560913E-2
2.743152213E0,-1.178586483E-1,2.659988403E-2,-2.523469925E-2
2.751148429E0,-9.032702446E-2,-5.208015442E-3,1.872920990E-2
2.759173646E0,-7.724785805E-2,8.421897888E-3,1.973009109E-2
2.767168786E0,-4.047846794E-2,5.803108215E-2,4.464149475E-2
2.775164464E0,-2.989804745E-2,1.409635544E-1,3.875160217E-2
2.783160680E0,-4.768729210E-3,1.855335236E-1,4.965782166E-2
2.791156666E0,-1.046288013E-2,2.444009781E-1,8.452606201E-2
2.799151498E0,-6.576871872E-2,2.385149002E-1,1.002006531E-1
2.807147715E0,-9.403431416E-2,1.751394272E-1,1.300315857E-1
2.815173624E0,-8.841335773E-2,6.872177124E-2,1.452565193E-1
2.823168917E0,-8.033025265E-2,-2.333068848E-2,1.652483940E-1
2.831165518E0,-7.219493389E-2,-1.080474854E-1,1.777424812E-1
2.839159427E0,-5.447804928E-2,-1.255922318E-1,1.660361290E-1
2.847155336E0,-5.359423161E-2,-1.404762268E-1,1.753892899E-1
2.855151630E0,-4.801940918E-2,-6.898117065E-2,1.580796242E-1
2.863146692E0,-8.522534370E-2,-3.805923462E-2,1.451954842E-1
2.871174370E0,-7.210254669E-2,4.858016968E-3,1.298518181E-1
2.879167664E0,-4.719281197E-2,1.193428040E-2,1.168379784E-1
2.887164265E0,-4.417788982E-2,-2.490997314E-3,6.316232681E-2
2.895160174E0,3.015315533E-2,-2.886962891E-2,2.640199661E-2
2.903154929E0,4.887187481E-2,-4.319381714E-2,2.081203461E-2
2.911150992E0,4.090309143E-2,-4.779052734E-2,1.984500885E-2
2.919146362E0,2.781713009E-2,-3.556823730E-2,-7.450103760E-3
2.927172810E0,1.674008369E-2,-1.843166351E-2,-1.329421997E-3
2.935168103E0,4.571723938E-2,-5.950927734E-3,1.435279846E-2
2.943163858E0,1.073751450E-1,2.571678162E-2,-1.999998093E-2
2.951160152E0,1.277550459E-1,6.458091736E-2,-2.543830872E-2
2.959154522E0,1.145677567E-1,1.010570526E-1,-2.368164062E-2
2.967150200E0,6.831896305E-2,1.063489914E-1,-1.480054855E-2
2.975146493E0,4.405081272E-2,9.722328186E-2,-1.555395126E-2
2.983172402E0,2.743077278E-2,4.500484467E-2,7.462024689E-3
2.991168927E0,2.333879471E-2,-2.392864227E-2,4.214906693E-2
2.999163682E0,1.005017757E-2,-5.698871613E-2,5.284070969E-2
3.007159436E0,-5.240559578E-3,-6.854534149E-2,5.389261246E-2
3.015154807E0,1.080977917E-2,-6.584262848E-2,3.831148148E-2
3.023149870E0,-2.109897137E-2,-8.193016052E-3,2.777957916E-2
3.031146702E0,-1.266598701E-2,-5.616188049E-3,3.023624420E-3
3.039171996E0,-2.356529236E-3,2.573013306E-2,-2.462387085E-3
3.047167596E0,4.934191704E-3,2.840423584E-2,-1.022195816E-2
3.055163890E0,-7.399797440E-3,1.195049286E-2,1.292705536E-3
3.063158953E0,-1.009821892E-3,-1.877593994E-2,-1.115608215E-2
3.071155247E0,-4.503726959E-3,-5.184459686E-2,-1.162195206E-2
3.079150078E0,-2.234101295E-2,-8.017539978E-2,-1.199674606E-2
3.087145448E0,-4.978668690E-2,-7.730579376E-2,1.382827759E-2
3.095172127E0,-8.451449871E-2,-8.874225616E-2,5.394554138E-2
3.103166959E0,-1.169500351E-1,-2.602958679E-2,7.508230209E-2
3.111163176E0,-1.015883684E-1,4.611682892E-2,7.737064362E-2
3.119158315E0,-5.758357048E-2,1.397218704E-1,7.268571854E-2
3.127154224E0,-9.029746056E-3,1.924657822E-1,-5.131673813E-2
3.135149979E0,8.038723469E-2,2.118148804E-1,1.591920853E-2
3.143145273E0,1.653121710E-1,1.857109070E-1,-1.518249512E-2
3.151171796E0,1.982032061E-1,1.093883514E-1,-1.072645187E-2
3.159166244E0,2.055261135E-1,5.218505859E-2,3.093242645E-3
3.167162230E0,1.537699699E-1,4.280853271E-2,-1.199865341E-2
3.175158139E0,9.990143776E-2,4.775428772E-2,-7.715225220E-4
3.183153817E0,-8.806705475E-3,4.072093964E-2,5.596160889E-3
3.191150494E0,-4.620242119E-2,4.323005676E-2,-2.848005295E-2
3.199145173E0,-6.500899792E-2,6.721115112E-2,-5.023002625E-2
3.207171082E0,-6.052601337E-2,6.723976135E-2,-5.735778809E-2
3.215166145E0,-4.925215244E-2,8.641433716E-2,-6.432294846E-2
3.223161823E0,-6.211709976E-2,6.009101868E-2,-5.683374405E-2
3.231158039E0,-3.172409534E-2,6.257057190E-2,-4.954576492E-2
3.239152871E0,-1.794600487E-2,5.547332764E-2,-8.061790466E-2
3.247149165E0,-1.579737663E-2,5.560779572E-2,-6.642198563E-2
3.255175612E0,-1.427173615E-3,7.258701324E-2,-3.572177887E-2
3.263170367E0,1.580476761E-3,8.001518250E-2,-1.966428757E-2
3.271166891E0,-1.432669163E-2,5.882453918E-2,-1.510143280E-3
3.279162262E0,-4.446136951E-2,-2.963066101E-3,4.512119293E-2
3.287157017E0,-4.854273796E-2,-5.993175507E-2,6.306695938E-2
3.295153311E0,-6.748425961E-2,-1.144762039E-1,7.634973526E-2
3.303148142E0,-6.785130501E-2,-1.282882690E-1,7.063293457E-2
3.311174820E0,-5.423772335E-2,-1.110563278E-1,7.718467712E-2
3.319169960E0,-2.666509151E-2,-3.885746002E-2,6.013250351E-2
3.327165331E0,1.504039764E-2,4.514026642E-2,1.237535477E-2
3.335161546E0,2.096891403E-2,1.050834656E-1,-1.697063446E-3
3.343157225E0,2.488076687E-2,1.122512817E-1,-4.204702377E-2
3.351153826E0,-1.792192459E-3,8.823299408E-2,-6.811237335E-2
3.359147658E0,-1.599836349E-2,1.949310303E-3,-7.757091522E-2
3.367174106E0,-7.769429684E-2,-3.889179230E-2,-7.271575928E-2
3.375169552E0,-1.175605059E-1,-1.060695648E-1,-4.402494431E-2
3.383165231E0,-1.406886578E-1,-6.319046021E-2,-3.193807602E-2
3.391162371E0,-1.733671427E-1,-1.084518433E-2,1.147890091E-2
3.399156895E0,-1.512155533E-1,7.000064850E-2,-9.220123291E-3
3.407151958E0,-1.365445852E-1,1.387081146E-1,-2.948808670E-2
3.415146712E0,-8.880722523E-2,1.378660202E-1,-4.936265945E-2
3.423144160E0,-1.299071312E-2,1.178483963E-1,-6.655979156E-2
3.431169992E0,5.452632904E-4,3.803253174E-2,-6.709003448E-2
3.439165363E0,-1.672291756E-2,1.367568970E-3,-3.432989120E-2
3.447160425E0,-8.598220348E-2,-2.327156067E-2,-6.712913513E-3
3.455156795E0,-1.165949106E-1,-6.462764740E-2,2.069807053E-2
3.463151781E0,-9.456157684E-2,-4.132461548E-2,2.893257141E-2
3.471147844E0,-9.448266029E-2,-2.043819427E-2,-5.731105804E-3
3.479173599E0,-6.361031532E-2,1.463508606E-2,-2.317237854E-2
3.487169277E0,-2.367401123E-2,6.404495239E-2,-5.951738358E-2
3.495164955E0,2.762889862E-2,8.704948425E-2,-7.395935059E-2
3.511156312E0,4.528236389E-2,1.327610016E-2,-1.142349243E-1
3.519151375E0,3.847527504E-2,-3.559303284E-2,-9.720897675E-2
3.527146437E0,1.514554024E-2,-1.131296158E-1,-7.560253143E-2
3.535174423E0,-3.912329674E-2,-1.403264999E-1,-6.615591049E-2
3.543169486E0,-1.242554188E-1,-1.124649048E-1,-2.566242218E-2
3.551165549E0,-1.734393835E-1,-6.790256500E-2,-1.379823685E-2
3.559160303E0,-1.605386734E-1,-2.095222473E-2,-4.251003265E-3
3.567155289E0,-1.884229183E-1,5.702304840E-2,-2.081251144E-2
3.575151583E0,-1.851061583E-1,7.267284393E-2,-2.049827576E-2
3.583147338E0,-1.293447018E-1,1.170339584E-1,-2.962827682E-2
3.591173478E0,-1.241673231E-1,8.718776703E-2,-2.430343628E-2
3.599168463E0,-9.067630768E-2,2.644538879E-2,3.340911865E-2
3.607164141E0,-1.432672739E-1,-6.998634338E-2,8.585739136E-2
3.615159896E0,-1.859238148E-1,-1.374168396E-1,1.328587532E-1
3.623155805E0,-2.156780958E-1,-1.996660233E-1,2.338023186E-1
3.631152098E0,-2.441354990E-1,-2.636375427E-1,3.353419304E-1
3.639146853E0,-3.086270094E-1,-2.713499069E-1,4.552316666E-1
3.647172147E0,-3.510308266E-1,-3.108415604E-1,5.371217728E-1
3.655168133E0,-3.746196032E-1,-3.247117996E-1,5.767078400E-1
3.663163811E0,-4.263648987E-1,-3.022909164E-1,5.316114426E-1
3.671160335E0,-4.869546890E-1,-2.682638168E-1,4.080042839E-1
3.679155090E0,-5.706841946E-1,-2.638692856E-1,2.691364288E-1
3.687150230E0,-7.484145164E-1,-1.682586670E-1,-3.856754303E-2
3.695146524E0,-9.455693364E-1,-1.634387970E-1,-2.254586220E-1
3.703172587E0,-1.107832670E0,-1.631402969E-1,-4.278817177E-1
3.711168264E0,-1.232313037E0,-2.454805374E-1,-5.486965179E-1
3.719163404E0,-1.328631163E0,-4.071741104E-1,-6.605858803E-1
3.727159082E0,-1.392210841E0,-5.513439178E-1,-7.025363445E-1
3.735154991E0,-1.409610868E0,-7.606325150E-1,-7.474596500E-1
3.743150438E0,-1.436011314E0,-9.573740959E-1,-7.342169285E-1
3.751146424E0,-1.492292523E0,-1.035832882E0,-7.226893902E-1
3.759172179E0,-1.481035948E0,-1.089318752E0,-7.818944454E-1
3.767167550E0,-1.469106913E0,-1.112755775E0,-6.367092133E-1
3.775163228E0,-1.541842222E0,-1.135073662E0,-4.924588203E-1
3.783158905E0,-1.781885862E0,-1.161607265E0,-4.949851036E-1
3.791154891E0,-1.937781811E0,-1.271348000E0,-5.251498222E-1
3.799150031E0,-2.021244764E0,-1.356349945E0,-5.471129417E-1
3.807145633E0,-2.308739185E0,-1.305945873E0,-6.255254745E-1
3.815171771E0,-2.747843742E0,-1.275167465E0,-7.488210201E-1
3.823167834E0,-3.190856934E0,-1.279595852E0,-8.295314312E-1
3.831163820E0,-3.495509863E0,-1.273341656E0,-1.062042236E0
3.839158806E0,-3.518743277E0,-1.382108688E0,-1.207921982E0
3.847153639E0,-3.375859261E0,-1.504555702E0,-1.336771727E0
3.855149547E0,-3.218008280E0,-1.693800926E0,-1.409629583E0
3.863145840E0,-3.168065310E0,-1.814890862E0,-1.476783991E0
3.871172057E0,-3.266101360E0,-1.972950935E0,-1.506705046E0
3.879166505E0,-3.404945135E0,-2.143179893E0,-1.496813059E0
3.887162414E0,-3.479460239E0,-2.272655010E0,-1.422026634E0
3.895157784E0,-3.417468786E0,-2.470307350E0,-1.345839977E0
3.903153846E0,-3.324215412E0,-2.642966270E0,-1.246995211E0
3.911149756E0,-3.101593494E0,-2.893375397E0,-1.140619993E0
3.919144588E0,-2.905238628E0,-3.080004692E0,-1.104119778E0
3.927170419E0,-2.591647148E0,-3.323202372E0,-1.117374420E0
3.935167020E0,-2.272232056E0,-3.429048538E0,-1.170005798E0
3.943162083E0,-2.061737537E0,-3.407732010E0,-1.147051334E0
3.951158069E0,-1.713357925E0,-3.394088984E0,-1.209164619E0
3.959153440E0,-1.424872398E0,-3.378092289E0,-1.225152016E0
3.967149040E0,-1.114019394E0,-3.397821665E0,-1.166215897E0
3.975144411E0,-8.111457825E-1,-3.431535244E0,-1.174297810E0
3.983170551E0,-5.284628868E-1,-3.379337311E0,-1.159874916E0
3.991166845E0,-2.313532829E-1,-3.399560690E0,-1.195696831E0
3.999161599E0,-7.699441910E-2,-3.324751377E0,-1.330620050E0
4.007156354E0,1.322922707E-1,-3.310895681E0,-1.393797636E0
4.015153878E0,3.613739014E-1,-3.261244297E0,-1.543126583E0
4.023148634E0,6.654539108E-1,-3.232576847E0,-1.692147970E0
4.031144927E0,8.832740784E-1,-3.253520489E0,-1.879642248E0
4.039170143E0,9.279022217E-1,-3.211661816E0,-1.737346411E0
4.047166129E0,9.269399643E-1,-3.141355753E0,-1.663545132E0
4.055161500E0,9.025101662E-1,-3.074325323E0,-1.405258417E0
4.063157255E0,9.215059280E-1,-3.022258520E0,-1.618659496E0
4.071153780E0,7.715578079E-1,-2.962898254E0,-1.599844694E0
4.079148918E0,6.064348221E-1,-2.870303154E0,-1.299098015E0
4.087143674E0,5.439577103E-1,-2.852926731E0,-1.253763199E0
4.095170352E0,5.902247429E-1,-2.805572987E0,-1.387429237E0
4.103164800E0,5.662097931E-1,-2.805097103E0,-1.158063889E0
4.111162015E0,5.580148697E-1,-2.868696451E0,-1.026010036E0
4.119156463E0,5.825762749E-1,-2.858238697E0,-1.088247776E0
4.127152141E0,7.150259018E-1,-3.042693138E0,-9.964857101E-1
4.135148127E0,7.493181229E-1,-3.091936588E0,-8.433890343E-1
4.143142959E0,9.525876045E-1,-3.296306372E0,-4.966082573E-1
4.151170329E0,1.069362640E0,-3.298443317E0,-4.841041565E-1
4.159164777E0,1.045385361E0,-3.254029274E0,-6.049504280E-1
4.167160686E0,7.602996826E-1,-3.047340631E0,-6.705017090E-1
4.175156672E0,3.998165131E-1,-2.747023582E0,-7.520408630E-1
4.183151812E0,-2.523422241E-3,-2.430310249E0,-6.172914505E-1
4.191148027E0,6.333160400E-2,-2.238244534E0,-3.592476845E-1
4.199143167E0,5.541253090E-1,-2.198940516E0,-3.103737831E-1
4.207169615E0,1.057565212E0,-2.319577932E0,-2.280478477E-1
4.215165216E0,1.192791939E0,-2.415705919E0,-1.995954514E-1
4.223160586E0,1.099451542E0,-2.576518297E0,1.159410477E-1
4.231156880E0,1.120471478E0,-2.682952404E0,4.617862701E-1
4.239151635E0,1.327934742E0,-2.823190451E0,5.343861580E-1
4.247147082E0,1.449786663E0,-2.816368103E0,4.867358208E-1
4.255142684E0,1.407881260E0,-2.762210369E0,5.135717392E-1
4.263169130E0,1.310946465E0,-2.634189606E0,4.308300018E-1
4.271165116E0,1.254285336E0,-2.464879036E0,3.363375664E-1
4.279160179E0,1.095986366E0,-2.291642666E0,2.326173782E-1
4.287155627E0,9.861416817E-1,-2.098988056E0,2.711677551E-1
4.295151227E0,1.109280109E0,-2.070529938E0,6.411061287E-1
4.303146367E0,1.573119640E0,-2.132639408E0,7.809195518E-1
4.311142353E0,2.019070625E0,-2.236951828E0,7.286000252E-1
4.319168493E0,2.194331646E0,-2.288954258E0,6.128358841E-1
4.327164171E0,2.067149162E0,-2.207251549E0,5.912666321E-1
4.335159849E0,1.753748417E0,-2.035460472E0,5.005416870E-1
4.343156065E0,1.589214325E0,-1.842906475E0,3.664073944E-1
4.351151436E0,1.446797848E0,-1.591035843E0,2.005810738E-1
4.359146191E0,1.262852192E0,-1.331406116E0,1.012549400E-1
4.367141947E0,1.128005981E0,-1.082668781E0,2.086162567E-1
4.375168316E0,1.112621784E0,-9.478588104E-1,4.935798645E-1
4.383163764E0,1.236152649E0,-1.006662369E0,6.322929859E-1
4.391159442E0,1.354564190E0,-1.135482311E0,6.051800251E-1
4.399154505E0,1.272208691E0,-1.278999805E0,5.629806519E-1
4.407150721E0,1.109108448E0,-1.282164097E0,5.522577763E-1
4.415146476E0,8.835077286E-1,-1.253592968E0,5.469586849E-1
4.423141770E0,8.430633545E-1,-1.261896610E0,5.948567390E-1
4.431168294E0,9.241857529E-1,-1.326062679E0,6.923017502E-1
4.439163588E0,1.103275299E0,-1.412944317E0,8.163127899E-1
4.447158650E0,1.304258823E0,-1.501608849E0,8.735513687E-1
4.455154713E0,1.420222282E0,-1.525137901E0,8.503599167E-1
4.463150314E0,1.506545067E0,-1.539186478E0,9.336607456E-1
4.471146916E0,1.569887161E0,-1.583750725E0,9.740226269E-1
4.479171824E0,1.649406195E0,-1.567507744E0,1.035781145E0
4.487166887E0,1.723192930E0,-1.569599152E0,1.164476156E0
4.495163565E0,1.794868231E0,-1.552104950E0,1.235861540E0
4.503158320E0,1.793317080E0,-1.479480743E0,1.284123898E0
4.511155229E0,1.760576963E0,-1.432998657E0,1.310411453E0
4.519149984E0,1.727256536E0,-1.341690063E0,1.336304903E0
4.527145585E0,1.620503187E0,-1.298568726E0,1.305524588E0
4.535170879E0,1.589223385E0,-1.215105057E0,1.261883020E0
4.543167403E0,1.493425846E0,-1.162890434E0,1.227501869E0
4.551164082E0,1.391598225E0,-1.084287643E0,1.128669500E0
4.559158220E0,1.321263790E0,-1.005389214E0,1.128312349E0
4.567154437E0,1.256188393E0,-9.210329056E-1,1.226210117E0
4.575149808E0,1.252112150E0,-8.796873093E-1,1.188298941E0
4.583145179E0,1.279163599E0,-8.329544067E-1,1.001949072E0
4.591171933E0,1.277120590E0,-8.094205856E-1,8.990316391E-1
4.599167073E0,1.297265768E0,-8.181686401E-1,8.411009312E-1
4.607162366E0,1.269331932E0,-8.106336594E-1,8.093986511E-1
4.615158045E0,1.199148178E0,-7.816629410E-1,8.133897781E-1
4.623154338E0,1.109023094E0,-6.925601959E-1,8.366727829E-1
4.631150093E0,1.040598989E0,-5.884323120E-1,8.628108501E-1
4.639144771E0,9.535661936E-1,-5.408716202E-1,8.801183701E-1
4.647170603E0,8.838092089E-1,-4.875259399E-1,8.935382366E-1
4.655166281E0,8.091605902E-1,-4.667100906E-1,8.553445339E-1
4.663162266E0,7.459762096E-1,-4.591054916E-1,8.212890625E-1
4.671157714E0,6.484924555E-1,-4.311599731E-1,8.034565449E-1
4.679153392E0,5.434204340E-1,-3.778810501E-1,7.926585674E-1
4.687148686E0,4.547299147E-1,-3.256111145E-1,8.007087708E-1
4.695144980E0,3.843104839E-1,-2.276496887E-1,7.459175587E-1
4.703170580E0,3.299062252E-1,-1.321287155E-1,6.990225315E-1
4.711166566E0,3.244202137E-1,-7.465267181E-2,6.768109798E-1
4.719161245E0,3.360944986E-1,-3.092193604E-2,6.771798134E-1
4.727156615E0,3.614475727E-1,-1.032257080E-2,7.120552063E-1
4.735152678E0,3.653719425E-1,1.598072052E-2,5.922636986E-1
4.743148586E0,3.202296495E-1,5.788040161E-2,5.553770065E-1
4.751144649E0,2.682125568E-1,8.939647675E-2,5.275800228E-1
4.759170097E0,1.885147095E-1,1.561584473E-1,4.730298519E-1
4.767166698E0,1.249675751E-1,2.345657349E-1,4.020707607E-1
4.775161222E0,6.328904629E-2,2.888126373E-1,3.964521885E-1
4.783157438E0,4.118335247E-2,3.931064606E-1,3.105211258E-1
4.791153117E0,2.436697483E-2,4.876651764E-1,2.240965366E-1
4.799147949E0,1.039195061E-2,5.462980270E-1,1.808211803E-1
4.807143858E0,-7.240176201E-3,5.837459564E-1,1.671526432E-1
4.815169997E0,2.279520035E-2,5.577459335E-1,2.043156624E-1
4.823165675E0,8.023822308E-2,4.941654205E-1,1.644670963E-1
4.831161354E0,8.138263226E-2,4.406852722E-1,1.425714493E-1
4.839156109E0,5.355799198E-2,4.313135147E-1,9.643316269E-2
4.847152095E0,2.826666832E-2,4.492959976E-1,5.207657814E-2
4.855147541E0,-4.227280617E-3,4.657135010E-1,2.090883255E-2
4.863143450E0,-2.730429173E-2,4.565000534E-1,-1.657700539E-2
4.871170590E0,-9.391450882E-2,4.360237122E-1,-6.259322166E-2
4.879165269E0,-1.470733881E-1,3.969545364E-1,-9.814643860E-2
4.887160407E0,-2.281979322E-1,3.774347305E-1,-1.161310673E-1
4.895155778E0,-2.852773666E-1,3.270130157E-1,-1.405918598E-1
4.903151995E0,-3.643537760E-1,2.933969498E-1,-1.382296085E-1
4.911148366E0,-3.938587904E-1,2.549247742E-1,-1.236016750E-1
4.919142198E0,-4.357031584E-1,1.852722168E-1,-1.040902138E-1
4.927169490E0,-4.414163828E-1,1.228647232E-1,-6.533670425E-2
4.935164938E0,-4.365857840E-1,5.585765839E-2,-4.334831238E-2
4.943160309E0,-4.255988598E-1,1.784801483E-2,-6.926846504E-2
4.951155679E0,-3.771920204E-1,-2.220058441E-2,-5.670881271E-2
4.959151895E0,-3.488712311E-1,-5.236625671E-2,-4.889130592E-2
4.967147343E0,-3.641948700E-1,-5.336952209E-2,-2.888345718E-2
4.975142713E0,-4.010959864E-1,-5.631065369E-2,-1.130580902E-2
4.983168545E0,-3.971660137E-1,-9.218788147E-2,-3.175973892E-2
4.991164224E0,-4.193786383E-1,-1.560859680E-1,-4.434800148E-2
4.999160132E0,-4.386805296E-1,-2.142648697E-1,-6.052374840E-2
5.007156118E0,-4.597918987E-1,-3.240461349E-1,-3.676271439E-2
5.015151181E0,-4.803302288E-1,-4.256820679E-1,1.710104942E-2
5.023146859E0,-4.707026482E-1,-5.322093964E-1,6.185960770E-2
5.031142845E0,-4.362695217E-1,-6.009702682E-1,1.539242268E-1
5.039168369E0,-3.796752691E-1,-6.318836212E-1,1.260585785E-1
5.047163816E0,-2.898340225E-1,-6.752977371E-1,1.197726727E-1
5.055159418E0,-2.198488712E-1,-6.690521240E-1,1.206188202E-1
5.063154865E0,-1.623980999E-1,-6.394586563E-1,1.165771484E-1
5.071151158E0,-1.003459692E-1,-6.128454208E-1,1.050298214E-1
5.079146221E0,-6.185853481E-2,-5.890998840E-1,9.796476364E-2
5.087142130E0,-4.864156246E-2,-5.202121735E-1,6.425642967E-2
5.095168039E0,-1.986932755E-2,-4.420728683E-1,5.655908585E-2
5.103163948E0,-3.048872948E-2,-2.996597290E-1,4.116606712E-2
5.111160318E0,-4.206216335E-2,-1.982116699E-1,1.112532616E-2
5.119154765E0,-5.473315716E-2,-1.113195419E-1,-2.127480507E-2
5.127150059E0,-9.465801716E-2,-4.134273529E-2,-1.533269882E-2
5.135146353E0,-1.233566999E-1,-7.413864136E-3,7.369518280E-3
5.143141416E0,-9.270656109E-2,-2.148723602E-2,1.280307770E-3
5.151168862E0,-1.765727997E-2,-2.162647247E-2,6.390643120E-2
5.159163617E0,6.108021736E-2,-5.574226379E-2,1.042284966E-1
5.167159219E0,1.457222700E-1,-9.998321533E-2,6.699800491E-2
5.175154282E0,2.127556801E-1,-9.428310394E-2,2.913951874E-3
5.183150344E0,2.223155499E-1,-7.904815674E-2,1.057124138E-2
5.191146637E0,2.325782776E-1,-4.936218262E-2,1.575255394E-2
5.199141393E0,2.680132389E-1,-6.497001648E-2,1.611018181E-2
5.207167148E0,3.332694769E-1,-3.255844116E-2,6.659722328E-2
5.215163134E0,3.439615965E-1,-4.078865051E-2,8.589887619E-2
5.223158888E0,3.496972322E-1,-1.560211182E-2,1.169922352E-1
5.231154567E0,3.188269138E-1,-7.394790649E-3,1.023645401E-1
5.239149937E0,2.588018179E-1,3.188991547E-2,9.025168419E-2
5.247145615E0,2.246857882E-1,5.203151703E-2,7.842040062E-2
5.255140677E0,2.332371473E-1,8.653831482E-2,8.123278618E-2
5.263167663E0,2.341984510E-1,1.090774536E-1,8.189988136E-2
5.271162726E0,2.987041473E-1,1.242761612E-1,1.090614796E-1
5.279157866E0,3.378418684E-1,1.224527359E-1,1.027500629E-1
5.287153468E0,3.823972940E-1,9.386825562E-2,1.129570007E-1
5.295149530E0,4.253491163E-1,4.336452484E-2,1.278083324E-1
5.303145131E0,4.598991871E-1,-3.867530823E-2,1.781132221E-1
5.311141425E0,4.606575966E-1,-1.186285019E-1,2.110202312E-1
5.319166103E0,4.709635973E-1,-1.844987869E-1,1.881575584E-1
5.327162011E0,4.742050171E-1,-2.073736191E-1,1.506867409E-1
5.335158305E0,4.349249601E-1,-2.158088684E-1,1.107945442E-1
5.343154599E0,3.514488935E-1,-2.168130875E-1,7.576441765E-2
5.351150277E0,2.838749886E-1,-2.317667007E-1,5.310058594E-2
5.359144494E0,2.250266075E-1,-2.272043228E-1,5.699419975E-2
5.367170940E0,1.459717751E-1,-2.055625916E-1,3.475689888E-2
5.375166234E0,1.157766581E-1,-1.932640076E-1,6.773734093E-2
5.383162528E0,5.021858215E-2,-1.138334274E-1,8.157444000E-2
5.391158283E0,-7.532358170E-3,-7.265567780E-2,1.072237492E-1
5.399153269E0,-1.995229721E-2,1.916885376E-3,1.135160923E-1
5.407148715E0,-2.090775967E-2,8.834743500E-2,1.150307655E-1
5.415144086E0,-3.214669228E-2,1.434507370E-1,1.307833195E-1
5.423140688E0,-6.797528267E-2,2.008228302E-1,1.130685806E-1
5.431167058E0,-8.035218716E-2,2.292747498E-1,1.095364094E-1
5.439161812E0,-6.918108463E-2,2.694664001E-1,7.451152802E-2
5.447157183E0,-8.215165138E-2,2.951488495E-1,3.363132477E-3
5.455153246E0,-1.212450266E-1,2.992973328E-1,-7.954835892E-3
5.463148847E0,-1.572576761E-1,3.154878616E-1,-2.431869507E-4
5.471144295E0,-2.186372280E-1,2.791404724E-1,1.699924469E-4
5.479170049E0,-2.405190468E-1,2.979497910E-1,-2.158164978E-3
5.487165728E0,-2.611169815E-1,3.240976334E-1,6.747245789E-5
5.495161483E0,-2.833104134E-1,3.551864624E-1,-1.922893524E-2
5.503156469E0,-3.404282331E-1,3.864860535E-1,-2.170491219E-2
5.511152763E0,-3.700169325E-1,3.821678162E-1,-5.273151398E-2
5.519147594E0,-4.175668955E-1,3.423242569E-1,-9.292864799E-2
5.527143195E0,-4.278497696E-1,3.030633926E-1,-1.227319241E-1
5.535169720E0,-4.130611420E-1,2.931823730E-1,-1.657955647E-1
5.543165013E0,-4.162818193E-1,3.007707596E-1,-1.860730648E-1
5.551161383E0,-4.251894951E-1,2.612590790E-1,-1.739890575E-1
5.559156677E0,-4.274582863E-1,2.393417358E-1,-1.487429142E-1
5.567152355E0,-3.948537111E-1,2.084207535E-1,-1.179141998E-1
5.575147418E0,-3.755695820E-1,1.659774780E-1,-9.601664543E-2
5.583143173E0,-3.366819620E-1,1.454057693E-1,-1.070041656E-1
5.591170774E0,-3.100452423E-1,1.777610779E-1,-1.458981037E-1
5.599164683E0,-3.104152679E-1,2.341518402E-1,-1.410913467E-1
5.607160053E0,-2.834352255E-1,3.072166443E-1,-1.573345661E-1
5.615156885E0,-2.982648611E-1,3.490562439E-1,-1.469278336E-1
5.623152024E0,-2.570692301E-1,3.595571518E-1,-1.746501923E-1
5.631147395E0,-2.505202293E-1,3.053827286E-1,-2.186574936E-1
5.639142458E0,-2.307066917E-1,2.249450684E-1,-2.379980087E-1
5.647168598E0,-1.973763704E-1,1.446685791E-1,-2.421634197E-1
5.655164891E0,-2.125961781E-1,8.377647400E-2,-2.286605835E-1
5.663160184E0,-1.875228882E-1,6.378746033E-2,-1.785483360E-1
5.671156247E0,-1.606221199E-1,8.206844330E-2,-1.234641075E-1
5.679151618E0,-1.440609694E-1,1.312208176E-1,-6.865048409E-2
5.687146988E0,-1.312134266E-1,1.632585526E-1,-3.325891495E-2
5.695142974E0,-1.552790403E-1,1.734876633E-1,-1.719331741E-2
5.703168498E0,-1.898819208E-1,1.930475235E-1,-1.326727867E-2
5.711165099E0,-2.444288731E-1,1.910314560E-1,-7.607173920E-2
5.719159470E0,-2.635447979E-1,2.130403519E-1,-8.815383911E-2
5.727155225E0,-3.233078718E-1,2.399911880E-1,-4.002237320E-2
5.735151826E0,-2.800318003E-1,2.071504593E-1,-3.247046471E-2
5.743145889E0,-1.842845678E-1,1.789674759E-1,3.471374512E-2
5.751143182E0,-8.438074589E-2,1.815967560E-1,9.661936760E-2
5.759168399E0,-6.677269936E-3,1.838216782E-1,1.410696507E-1
5.767163693E0,3.972053528E-2,2.024412155E-1,1.775023937E-1
5.775159370E0,3.882861137E-2,2.447643280E-1,1.531956196E-1
5.783155356E0,1.279604435E-2,3.157835007E-1,1.378071308E-1
5.791151034E0,7.536768913E-3,3.437156677E-1,1.551735401E-1
5.799145867E0,-2.031183243E-2,3.787527084E-1,1.645119190E-1
5.807142468E0,-7.808840275E-2,3.753128052E-1,2.207252979E-1
5.815168299E0,-1.400192976E-1,3.378086090E-1,3.135805130E-1
5.823164516E0,-1.653562784E-1,2.348117828E-1,4.111733437E-1
5.831159656E0,-1.712020636E-1,1.617097855E-1,4.911868572E-1
5.839154642E0,-1.621896029E-1,7.955455780E-2,6.070580482E-1
5.847150627E0,-1.153042316E-1,4.132652283E-2,5.804862976E-1
5.855146613E0,-6.722176075E-2,9.179115295E-3,5.518891811E-1
5.863141753E0,-3.531038761E-2,-1.164054871E-2,4.508826733E-1
5.871168508E0,-2.951276302E-2,-7.033729553E-2,3.664283752E-1
5.879163263E0,-1.706624031E-2,-1.489038467E-1,2.300257683E-1
5.887159479E0,-9.740471840E-3,-1.851482391E-1,1.275715828E-1
5.895154542E0,-4.865527153E-3,-1.843185425E-1,7.456731796E-2
5.903149913E0,2.666318417E-2,-1.324653625E-1,3.152871132E-2
5.911146822E0,8.762800694E-2,-2.509498596E-2,-9.594678879E-3
5.919141345E0,1.210994720E-1,8.493232727E-2,-2.555584908E-2
5.927166793E0,1.612888575E-1,1.425161362E-1,-5.983829498E-2
5.935162471E0,1.993912458E-1,1.714916229E-1,-1.490807533E-2
5.943159149E0,2.381685972E-1,1.503190994E-1,-7.767462730E-2
5.951154828E0,2.445758581E-1,1.533231735E-1,-1.188387871E-1
5.959149582E0,2.216745615E-1,1.518497467E-1,-1.050338745E-1
5.967145183E0,1.844347715E-1,1.293478012E-1,-1.198830605E-1
5.975140631E0,1.235959530E-1,1.241941452E-1,-1.250791550E-1
5.983167002E0,1.086164713E-1,1.483945847E-1,-9.423780441E-2
5.991162756E0,9.843647480E-2,1.780538559E-1,-1.012811661E-1
5.999158973E0,7.829701900E-2,2.082901001E-1,-1.079342365E-1
6.007153497E0,8.840310574E-2,2.462406158E-1,-9.011983871E-2
6.015149406E0,1.019809246E-1,2.295160294E-1,-9.104537964E-2
6.023145777E0,9.467709064E-2,2.227849960E-1,-1.343834400E-1
6.031140839E0,1.089975834E-1,2.236051559E-1,-1.289649010E-1
6.039166363E0,1.185256243E-1,2.222452164E-1,-1.038539410E-1
6.047162042E0,1.729675531E-1,2.472257614E-1,-8.322143555E-2
6.055158643E0,2.241704464E-1,2.433528900E-1,-6.484055519E-2
6.063153629E0,2.360076904E-1,2.512168884E-1,-7.043600082E-2
6.071149306E0,2.777711153E-1,2.444143295E-1,-5.939674377E-2
6.079144985E0,2.564349174E-1,2.517452240E-1,-7.961416245E-2
6.087140125E0,2.628722191E-1,2.493600845E-1,-9.010934830E-2
6.095165649E0,2.492374182E-1,2.802648544E-1,-6.239056587E-2
6.103163096E0,2.773844004E-1,2.630081177E-1,-6.101584435E-2
6.111157620E0,2.944909334E-1,2.861509323E-1,-8.119130135E-2
6.127148284E0,3.499333858E-1,4.106111526E-1,-1.688432693E-1
6.135144578E0,3.856166601E-1,4.521465302E-1,-1.713423729E-1
6.143139717E0,4.219446182E-1,4.527025223E-1,-1.520438194E-1
6.151166472E0,4.330987930E-1,3.836164474E-1,-1.182072163E-1
6.159161766E0,4.123868942E-1,3.599042892E-1,-1.129424572E-1
6.167157444E0,3.838025331E-1,3.049325943E-1,-7.645511627E-2
6.175153199E0,3.216512203E-1,2.835130692E-1,-9.006285667E-2
6.183148184E0,2.859767675E-1,2.404928207E-1,-3.916215897E-2
6.191144555E0,2.508902550E-1,2.261371613E-1,6.537199020E-3
6.199139003E0,1.961504221E-1,2.383785248E-1,3.036737442E-2
6.207165450E0,1.789678335E-1,2.317361832E-1,2.529788017E-2
6.215161435E0,1.893351078E-1,2.684097290E-1,5.365920067E-2
6.223157037E0,1.787725687E-1,3.074483871E-1,8.403468132E-2
6.231153100E0,1.849813461E-1,3.175172806E-1,1.353752613E-1
6.239148470E0,2.073664665E-1,3.176240921E-1,1.310203075E-1
6.247143841E0,2.216227055E-1,2.597351074E-1,1.737635136E-1
6.255139518E0,2.416479588E-1,1.964263916E-1,1.846060753E-1
6.263166504E0,2.393519878E-1,6.332588196E-2,1.734709740E-1
6.271161875E0,2.133815289E-1,7.102966309E-3,1.030437946E-1
6.279156707E0,1.598668098E-1,-3.416633606E-2,9.092712402E-2
6.287151384E0,1.556136608E-1,-5.566692352E-2,5.567622185E-2
6.295148370E0,1.407542229E-1,-4.798793793E-2,7.825994492E-2
6.303143356E0,1.698312759E-1,-6.895732880E-2,8.621311188E-2
6.311138727E0,1.636736393E-1,-1.162891388E-1,1.008970737E-1
6.319164944E0,1.319012642E-1,-1.322898865E-1,7.020759583E-2
6.327160313E0,7.008695602E-2,-2.769813538E-1,4.042458534E-2
6.335155915E0,-1.216053963E-2,-4.449024200E-1,1.422929764E-2
6.343151362E0,-7.233428955E-2,-7.367658615E-1,3.705811501E-2
6.351148195E0,-1.041941643E-1,-9.544324875E-1,3.377604485E-2
6.359142411E0,-7.179474831E-2,-1.155339241E0,-3.757476807E-4
6.367169396E0,-5.876588821E-2,-1.202869415E0,2.109694481E-2
6.375164536E0,-3.924822807E-2,-1.099591255E0,3.577804565E-2
6.383159830E0,-1.847028732E-2,-8.721055984E-1,6.240129471E-2
6.391156739E0,-1.115489006E-2,-6.092338562E-1,7.663726807E-2
6.399151263E0,6.548166275E-3,-3.541707993E-1,1.363086700E-2
6.407146941E0,-2.495670319E-2,-1.740369797E-1,-4.319000244E-2
6.415142619E0,-6.669640541E-2,-1.380662918E-1,-1.535809040E-1
6.423138605E0,-1.413347721E-1,-1.165132523E-1,-2.572755814E-1
6.431164668E0,-1.785185337E-1,-1.258544922E-1,-2.799103260E-1
6.439159422E0,-2.206575871E-1,-1.225900650E-1,-3.716936111E-1
6.447155716E0,-2.360622883E-1,-1.518459320E-1,-4.051339626E-1
6.455151087E0,-2.321815491E-1,-1.440954208E-1,-4.324693680E-1
6.463146842E0,-2.400496006E-1,-1.685085297E-1,-4.721956253E-1
6.471142828E0,-2.701504230E-1,-1.678457260E-1,-5.123181343E-1
6.479168582E0,-3.039377928E-1,-1.853981018E-1,-5.505418777E-1
6.487164261E0,-3.441532850E-1,-1.851396561E-1,-6.030578613E-1
6.495160016E0,-4.000101089E-1,-1.548738480E-1,-6.646294594E-1
6.503155386E0,-4.284992218E-1,-1.255636215E-1,-7.131454945E-1
6.511151602E0,-4.302306175E-1,-1.118526459E-1,-7.752087116E-1
6.519146050E0,-3.993289471E-1,-1.336622238E-1,-7.754211426E-1
6.527141420E0,-3.695919514E-1,-1.432504654E-1,-8.240804672E-1
6.535167945E0,-3.358923197E-1,-1.620006561E-1,-8.730151653E-1
6.543164777E0,-3.126298189E-1,-1.518716812E-1,-8.558659554E-1
6.551159301E0,-3.373924494E-1,-1.366643906E-1,-8.995668888E-1
6.559154979E0,-3.186587095E-1,-1.475839615E-1,-8.371019363E-1
6.567150042E0,-3.303313255E-1,-1.370706558E-1,-7.558348179E-1
6.575145413E0,-3.719098568E-1,-1.171789169E-1,-7.210493088E-1
6.583142244E0,-3.982646465E-1,-5.449771881E-2,-6.921525002E-1
6.591167845E0,-4.769877195E-1,2.688980103E-2,-6.500699520E-1
6.599162293E0,-5.035840273E-1,1.076221466E-1,-6.475689411E-1
6.607159125E0,-5.599842072E-1,2.355289459E-1,-6.198508739E-1
6.615154803E0,-5.720803738E-1,3.219547272E-1,-5.551342964E-1
6.623149327E0,-5.469906330E-1,3.931980133E-1,-4.847850800E-1
6.631145620E0,-4.465376139E-1,4.323778152E-1,-4.331092834E-1
6.639141222E0,-3.659749031E-1,4.156789780E-1,-3.570454121E-1
6.647167362E0,-2.926754951E-1,4.005661011E-1,-2.691032887E-1
6.655162808E0,-2.474278212E-1,3.584241867E-1,-2.461612225E-1
6.663158179E0,-2.633525133E-1,3.588037491E-1,-2.330982685E-1
6.671154473E0,-3.587303162E-1,3.804216385E-1,-2.201430798E-1
6.679149766E0,-4.613648653E-1,3.948955536E-1,-2.566635609E-1
6.687145214E0,-5.379247665E-1,4.143600464E-1,-2.820768356E-1
6.695141122E0,-5.700917244E-1,3.742218018E-1,-2.596340179E-1
6.703166723E0,-5.350704193E-1,3.414564133E-1,-2.413165569E-1
6.711163325E0,-4.727759361E-1,3.613262177E-1,-2.123110294E-1
6.719158388E0,-3.692343235E-1,3.045415878E-1,-1.675457954E-1
6.727153681E0,-1.848404408E-1,1.802730560E-1,-8.608508110E-2
6.735149666E0,-4.442250729E-2,5.060386658E-2,-9.757637978E-2
6.743145422E0,7.202112675E-2,-5.318069458E-2,-1.254711151E-1
6.751141408E0,1.605302095E-1,-7.841491699E-2,-7.708501816E-2
6.759166624E0,2.815206051E-1,-7.789421082E-2,-3.711771965E-2
6.767162225E0,3.714905977E-1,3.594398499E-3,-2.033019066E-2
6.775158211E0,3.932377100E-1,4.907131195E-2,-3.834605217E-2
6.783153658E0,3.274241686E-1,4.904556274E-2,-3.325605392E-2
6.791149260E0,2.263896465E-1,-4.442214966E-2,-2.119541168E-4
6.799144323E0,1.786241531E-1,-1.451082230E-1,1.547598839E-2
6.807140077E0,1.382932663E-1,-1.836118698E-1,3.074264526E-2
6.815166448E0,1.241005659E-1,-2.030591965E-1,5.539917946E-2
6.823161895E0,9.748458862E-2,-1.675157547E-1,6.579923630E-2
6.831157574E0,4.650998116E-2,-1.175975800E-1,8.140492439E-2
6.839153175E0,2.873301506E-2,-8.444118500E-2,1.116604805E-1
6.847148621E0,4.897046089E-2,-6.328296661E-2,1.205470562E-1
6.855144300E0,5.448269844E-2,-2.785682678E-2,9.826946259E-2
6.863139594E0,2.636480331E-2,-1.398277283E-2,6.651830673E-2
6.871166964E0,2.696418762E-2,2.219200134E-3,7.526516914E-2
6.879161411E0,3.734493256E-2,2.554321289E-2,1.003837585E-1
6.887157166E0,5.042457581E-2,5.588340759E-2,1.389863491E-1
6.895152460E0,6.638264656E-2,9.802818298E-2,1.478013992E-1
6.903148523E0,8.741736412E-2,1.829605103E-1,1.599519253E-1
6.911144201E0,9.454894066E-2,2.269926071E-1,1.517593861E-1
6.919138878E0,7.588076591E-2,2.661714554E-1,1.237001419E-1
6.927166557E0,4.836988449E-2,3.007860184E-1,8.154344559E-2
6.935161004E0,4.329514503E-2,3.237552643E-1,5.908083916E-2
6.943156759E0,1.074576378E-2,2.897109985E-1,4.691672325E-2
6.951152744E0,1.534795761E-2,2.920598984E-1,1.648306847E-2
6.959147730E0,3.095793724E-2,2.662839890E-1,-2.948594093E-2
6.967143486E0,6.213283539E-2,2.577133179E-1,-2.913761139E-2
6.975138856E0,9.209513664E-2,2.257442474E-1,-1.233251095E-1
6.983164919E0,1.352117062E-1,2.326154709E-1,-1.755752563E-1
6.991161212E0,1.647610664E-1,2.063112259E-1,-1.910982132E-1
6.999156660E0,1.878969669E-1,2.185735703E-1,-2.156655788E-1
7.007151338E0,2.112909555E-1,2.525196075E-1,-2.661070824E-1
7.015147401E0,1.917978525E-1,2.362928391E-1,-2.563080788E-1
7.023143079E0,1.417096853E-1,2.249536514E-1,-2.392122746E-1
7.031139910E0,1.446259022E-2,2.690420151E-1,-2.459747791E-1
7.039165127E0,-3.911066055E-2,2.872648239E-1,-2.377808094E-1
7.047159959E0,-6.270980835E-2,3.298778534E-1,-1.997590065E-1
7.055156561E0,-6.439292431E-2,4.278259277E-1,-1.343276501E-1
7.063152238E0,1.229858398E-2,5.090665817E-1,-6.306171417E-2
7.071147609E0,1.018886566E-1,5.733280182E-1,3.270149231E-2
7.079142902E0,2.318058014E-1,5.938043594E-1,9.930348396E-2
7.087137734E0,3.720259666E-1,5.460777283E-1,1.308467388E-1
7.095164182E0,4.206449986E-1,4.279289246E-1,1.534767151E-1
7.103160167E0,4.580266476E-1,3.162841797E-1,1.625800133E-1
7.111156153E0,4.794244766E-1,1.823587418E-1,1.841864586E-1
7.119151447E0,4.779640436E-1,1.267795563E-1,1.800022125E-1
7.127147817E0,4.538362026E-1,8.263015747E-2,1.767296791E-1
7.135142573E0,4.305974245E-1,6.428718567E-2,1.508095264E-1
7.143138865E0,3.914239407E-1,4.773139954E-3,1.671941280E-1
7.151165313E0,3.338588476E-1,-1.030454636E-1,1.495678425E-1
7.159159376E0,3.128083944E-1,-1.944370270E-1,1.607434750E-1
7.167155054E0,2.549289465E-1,-3.074264526E-1,1.557669640E-1
7.175151116E0,2.134828568E-1,-3.621416092E-1,1.479735374E-1
7.183146179E0,2.477226257E-1,-3.780040741E-1,1.917197704E-1
7.191142165E0,3.256649971E-1,-3.528909683E-1,2.075233459E-1
7.199138074E0,4.002407789E-1,-3.351316452E-1,2.162566185E-1
7.207163599E0,4.277337790E-1,-2.961664200E-1,1.770050526E-1
7.215159584E0,4.396483898E-1,-2.479419708E-1,2.020637989E-1
7.223155877E0,4.076844454E-1,-2.215957642E-1,2.167741060E-1
7.231151248E0,4.113055468E-1,-2.098703384E-1,2.066709995E-1
7.239146311E0,3.934398890E-1,-2.270631790E-1,2.052471638E-1
7.247141142E0,3.736555576E-1,-2.515306473E-1,1.886135340E-1
7.255137667E0,3.618768454E-1,-2.593088150E-1,2.020109892E-1
7.263163807E0,3.631800413E-1,-2.622766495E-1,1.929370165E-1
7.271159793E0,3.560477495E-1,-2.269067764E-1,1.829190254E-1
7.279154317E0,3.237748146E-1,-2.322130203E-1,2.030037642E-1
7.287149994E0,2.760828733E-1,-2.445487976E-1,2.009892464E-1
7.295145980E0,2.461998463E-1,-2.328262329E-1,1.745624542E-1
7.303142197E0,1.694694757E-1,-2.209644318E-1,1.980952024E-1
7.311138260E0,1.292707920E-1,-1.970090866E-1,1.641527414E-1
7.319163091E0,8.938658237E-2,-1.777219772E-1,1.496406794E-1
7.327158462E0,6.141221523E-2,-1.583871841E-1,1.449874640E-1
7.335154525E0,6.612253189E-2,-1.415023804E-1,1.097604036E-1
7.343150819E0,6.519937515E-2,-1.366243362E-1,8.954167366E-2
7.351146497E0,6.334877014E-2,-1.318483353E-1,8.649802208E-2
7.359141251E0,6.998097897E-2,-1.057281494E-1,7.635700703E-2
7.367136853E0,8.045303822E-2,-1.157436371E-1,6.127905846E-2
7.375163069E0,9.714460373E-2,-1.499805450E-1,7.452607155E-2
7.383158748E0,1.032484770E-1,-1.844816208E-1,-8.261919022E-3
7.391155041E0,8.675384521E-2,-2.072677612E-1,-8.166062832E-2
7.399150103E0,4.785358906E-2,-2.422065735E-1,-1.574674845E-1
7.407144782E0,3.210949898E-2,-2.462234497E-1,-1.759638786E-1
7.415141152E0,8.254885674E-3,-2.528200150E-1,-1.728538275E-1
7.423136523E0,9.889841080E-3,-2.331762314E-1,-2.219792604E-1
7.431163277E0,1.296162605E-3,-2.302894592E-1,-2.272636890E-1
7.439158340E0,4.163265228E-3,-2.393054962E-1,-2.220591307E-1
7.447153711E0,2.051353455E-3,-2.171001434E-1,-2.256904840E-1
7.455149697E0,2.174139023E-3,-2.235927582E-1,-1.810296774E-1
7.463144990E0,-2.862095833E-2,-2.132616043E-1,-1.792883873E-1
7.471140437E0,-3.771138191E-2,-1.909341812E-1,-1.607381105E-1
7.479165885E0,-8.949065208E-2,-1.852607727E-1,-1.635698080E-1
7.487162563E0,-1.095702648E-1,-1.531295776E-1,-1.639610529E-1
7.495157318E0,-1.646212339E-1,-1.255664825E-1,-1.570281982E-1
7.503153304E0,-1.826514006E-1,-1.193313599E-1,-1.453647614E-1
7.511148597E0,-2.400683165E-1,-1.247768402E-1,-1.336416006E-1
7.519144044E0,-2.550739050E-1,-1.394643784E-1,-1.149225235E-1
7.527140030E0,-3.133475780E-1,-1.273059845E-1,-1.128435135E-1
7.535166170E0,-3.194799423E-1,-1.434726715E-1,-7.965266705E-2
7.543162694E0,-3.522305489E-1,-6.814098358E-2,-1.204231977E-1
7.551158064E0,-3.473954201E-1,-3.067684174E-2,-1.297155619E-1
7.559152589E0,-3.554425240E-1,1.674175262E-2,-1.147853136E-1
7.567148267E0,-3.481707573E-1,4.523277283E-2,-1.165081263E-1
7.575143638E0,-3.191649914E-1,7.612895966E-2,-1.207435131E-1
7.583140161E0,-2.866086960E-1,1.210575104E-1,-1.587802172E-1
7.591166301E0,-2.743338346E-1,1.130065918E-1,-1.492220163E-1
7.599161672E0,-2.675935030E-1,9.516716003E-2,-1.446763277E-1
7.607157043E0,-2.514437437E-1,7.845878601E-3,-1.162437201E-1
7.615153104E0,-2.469440699E-1,-2.918434143E-2,-1.120485067E-1
7.623148475E0,-1.993793249E-1,-9.262561798E-2,-8.424437046E-2
7.631144384E0,-1.285841465E-1,-1.634912491E-1,-5.926418304E-2
7.639139139E0,-1.140763760E-1,-1.747484207E-1,-9.882712364E-2
7.647165356E0,-1.226119995E-1,-2.078990936E-1,-1.638638973E-2
7.655160726E0,-1.473796368E-1,-2.271633148E-1,2.259397507E-2
7.663156712E0,-1.951307058E-1,-2.347974777E-1,4.229307175E-2
7.671153006E0,-2.106546164E-1,-2.523202896E-1,5.227947235E-2
7.679147684E0,-1.968053579E-1,-2.679843903E-1,1.285421848E-1
7.687143055E0,-1.039474010E-1,-2.101392746E-1,3.868997097E-2
7.695138732E0,-1.148509979E-2,-2.393569946E-1,2.181899548E-2
7.703165179E0,1.378204823E-1,-2.311515808E-1,-1.684427261E-1
7.711162089E0,2.442910671E-1,-1.661682129E-1,-2.590296268E-1
7.719156536E0,2.880139351E-1,-1.110963821E-1,-3.553683758E-1
7.727151060E0,2.394359112E-1,4.110336304E-3,-4.226006269E-1
7.735147892E0,1.809482574E-1,6.959629059E-2,-3.886791468E-1
7.743143339E0,8.872532845E-2,9.984016418E-2,-3.490104675E-1
7.751138941E0,-1.346206665E-2,6.599807739E-2,-2.704677582E-1
7.759165081E0,-9.753489494E-2,4.938697815E-2,-2.174078226E-1
7.767160219E0,-2.569427490E-1,9.774971008E-2,-1.258543730E-1
7.775155898E0,-3.745425940E-1,1.033658981E-1,-4.816937447E-2
7.783151499E0,-4.950661659E-1,8.806037903E-2,-5.427002907E-3
7.791147793E0,-5.698020458E-1,8.791732788E-2,8.361756802E-2
7.799142548E0,-6.165207624E-1,6.252193451E-2,6.790328026E-2
7.807138302E0,-5.927656889E-1,6.439208984E-2,9.672880173E-3
7.815165288E0,-5.657944679E-1,1.263341904E-1,2.341711521E-2
7.823160659E0,-4.841489792E-1,1.833324432E-1,6.079065800E-2
7.831156337E0,-3.818231821E-1,2.112865448E-1,7.369434834E-2
7.839151707E0,-2.902469635E-1,1.884832382E-1,1.166639328E-1
7.847146770E0,-1.323285103E-1,1.407909393E-1,1.225807667E-1
7.855142217E0,-4.521846771E-3,9.684753418E-2,1.325085163E-1
7.863138742E0,1.054127216E-1,5.906105042E-2,2.036802769E-1
7.871164882E0,1.603436470E-1,2.278137207E-2,2.875081301E-1
7.879159944E0,2.420420647E-1,-6.940937042E-2,3.407063484E-1
7.887155007E0,2.719826698E-1,-1.147470474E-1,4.838632345E-1
7.895151070E0,3.355441093E-1,-1.781339645E-1,5.706838369E-1
7.903146056E0,4.289731979E-1,-2.024888992E-1,6.872845888E-1
7.911142964E0,4.974629879E-1,-2.482919693E-1,7.950774431E-1
7.919137796E0,6.035120487E-1,-3.183832169E-1,9.308546782E-1
7.927164167E0,6.713104248E-1,-3.932733536E-1,1.053362727E0
7.935160230E0,7.750034332E-1,-5.304279327E-1,1.259103537E0
7.943155216E0,9.341509342E-1,-6.775703430E-1,1.324488282E0
7.951150893E0,1.079129934E0,-7.868576050E-1,1.250715852E0
7.959146340E0,1.260924578E0,-8.536434174E-1,1.217112541E0
7.967141634E0,1.419450521E0,-9.065361023E-1,9.713222980E-1
7.975137312E0,1.621296883E0,-9.023485184E-1,6.870892048E-1
7.983163836E0,1.801704884E0,-8.624830246E-1,3.700262308E-1
7.991159745E0,1.893386841E0,-7.821989059E-1,2.305152416E-1
7.999154500E0,1.957901716E0,-7.330331802E-1,1.934723854E-1
8.007150256E0,2.005680323E0,-7.389097214E-1,2.291252613E-1
8.015145857E0,2.085969687E0,-7.849636078E-1,4.357532263E-1
8.023140919E0,2.104728699E0,-8.283653259E-1,6.409277916E-1
8.031137290E0,2.121117830E0,-8.477048874E-1,9.723343849E-1
8.039163122E0,2.069719076E0,-8.409900665E-1,1.200041771E0
8.047158723E0,2.019595146E0,-8.369207382E-1,1.260644436E0
8.055154094E0,2.020679951E0,-7.133321762E-1,1.303943872E0
8.063150156E0,2.058111668E0,-6.498689651E-1,1.309463739E0
8.071145757E0,2.152845860E0,-5.031833649E-1,1.201055765E0
8.079141205E0,2.297852516E0,-3.977241516E-1,1.118083954E0
8.087136498E0,2.370125294E0,-3.078088760E-1,1.019753695E0
8.095162330E0,2.401142120E0,-2.359848022E-1,9.343276024E-1
8.103158316E0,2.355228424E0,-2.472877502E-1,8.343131542E-1
8.111154302E0,2.290949821E0,-2.098398209E-1,6.998200417E-1
8.119149364E0,2.242026329E0,-1.813716888E-1,5.923929214E-1
8.127145120E0,2.181194305E0,-1.946859360E-1,5.431864262E-1
8.135140797E0,2.153255939E0,-1.522789001E-1,5.112278461E-1
8.143136783E0,2.052824497E0,-1.716375351E-1,5.445566177E-1
8.151163538E0,1.990086555E0,-1.474790573E-1,6.100244522E-1
8.159158524E0,1.979254246E0,-1.997346878E-1,6.529297829E-1
8.167153280E0,2.010298252E0,-2.594194412E-1,7.119891644E-1
8.175149342E0,2.038688183E0,-3.349318504E-1,7.998304367E-1
8.183145020E0,1.976350307E0,-4.162421227E-1,7.885334492E-1
8.191140929E0,1.856777191E0,-4.484796524E-1,7.338228226E-1
8.199135684E0,1.687482834E0,-5.035448074E-1,6.143260002E-1
8.207162515E0,1.553617001E0,-5.352177620E-1,4.705009460E-1
8.215157886E0,1.477712631E0,-5.669326782E-1,4.529039860E-1
8.223154103E0,1.434025764E0,-6.294193268E-1,4.108462334E-1
8.231150089E0,1.493957520E0,-7.015452385E-1,3.736684322E-1
8.239144229E0,1.538585663E0,-7.993469238E-1,2.842402458E-1
8.247139675E0,1.529027462E0,-9.094281197E-1,2.668185234E-1
8.255135661E0,1.417659283E0,-1.029570103E0,2.803606987E-1
8.263162417E0,1.241175175E0,-1.135603428E0,2.306189537E-1
8.271157403E0,1.122481346E0,-1.155063629E0,8.622503281E-2
8.279153080E0,1.038228035E0,-1.188068867E0,-6.936001778E-2
8.287148758E0,1.009850025E0,-1.127358437E0,-2.675445080E-1
8.295143821E0,8.967318535E-1,-1.072040081E0,-3.442394733E-1
8.303139884E0,7.889966965E-1,-9.891643524E-1,-3.720598221E-1
8.311136178E0,6.549587250E-1,-1.003079891E0,-2.745003700E-1
8.319161394E0,4.823532104E-1,-1.080439568E0,-1.965327263E-1
8.327156764E0,3.647623062E-1,-1.202226639E0,-1.872348785E-2
8.335152673E0,3.291168213E-1,-1.316327095E0,-1.238007545E-1
8.343148429E0,4.527378082E-1,-1.411706209E0,-1.292185783E-1
8.351144338E0,5.409498215E-1,-1.546721697E0,-1.739618778E-1
8.359139477E0,6.678457260E-1,-1.703031301E0,-2.272527218E-1
8.367164924E0,7.449579239E-1,-1.815866947E0,-2.816181183E-1
8.375161602E0,6.642417908E-1,-1.918451071E0,-2.847738266E-1
8.383156973E0,5.927629471E-1,-2.036324739E0,-3.794026375E-1
8.391152343E0,4.796886444E-1,-2.171134233E0,-5.046570301E-1
8.399147713E0,4.846973419E-1,-2.287198782E0,-4.059412479E-1
8.407143007E0,7.611579895E-1,-2.512868166E0,-1.963400841E-2
8.415139608E0,1.426340103E0,-2.773927689E0,-3.009481430E-1
8.423165210E0,2.357147217E0,-3.073780060E0,-7.357002497E-1
8.431161426E0,2.961455345E0,-3.277087212E0,-7.619919777E-1
8.439155950E0,3.346259117E0,-3.481466055E0,-7.366811037E-1
8.447152167E0,3.412314415E0,-3.623767376E0,-6.514828205E-1
8.455147538E0,3.356793404E0,-3.776245594E0,-6.661251783E-1
8.463142984E0,3.156635284E0,-3.865434647E0,-8.622363806E-1
8.471138355E0,2.711631775E0,-3.898017883E0,-1.069296837E0
8.479164802E0,1.839997292E0,-3.679897070E0,-1.308104515E0
8.487160404E0,1.242932320E0,-3.546761990E0,-1.453182220E0
8.495156082E0,6.204690933E-1,-3.331912279E0,-1.610078454E0
8.503152144E0,2.693462372E-2,-3.014857769E0,-1.891830802E0
8.511148361E0,-4.109668732E-1,-2.818023205E0,-2.076415777E0
8.519142808E0,-7.796716690E-1,-2.559485197E0,-2.059225559E0
8.527137564E0,-9.447946548E-1,-2.428396940E0,-1.849501491E0
8.535164626E0,-9.778184891E-1,-2.272593975E0,-1.422125459E0
8.543159996E0,-9.359846115E-1,-2.116271257E0,-8.852496147E-1
8.551155982E0,-9.088726044E-1,-1.951986432E0,-3.857166767E-1
8.559151353E0,-1.035356522E0,-1.684338927E0,3.914535046E-2
8.567146416E0,-1.291816711E0,-1.357438207E0,3.364092112E-1
8.575143324E0,-1.571318150E0,-9.560403824E-1,6.213982105E-1
8.583137848E0,-1.574505806E0,-6.376674175E-1,8.113105297E-1
8.591164296E0,-1.289757252E0,-3.013708591E-1,3.927098513E-1
8.599159282E0,-1.061902523E0,-1.371574402E-2,1.710650921E-1
8.607155268E0,-1.029510975E0,9.910821915E-2,8.304536343E-2
8.615150407E0,-1.118298054E0,1.092104912E-1,2.484632730E-1
8.623146624E0,-1.197841167E0,-1.195435524E-1,4.828577042E-1
8.631143225E0,-1.521478653E0,-3.822555542E-1,6.198539734E-1
8.639137980E0,-1.931141853E0,-6.692938805E-1,7.685667276E-1
8.647164196E0,-2.506914139E0,-9.293475151E-1,7.612321377E-1
8.655159567E0,-2.895946980E0,-1.158892155E0,8.782750368E-1
8.663154553E0,-3.123927116E0,-1.323756218E0,8.218839169E-1
8.671151154E0,-3.326903820E0,-1.387749672E0,7.901000977E-1
8.679145602E0,-3.549349308E0,-1.413581371E0,7.852408886E-1
8.687141894E0,-3.914961815E0,-1.308103085E0,8.419475555E-1
8.695138573E0,-4.173960209E0,-1.148027897E0,7.215746641E-1
8.703163713E0,-4.131055832E0,-1.002870083E0,5.231027603E-1
8.711159160E0,-3.898580790E0,-7.751531601E-1,3.032312393E-1
8.719154223E0,-3.559869289E0,-6.620721817E-1,1.434147358E-1
8.727150131E0,-3.085762262E0,-5.972838402E-1,2.235734463E-2
8.735145502E0,-2.678970814E0,-6.508922577E-1,-6.256079674E-2
8.743141565E0,-2.428522825E0,-8.032402992E-1,-1.455745697E-1
8.751136935E0,-2.333330631E0,-9.687409401E-1,-2.054308653E-1
8.759163382E0,-2.293418407E0,-1.125555515E0,-2.122141123E-1
8.767158676E0,-2.347813368E0,-1.202095509E0,-1.575374603E-1
8.775154123E0,-2.356840134E0,-1.282200813E0,-1.013894081E-1
8.783149494E0,-2.414355040E0,-1.369076252E0,-3.191304207E-2
8.791146018E0,-2.465796471E0,-1.482558250E0,-1.921033859E-2
8.799140773E0,-2.531939030E0,-1.546088696E0,-5.220961571E-2
8.807136220E0,-2.700885296E0,-1.567787647E0,-1.137175560E-1
8.815162898E0,-2.853842974E0,-1.519079208E0,-2.584147453E-1
8.823158654E0,-2.994038105E0,-1.440618515E0,-3.408088684E-1
8.831154869E0,-2.936072826E0,-1.286882401E0,-4.036900997E-1
8.839149702E0,-2.813829184E0,-1.237995148E0,-4.160006046E-1
8.847144995E0,-2.615297794E0,-1.282358646E0,-2.606854439E-1
8.855141366E0,-2.439589977E0,-1.389039993E0,-1.453332901E-1
8.863135814E0,-2.239744663E0,-1.570946693E0,3.291511536E-2
8.871162568E0,-2.058595419E0,-1.706358433E0,1.950485706E-1
8.879158169E0,-1.940247774E0,-1.712343216E0,3.677034378E-1
8.887152694E0,-1.882375598E0,-1.649286270E0,4.371745586E-1
8.895149218E0,-1.812589288E0,-1.522408962E0,3.246660233E-1
8.903144973E0,-1.588130236E0,-1.341576576E0,1.677484512E-1
8.911140651E0,-1.291947126E0,-1.188274384E0,4.682064056E-2
8.919135329E0,-9.202725887E-1,-1.000554562E0,2.568197250E-2
8.927161854E0,-5.771260262E-1,-9.104380608E-1,5.584406853E-2
8.935157763E0,-2.681846619E-1,-8.895339966E-1,1.676900387E-1
8.943153825E0,1.279211044E-2,-8.949775696E-1,3.602304459E-1
8.951148887E0,1.355104446E-1,-8.911781311E-1,4.461636543E-1
8.959143874E0,9.579086304E-2,-8.374333382E-1,4.559738636E-1
8.967139860E0,-1.016643047E-1,-7.621946335E-1,4.655933380E-1
8.975135538E0,-3.977718353E-1,-7.085094452E-1,4.447112083E-1
8.983161369E0,-6.814880371E-1,-6.499242783E-1,4.162199497E-1
8.991157663E0,-9.401028156E-1,-6.317081451E-1,3.980078697E-1
8.999152726E0,-1.045300484E0,-6.322870255E-1,4.484448433E-1
9.007148481E0,-1.010589123E0,-5.461235046E-1,4.749574661E-1
9.015145005E0,-9.477243423E-1,-5.314149857E-1,6.640150547E-1
9.023139529E0,-1.021860600E0,-5.236883163E-1,7.191934586E-1
9.031135207E0,-1.139320254E0,-5.133142471E-1,7.549333572E-1
9.039161655E0,-1.053287864E0,-5.048313141E-1,7.630710602E-1
9.047157333E0,-7.856662273E-1,-4.932374954E-1,7.217833996E-1
9.055152703E0,-4.202890396E-1,-5.167980194E-1,6.190168858E-1
9.063148689E0,-1.702759266E-1,-4.895572662E-1,4.555325508E-1
9.071144290E0,-7.824873924E-2,-4.403924942E-1,3.438451290E-1
9.079139430E0,-1.509182453E-1,-2.974948883E-1,3.051235676E-1
9.087135647E0,-3.062708378E-1,-2.022294998E-1,3.391613960E-1
9.095161247E0,-5.507452488E-1,-1.452054977E-1,4.291214943E-1
9.103156310E0,-7.621972561E-1,-1.576299667E-1,5.202176571E-1
9.111151988E0,-8.979114294E-1,-2.441959381E-1,5.790677071E-1
9.119147898E0,-8.968857527E-1,-3.449649811E-1,5.802438259E-1
9.127143883E0,-7.865606546E-1,-4.023418427E-1,5.386736393E-1
9.135139253E0,-6.559674740E-1,-3.923759460E-1,5.288825035E-1
9.143134932E0,-5.912730694E-1,-3.582353592E-1,4.815800190E-1
9.151161379E0,-5.779349804E-1,-2.737054825E-1,4.088842869E-1
9.159156442E0,-5.849866867E-1,-2.251777649E-1,3.257834911E-1
9.167151889E0,-6.408170462E-1,-1.769800186E-1,2.326121330E-1
9.175146952E0,-6.116040945E-1,-1.148080826E-1,1.488368511E-1
9.183143784E0,-5.215780735E-1,-5.286312103E-2,1.076853275E-1
9.191139231E0,-3.971991539E-1,1.118850708E-2,6.866335869E-2
9.199134294E0,-2.627773285E-1,3.667640686E-2,7.971763611E-3
9.207159818E0,-1.377155781E-1,1.643466949E-2,-7.191491127E-2
9.215156111E0,-9.425139427E-2,3.113746643E-3,-1.323814392E-1
9.223151174E0,-1.167151928E-1,1.367092133E-2,-1.588361263E-1
9.231146776E0,-2.006020546E-1,9.596157074E-2,-1.455733776E-1
9.239142761E0,-2.210111618E-1,1.614122391E-1,-1.360368729E-1
9.247138516E0,-1.782028675E-1,2.531347275E-1,-1.324701309E-1
9.255163964E0,-9.629344940E-2,3.113174438E-1,-1.205143929E-1
9.263159411E0,5.065917969E-3,3.265714645E-1,-1.003050804E-1
9.271156320E0,6.149315834E-2,3.205585480E-1,-1.154389381E-1
9.279151382E0,1.167681217E-1,3.220043182E-1,-9.456467628E-2
9.287146984E0,1.240477562E-1,3.307657242E-1,-1.074771881E-1
9.295142662E0,9.105777740E-2,3.348760605E-1,-6.599259377E-2
9.303138109E0,6.792879105E-2,2.602291107E-1,-1.581954956E-2
9.311134634E0,7.369995117E-2,1.835384369E-1,1.893162727E-2
9.319159542E0,7.977986336E-2,1.333703995E-1,2.182841301E-2
9.327155836E0,6.684207916E-2,1.143932343E-1,4.839038849E-2
9.335150899E0,5.656671524E-2,1.718883514E-1,3.204584122E-2
9.343146885E0,7.518410683E-2,2.219200134E-1,1.976490021E-3
9.351142870E0,9.639930725E-2,2.620668411E-1,-5.862951279E-3
9.359138010E0,1.034631729E-1,2.588300705E-1,-1.068520546E-2
9.367163765E0,8.464479446E-2,2.552909851E-1,-3.896832466E-2
9.375159828E0,5.203986168E-2,2.204151154E-1,-4.793834686E-2
9.383155198E0,5.847001076E-2,1.686029434E-1,-5.935287476E-2
9.391150799E0,1.995491982E-2,1.359443665E-1,-2.807068825E-2
9.399145631E0,-1.808333397E-2,1.416692734E-1,2.421927452E-2
9.407141617E0,-9.393048286E-2,1.187820435E-1,1.836323738E-2
9.415137526E0,-1.191554070E-1,1.390447617E-1,1.211118698E-2
9.423133280E0,-1.750609875E-1,1.258192062E-1,-1.608967781E-2
9.431159959E0,-2.233254910E-1,1.077938080E-1,-2.303266525E-2
9.439154714E0,-3.044252396E-1,1.255340576E-1,-3.246498108E-2
9.447149777E0,-3.153345585E-1,1.335048676E-1,-6.106328964E-2
9.455145763E0,-2.663943768E-1,1.246538162E-1,-9.187102318E-2
9.463141825E0,-1.393718719E-1,1.208000183E-1,-1.297533512E-1
9.471138042E0,-6.133484840E-2,1.076250076E-1,-1.962614059E-1
9.479162720E0,1.638174057E-3,1.186466217E-1,-2.198648453E-1
9.487158321E0,6.720304489E-3,7.254409790E-2,-2.033615112E-1
9.495153999E0,-9.665250778E-3,6.028652191E-2,-1.662566662E-1
9.503149369E0,-3.088355064E-2,-1.605033875E-2,-9.952473640E-2
9.511146355E0,-6.166863441E-2,-3.198623657E-2,-7.258486748E-2
9.519141111E0,-1.185870171E-1,-2.599620819E-2,-3.483176231E-2
9.527135481E0,-9.878921509E-2,-1.023197174E-2,-5.034089088E-2
9.535132774E0,-1.648480892E-1,5.568599701E-2,-6.813478470E-2
9.543157991E0,-2.112705708E-1,1.379661560E-1,-8.757948875E-2
9.551154208E0,-2.332952023E-1,1.574516296E-1,-1.274135113E-1
9.559149040E0,-1.977133751E-1,1.622152328E-1,-1.328577995E-1
9.567144333E0,-1.457378864E-1,1.693277359E-1,-9.961533546E-2
9.575140395E0,-7.071161270E-2,1.192140579E-1,-8.552312851E-2
9.583136304E0,1.529502869E-2,1.944637299E-2,-5.804777145E-2
9.591162214E0,6.472849846E-2,-4.144287109E-2,-4.839730263E-2
9.599158123E0,1.019587517E-1,-1.114444733E-1,-2.066922188E-2
9.607153800E0,8.934092522E-2,-1.572608948E-1,-1.301884651E-2
9.615148863E0,-1.099491119E-2,-1.504001617E-1,-1.315164566E-2
9.623144541E0,-9.163284302E-2,-1.315984726E-1,8.137226105E-4
9.631140296E0,-1.865327358E-1,-9.612083435E-2,2.977609634E-3
9.639135975E0,-2.573487759E-1,-2.733230591E-2,3.434371948E-2
9.647162037E0,-2.802131176E-1,7.664680481E-3,3.527235985E-2
9.655157177E0,-2.667250633E-1,8.299064636E-2,5.780935287E-3
9.663152855E0,-2.169561386E-1,1.124181747E-1,-3.485035896E-2
9.671149379E0,-1.144592762E-1,1.009254456E-1,-4.859352112E-2
9.679144135E0,-9.823870659E-2,1.754665375E-2,-7.886648178E-2
9.687139889E0,-1.154360771E-1,-3.241825104E-2,-8.977603912E-2
9.695135490E0,-1.277980804E-1,-9.197044373E-2,-7.673716545E-2
9.703161399E0,-1.474399567E-1,-1.443405151E-1,-7.798862457E-2
9.711158001E0,-1.506860256E-1,-1.726331711E-1,4.458189011E-3
9.719152063E0,-1.733891964E-1,-1.482830048E-1,1.775360107E-2
9.727148356E0,-1.534976959E-1,-1.598796844E-1,3.148007393E-2
9.735144112E0,-1.316893101E-1,-1.141366959E-1,3.865098953E-2
9.743139482E0,-9.343075752E-2,-5.187129974E-2,1.073718071E-2
9.751135776E0,-7.202863693E-2,6.465911865E-4,1.684761047E-2
9.759161223E0,-8.651733398E-2,1.707935333E-2,3.536176682E-2
9.767156363E0,-8.200168610E-2,1.187229156E-2,1.591134071E-2
9.775152579E0,-8.465743065E-2,-3.411960602E-2,3.851413727E-3
9.783149488E0,-3.733372688E-2,-5.137252808E-2,-5.642890930E-3
9.791144550E0,-1.641464233E-2,-7.346153259E-2,-3.411436081E-2
9.799139613E0,-2.661705017E-3,-7.162570953E-2,-4.579663277E-2
9.807134445E0,-1.739120483E-2,-5.306434631E-2,-3.361177444E-2
9.815161124E0,-1.783943176E-2,-2.489089966E-2,-2.863860130E-2
9.823156571E0,2.221488953E-2,-3.974533081E-2,-4.564046860E-3
9.831152864E0,6.178879738E-2,-3.054523468E-2,3.150463104E-2
9.839147542E0,1.130132675E-1,-5.238437653E-2,3.644084930E-2
9.847143221E0,1.639618874E-1,-2.861022949E-2,3.883266449E-2
9.855138899E0,1.883542538E-1,-1.667213440E-2,5.777812004E-2
9.863135193E0,2.028250694E-1,4.812240601E-2,9.802079201E-2
9.871161024E0,1.957116127E-1,4.601097107E-2,1.139998436E-1
9.879155779E0,2.055132389E-1,4.878807068E-2,1.439847946E-1
9.887151534E0,1.870706081E-1,8.690834045E-3,1.706850529E-1
9.895148136E0,1.930098534E-1,-1.926517487E-2,1.966652870E-1
9.903142813E0,1.517882347E-1,-2.544403076E-2,2.191898823E-1
9.911139107E0,1.593098640E-1,2.592468262E-2,1.930594444E-1
9.919134247E0,1.415908337E-1,8.208274841E-2,2.117249966E-1
9.927159771E0,1.157963276E-1,1.956577301E-1,2.008213997E-1
9.935155680E0,7.239937782E-2,3.018245697E-1,2.134697437E-1
9.943151742E0,6.638288498E-2,3.790712357E-1,1.969780922E-1
9.951147728E0,6.886529922E-2,4.441967010E-1,1.824703217E-1
9.959142176E0,6.774902344E-2,4.709358215E-1,1.674702168E-1
9.967138777E0,5.793690681E-2,5.240736008E-1,1.206879616E-1
9.975133840E0,5.846095085E-2,5.750007629E-1,9.697222710E-2
9.983159594E0,8.133125305E-2,6.477527618E-1,9.129476547E-2
9.991155888E0,7.865715027E-2,6.705055237E-1,9.170222282E-2
9.999150643E0,4.115343094E-2,5.906448364E-1,1.457798481E-1
1.000714694E1,7.145881653E-3,4.871520996E-1,1.722035408E-1
1.001514231E1,-1.849222183E-2,3.456182480E-1,1.782538891E-1
1.002313829E1,-8.380818367E-2,2.114963531E-1,1.904857159E-1
1.003113343E1,-1.863516569E-1,1.541833878E-1,1.946110725E-1
1.003915957E1,-2.955410480E-1,9.706687927E-2,2.292823792E-1
1.004715548E1,-3.809788227E-1,5.210781097E-2,2.302765846E-1
1.005515085E1,-4.569678307E-1,2.152442932E-2,2.027900219E-1
1.006314630E1,-5.350126028E-1,-5.951499939E-2,1.685674191E-1
1.007114228E1,-5.715183020E-1,-1.001825333E-1,1.396763325E-1
1.007913758E1,-6.161903143E-1,-1.509342194E-1,7.555747032E-2
1.008713272E1,-6.423182487E-1,-1.496706009E-1,5.061531067E-2
1.009515916E1,-6.519660950E-1,-1.706733704E-1,2.603292465E-3
1.010315415E1,-5.988610983E-1,-1.777486801E-1,-8.467912674E-3
1.011115083E1,-5.352602005E-1,-1.921062469E-1,-2.314591408E-2
1.011914551E1,-4.340987206E-1,-2.564468384E-1,-3.443121910E-2
1.012714157E1,-3.179936409E-1,-3.368883133E-1,-1.879024506E-2
1.013513756E1,-1.849769354E-1,-3.617382050E-1,-4.042315483E-2
1.014313316E1,-3.496170044E-2,-4.076871872E-1,-6.334638596E-2
1.015115999E1,6.383800507E-2,-3.983860016E-1,-9.471058846E-2
1.015915444E1,1.342939138E-1,-3.915243149E-1,-1.513683796E-1
1.016715065E1,1.583740711E-1,-4.063882828E-1,-1.808574200E-1
1.017514610E1,1.654835939E-1,-3.903160095E-1,-2.026250362E-1
1.018314109E1,1.271051168E-1,-3.625068665E-1,-2.214488983E-1
1.019113715E1,6.696283817E-2,-3.588600159E-1,-2.276859283E-1
1.019913275E1,1.578938961E-2,-2.883358002E-1,-2.356743813E-1
1.020715827E1,-5.495548248E-5,-2.395963669E-1,-2.189033031E-1
1.021515434E1,-2.832007408E-2,-1.336517334E-1,-1.989471912E-1
1.022315032E1,-7.615327835E-2,-8.781528473E-2,-1.662480831E-1
1.023114654E1,-5.720448494E-2,-7.087516785E-2,-1.522095203E-1
1.023914076E1,-2.883768082E-2,-1.067390442E-1,-1.473720074E-1
1.024713613E1,-3.378558159E-2,-1.713848114E-1,-1.401133537E-1
1.025513150E1,-6.941771507E-2,-2.336215973E-1,-1.259014606E-1
1.026315879E1,-1.430947781E-1,-2.718496323E-1,-9.520292282E-2
1.027115454E1,-2.190670967E-1,-2.477750778E-1,-6.945872307E-2
1.027914899E1,-2.522536516E-1,-1.686420441E-1,-4.355788231E-2
1.028714436E1,-2.664440870E-1,-6.088733673E-2,-1.733684540E-2
1.029514004E1,-2.613373995E-1,8.372306824E-3,4.464149475E-3
1.030313603E1,-2.414119244E-1,3.663539886E-2,-1.635122299E-2
1.031113201E1,-2.375093699E-1,8.378410339E-2,-1.533532143E-2
1.031915784E1,-2.399415970E-1,7.332324982E-2,2.407789230E-3
1.032715375E1,-2.343339920E-1,2.922058105E-2,3.293275833E-3
1.033514889E1,-2.305886745E-1,-1.724624634E-2,2.063202858E-2
1.034314457E1,-1.980340481E-1,-8.272361755E-2,3.521919250E-2
1.035114140E1,-1.609886885E-1,-1.073551178E-1,3.284835815E-2
1.035913554E1,-1.342138052E-1,-1.391067505E-1,2.824711800E-2
1.036716230E1,-1.130868196E-1,-1.038351059E-1,1.688408852E-2
1.037515713E1,-4.547059536E-2,-4.942226410E-2,-2.256417274E-2
1.038315373E1,1.601886749E-2,9.723663330E-3,-6.847906113E-2
1.039114941E1,6.667637825E-2,6.403732300E-2,-9.217810631E-2
1.039914470E1,1.163380146E-1,1.375455856E-1,-9.637475014E-2
1.040713984E1,2.107874155E-1,1.609010696E-1,-1.101205349E-1
1.041513544E1,2.620207071E-1,1.507453918E-1,-1.214284897E-1
1.042313120E1,3.323888779E-1,7.112884521E-2,-1.326572895E-1
1.043115765E1,3.216389418E-1,-1.406669617E-3,-1.198298931E-1
1.043915232E1,2.680261135E-1,-4.047966003E-2,-1.237280369E-1
1.044714808E1,1.623021364E-1,-6.992053986E-2,-1.088526249E-1
1.045514430E1,3.807389736E-2,-9.201526642E-2,-7.309865952E-2
1.046313997E1,-5.223047733E-2,-8.517742157E-2,-3.321099281E-2
1.047113565E1,-5.672609806E-2,-7.578468323E-2,-1.745867729E-2
1.047916148E1,-2.603137493E-2,-2.072143555E-2,-2.095174789E-2
1.048715632E1,1.582825184E-2,1.534271240E-2,-2.443432808E-2
1.049515284E1,5.226325989E-2,5.165672302E-2,-3.778290749E-2
1.050314798E1,1.000751257E-1,6.428241730E-2,8.412599564E-3
1.051114396E1,1.521738768E-1,3.157234192E-2,8.996009827E-3
1.051913895E1,2.539788485E-1,-8.070945740E-3,3.081488609E-2
1.052713432E1,3.454630375E-1,-4.257965088E-2,8.809971809E-2
1.053516084E1,3.760800362E-1,-7.670593262E-2,1.042728424E-1
1.054315683E1,4.032624960E-1,-4.092025757E-2,1.461684704E-1
1.055115243E1,4.008352757E-1,-1.420116425E-2,1.753425598E-1
1.055914688E1,3.241361380E-1,1.036071777E-2,1.968328953E-1
1.056714348E1,2.245696783E-1,4.688262939E-2,1.963222027E-1
1.057513862E1,1.335053444E-1,5.928230286E-2,2.028009892E-1
1.058313430E1,8.419549465E-2,5.709743500E-2,1.925466061E-1
1.059116067E1,4.760980606E-2,7.146167755E-2,1.944055557E-1
1.059915581E1,3.784954548E-2,8.796787262E-2,1.630978584E-1
1.060715172E1,4.768908024E-2,8.990097046E-2,1.632001400E-1
1.061514716E1,6.234252453E-2,9.163665771E-2,1.230494976E-1
1.062314315E1,9.138154984E-2,1.027860641E-1,1.072118282E-1
1.063113937E1,1.395735741E-1,1.067132950E-1,1.082358360E-1
1.063913412E1,2.023069859E-1,1.034250259E-1,8.291673660E-2
1.064716003E1,2.294082642E-1,9.531307220E-2,5.036759377E-2
1.065515656E1,2.690186501E-1,9.439182281E-2,5.824232101E-2
1.066315100E1,2.637623549E-1,1.054334641E-1,5.387067795E-2
1.067114791E1,2.019612789E-1,8.284378052E-2,3.973650932E-2
1.067914274E1,1.318876743E-1,8.643054962E-2,4.448914528E-2
1.068713781E1,6.997251511E-2,3.959083557E-2,4.911160469E-2
1.069513341E1,-3.161323071E-2,-3.299713135E-4,1.792263985E-2
1.070316055E1,-5.145275593E-2,-5.955505371E-2,5.395722389E-2
1.071115615E1,-5.230939388E-2,-7.820987701E-2,8.971929550E-3
1.071915121E1,-4.855966568E-2,-5.872631073E-2,-1.159334183E-2
1.072714689E1,-4.501640797E-2,-2.492141724E-2,-5.623579025E-3
1.073514264E1,-2.259230614E-2,-5.521774292E-3,-2.815628052E-2
1.074313825E1,2.148389816E-3,2.341842651E-2,-2.662897110E-2
1.075113362E1,3.891217709E-2,3.083419800E-2,-2.039098740E-2
1.075915976E1,3.771507740E-2,4.775810242E-2,-3.330945969E-2
1.076715605E1,4.635667801E-2,3.352260590E-2,-4.867839813E-2
1.077515080E1,2.887916565E-2,3.837013245E-2,-6.158995628E-2
1.078314618E1,3.303337097E-2,7.256507874E-3,-7.443261147E-2
1.079114308E1,1.315522194E-2,-2.631473541E-2,-8.948111534E-2
1.079913753E1,-1.391196251E-2,-5.992889404E-2,-1.211843491E-1
1.080713329E1,-3.864681721E-2,-5.043983459E-2,-1.193554401E-1
1.081515935E1,1.139283180E-3,-5.290794373E-2,-8.398246765E-2
1.082315472E1,3.348541260E-2,-3.617286682E-2,-6.775259972E-2
1.083115140E1,5.365788937E-2,6.938934326E-3,-5.630397797E-2
1.083914554E1,8.098638058E-2,5.005645752E-2,-5.203938484E-2
1.084714152E1,6.280863285E-2,9.794139862E-2,-6.926536560E-2
1.085513743E1,3.008210659E-2,1.362886429E-1,-8.170628548E-2
1.086313342E1,-1.942944527E-2,1.411676407E-1,-8.945989609E-2
1.087116017E1,-2.603638172E-2,1.053905487E-1,-7.328510284E-2
1.087915377E1,-7.075059414E-2,7.211589813E-2,-3.111338615E-2
1.088715007E1,-5.325686932E-2,4.378318787E-2,1.145601273E-3
1.089514544E1,-6.943953037E-2,8.393287659E-3,-3.232955933E-4
1.090314135E1,-5.949664116E-2,-4.111671448E-2,4.324293137E-2
1.091113679E1,-5.476617813E-2,-7.852077484E-2,5.797338486E-2
1.091913240E1,-7.580995560E-3,-1.110868454E-1,5.374026299E-2
1.092715854E1,6.789779663E-2,-8.141994476E-2,5.693650246E-2
1.093515421E1,1.074920893E-1,-8.301258087E-2,5.803489685E-2
1.094314997E1,1.064707041E-1,-6.801509857E-2,2.116966248E-2
1.095114657E1,1.031979322E-1,-8.180236816E-2,-8.455753326E-3
1.095914071E1,1.360102892E-1,-1.075935364E-1,-3.569722176E-2
1.096713639E1,1.208788157E-1,-1.166391373E-1,-6.526947021E-2
1.097513176E1,8.439099789E-2,-1.496458054E-1,-9.010124207E-2
1.098315844E1,6.470870972E-2,-1.443128586E-1,-6.235432625E-2
1.099115481E1,3.555285931E-2,-1.389303207E-1,-3.237605095E-2
1.099914925E1,1.549005508E-3,-7.372093201E-2,-2.305269241E-3
1.100714516E1,-4.668486118E-2,-3.257274628E-2,1.636743546E-3
1.101514022E1,-4.961621761E-2,2.052116394E-2,1.290869713E-2
1.102313560E1,-6.232249737E-2,6.876945496E-2,1.482701302E-2
1.103113227E1,-7.974290848E-2,9.781646729E-2,2.400112152E-2
1.103915834E1,-7.804429531E-2,9.811306000E-2,2.366089821E-2
1.104715340E1,-1.000690460E-1,8.157825470E-2,2.337861061E-2
1.105514854E1,-8.107495308E-2,6.983470917E-2,3.251647949E-2
1.106314452E1,-5.942356586E-2,7.960700989E-2,-3.890037537E-3
1.107114143E1,-4.464924335E-2,5.107784271E-2,1.700854301E-2
1.107913619E1,-7.496178150E-2,9.666728973E-2,2.357912064E-2
1.108713179E1,-9.521543980E-2,1.421451569E-1,2.538347244E-2
1.109515770E1,-1.100914478E-1,1.539840698E-1,3.197169304E-2
1.110315307E1,-9.096455574E-2,1.872920990E-1,6.484675407E-2
1.111114844E1,-8.601415157E-2,1.487436295E-1,6.418466568E-2
1.111914435E1,-4.256868362E-2,1.173477173E-1,5.632042885E-2
1.112714033E1,-3.714132309E-2,1.098680496E-1,5.316519737E-2
1.113513578E1,-4.570198059E-2,6.880760193E-2,3.082585335E-2
1.114313108E1,-4.674184322E-2,8.762168884E-2,2.983450890E-2
1.115115698E1,-5.448126793E-2,9.205245972E-2,4.717588425E-3
1.115915258E1,-5.711722374E-2,9.169673920E-2,-3.785371780E-3
1.116714834E1,-5.704379082E-2,8.172035217E-2,-3.616809845E-4
1.117514371E1,-5.425417423E-2,5.262184143E-2,5.246639252E-3
1.118313962E1,-4.184913635E-2,4.351615906E-3,-1.545357704E-2
1.119113622E1,-5.566847324E-2,-2.470016479E-2,4.358291626E-3
1.119913036E1,-8.598721027E-2,-3.464221954E-2,1.697683334E-2
1.120715650E1,-1.447460651E-1,-3.976821899E-2,4.137420654E-2
1.121515279E1,-2.078945637E-1,-1.751899719E-3,7.747411728E-2
1.122314855E1,-2.634887695E-1,4.571247101E-2,6.103277206E-2
1.123114384E1,-2.993924618E-1,8.587265015E-2,3.984284401E-2
1.123913898E1,-3.322368860E-1,1.402587891E-1,4.741644859E-2
1.124713466E1,-2.927118540E-1,1.562194824E-1,4.066157341E-2
1.125516103E1,-1.889238358E-1,1.625833511E-1,6.047868729E-2
1.126315648E1,-8.629512787E-2,1.786422729E-1,4.703807831E-2
1.127115308E1,-1.356124878E-2,1.612720490E-1,2.434659004E-2
1.127914806E1,3.204584122E-2,1.272563934E-1,-3.031969070E-3
1.128714351E1,1.128469706E-1,1.125259399E-1,-2.559494972E-2
1.129513888E1,1.813446283E-1,9.073257446E-2,-2.194476128E-2
1.130313448E1,2.258592844E-1,6.897544861E-2,-3.511047363E-2
1.131116124E1,2.826148272E-1,7.585811615E-2,-2.185058594E-2
1.131915568E1,2.842904329E-1,3.485965729E-2,-1.401662827E-3
1.132715113E1,2.760494947E-1,8.264541626E-3,-4.625320435E-5
1.133514743E1,1.935181618E-1,-2.301979065E-2,1.788234711E-2
1.134314303E1,1.088441610E-1,-6.616497040E-2,2.109479904E-2
1.135113870E1,6.264781952E-2,-9.959220886E-2,3.110766411E-2
1.135913438E1,2.615010738E-2,-1.185531616E-1,6.239128113E-2
1.136712922E1,2.767705917E-2,-1.493234634E-1,7.907819748E-2
1.137515628E1,6.701624393E-2,-1.105337143E-1,8.132791519E-2
1.138315134E1,1.200128794E-1,-9.072685242E-2,9.307384491E-2
1.139114733E1,1.412570477E-1,-6.603622437E-2,8.572649956E-2
1.139914300E1,1.832177639E-1,-6.511783600E-2,7.117176056E-2
1.140713776E1,1.552910805E-1,-8.084487915E-2,6.613278389E-2
1.141513336E1,1.417001486E-1,-6.312751770E-2,5.169725418E-2
1.142315981E1,2.158372402E-1,-6.914901733E-2,4.914593697E-2
1.143115518E1,2.411413193E-1,-1.060457230E-1,6.559848785E-2
1.143915024E1,2.608972788E-1,-1.140642166E-1,3.415656090E-2
1.144714692E1,1.973727942E-1,-1.006870270E-1,-2.828097343E-2
1.145514198E1,1.185896397E-1,-9.723186493E-2,-2.834057808E-2
1.146313797E1,3.186523914E-2,-1.084957123E-1,-2.829742432E-2
1.147113365E1,-6.507980824E-2,-5.315780640E-2,-2.323603630E-2
1.147915917E1,-1.271448135E-1,-1.498317719E-2,-3.460431099E-2
1.148715516E1,-1.572726965E-1,3.730773926E-3,-6.238317490E-2
1.149515114E1,-1.274889708E-1,2.476024628E-2,-1.067605019E-1
1.150314682E1,-1.598676443E-1,1.176824570E-1,-1.513149738E-1
1.151114219E1,-1.589586735E-1,2.037143707E-1,-1.557095051E-1
1.151913756E1,-1.245481968E-1,2.420101166E-1,-1.675963402E-1
1.152713293E1,-8.733165264E-2,2.803354263E-1,-1.749198437E-1
1.153515869E1,-5.895137787E-2,2.996397018E-1,-1.086094379E-1
1.154315475E1,-7.025682926E-2,3.117952347E-1,-8.586263657E-2
1.155115104E1,-9.969723225E-2,3.287620544E-1,-6.355452538E-2
1.155914549E1,-1.283189058E-1,3.360967636E-1,-6.058692932E-2
1.156714178E1,-1.753860712E-1,3.026170731E-1,-3.846549988E-2
1.157513715E1,-1.886332035E-1,2.619113922E-1,-2.351808548E-2
1.158313314E1,-2.137225866E-1,2.211503983E-1,-6.073951721E-3
1.159115951E1,-2.457826138E-1,1.874837875E-1,-1.003122330E-2
1.159915427E1,-2.276604176E-1,1.680269241E-1,-2.554941177E-2
1.160715056E1,-2.379319668E-1,1.362714767E-1,-4.762887955E-2
1.161514624E1,-2.620275021E-1,1.184453964E-1,-7.371282578E-2
1.162314138E1,-2.995841503E-1,1.121072769E-1,-7.749366760E-2
1.163113759E1,-3.621414900E-1,9.536838531E-2,-1.134467125E-1
1.163913204E1,-3.945238590E-1,9.923934937E-2,-1.597929001E-1
1.164715918E1,-3.685218096E-1,6.170749664E-2,-1.689610481E-1
1.165515455E1,-3.492170572E-1,-5.157470703E-3,-2.008500099E-1
1.166314984E1,-3.556517363E-1,1.581859589E-2,-2.408077717E-1
1.167114614E1,-3.475438356E-1,3.151226044E-2,-2.533123493E-1
1.167914097E1,-3.465349674E-1,6.589317322E-2,-2.742960453E-1
1.168713603E1,-3.525997400E-1,1.021423340E-1,-2.892558575E-1
1.169513202E1,-3.466531038E-1,9.739875793E-2,-2.675547600E-1
1.170315900E1,-3.523299694E-1,1.424770355E-1,-2.711706161E-1
1.171115376E1,-3.530743122E-1,1.659698486E-1,-2.123720646E-1
1.171914951E1,-3.419587612E-1,1.848630905E-1,-1.538343430E-1
1.172714481E1,-3.383648992E-1,2.255887985E-1,-1.244270802E-1
1.173514056E1,-3.213543296E-1,1.999931335E-1,-5.791139603E-2
1.174313593E1,-2.793540955E-1,1.440935135E-1,-4.539632797E-2
1.175113192E1,-3.149216771E-1,1.058559418E-1,4.206562042E-2
1.175915683E1,-3.057773709E-1,8.984851837E-2,7.082915306E-2
1.176715281E1,-3.068634868E-1,1.031808853E-1,8.648920059E-2
1.177514934E1,-3.059046268E-1,9.549236298E-2,1.226518154E-1
1.178314509E1,-3.454039097E-1,1.359748840E-1,1.054615974E-1
1.179114069E1,-3.676900268E-1,1.384334564E-1,1.186568737E-1
1.179913545E1,-3.373600841E-1,7.912540436E-2,1.403942108E-1
1.180713120E1,-3.287895322E-1,8.944416046E-2,8.038949966E-2
1.181515704E1,-2.802876234E-1,6.672573090E-2,1.177165508E-1
1.182315325E1,-2.806096077E-1,4.437828064E-2,1.066210270E-1
1.183114962E1,-2.696516514E-1,-3.267574310E-2,9.014320374E-2
1.183914461E1,-2.359679937E-1,-6.152248383E-2,5.414509773E-2
1.184713936E1,-2.060694695E-1,-6.367301941E-2,5.843949318E-2
1.185513535E1,-1.325219274E-1,-3.193283081E-2,9.114503860E-2
1.186313141E1,3.843379021E-2,-1.049041748E-5,6.206488609E-2
1.187115748E1,2.896717787E-1,6.091499329E-2,1.410729885E-1
1.187915231E1,4.533262253E-1,1.098995209E-1,2.084226608E-1
1.188714798E1,4.548174143E-1,1.180658340E-1,2.088274956E-1
1.189514366E1,3.589925766E-1,9.526157379E-2,2.637174129E-1
1.190313903E1,2.518515587E-1,7.498359680E-2,2.558805943E-1
1.191113594E1,2.092235088E-1,1.181697845E-2,2.069127560E-1
1.191913031E1,1.993625164E-1,-3.208732605E-2,1.267817020E-1
1.192715676E1,1.910918951E-1,-2.562999725E-2,1.233017445E-1
1.193515252E1,2.130424976E-1,-3.130435944E-2,7.255506516E-2
1.194314819E1,2.433720827E-1,-3.237724304E-2,4.410815239E-2
1.195114349E1,2.726637125E-1,-2.573013306E-3,-9.826421738E-3
1.195913955E1,3.290358782E-1,-6.587028503E-3,-8.416748047E-2
1.196713430E1,3.902419806E-1,-7.538032532E-2,-1.144416332E-1
1.197513121E1,4.225442410E-1,-1.394491196E-1,-1.198894978E-1
1.198315643E1,3.575134277E-1,-2.036504745E-1,-1.341335773E-1
1.199115334E1,3.026417494E-1,-2.442073822E-1,-1.382558346E-1
1.199914740E1,2.489422560E-1,-2.850093842E-1,-1.301567554E-1
1.201513845E1,3.621900082E-2,-2.217464447E-1,-1.205163002E-1
1.202313474E1,-9.653699398E-2,-1.370029449E-1,-1.257784367E-1
1.203113073E1,-1.707051992E-1,-1.075029373E-1,-1.213836670E-1
1.203915602E1,-2.639896274E-1,-1.044158936E-1,-1.096396446E-1
1.204715139E1,-2.893264294E-1,-1.466407776E-1,-8.109116554E-2
1.205514738E1,-3.267018795E-1,-1.718587875E-1,-5.713963509E-2
1.206314367E1,-3.658408523E-1,-1.584300995E-1,-4.059362411E-2
1.207113874E1,-3.653179407E-1,-1.446018219E-1,1.607966423E-2
1.207913380E1,-3.723804951E-1,-1.687040329E-1,6.485700607E-2
1.208712971E1,-3.577356339E-1,-2.187528610E-1,1.151156425E-1
1.209515585E1,-4.204550385E-1,-2.254314423E-1,7.326602936E-2
1.210315153E1,-4.829065800E-1,-2.627725601E-1,1.324810982E-1
1.211114720E1,-5.780468583E-1,-2.567501068E-1,8.711600304E-2
1.211914226E1,-7.102978826E-1,-2.531433105E-1,3.424119949E-2
1.212713802E1,-7.985127568E-1,-2.901039124E-1,4.779982567E-2
1.213513362E1,-8.557622433E-1,-3.196706772E-1,8.259057999E-3
1.214312930E1,-8.994926214E-1,-3.680114746E-1,-1.032590866E-2
1.215115552E1,-8.599275351E-1,-4.683399200E-1,-3.913021088E-2
1.215915089E1,-7.629258633E-1,-6.085844040E-1,-8.255124092E-2
1.216714710E1,-5.917086005E-1,-7.906312943E-1,-8.587169647E-2
1.217514217E1,-4.126657248E-1,-1.095233440E0,7.937765121E-2
1.218313731E1,-4.779965878E-1,-1.414842129E0,1.148102283E-1
1.219113445E1,-7.213575840E-1,-1.689764023E0,1.457960606E-1
1.219912828E1,-1.171723843E0,-1.947342396E0,-3.268704414E-1
1.220715534E1,-1.615799427E0,-2.138185501E0,-5.016357899E-1
1.221515040E1,-2.176883459E0,-2.383476257E0,-8.577322960E-1
1.222314647E1,-2.591800213E0,-2.662907124E0,-1.326601505E0
1.223114153E1,-2.895365477E0,-2.908469677E0,-1.595284939E0
1.223913805E1,-3.052865028E0,-3.232505798E0,-1.824012756E0
1.224713288E1,-3.171757221E0,-3.499669552E0,-1.931876183E0
1.225512856E1,-3.222986221E0,-3.812554836E0,-1.954144955E0
1.226315493E1,-3.322945595E0,-4.076823235E0,-1.878311872E0
1.227114976E1,-3.540786743E0,-4.320785999E0,-1.808644533E0
1.227914514E1,-3.735153675E0,-4.514191628E0,-1.665481567E0
1.228714204E1,-3.898318529E0,-4.609938622E0,-1.486199617E0
1.229513711E1,-3.999791145E0,-4.624314308E0,-1.209624767E0
1.230313340E1,-4.011385441E0,-4.558185577E0,-9.735734463E-1
1.231115854E1,-3.931816101E0,-4.542114735E0,-7.101364136E-1
1.231915453E1,-3.740597248E0,-4.582011223E0,-4.617254734E-1
1.232715020E1,-3.544183969E0,-4.682412148E0,-1.728787422E-1
1.233514534E1,-3.094874382E0,-4.901144028E0,4.732227325E-2
1.234314125E1,-2.603373289E0,-5.084597111E0,2.206416130E-1
1.235113732E1,-1.869588137E0,-5.288028240E0,4.192457199E-1
1.235913199E1,-1.257935047E0,-5.303643227E0,4.303154945E-1
1.236715821E1,-5.977640152E-1,-5.264433384E0,2.222356796E-1
1.237515420E1,-4.277229309E-2,-5.085008144E0,-4.526901245E-2
1.238314980E1,3.226699829E-1,-4.899929523E0,-1.152286530E-1
1.239114555E1,6.319947243E-1,-4.673809052E0,-3.606975079E-1
1.239914123E1,7.328352928E-1,-4.383910179E0,-6.821494102E-1
1.240713568E1,6.499795914E-1,-4.033426762E0,-1.048353672E0
1.241513228E1,4.404940605E-1,-3.782132626E0,-1.111328125E0
1.242312765E1,1.786041260E-1,-3.540157795E0,-9.729268551E-1
1.243115464E1,4.155082703E-1,-3.548148632E0,-3.971211910E-1
1.243914908E1,9.900083542E-1,-3.421469688E0,-5.988364220E-1
1.244714484E1,1.932461739E0,-3.430561781E0,-1.541934013E-1
1.245514082E1,2.620341301E0,-3.316539288E0,-3.886096478E-1
1.246313612E1,2.859851837E0,-3.163336039E0,-4.644143581E-1
1.247113249E1,2.316126823E0,-2.941943645E0,-4.561164379E-1
1.247915763E1,1.701872826E0,-2.739150047E0,-3.118038177E-2
1.248715277E1,1.203877449E0,-2.478893042E0,-2.317953110E-1
1.249514875E1,9.602594376E-1,-2.308994770E0,3.758764267E-2
1.250314435E1,1.103179932E0,-2.160291195E0,1.578426361E-1
1.251114157E1,1.407979012E0,-2.053830147E0,-1.320867538E-1
1.251913540E1,1.344968796E0,-1.965801120E0,-2.822065353E-1
1.252713077E1,8.888111115E-1,-1.958960414E0,-4.162726402E-1
1.253515753E1,5.039148331E-1,-1.905951738E0,-3.180508614E-1
1.254315390E1,3.876628876E-1,-1.996858478E0,-3.583335876E-1
1.255114919E1,5.467529297E-1,-2.127169132E0,-3.268647194E-1
1.255914310E1,8.767318726E-1,-2.235183239E0,-8.084535599E-2
1.256713932E1,1.370413780E0,-2.377125263E0,-8.880996704E-2
1.257513530E1,1.651455879E0,-2.451457024E0,-8.233690262E-2
1.258313036E1,1.638973236E0,-2.554558039E0,-3.516340256E-2
1.259115743E1,1.436312675E0,-2.551193237E0,4.120159149E-2
1.259915257E1,1.167609215E0,-2.567874432E0,-5.079460144E-2
1.260714825E1,8.586187363E-1,-2.576767445E0,4.464530945E-2
1.261514392E1,7.853202820E-1,-2.586788893E0,3.122453690E-1
1.262314022E1,9.998435974E-1,-2.631641388E0,1.186895370E-1
1.263113620E1,1.073612213E0,-2.607476234E0,-2.452993393E-2
1.263913004E1,8.115572929E-1,-2.578171968E0,-5.518293381E-2
1.264715617E1,4.476122856E-1,-2.517292976E0,3.731346130E-2
1.265515185E1,3.403720856E-1,-2.479033470E0,1.850619316E-1
1.266314776E1,4.073534012E-1,-2.554622173E0,1.165490150E-1
1.267114467E1,4.292936325E-1,-2.586405277E0,1.207528114E-1
1.267913881E1,4.537272453E-1,-2.710250854E0,3.565239906E-1
1.268713449E1,6.289219856E-1,-2.799674511E0,3.356852531E-1
1.269513078E1,7.007036209E-1,-2.918687344E0,2.094545364E-1
1.270315631E1,4.549741745E-1,-2.906881809E0,1.340823174E-1
1.271115298E1,1.388821602E-1,-2.772521019E0,2.077355385E-1
1.271914774E1,-4.591464996E-3,-2.751724720E0,7.357177734E-1
1.272714342E1,3.212080002E-1,-2.790503979E0,7.274332047E-1
1.273513817E1,8.158049583E-1,-2.925586700E0,6.256318092E-1
1.274313416E1,9.896979332E-1,-2.903407574E0,5.114655495E-1
1.275113107E1,8.718533516E-1,-2.722914219E0,3.680882454E-1
1.275915567E1,6.197366714E-1,-2.466208458E0,3.119776249E-1
1.276715219E1,5.009331703E-1,-2.234800816E0,1.988031864E-1
1.277514641E1,3.716559410E-1,-2.005637646E0,1.788425446E-1
1.278314324E1,4.080348015E-1,-1.878456593E0,2.998898029E-1
1.279113869E1,5.003886223E-1,-1.828799248E0,4.741711617E-1
1.279913398E1,5.458941460E-1,-1.793487549E0,5.462532043E-1
1.280712904E1,6.589565277E-1,-1.829989433E0,9.453287125E-1
1.281515588E1,9.832706451E-1,-1.994633675E0,1.178075790E0
1.282315186E1,1.272136211E0,-2.079961777E0,1.163420677E0
1.283114723E1,1.477823734E0,-2.091272354E0,1.124252558E0
1.283914260E1,1.546345234E0,-1.990258217E0,1.039063215E0
1.284713797E1,1.581222773E0,-1.833501816E0,9.846026897E-1
1.285513388E1,1.576782227E0,-1.716794968E0,8.383176327E-1
1.286312933E1,1.638620853E0,-1.644321442E0,8.060967922E-1
1.287115578E1,1.778347969E0,-1.630397797E0,8.584656715E-1
1.287915084E1,1.899174690E0,-1.584248543E0,8.891694546E-1
1.288714644E1,2.003008842E0,-1.534592628E0,9.906456470E-1
1.289514243E1,2.091701984E0,-1.433528900E0,1.070972681E0
1.290313872E1,2.122209787E0,-1.335869789E0,1.146171331E0
1.291113324E1,2.117474318E0,-1.191222191E0,1.153631687E0
1.291912915E1,2.103951693E0,-1.046813011E0,1.160786629E0
1.292715468E1,2.016585827E0,-9.022140503E-1,1.086467266E0
1.293515043E1,1.871536374E0,-7.904586792E-1,1.007889032E0
1.294314611E1,1.740169525E0,-7.445611954E-1,9.544172287E-1
1.295114356E1,1.589578986E0,-7.350931168E-1,9.052433968E-1
1.295913708E1,1.526906610E0,-7.163734436E-1,8.867835999E-1
1.296713307E1,1.442281842E0,-6.929578781E-1,8.174622059E-1
1.297512813E1,1.438999534E0,-6.190462112E-1,8.770008087E-1
1.298315489E1,1.445854664E0,-4.944458008E-1,8.688602448E-1
1.299115126E1,1.467994452E0,-3.190011978E-1,8.935120106E-1
1.299914594E1,1.454860806E0,-1.717433929E-1,8.908693790E-1
1.300714169E1,1.399906635E0,-2.627372742E-2,8.821442127E-1
1.301513737E1,1.387066960E0,6.465148926E-2,7.950296402E-1
1.302313305E1,1.343203783E0,9.876728058E-2,6.556634903E-1
1.303112842E1,1.298886895E0,1.285982132E-1,5.428233147E-1
1.303915425E1,1.192142606E0,1.128959656E-1,4.014594555E-1
1.304714962E1,1.043105364E0,1.076450348E-1,3.361451626E-1
1.305514614E1,8.643763065E-1,1.253786087E-1,2.758510113E-1
1.306314159E1,6.564979553E-1,1.619663239E-1,2.240309715E-1
1.307113727E1,4.968597889E-1,1.965951920E-1,2.104759216E-1
1.307913287E1,3.358494043E-1,2.346906662E-1,2.500720024E-1
1.308712770E1,2.170172930E-1,2.194213867E-1,2.953162193E-1
1.309515346E1,1.135047674E-1,1.872444153E-1,2.748298645E-1
1.310315044E1,6.988441944E-2,1.459350586E-1,3.066260815E-1
1.311114581E1,1.490604877E-2,1.196575165E-1,3.189098835E-1
1.311914057E1,-1.099991798E-2,1.205253601E-1,2.928874493E-1
1.312713617E1,-6.495118141E-2,8.415031433E-2,2.695505619E-1
1.313513154E1,-1.155099869E-1,3.716754913E-2,2.541608810E-1
1.314312791E1,-1.362049580E-1,2.555274963E-2,2.023870945E-1
1.315115336E1,-1.491217613E-1,6.600379944E-3,1.635057926E-1
1.315914942E1,-2.023966312E-1,1.817703247E-3,9.190058708E-2
1.316714441E1,-2.290773392E-1,1.558971405E-2,9.645438194E-2
1.317514070E1,-1.917521954E-1,3.796005249E-2,8.080887794E-2
1.318313576E1,-1.392002106E-1,7.325553894E-2,1.231951714E-1
1.319113206E1,-5.605959892E-2,7.571315765E-2,1.256096363E-1
1.319912689E1,-1.291561127E-2,9.532070160E-2,1.119432449E-1
1.320715272E1,2.324151993E-2,1.174573898E-1,1.320738792E-1
1.321514932E1,2.125048637E-2,7.509708405E-2,1.453576088E-1
1.322314461E1,4.165172577E-4,9.740734100E-2,1.465268135E-1
1.323114037E1,-2.249288559E-2,7.188320160E-2,1.548078060E-1
1.323913574E1,-1.664423943E-2,7.982921600E-2,1.389815807E-1
1.324713103E1,-3.636837006E-3,3.507995605E-2,1.231098175E-1
1.325512733E1,1.951217651E-3,-2.305984497E-3,4.093408585E-2
1.326315377E1,-2.600455284E-2,-5.136966705E-2,7.563591003E-3
1.327114976E1,-6.290507317E-2,-1.265201569E-1,3.436660767E-2
1.327914336E1,-5.865550041E-2,-1.871557236E-1,-8.113384247E-3
1.328713988E1,-8.496880531E-2,-2.285308838E-1,-5.307149887E-2
1.329513495E1,-9.411072731E-2,-2.961912155E-1,-1.077461243E-1
1.330313070E1,-1.386010647E-1,-3.135118484E-1,-1.267347336E-1
1.331112700E1,-1.921489239E-1,-2.875423431E-1,-1.406998634E-1
1.331915221E1,-1.973416805E-1,-3.043928146E-1,-1.397774220E-1
1.332714820E1,-2.215230465E-1,-3.018083572E-1,-1.476631165E-1
1.333514357E1,-2.192416191E-1,-3.324632645E-1,-1.547386646E-1
1.334313986E1,-1.908750534E-1,-3.820981979E-1,-1.443061829E-1
1.335113516E1,-1.700944901E-1,-3.933868408E-1,-1.525626183E-1
1.335913053E1,-1.664869785E-1,-3.759565353E-1,-1.246073246E-1
1.336715644E1,-1.534385681E-1,-3.513841629E-1,-1.541063786E-1
1.337515296E1,-1.568791866E-1,-3.339633942E-1,-1.836714745E-1
1.338314841E1,-1.193931103E-1,-3.165922165E-1,-1.752343178E-1
1.339114408E1,-1.292142868E-1,-3.016262054E-1,-1.959807873E-1
1.339913915E1,-1.239924431E-1,-2.770366669E-1,-2.098796368E-1
1.340713382E1,-1.726918221E-1,-2.474746704E-1,-2.144610882E-1
1.341513020E1,-2.009859085E-1,-2.488441467E-1,-2.097573280E-1
1.342312587E1,-2.115263939E-1,-2.212295532E-1,-2.169387341E-1
1.343115294E1,-3.065744638E-1,-2.146015167E-1,-2.139532566E-1
1.343914762E1,-3.471425772E-1,-2.002372742E-1,-1.793527603E-1
1.344714337E1,-3.952381611E-1,-1.709547043E-1,-1.468348503E-1
1.345513805E1,-3.888366222E-1,-1.531906128E-1,-1.596052647E-1
1.346313442E1,-4.143946171E-1,-1.684989929E-1,-1.599919796E-1
1.347112971E1,-4.054670334E-1,-1.476373672E-1,-1.313922405E-1
1.347915616E1,-4.478510618E-1,-8.802795410E-2,-1.524693966E-1
1.348715122E1,-4.153798819E-1,-4.721069336E-2,-2.085609436E-1
1.349514698E1,-3.945800066E-1,2.267265320E-2,-2.396087646E-1
1.350314296E1,-3.829001188E-1,4.517459869E-2,-3.049993515E-1
1.351113826E1,-3.383613825E-1,2.961730957E-2,-3.808050156E-1
1.351913363E1,-2.918897867E-1,3.826045990E-2,-4.192314148E-1
1.352712961E1,-2.411111593E-1,4.463958740E-2,-4.470212460E-1
1.353515575E1,-1.743912697E-1,6.029319763E-2,-4.031891823E-1
1.354315174E1,-1.348552704E-1,6.120681763E-2,-3.957219124E-1
1.355114772E1,-1.628112793E-1,8.341312408E-2,-3.550808430E-1
1.355914225E1,-1.409270763E-1,6.458663940E-2,-2.863571644E-1
1.356713793E1,-1.267342567E-1,3.804588318E-2,-2.117903233E-1
1.357513414E1,-1.559860706E-1,1.093673706E-2,-1.053290367E-1
1.358312959E1,-1.735924482E-1,-2.490043640E-3,8.619785309E-3
1.359115635E1,-1.702451706E-1,-2.145671844E-2,1.395330429E-1
1.359915041E1,-1.677616835E-1,-4.349613190E-2,2.423522472E-1
1.360714647E1,-1.284775734E-1,-5.420970917E-2,2.362263203E-1
1.361514176E1,-1.075327396E-1,-5.334186554E-2,2.346415520E-1
1.362313752E1,-8.327448368E-2,-2.642250061E-2,2.259128094E-1
1.363113404E1,-5.569291115E-2,-6.890296936E-3,2.031407356E-1
1.363912857E1,-2.889358997E-2,-4.247665405E-3,1.876602173E-1
1.364715432E1,1.181554794E-2,-1.366424561E-2,1.793920994E-1
1.365515092E1,8.585894108E-2,-2.332115173E-2,2.350175381E-1
1.366314637E1,1.360659599E-1,-2.611446381E-2,2.654588223E-1
1.367114143E1,1.765352488E-1,-1.517200470E-2,3.152232170E-1
1.367913711E1,1.905436516E-1,-7.393836975E-3,3.574123383E-1
1.368713302E1,2.303845882E-1,2.328395844E-2,4.128327370E-1
1.369512785E1,2.407431602E-1,2.413845062E-2,4.240159988E-1
1.370315453E1,2.074304819E-1,-4.508018494E-3,4.064431190E-1
1.371115052E1,1.692281961E-1,-4.648208618E-3,3.331036568E-1
1.371914589E1,1.166515350E-1,-7.820129395E-5,3.289556503E-1
1.372714126E1,8.813214302E-2,9.348869324E-3,2.867240906E-1
1.373513732E1,1.689493656E-2,9.530067444E-3,2.431080341E-1
1.374313323E1,-6.095170975E-3,-1.616382599E-2,2.081410885E-1
1.375112922E1,4.351496696E-3,-4.858589172E-2,1.725180149E-1
1.375915443E1,1.921141148E-2,-9.970378876E-2,1.316275597E-1
1.376714957E1,2.898347378E-2,-9.795951843E-2,1.730411053E-1
1.377514610E1,6.459236145E-2,-8.666229248E-2,1.620376110E-1
1.378314116E1,6.648147106E-2,-6.579685211E-2,1.391792297E-1
1.379113661E1,9.434711933E-2,-4.742145538E-2,1.377696991E-1
1.379913228E1,1.001697779E-1,-3.629970551E-2,1.292476654E-1
1.380712819E1,1.050370932E-1,-3.239440918E-2,9.730601311E-2
1.381515372E1,8.056735992E-2,-5.948257446E-2,7.102370262E-2
1.382314940E1,9.597241879E-2,-7.931518555E-2,6.470656395E-2
1.383114546E1,8.904516697E-2,-8.949756622E-2,4.720163345E-2
1.383913991E1,1.055222750E-1,-9.472656250E-2,-1.963448524E-2
1.384713612E1,1.141568422E-1,-8.081150055E-2,1.927661896E-2
1.385513157E1,1.721621752E-1,-9.821987152E-2,-6.555318832E-3
1.386312694E1,2.219336033E-1,-9.189510345E-2,-7.072544098E-2
1.387115454E1,1.992279291E-1,-6.168365479E-2,-1.442244053E-1
1.387914906E1,2.076040506E-1,-4.347419739E-2,-1.651268005E-1
1.388714413E1,2.088341713E-1,-3.965187073E-2,-1.478002071E-1
1.389514004E1,2.313513756E-1,-7.424163818E-2,-6.602311134E-2
1.390313610E1,2.126706839E-1,-3.718280792E-2,-7.310628891E-2
1.391113170E1,1.196647882E-1,-4.804801941E-2,-1.137590408E-1
1.391912769E1,6.967735291E-2,-3.003311157E-2,-1.945116520E-1
1.392715413E1,-2.798140049E-2,1.936435699E-2,-2.337687016E-1
1.393514897E1,-7.979130745E-2,2.121067047E-2,-2.385449409E-1
1.394314434E1,-1.217035055E-1,4.738903046E-2,-2.589013577E-1
1.395114025E1,-1.203662157E-1,2.364921570E-2,-2.636749744E-1
1.395913538E1,-1.213595867E-1,1.677799225E-2,-1.962583065E-1
1.396713068E1,-1.126493216E-1,2.724647522E-3,-1.863660812E-1
1.397512674E1,-1.253039837E-1,1.975822449E-2,-1.743240356E-1
1.398315280E1,-1.514211893E-1,3.207111359E-2,-1.746301651E-1
1.399114887E1,-1.474090815E-1,1.819229126E-2,-1.945474148E-1
1.399914362E1,-1.321852207E-1,-2.627372742E-3,-1.955974102E-1
1.400713961E1,-1.131721735E-1,1.265048981E-2,-1.802146435E-1
1.401513559E1,-1.193287373E-1,4.114151001E-3,-1.652040482E-1
1.402313058E1,-1.342194080E-1,-6.712913513E-3,-1.480166912E-1
1.403112756E1,-1.318049431E-1,-3.187179565E-3,-8.338475227E-2
1.403915340E1,-1.577726603E-1,1.710605621E-2,-7.641553879E-2
1.404714807E1,-1.598302126E-1,8.552551270E-3,-3.632950783E-2
1.405514291E1,-1.644400358E-1,-1.258850098E-4,-1.376152039E-3
1.406313912E1,-1.480041742E-1,-1.375579834E-2,2.223253250E-3
1.407113580E1,-1.438864470E-1,-2.751255035E-2,1.518964767E-2
1.407913056E1,-1.636602879E-1,-1.969432831E-2,-3.403186798E-2
1.408712593E1,-1.092450619E-1,2.163696289E-2,-8.325648308E-2
1.409515207E1,-1.096521616E-1,2.461814880E-2,-5.618548393E-2
1.410314767E1,-5.978667736E-2,-6.077766418E-3,-6.800031662E-2
1.411114435E1,-4.104077816E-2,3.746032715E-3,-8.048176765E-2
1.411913879E1,-3.166306019E-2,3.875732422E-3,-6.959438324E-2
1.412713416E1,-4.804015160E-2,3.269386292E-2,-9.758591652E-2
1.413513038E1,-4.714965820E-2,7.586956024E-2,-9.722256660E-2
1.414312583E1,-1.005357504E-1,1.096067429E-1,-1.136689186E-1
1.415115250E1,-1.028699875E-1,9.798526764E-2,-9.665393829E-2
1.415914703E1,-1.383990049E-1,8.644485474E-2,-5.321931839E-2
1.416714332E1,-1.546767950E-1,8.693981171E-2,-1.440215111E-2
1.417513869E1,-1.522747278E-1,4.907131195E-2,1.498460770E-2
1.418313491E1,-1.647553444E-1,3.030490875E-2,1.342368126E-2
1.419113036E1,-1.611050367E-1,4.744434357E-2,-4.039287567E-2
1.419912480E1,-1.553744078E-1,7.670783997E-2,-1.221630573E-1
1.420715179E1,-1.356468201E-1,9.891605377E-2,-1.313846111E-1
1.421514724E1,-1.135075092E-1,9.738636017E-2,-1.829640865E-1
1.422314292E1,-6.499850750E-2,4.813480377E-2,-2.052428722E-1
1.423113821E1,-3.554534912E-2,3.256416321E-2,-2.150201797E-1
1.423913327E1,-6.055712700E-3,2.908802032E-2,-2.435219288E-1
1.424712934E1,-1.918578148E-2,6.667900085E-2,-3.093121052E-1
1.425512524E1,-3.611230850E-2,5.202674866E-2,-3.430728912E-1
1.426315146E1,-5.422925949E-2,8.814811707E-2,-3.614559174E-1
1.427114745E1,-4.714834690E-2,4.322910309E-2,-3.075075150E-1
1.427914251E1,-3.214311600E-2,2.464485168E-2,-2.085435390E-1
1.428713788E1,6.679296494E-3,1.532840729E-2,-1.417219639E-1
1.429513287E1,-1.252973080E-2,2.236557007E-2,-9.513854980E-2
1.430312885E1,-3.723609447E-2,4.978179932E-3,-1.870727539E-2
1.431112545E1,-4.166245461E-2,4.458808899E-2,1.805543900E-3
1.431915044E1,-5.672550201E-2,8.381652832E-2,4.556560516E-2
1.432714635E1,-3.232264519E-2,8.197212219E-2,5.765366554E-2
1.433514264E1,3.184795380E-3,8.704185486E-2,7.891583443E-2
1.434313809E1,4.418969154E-3,9.426021576E-2,1.332874298E-1
1.435113338E1,2.683341503E-2,7.732963562E-2,1.320705414E-1
1.435912875E1,2.018094063E-2,7.460117340E-2,1.280863285E-1
1.436712412E1,6.195068359E-3,8.370304108E-2,1.069200039E-1
1.437515065E1,-1.013612747E-2,1.262235641E-1,1.092865467E-1
1.438314602E1,-3.367257118E-2,1.494827271E-1,8.973407745E-2
1.439114170E1,-2.388703823E-2,1.391286850E-1,8.432912827E-2
1.439913645E1,-5.732584000E-2,1.095438004E-1,5.718088150E-2
1.440713328E1,-5.972731113E-2,8.234882355E-2,5.162334442E-2
1.441512811E1,-9.329295158E-2,5.271911621E-2,3.158402443E-2
1.442312433E1,-5.519580841E-2,4.224109650E-2,3.559422493E-2
1.443115086E1,-4.115068913E-2,1.260089874E-2,4.683327675E-2
1.443914499E1,-8.146762848E-3,1.169204712E-2,4.383945465E-2
1.444714060E1,6.176233292E-4,-3.469753265E-2,2.778053284E-3
1.445513635E1,-1.719391346E-2,-2.601146698E-2,-3.090572357E-2
1.446313234E1,-1.619696617E-3,-1.969814301E-2,-4.566192627E-3
1.447112825E1,-5.294799805E-3,-1.343727112E-2,-1.905965805E-2
1.447915346E1,-9.363174438E-3,-9.689331055E-3,-2.414560318E-2
1.448714945E1,-1.828169823E-2,-1.790809631E-2,-3.873753548E-2
1.449514551E1,-2.248656750E-2,-3.094482422E-2,-4.142403603E-2
1.450314088E1,-4.577016830E-2,-3.918647766E-2,-6.327390671E-2
1.451113748E1,-4.763388634E-2,-3.780364990E-2,-5.374622345E-2
1.451913193E1,-3.768372536E-2,-4.595756531E-2,-6.311559677E-2
1.452712730E1,-3.261125088E-2,-4.681110382E-2,-7.678031921E-2
1.453515367E1,-6.820726395E-2,-5.473613739E-2,-7.330965996E-2
1.454314935E1,-7.031953335E-2,-7.212448120E-2,-7.418513298E-2
1.455114533E1,-1.009370089E-1,-2.234268188E-2,-6.275987625E-2
1.455913986E1,-6.912970543E-2,-5.973815918E-3,-7.980084419E-2
1.456713523E1,-3.039455414E-2,4.397106171E-2,-8.209490776E-2
1.457513237E1,-2.804887295E-2,3.409862518E-2,-6.478238106E-2
1.458312782E1,-4.067420959E-2,2.634048462E-3,-4.004049301E-2
1.459115449E1,-1.089349985E-1,-2.508163452E-3,4.185914993E-3
1.459914871E1,-1.537801027E-1,-1.719379425E-2,5.801439285E-3
1.460714500E1,-2.129601240E-1,1.388645172E-2,-3.709030151E-2
1.461514068E1,-2.692971230E-1,3.332614899E-2,3.584885597E-2
1.462313605E1,-2.940059900E-1,2.209377289E-2,-2.158117294E-2
1.463113227E1,-3.300596476E-1,1.608753204E-2,4.188275337E-2
1.463912764E1,-3.414862156E-1,-1.847457886E-2,1.917252541E-1
1.464715324E1,-2.780675888E-1,-9.899139404E-2,3.394565582E-1
1.465514884E1,-1.573504210E-1,-1.251564026E-1,7.452130318E-2
1.466314367E1,-1.891219616E-2,-1.590108871E-1,-5.555272102E-2
1.467114050E1,8.517968655E-2,-1.548938751E-1,-2.444477081E-1
1.467913526E1,1.853758097E-1,-9.581947327E-2,-3.871421814E-1
1.468713040E1,2.647477388E-1,-5.573558807E-2,-4.698195457E-1
1.469512692E1,2.674981356E-1,-1.743125916E-2,-5.039739609E-1
1.470315368E1,2.300814390E-1,-2.840614319E-2,-5.053489208E-1
1.471114905E1,1.930406094E-1,-9.872436523E-3,-4.363451004E-1
1.471914388E1,1.156398058E-1,2.054214478E-3,-4.054408073E-1
1.472713987E1,4.567337036E-2,-1.207351685E-2,-3.274869919E-1
1.473513485E1,-3.625643253E-2,7.314682007E-3,-2.512578964E-1
1.474313053E1,-1.520590782E-1,9.683609009E-3,-1.511323452E-1
1.475112713E1,-2.354027033E-1,3.544998169E-2,-3.484487534E-2
1.475915212E1,-2.753665447E-1,3.442668915E-2,2.922534943E-3
1.476714810E1,-3.111366034E-1,5.931568146E-2,4.433035851E-2
1.477514340E1,-2.929185629E-1,4.082012177E-2,7.826089859E-2
1.478313854E1,-2.426037788E-1,4.839229584E-2,7.629585266E-2
1.479113568E1,-1.749962568E-1,6.996726990E-2,5.513644218E-2
1.479913043E1,-1.090267897E-1,9.608364105E-2,-1.606130600E-2
1.480712611E1,-5.651414394E-2,1.100044250E-1,-3.917145729E-2
1.481515287E1,-4.818201065E-3,1.070232391E-1,-7.899761200E-2
1.482314793E1,2.050149441E-2,6.570816040E-2,-8.537435532E-2
1.483114361E1,3.182137012E-2,6.274509430E-2,-8.226275444E-2
1.483913936E1,4.613018036E-2,5.264282227E-2,-6.744408607E-2
1.484713435E1,3.751111031E-2,5.932331085E-2,-1.972293854E-2
1.485512972E1,5.595314503E-2,9.229278564E-2,-2.296257019E-2
1.486312578E1,7.719254494E-2,7.249832153E-2,-7.676601410E-3
1.487115277E1,8.659696579E-2,7.414436340E-2,-3.118395805E-2
1.487914729E1,8.633792400E-2,6.125926971E-2,2.220153809E-3
1.488714266E1,9.293484688E-2,6.978702545E-2,-1.082892418E-1
1.489513857E1,6.341803074E-2,7.351684570E-2,-1.061556339E-1
1.490313425E1,1.749908924E-2,7.258796692E-2,-9.659337997E-2
1.491113023E1,5.634427071E-3,8.382797241E-2,-1.130008698E-1
1.491912560E1,-3.437042236E-3,7.133293152E-2,-1.217172146E-1
1.492715174E1,-3.370904922E-2,2.798461914E-2,-1.009340286E-1
1.493514804E1,-2.334809303E-2,-1.276302338E-2,-8.652043343E-2
1.494314310E1,-3.699994087E-2,-6.777954102E-2,-3.578853607E-2
1.495113855E1,-3.655362129E-2,-1.012258530E-1,-3.505897522E-2
1.495913330E1,-3.185880184E-2,-1.323423386E-1,-1.744246483E-2
1.496712890E1,-6.508708000E-3,-1.348457336E-1,-3.795194626E-2
1.497512527E1,-8.374094963E-3,-1.279449463E-1,-1.779675484E-2
1.498315103E1,2.733051777E-2,-1.211233139E-1,-6.447005272E-2
1.499114771E1,5.002570152E-2,-1.287746429E-1,-8.928108215E-2
1.499914246E1,4.568350315E-2,-1.245203018E-1,-9.949684143E-2
1.500713837E1,6.493628025E-2,-1.035566330E-1,-9.289979935E-2
1.501513382E1,5.776917934E-2,-1.208820343E-1,-1.196961403E-1
1.502312973E1,3.172636032E-2,-1.141748428E-1,-1.271901131E-1
1.503112510E1,1.109743118E-2,-1.241197586E-1,-1.275348663E-1
1.503915062E1,-2.333295345E-2,-1.506919861E-1,-1.205914021E-1
1.504714668E1,-5.006480217E-2,-1.723451614E-1,-8.958387375E-2
1.505514229E1,-7.882463932E-2,-1.604261398E-1,-4.665851593E-2
1.506313796E1,-1.337537766E-1,-1.820116043E-1,-8.580207825E-3
1.507113364E1,-1.622521877E-1,-1.412811279E-1,-1.449584961E-3
1.507912847E1,-1.767400503E-1,-1.029729843E-1,2.976179123E-2
1.508712415E1,-1.699198484E-1,-7.427310944E-2,4.186820984E-2
1.509515029E1,-1.730736494E-1,-9.686470032E-3,3.020501137E-2
1.510314620E1,-1.694502831E-1,-2.636909485E-3,4.009008408E-2
1.511114219E1,-1.470444202E-1,6.175136566E-2,4.499316216E-2
1.511913671E1,-1.391966343E-1,1.284465790E-1,1.139974594E-2
1.512713239E1,-1.361833811E-1,1.519899368E-1,-2.236151695E-2
1.513512868E1,-1.376206875E-1,1.492767334E-1,-5.845856667E-2
1.514312405E1,-1.196680069E-1,1.824569702E-1,-2.057123184E-2
1.515115081E1,-1.036623716E-1,1.845321655E-1,-8.586049080E-2
1.515914487E1,-8.955430984E-2,1.914472580E-1,-9.145307541E-2
1.516714116E1,-1.035528183E-1,2.247896194E-1,-8.037853241E-2
1.517513692E1,-1.452817917E-1,2.248268127E-1,-7.878541946E-2
1.518313321E1,-1.642749310E-1,2.561998367E-1,-8.919572830E-2
1.519112797E1,-1.775459051E-1,2.710409164E-1,-7.547402382E-2
1.519912326E1,-1.780289412E-1,2.501726151E-1,-5.916070938E-2
1.520715040E1,-1.732326746E-1,2.629947662E-1,-5.930685997E-2
1.521514516E1,-1.680128574E-1,2.448778152E-1,-6.383514404E-2
1.522314076E1,-1.602685452E-1,2.196483612E-1,-5.143165588E-2
1.523113705E1,-1.451324224E-1,1.561908722E-1,-6.280755997E-2
1.523913242E1,-1.014829874E-1,1.430473328E-1,-8.586859703E-2
1.524712787E1,-7.707977295E-2,1.251726151E-1,-9.427165985E-2
1.525515401E1,-6.219494343E-2,8.346843719E-2,-1.334223747E-1
1.526314930E1,-8.293521404E-2,8.498096466E-2,-1.531496048E-1
1.527114475E1,-4.603612423E-2,8.181953430E-2,-1.486225128E-1
1.527914066E1,-2.813303471E-2,5.004882812E-2,-1.628885269E-1
1.528713634E1,-2.472293377E-2,4.469680786E-2,-1.456346512E-1
1.529513201E1,-1.668167114E-2,1.783180237E-2,-1.472723484E-1
1.530312738E1,3.019690514E-3,1.489830017E-2,-1.630973816E-1
1.531115445E1,-1.129269600E-2,2.390480042E-2,-1.475727558E-1
1.531914920E1,-4.594922066E-3,1.837539673E-2,-8.202719688E-2
1.532714465E1,3.491997719E-2,2.937412262E-2,-1.054620743E-1
1.533514002E1,5.215716362E-2,4.730987549E-2,-8.381772041E-2
1.534313624E1,5.654895306E-2,7.459545135E-2,-1.199111938E-1
1.535113161E1,2.203416824E-2,8.973979950E-2,-1.251111031E-1
1.535912667E1,-7.993936539E-3,1.359014511E-1,-1.281201839E-1
1.536712242E1,-4.275929928E-2,1.700696945E-1,-9.532856941E-2
1.537514856E1,-6.312167645E-2,2.114009857E-1,-1.033387184E-1
1.538314455E1,-8.833646774E-2,2.407178879E-1,-5.639410019E-2
1.539114107E1,-1.090875864E-1,2.699670792E-1,-9.568214417E-2
1.539913552E1,-8.482933044E-2,2.656307220E-1,-5.829286575E-2
1.540713120E1,-8.990645409E-2,2.324810028E-1,-4.235625267E-2
1.541512634E1,-1.170496941E-1,2.495746613E-1,-5.494904518E-2
1.542312256E1,-1.276327372E-1,2.188425064E-1,-3.366923332E-2
1.543114908E1,-1.262167692E-1,1.953811646E-1,-8.389782906E-2
1.543914314E1,-1.076573133E-1,1.409502029E-1,-7.394075394E-2
1.544713921E1,-7.418930531E-2,8.672904968E-2,-7.792162895E-2
1.545513542E1,-1.869630814E-2,8.293724060E-2,-1.031880379E-1
1.546313048E1,-1.762974262E-2,6.974983215E-2,-9.227609634E-2
1.547112678E1,3.396868706E-3,5.917263031E-2,-5.235219002E-2
1.547915230E1,1.560020447E-2,4.881286621E-2,-3.124213219E-2
1.548714767E1,4.043519497E-2,9.950637817E-3,-2.511501312E-3
1.549514404E1,5.406045914E-2,-1.673698425E-2,3.129696846E-2
1.550313965E1,6.106245518E-2,1.181316376E-2,5.103039742E-2
1.551113532E1,6.833326817E-2,1.647472382E-2,1.139156818E-1
1.551913015E1,8.759820461E-2,4.742431641E-2,1.215524673E-1
1.552712552E1,8.506047726E-2,4.468822479E-2,1.431100368E-1
1.553515228E1,1.062374115E-1,7.044506073E-2,1.830799580E-1
1.554314734E1,9.377813339E-2,8.871841431E-2,2.052259445E-1
1.555114333E1,1.074348688E-1,1.042356491E-1,2.237331867E-1
1.555913831E1,1.088707447E-1,1.193151474E-1,2.455267906E-1
1.556713430E1,1.076394320E-1,1.626634598E-1,2.633352280E-1
1.557512998E1,1.084467173E-1,1.791687012E-1,2.722456455E-1
1.558312542E1,1.255226135E-1,1.999702454E-1,2.915561199E-1
1.559115210E1,1.253603697E-1,2.297992706E-1,3.138923645E-1
1.559914694E1,1.295812130E-1,2.231273651E-1,3.581960201E-1
1.560714292E1,1.711670160E-1,2.107477188E-1,4.140214920E-1
1.561513883E1,2.350205183E-1,1.733036041E-1,4.308116436E-1
1.562313451E1,2.899707556E-1,1.898136139E-1,4.661602974E-1
1.563113019E1,2.960617542E-1,2.127094269E-1,5.088756084E-1
1.563912494E1,3.468222618E-1,2.156333923E-1,5.109665394E-1
1.564715116E1,3.466857672E-1,1.580486298E-1,4.825379848E-1
1.565514684E1,3.272954226E-1,9.292221069E-2,4.411532879E-1
1.566314367E1,3.224050999E-1,3.966045380E-2,3.923835754E-1
1.567113819E1,2.469412088E-1,-2.505970001E-2,3.377468586E-1
1.567913410E1,2.111093998E-1,-6.049346924E-2,2.988507748E-1
1.568712986E1,1.789634228E-1,-1.119403839E-1,2.763330936E-1
1.569512515E1,1.509377956E-1,-1.599607468E-1,2.852284908E-1
1.570315098E1,1.664910316E-1,-1.929388046E-1,2.555699348E-1
1.571114704E1,2.199029922E-1,-2.253742218E-1,1.874210835E-1
1.571914172E1,2.290606499E-1,-2.264280319E-1,1.544096470E-1
1.572713779E1,2.725777626E-1,-2.273683548E-1,8.203959465E-2
1.573513369E1,2.929775715E-1,-2.617301941E-1,3.729510307E-2
1.574312906E1,3.143030405E-1,-2.649841309E-1,2.929735184E-2
1.575112420E1,3.174930811E-1,-2.325000763E-1,1.916170120E-2
1.575915058E1,2.979402542E-1,-2.096662521E-1,-2.638363838E-2
1.576714687E1,2.679729462E-1,-1.845655441E-1,-5.027008057E-2
1.577514139E1,2.419183254E-1,-1.643934250E-1,-7.644462585E-2
1.578313769E1,1.771469116E-1,-1.515111923E-1,-7.395839691E-2
1.579113398E1,1.501561403E-1,-1.651086807E-1,-1.194529533E-1
1.579912866E1,1.106359959E-1,-1.572551727E-1,-1.576845646E-1
1.580712380E1,6.359863281E-2,-1.662044525E-1,-1.598823071E-1
1.581514986E1,2.601790428E-2,-1.343355179E-1,-1.974766254E-1
1.582314592E1,2.915859222E-3,-1.334877014E-1,-1.892445087E-1
1.583114245E1,-3.467679024E-3,-1.180477142E-1,-1.945505142E-1
1.583913759E1,-3.368449211E-2,-1.191282272E-1,-1.990892887E-1
1.584713288E1,-4.941987991E-2,-1.127071381E-1,-2.121937275E-1
1.585512771E1,-6.961274147E-2,-9.156417847E-2,-2.243020535E-1
1.586312370E1,-9.161531925E-2,-9.873962402E-2,-2.306036949E-1
1.587114984E1,-1.177226305E-1,-8.393478394E-2,-2.119550705E-1
1.587914490E1,-1.096696854E-1,-7.106876373E-2,-2.592453957E-1
1.588714112E1,-1.295077801E-1,-6.006526947E-2,-2.646138668E-1
1.589513626E1,-1.507064104E-1,-5.333900452E-2,-2.713594437E-1
1.590313255E1,-1.682400703E-1,-4.359722137E-2,-2.744798660E-1
1.591112915E1,-1.841297150E-1,-4.519748688E-2,-2.765941620E-1
1.591912329E1,-2.031164169E-1,-6.524085999E-2,-3.038027287E-1
1.592714935E1,-2.106888294E-1,-7.020378113E-2,-3.106889725E-1
1.593514503E1,-2.216171026E-1,-5.308437347E-2,-3.239064217E-1
