"Time (s)","Acceleration x (m/s^2)","Acceleration y (m/s^2)","Acceleration z (m/s^2)"
4.792459000E-3,-2.082955539E-1,-4.367023945E0,9.023746490E0
6.837381000E-3,-2.250549644E-1,-4.374206543E0,9.028534889E0
8.942302000E-3,-2.681505978E-1,-4.374206543E0,9.030928612E0
1.092576200E-2,-3.327940404E-1,-4.383783340E0,9.030928612E0
1.294076000E-2,-3.591302633E-1,-4.398148537E0,9.026140213E0
1.492452800E-2,-4.141969085E-1,-4.414907932E0,9.009381294E0
1.693891100E-2,-4.644751251E-1,-4.419696331E0,8.987833023E0
1.892267800E-2,-4.860229492E-1,-4.410119534E0,8.978256226E0
2.093621600E-2,-5.027823448E-1,-4.405331135E0,8.971074104E0
2.291982900E-2,-5.434837937E-1,-4.393360138E0,8.954314232E0
2.493344400E-2,-5.482721925E-1,-4.381389141E0,8.954314232E0
2.691744200E-2,-5.578489900E-1,-4.383783340E0,8.944737434E0
2.893190100E-2,-5.506663918E-1,-4.355052948E0,8.947132111E0
3.091582300E-2,-5.434837937E-1,-4.340687752E0,8.927978516E0
3.293028300E-2,-5.458779931E-1,-4.343081951E0,8.908824921E0
3.494320400E-2,-5.363011956E-1,-4.326322556E0,8.908824921E0
3.692666400E-2,-5.291185975E-1,-4.323928356E0,8.899248123E0
3.894381600E-2,-5.315127969E-1,-4.321534157E0,8.906430244E0
4.092473800E-2,-5.291185975E-1,-4.304774761E0,8.947132111E0
4.293950500E-2,-5.099649429E-1,-4.311957359E0,8.963891029E0
4.492388800E-2,-4.884171486E-1,-4.323928356E0,8.983044624E0
4.693711800E-2,-4.860229492E-1,-4.321534157E0,8.973467827E0
4.892103900E-2,-4.860229492E-1,-4.314351559E0,8.932766914E0
5.093457600E-2,-5.003881454E-1,-4.297592163E0,8.882488251E0
5.291865100E-2,-5.003881454E-1,-4.307168961E0,8.858546257E0
5.493241900E-2,-5.171475410E-1,-4.295197964E0,8.825027466E0
5.691711000E-2,-5.099649429E-1,-4.295197964E0,8.798690796E0
5.893149300E-2,-5.051765442E-1,-4.299986362E0,8.803479195E0
6.091495300E-2,-4.908113480E-1,-4.276044369E0,8.796297073E0
6.292849000E-2,-4.740519226E-1,-4.254496574E0,8.793902397E0
6.494264100E-2,-4.548983276E-1,-4.232948780E0,8.803479195E0
6.692656300E-2,-4.189853072E-1,-4.180276394E0,8.796297073E0
6.894040800E-2,-3.734954596E-1,-4.151545525E0,8.781931877E0
7.092417500E-2,-3.591302633E-1,-4.141968727E0,8.774748802E0
7.293802000E-2,-3.327940404E-1,-4.127603531E0,8.743624687E0
7.492163300E-2,-3.280056417E-1,-4.103661537E0,8.722076416E0
7.693578600E-2,-3.016694188E-1,-4.096478939E0,8.698134422E0
7.892163000E-2,-2.825157940E-1,-4.084507942E0,8.690952301E0
8.093455100E-2,-2.849099934E-1,-4.077325344E0,8.695740700E0
8.291670400E-2,-2.705447972E-1,-4.067748547E0,8.693346024E0
8.493208700E-2,-2.585737705E-1,-4.053383350E0,8.674192429E0
8.691547100E-2,-2.585737705E-1,-4.048594952E0,8.662221909E0
8.892908400E-2,-2.537853718E-1,-4.041412354E0,8.633491516E0
9.094323600E-2,-2.370259613E-1,-4.048594952E0,8.609549522E0
9.292692700E-2,-2.298433632E-1,-4.053383350E0,8.607154846E0
9.494131000E-2,-2.274491638E-1,-4.046200752E0,8.599972725E0
9.692600000E-2,-2.178723514E-1,-4.060565948E0,8.599972725E0
9.894046100E-2,-2.154781520E-1,-4.050989151E0,8.595184326E0
1.009235360E-1,-2.106897533E-1,-4.065354347E0,8.561665535E0
1.029370730E-1,-2.082955539E-1,-4.072536945E0,8.540117264E0
1.049210710E-1,-2.226607651E-1,-4.074931145E0,8.532935143E0
1.069345310E-1,-2.202665508E-1,-4.084507942E0,8.520963669E0
1.089182990E-1,-2.154781520E-1,-4.094084740E0,8.511386871E0
1.109326810E-1,-2.178723514E-1,-4.110844135E0,8.482656479E0
1.129163730E-1,-2.274491638E-1,-4.103661537E0,8.458714485E0
1.149302940E-1,-2.178723514E-1,-4.110844135E0,8.446743965E0
1.169438300E-1,-2.106897533E-1,-4.106055737E0,8.439560890E0
1.189292910E-1,-1.843535304E-1,-4.115632534E0,8.437167168E0
1.209425970E-1,-1.819593310E-1,-4.122815132E0,8.437167168E0
1.229262880E-1,-1.771709323E-1,-4.113238335E0,8.413225174E0
1.249401320E-1,-1.675941199E-1,-4.120420933E0,8.389283180E0
1.269237450E-1,-1.556231081E-1,-4.127603531E0,8.386888504E0
1.289378980E-1,-1.221042871E-1,-4.129997730E0,8.391676903E0
1.309213580E-1,-1.125274822E-1,-4.144362926E0,8.384494781E0
1.329358170E-1,-1.149216816E-1,-4.149151325E0,8.384494781E0
1.349188930E-1,-9.097966552E-2,-4.165910721E0,8.382100105E0
1.369345070E-1,-8.858546615E-2,-4.189853191E0,8.379706383E0
1.389175830E-1,-7.182604820E-2,-4.204218388E0,8.372523308E0
1.409320420E-1,-5.027823523E-2,-4.211400986E0,8.374917984E0
1.429145020E-1,-4.309562966E-2,-4.228160381E0,8.360552788E0
1.449290390E-1,-3.591302410E-2,-4.259284973E0,8.343792915E0
1.469431910E-1,-3.112462163E-2,-4.273650169E0,8.334216118E0
1.489268050E-1,-1.675941236E-2,-4.273650169E0,8.343792915E0
1.509409570E-1,-9.576806799E-3,-4.290409565E0,8.367734909E0
1.529240320E-1,-4.788403399E-3,-4.292803764E0,8.384494781E0
1.549391080E-1,2.394201700E-3,-4.299986362E0,8.377311707E0
1.569221830E-1,-2.394201700E-3,-4.323928356E0,8.377311707E0
1.589385660E-1,4.788403399E-3,-4.347870350E0,8.374917984E0
1.609206420E-1,2.394201700E-3,-4.359841347E0,8.377311707E0
1.629333320E-1,-2.154781483E-2,-4.362235546E0,8.389283180E0
1.649182540E-1,-3.591302410E-2,-4.402936935E0,8.410830498E0
1.669323290E-1,-2.873042040E-2,-4.417302132E0,8.434772491E0
1.689160190E-1,-2.873042040E-2,-4.424484730E0,8.468291283E0
1.709299410E-1,-3.351882473E-2,-4.438849926E0,8.501810074E0
1.729434780E-1,-3.112462163E-2,-4.438849926E0,8.511386871E0
1.749283230E-1,-3.830722719E-2,-4.458003521E0,8.508993149E0
1.769418590E-1,-3.112462163E-2,-4.462791920E0,8.508993149E0
1.789268570E-1,-2.154781483E-2,-4.491522312E0,8.542511940E0
1.809403950E-1,-1.915361360E-2,-4.517858505E0,8.540117264E0
1.829234700E-1,-1.675941236E-2,-4.525041103E0,8.544905663E0
1.849379300E-1,-2.633621916E-2,-4.546588898E0,8.566453934E0
1.869212360E-1,-3.351882473E-2,-4.558559895E0,8.568847656E0
1.889356960E-1,-3.351882473E-2,-4.551377296E0,8.564059258E0
1.909193870E-1,-2.873042040E-2,-4.541800499E0,8.568847656E0
1.929326930E-1,-3.591302410E-2,-4.544194698E0,8.568847656E0
1.949169210E-1,-3.830722719E-2,-4.546588898E0,8.561665535E0
1.969304590E-1,-3.830722719E-2,-4.546588898E0,8.537723541E0
1.989462260E-1,-3.351882473E-2,-4.527435303E0,8.542511940E0
2.009298400E-1,-3.112462163E-2,-4.525041103E0,8.537723541E0
2.029428380E-1,-1.915361360E-2,-4.505887508E0,8.508993149E0
2.049267590E-1,-2.154781483E-2,-4.505887508E0,8.513781548E0
2.069415280E-1,-3.591302410E-2,-4.508281708E0,8.516175270E0
2.089239870E-1,-2.633621916E-2,-4.503493309E0,8.554482460E0
2.109381400E-1,-2.633621916E-2,-4.513070107E0,8.573636055E0
2.129222150E-1,-3.112462163E-2,-4.539406300E0,8.604761124E0
2.149360590E-1,-4.788403213E-2,-4.570530891E0,8.623914719E0
2.169200580E-1,-5.506663769E-2,-4.589684486E0,8.633491516E0
2.189353640E-1,-1.029506698E-1,-4.635174274E0,8.645462036E0
2.209182090E-1,-1.197100878E-1,-4.687847137E0,8.638279915E0
2.229314380E-1,-1.244984865E-1,-4.709394932E0,8.650250435E0
2.249154360E-1,-1.508347094E-1,-4.742913723E0,8.678980827E0
2.269288960E-1,-1.723825186E-1,-4.774038315E0,8.690952301E0
2.289433560E-1,-1.891419291E-1,-4.800374508E0,8.700529099E0
2.309276620E-1,-2.082955539E-1,-4.848258495E0,8.714894295E0
2.329418140E-1,-2.106897533E-1,-4.841075897E0,8.695740700E0
2.349251970E-1,-2.106897533E-1,-4.848258495E0,8.686163902E0
2.369397350E-1,-2.130839527E-1,-4.874594688E0,8.686163902E0
2.389248860E-1,-2.178723514E-1,-4.886565685E0,8.683769226E0
2.409375000E-1,-2.154781520E-1,-4.891354084E0,8.683769226E0
2.429205760E-1,-2.154781520E-1,-4.896142483E0,8.674192429E0
2.449350350E-1,-2.106897533E-1,-4.898536682E0,8.667010307E0
2.469181880E-1,-2.035071403E-1,-4.888959885E0,8.635885239E0
2.489328780E-1,-1.867477298E-1,-4.881777287E0,8.609549522E0
2.509163380E-1,-1.747767180E-1,-4.872200489E0,8.599972725E0
2.529313370E-1,-1.628057212E-1,-4.862623692E0,8.583212852E0
2.549141810E-1,-1.364694983E-1,-4.865017891E0,8.564059258E0
2.569291790E-1,-1.292868853E-1,-4.865017891E0,8.547300339E0
2.589433320E-1,-1.077390760E-1,-4.862623692E0,8.528146744E0
2.609264070E-1,-9.816227108E-2,-4.862623692E0,8.499416351E0
2.629402520E-1,-9.097966552E-2,-4.865017891E0,8.477868080E0
2.649240190E-1,-7.422025502E-2,-4.881777287E0,8.461109161E0
2.669381710E-1,-6.943184882E-2,-4.898536682E0,8.461109161E0
2.689220930E-1,-6.464344263E-2,-4.900930882E0,8.451532364E0
2.709357070E-1,-7.900865376E-2,-4.862623692E0,8.439560890E0
2.729190900E-1,-8.619125932E-2,-4.860229492E0,8.437167168E0
2.749338570E-1,-6.943184882E-2,-4.874594688E0,8.418013573E0
2.769169320E-1,-7.422025502E-2,-4.886565685E0,8.408436775E0
2.789334700E-1,-6.943184882E-2,-4.886565685E0,8.398859978E0
2.809159290E-1,-9.337386489E-2,-4.884171486E0,8.374917984E0
2.829291580E-1,-6.943184882E-2,-4.898536682E0,8.372523308E0
2.849440030E-1,-7.661445439E-2,-4.903325081E0,8.367734909E0
2.869270780E-1,-5.746084079E-2,-4.915296078E0,8.353369713E0
2.889408470E-1,-6.464344263E-2,-4.929661274E0,8.339004517E0
2.909251520E-1,-6.464344263E-2,-4.915296078E0,8.324639320E0
2.929390730E-1,-5.985504389E-2,-4.922478676E0,8.298302650E0
2.949220720E-1,-7.182604820E-2,-4.924872875E0,8.281543732E0
2.969372240E-1,-8.379705995E-2,-4.915296078E0,8.269572258E0
2.989214540E-1,-7.900865376E-2,-4.900930882E0,8.236053467E0
3.009353750E-1,-8.379705995E-2,-4.874594688E0,8.233659744E0
3.029183730E-1,-9.097966552E-2,-4.862623692E0,8.228871346E0
3.049325260E-1,-9.097966552E-2,-4.848258495E0,8.197746277E0
3.069162160E-1,-9.576806426E-2,-4.845864296E0,8.180987358E0
3.089301380E-1,-6.943184882E-2,-4.838681698E0,8.164227486E0
3.109448290E-1,-5.746084079E-2,-4.821922302E0,8.159439087E0
3.129276730E-1,-5.027823523E-2,-4.824316502E0,8.142680168E0
3.149420560E-1,-3.112462163E-2,-4.795586109E0,8.125920296E0
3.169252080E-1,-1.436521020E-2,-4.774038315E0,8.123526573E0
3.189412060E-1,-9.576806799E-3,-4.778826714E0,8.116343498E0
3.209229740E-1,-4.788403399E-3,-4.759673119E0,8.104372978E0
3.229392800E-1,1.675941236E-2,-4.740519524E0,8.101978302E0
3.249214330E-1,3.591302410E-2,-4.738125324E0,8.097189903E0
3.269359690E-1,5.267243832E-2,-4.745307922E0,8.101978302E0
3.289192750E-1,4.788403213E-2,-4.733336926E0,8.116343498E0
3.309331200E-1,4.070143029E-2,-4.726154327E0,8.142680168E0
3.329168880E-1,5.746084079E-2,-4.730942726E0,8.204929352E0
3.349316560E-1,6.464344263E-2,-4.750096321E0,8.221688271E0
3.369149610E-1,6.224924326E-2,-4.757278919E0,8.240841866E0
3.389301130E-1,3.591302410E-2,-4.752490520E0,8.281543732E0
3.409439580E-1,1.436521020E-2,-4.752490520E0,8.312667847E0
3.429270330E-1,-2.633621916E-2,-4.778826714E0,8.350975990E0
3.449411080E-1,-7.661445439E-2,-4.824316502E0,8.384494781E0
3.469245690E-1,-1.125274822E-1,-4.848258495E0,8.403648376E0
3.489393360E-1,-1.675941199E-1,-4.898536682E0,8.422801971E0
3.509226430E-1,-2.322375625E-1,-4.936843872E0,8.420407295E0
3.529368720E-1,-2.442085743E-1,-4.955997467E0,8.415618896E0
3.549204850E-1,-2.801215947E-1,-4.999093056E0,8.413225174E0
3.569340220E-1,-3.136404157E-1,-5.049371243E0,8.441955566E0
3.589201740E-1,-3.208230138E-1,-5.068524837E0,8.453926086E0
3.609327890E-1,-3.351882398E-1,-5.094861031E0,8.475474358E0
3.629156330E-1,-3.327940404E-1,-5.135562420E0,8.465897560E0
3.649307080E-1,-3.327940404E-1,-5.147533417E0,8.446743965E0
3.669137070E-1,-3.256114423E-1,-5.149928093E0,8.413225174E0
3.689279360E-1,-3.232172430E-1,-5.159504890E0,8.398859978E0
3.709423190E-1,-3.136404157E-1,-5.178658485E0,8.386888504E0
3.729257020E-1,-2.849099934E-1,-5.178658485E0,8.386888504E0
3.749399310E-1,-2.753331959E-1,-5.178658485E0,8.372523308E0
3.769239300E-1,-2.561795712E-1,-5.166687489E0,8.334216118E0
3.789389280E-1,-2.202665508E-1,-5.193023682E0,8.300697327E0
3.809213870E-1,-2.011129409E-1,-5.207388878E0,8.279149055E0
3.829353090E-1,-1.604115069E-1,-5.197812080E0,8.269572258E0
3.849186150E-1,-1.388636976E-1,-5.197812080E0,8.259995461E0
3.869333830E-1,-1.292868853E-1,-5.207388878E0,8.255207062E0
3.889171500E-1,-1.005564705E-1,-5.214571476E0,8.262390137E0
3.909306100E-1,-7.661445439E-2,-5.197812080E0,8.267178535E0
3.929149170E-1,-5.985504389E-2,-5.202600479E0,8.271966934E0
3.949285300E-1,-3.591302410E-2,-5.216965675E0,8.276755333E0
3.969426060E-1,-4.309562966E-2,-5.228936672E0,8.267178535E0
3.989282190E-1,-5.506663769E-2,-5.243301868E0,8.264783859E0
4.009368330E-1,-7.422025502E-2,-5.245696068E0,8.243236542E0
4.029250620E-1,-8.619125932E-2,-5.245696068E0,8.224082947E0
4.049389840E-1,-1.077390760E-1,-5.245696068E0,8.209717751E0
4.069232900E-1,-1.101332754E-1,-5.264849663E0,8.200140953E0
4.089361340E-1,-1.173158810E-1,-5.279214859E0,8.202534676E0
4.109204400E-1,-1.221042871E-1,-5.276820660E0,8.214506149E0
4.129340550E-1,-1.197100878E-1,-5.293580055E0,8.226476669E0
4.149176680E-1,-1.316810995E-1,-5.312733650E0,8.224082947E0
4.169325120E-1,-1.316810995E-1,-5.358223438E0,8.226476669E0
4.189165110E-1,-1.149216816E-1,-5.365406036E0,8.243236542E0
4.209300480E-1,-1.173158810E-1,-5.360617638E0,8.240841866E0
4.229442000E-1,-1.292868853E-1,-5.391742229E0,8.226476669E0
4.249268910E-1,-1.244984865E-1,-5.398924828E0,8.224082947E0
4.269414270E-1,-1.388636976E-1,-5.401319027E0,8.214506149E0
4.289257340E-1,-1.292868853E-1,-5.420472622E0,8.200140953E0
4.309395010E-1,-1.580173075E-1,-5.418078423E0,8.183381081E0
4.329235000E-1,-1.604115069E-1,-5.420472622E0,8.183381081E0
4.349370370E-1,-1.604115069E-1,-5.398924828E0,8.173804283E0
4.369204960E-1,-1.580173075E-1,-5.384559631E0,8.157045364E0
4.389370340E-1,-1.484405100E-1,-5.377377033E0,8.147468567E0
4.409191850E-1,-1.436520964E-1,-5.348646641E0,8.116343498E0
4.429321830E-1,-1.364694983E-1,-5.329493046E0,8.121131897E0
4.449171060E-1,-1.412578970E-1,-5.319916248E0,8.116343498E0
4.469312570E-1,-1.292868853E-1,-5.291185856E0,8.106766701E0
4.489148720E-1,-1.197100878E-1,-5.286397457E0,8.109161377E0
4.509278700E-1,-9.097966552E-2,-5.279214859E0,8.123526573E0
4.529425600E-1,-8.140286058E-2,-5.267243862E0,8.147468567E0
4.549257130E-1,-7.661445439E-2,-5.267243862E0,8.157045364E0
4.569416340E-1,-5.267243832E-2,-5.317522049E0,8.161833763E0
4.589247100E-1,-3.591302410E-2,-5.331887245E0,8.190564156E0
4.609380160E-1,-3.591302410E-2,-5.346252441E0,8.197746277E0
4.629222440E-1,-4.070143029E-2,-5.384559631E0,8.212111473E0
4.649363970E-1,-2.873042040E-2,-5.442020416E0,8.212111473E0
4.669195490E-1,-2.873042040E-2,-5.465962410E0,8.209717751E0
4.689340090E-1,-3.112462163E-2,-5.506663799E0,8.202534676E0
4.709177000E-1,-5.267243832E-2,-5.528211594E0,8.185775757E0
4.729315440E-1,-7.422025502E-2,-5.552153587E0,8.166622162E0
4.749154660E-1,-1.053448766E-1,-5.583278179E0,8.171410561E0
4.769293100E-1,-1.340752989E-1,-5.609614372E0,8.173804283E0
4.789453850E-1,-1.556231081E-1,-5.645527840E0,8.185775757E0
4.809277690E-1,-1.843535304E-1,-5.662287235E0,8.166622162E0
4.829416130E-1,-1.843535304E-1,-5.667075634E0,8.157045364E0
4.849247660E-1,-1.843535304E-1,-5.679046631E0,8.130708694E0
4.869394560E-1,-1.795651317E-1,-5.705382824E0,8.099584579E0
4.889229160E-1,-1.723825186E-1,-5.724536419E0,8.099584579E0
4.909372990E-1,-1.675941199E-1,-5.765237808E0,8.097189903E0
4.929213740E-1,-1.628057212E-1,-5.762843609E0,8.075642586E0
4.949342960E-1,-1.723825186E-1,-5.765237808E0,8.073247910E0
4.969194480E-1,-1.747767180E-1,-5.784391403E0,8.094796181E0
4.989336770E-1,-1.699883193E-1,-5.779603004E0,8.104372978E0
5.009160610E-1,-1.556231081E-1,-5.779603004E0,8.097189903E0
5.029308280E-1,-1.771709323E-1,-5.767632008E0,8.080430984E0
5.049142110E-1,-1.843535304E-1,-5.748478413E0,8.085219383E0
5.069283630E-1,-1.939303428E-1,-5.743690014E0,8.082824707E0
5.089428230E-1,-1.867477298E-1,-5.741295815E0,8.070854187E0
5.109256680E-1,-1.795651317E-1,-5.729324818E0,8.078036308E0
5.129403580E-1,-1.484405100E-1,-5.731719017E0,8.056488991E0
5.149240490E-1,-1.364694983E-1,-5.707777023E0,8.015787125E0
5.169375860E-1,-1.388636976E-1,-5.695806026E0,8.006210327E0
5.189231230E-1,-1.077390760E-1,-5.662287235E0,7.996633530E0
5.209363520E-1,-6.943184882E-2,-5.657498837E0,7.975085735E0
5.229188120E-1,-5.267243832E-2,-5.659893036E0,7.972691536E0
5.249339640E-1,-5.506663769E-2,-5.647922039E0,7.951143742E0
5.269172700E-1,-3.591302410E-2,-5.628767967E0,7.939172745E0
5.289318070E-1,-3.351882473E-2,-5.645527840E0,7.924807549E0
5.309148830E-1,-4.309562966E-2,-5.662287235E0,7.915230751E0
5.329292650E-1,-5.027823523E-2,-5.686229229E0,7.908048153E0
5.349431870E-1,-5.985504389E-2,-5.707777023E0,7.886500359E0
5.369278010E-1,-4.788403213E-2,-5.714959621E0,7.888894558E0
5.389422610E-1,-4.548983276E-2,-5.722142220E0,7.891288757E0
5.409252590E-1,-5.027823523E-2,-5.724536419E0,7.900865555E0
5.429384880E-1,-5.506663769E-2,-5.753266811E0,7.905653954E0
5.449225630E-1,-5.267243832E-2,-5.765237808E0,7.915230751E0
5.469369470E-1,-5.506663769E-2,-5.772420406E0,7.931990147E0
5.489197910E-1,-6.703764945E-2,-5.774814606E0,7.955932140E0
5.509342510E-1,-6.464344263E-2,-5.762843609E0,7.977479935E0
5.529181730E-1,-6.703764945E-2,-5.774814606E0,8.006210327E0
5.549320170E-1,-7.182604820E-2,-5.758055210E0,8.046912193E0
5.569157850E-1,-7.422025502E-2,-5.741295815E0,8.066065788E0
5.589323980E-1,-6.224924326E-2,-5.755661011E0,8.080430984E0
5.609130120E-1,-5.985504389E-2,-5.746084213E0,8.082824707E0
5.629280880E-1,-5.027823523E-2,-5.748478413E0,8.078036308E0
5.649424700E-1,-5.267243832E-2,-5.726930618E0,8.075642586E0
5.669258530E-1,-4.788403213E-2,-5.719748020E0,8.073247910E0
5.689400830E-1,-4.309562966E-2,-5.698200226E0,8.087613106E0
5.709236960E-1,-3.830722719E-2,-5.681440830E0,8.113949776E0
5.729381570E-1,-3.591302410E-2,-5.683835030E0,8.128314972E0
5.749209240E-1,-2.873042040E-2,-5.671864033E0,8.180987358E0
5.769363830E-1,-1.915361360E-2,-5.681440830E0,8.226476669E0
5.789206900E-1,-9.576806799E-3,-5.705382824E0,8.255207062E0
5.809336110E-1,0.000000000E0,-5.755661011E0,8.343792915E0
5.829166870E-1,-1.915361360E-2,-5.770026207E0,8.401253700E0
5.849308390E-1,-1.197100803E-2,-5.791574001E0,8.418013573E0
5.869141450E-1,-3.591302410E-2,-5.827486992E0,8.441955566E0
5.889292980E-1,-5.985504389E-2,-5.872976780E0,8.446743965E0
5.909431420E-1,-7.182604820E-2,-5.892130375E0,8.446743965E0
5.929267560E-1,-1.101332754E-1,-5.918466568E0,8.415618896E0
5.949402930E-1,-1.651999205E-1,-5.954379559E0,8.389283180E0
5.969245980E-1,-1.891419291E-1,-5.966350555E0,8.374917984E0
5.989415970E-1,-2.442085743E-1,-5.999869347E0,8.341399193E0
6.009224410E-1,-2.681505978E-1,-6.002263546E0,8.329427719E0
6.029357470E-1,-2.992752194E-1,-6.004657745E0,8.291120529E0
6.049205920E-1,-3.303998411E-1,-6.011840343E0,8.226476669E0
6.069342060E-1,-3.495534360E-1,-6.011840343E0,8.202534676E0
6.089172820E-1,-4.118026793E-1,-6.011840343E0,8.171410561E0
6.109322800E-1,-4.453215301E-1,-6.007051945E0,8.140285492E0
6.129151240E-1,-4.620809257E-1,-6.009446144E0,8.133103371E0
6.149301230E-1,-5.075707436E-1,-5.992686749E0,8.109161377E0
6.169455820E-1,-5.219359994E-1,-5.985504150E0,8.051700592E0
6.189288890E-1,-5.339069963E-1,-5.973533154E0,8.022970200E0
6.209415020E-1,-5.386953950E-1,-5.959167957E0,7.982268333E0
6.229255770E-1,-5.075707436E-1,-5.968744755E0,7.958326340E0
6.249393460E-1,-4.860229492E-1,-5.980715752E0,7.939172745E0
6.269231130E-1,-4.405331016E-1,-6.002263546E0,7.924807549E0
6.289371880E-1,-4.070142806E-1,-6.028599739E0,7.886500359E0
6.309205710E-1,-3.471592367E-1,-6.033388138E0,7.860164165E0
6.329348000E-1,-2.968810201E-1,-6.054935932E0,7.833827972E0
6.349190300E-1,-2.585737705E-1,-6.059724331E0,7.829039574E0
6.369323360E-1,-1.939303428E-1,-6.078877926E0,7.807491779E0
6.389181800E-1,-1.316810995E-1,-6.088454723E0,7.771578789E0
6.409289480E-1,-1.005564705E-1,-6.093243122E0,7.759607792E0
6.429455610E-1,-2.394201607E-2,-6.100425720E0,7.738059998E0
6.449286370E-1,2.633621916E-2,-6.095637321E0,7.730877399E0
6.469430200E-1,5.506663769E-2,-6.088454723E0,7.711723804E0
6.489267100E-1,1.149216816E-1,-6.054935932E0,7.690176010E0
6.509406320E-1,1.628057212E-1,-6.009446144E0,7.639897823E0
6.529236300E-1,1.819593310E-1,-5.983109951E0,7.625532627E0
6.549387050E-1,2.274491638E-1,-5.940014362E0,7.594407558E0
6.569223970E-1,2.633621991E-1,-5.894524574E0,7.560888767E0
6.589374710E-1,2.825157940E-1,-5.875370979E0,7.551311970E0
6.609208550E-1,3.256114423E-1,-5.841852188E0,7.529764175E0
6.629341610E-1,3.351882398E-1,-5.786785603E0,7.498639584E0
6.649181590E-1,3.711012602E-1,-5.758055210E0,7.486668587E0
6.669319270E-1,4.022258818E-1,-5.724536419E0,7.460332394E0
6.689153870E-1,4.237737060E-1,-5.700594425E0,7.445967197E0
6.709297700E-1,4.644751251E-1,-5.664681435E0,7.431602001E0
6.729436140E-1,4.764461517E-1,-5.650316238E0,7.431602001E0
6.749273050E-1,4.812345505E-1,-5.643133640E0,7.445967197E0
6.769418420E-1,4.932055473E-1,-5.616796970E0,7.477091789E0
6.789273790E-1,5.003881454E-1,-5.607220173E0,7.515398979E0
6.809396850E-1,5.099649429E-1,-5.609614372E0,7.539340973E0
6.829221450E-1,5.123591423E-1,-5.600037575E0,7.558494568E0
6.849374510E-1,5.051765442E-1,-5.597643375E0,7.577648163E0
6.869206030E-1,4.932055473E-1,-5.612008572E0,7.599195957E0
6.889346780E-1,4.692635238E-1,-5.609614372E0,7.630321026E0
6.909186760E-1,4.381389022E-1,-5.602431774E0,7.647080421E0
6.929325210E-1,4.141969085E-1,-5.604825974E0,7.668628216E0
6.949171350E-1,3.711012602E-1,-5.607220173E0,7.697358608E0
6.969310570E-1,3.447650373E-1,-5.588066578E0,7.721300602E0
6.989152860E-1,2.729389966E-1,-5.583278179E0,7.757213593E0
7.009282840E-1,2.346317619E-1,-5.559336185E0,7.771578789E0
7.029424370E-1,2.178723514E-1,-5.554547787E0,7.773972988E0
7.049260500E-1,1.915361285E-1,-5.544970989E0,7.773972988E0
7.069402030E-1,1.604115069E-1,-5.530605793E0,7.757213593E0
7.089238930E-1,1.484405100E-1,-5.530605793E0,7.750030994E0
7.109381220E-1,1.292868853E-1,-5.504269600E0,7.716512203E0
7.129218130E-1,1.316810995E-1,-5.492298603E0,7.690176010E0
7.149358880E-1,1.221042871E-1,-5.499481201E0,7.673416615E0
7.169193490E-1,1.388636976E-1,-5.497087002E0,7.639897823E0
7.189355770E-1,1.604115069E-1,-5.489904404E0,7.596801758E0
7.209178060E-1,1.699883193E-1,-5.499481201E0,7.587224960E0
7.229304210E-1,1.963245422E-1,-5.506663799E0,7.560888767E0
7.249152650E-1,2.178723514E-1,-5.535394192E0,7.539340973E0
7.269291090E-1,2.346317619E-1,-5.537788391E0,7.527369976E0
7.289430310E-1,2.609679997E-1,-5.549759388E0,7.496245384E0
7.309267210E-1,2.825157940E-1,-5.556941986E0,7.486668587E0
7.329414130E-1,3.112462163E-1,-5.549759388E0,7.472303391E0
7.349254110E-1,3.543418646E-1,-5.559336185E0,7.443572998E0
7.369393320E-1,3.663128614E-1,-5.552153587E0,7.436390400E0
7.389229460E-1,3.830722570E-1,-5.544970989E0,7.426813602E0
7.409365600E-1,4.285621047E-1,-5.525817394E0,7.429207802E0
7.429204820E-1,4.477157295E-1,-5.525817394E0,7.436390400E0
7.449349410E-1,4.620809257E-1,-5.547365189E0,7.424419403E0
7.469184010E-1,5.123591423E-1,-5.528211594E0,7.417236805E0
7.489321690E-1,5.458779931E-1,-5.532999992E0,7.422025204E0
7.509162440E-1,5.865794420E-1,-5.537788391E0,7.448361397E0
7.529306260E-1,6.224924326E-1,-5.547365189E0,7.448361397E0
7.549143950E-1,6.320692301E-1,-5.564124584E0,7.455543995E0
7.569279310E-1,6.416460276E-1,-5.571307182E0,7.433996201E0
7.589442380E-1,6.631938815E-1,-5.556941986E0,7.426813602E0
7.609266210E-1,6.727706790E-1,-5.561730385E0,7.429207802E0
7.629398490E-1,6.751648784E-1,-5.602431774E0,7.472303391E0
7.649241560E-1,6.823474765E-1,-5.607220173E0,7.481880188E0
7.669370770E-1,6.823474765E-1,-5.614402771E0,7.513004780E0
7.689213840E-1,6.727706790E-1,-5.619191170E0,7.548917770E0
7.709359200E-1,6.584054828E-1,-5.619191170E0,7.572859764E0
7.729193030E-1,6.200982332E-1,-5.638344765E0,7.601590633E0
7.749331480E-1,5.817909837E-1,-5.652710438E0,7.613561630E0
7.769180690E-1,5.626373887E-1,-5.652710438E0,7.627926826E0
7.789318370E-1,5.315127969E-1,-5.664681435E0,7.651868820E0
7.809152970E-1,5.123591423E-1,-5.700594425E0,7.663839817E0
7.829288330E-1,4.932055473E-1,-5.719748020E0,7.678205013E0
7.849429860E-1,4.668693244E-1,-5.717353821E0,7.704541206E0
7.869272150E-1,4.309563041E-1,-5.719748020E0,7.697358608E0
7.889405210E-1,4.118026793E-1,-5.726930618E0,7.690176010E0
7.909242120E-1,3.806780577E-1,-5.719748020E0,7.699752808E0
7.929386720E-1,3.687070608E-1,-5.705382824E0,7.704541206E0
7.949223630E-1,3.471592367E-1,-5.698200226E0,7.714118004E0
7.969358220E-1,3.088520169E-1,-5.695806026E0,7.730877399E0
7.989220510E-1,3.040636182E-1,-5.700594425E0,7.726089001E0
8.009325120E-1,2.849099934E-1,-5.714959621E0,7.742848396E0
8.029183560E-1,2.657563984E-1,-5.717353821E0,7.781155586E0
8.049325090E-1,2.561795712E-1,-5.731719017E0,7.797914982E0
8.069164300E-1,2.418143749E-1,-5.743690014E0,7.824251175E0
8.089303510E-1,2.346317619E-1,-5.774814606E0,7.864952564E0
8.109134270E-1,2.322375625E-1,-5.789179802E0,7.874529362E0
8.129281170E-1,2.035071403E-1,-5.805939198E0,7.872135162E0
8.149417300E-1,1.747767180E-1,-5.815515995E0,7.884106159E0
8.169257290E-1,1.628057212E-1,-5.820304394E0,7.893682957E0
8.189408040E-1,1.532289088E-1,-5.834669590E0,7.884106159E0
8.209231880E-1,1.484405100E-1,-5.844246387E0,7.898471355E0
8.229377240E-1,1.484405100E-1,-5.856217384E0,7.900865555E0
8.249216460E-1,1.364694983E-1,-5.841852188E0,7.891288757E0
8.269357980E-1,1.436520964E-1,-5.825092793E0,7.896077156E0
8.289195660E-1,1.388636976E-1,-5.817910194E0,7.893682957E0
8.309337190E-1,1.460463107E-1,-5.820304394E0,7.903259754E0
8.329164860E-1,1.580173075E-1,-5.817910194E0,7.908048153E0
8.349315610E-1,1.628057212E-1,-5.810727596E0,7.915230751E0
8.369140210E-1,1.675941199E-1,-5.829881191E0,7.917624950E0
8.389306350E-1,1.651999205E-1,-5.829881191E0,7.920019150E0
8.409127870E-1,1.651999205E-1,-5.832275391E0,7.927201748E0
8.429260160E-1,1.604115069E-1,-5.858611584E0,7.946355343E0
8.449407070E-1,1.675941199E-1,-5.863399982E0,7.943961143E0
8.469243980E-1,1.651999205E-1,-5.863399982E0,7.946355343E0
8.489388570E-1,1.651999205E-1,-5.868188381E0,7.958326340E0
8.509220090E-1,1.628057212E-1,-5.887341976E0,7.958326340E0
8.529360850E-1,1.412578970E-1,-5.889736176E0,7.941566944E0
8.549200830E-1,1.364694983E-1,-5.889736176E0,7.931990147E0
8.569339280E-1,1.412578970E-1,-5.896918774E0,7.931990147E0
8.589183110E-1,1.412578970E-1,-5.906495571E0,7.903259754E0
8.609330780E-1,1.412578970E-1,-5.899312973E0,7.888894558E0
8.629155390E-1,1.388636976E-1,-5.894524574E0,7.872135162E0
8.649299210E-1,1.316810995E-1,-5.877765179E0,7.833827972E0
8.669437670E-1,1.340752989E-1,-5.882553577E0,7.829039574E0
8.689272260E-1,1.340752989E-1,-5.896918774E0,7.836222172E0
8.709413010E-1,1.029506698E-1,-5.908889771E0,7.848193169E0
8.729253770E-1,8.858546615E-2,-5.906495571E0,7.848193169E0
8.749392210E-1,6.943184882E-2,-5.928043365E0,7.843404770E0
8.769222190E-1,4.070143029E-2,-5.937620163E0,7.843404770E0
8.789388330E-1,1.675941236E-2,-5.949591160E0,7.845798969E0
8.809197550E-1,-1.436521020E-2,-5.978321552E0,7.833827972E0
8.829355230E-1,-3.830722719E-2,-5.999869347E0,7.845798969E0
8.849185210E-1,-5.267243832E-2,-6.016628742E0,7.845798969E0
8.869327500E-1,-8.619125932E-2,-6.040570736E0,7.852981567E0
8.889163640E-1,-1.053448766E-1,-6.069301128E0,7.864952564E0
8.909302850E-1,-1.580173075E-1,-6.071695328E0,7.862558365E0
8.929142070E-1,-1.771709323E-1,-6.107608318E0,7.876923561E0
8.949286670E-1,-1.939303428E-1,-6.105214119E0,7.881711960E0
8.969428950E-1,-2.394201756E-1,-6.129156113E0,7.908048153E0
8.989265870E-1,-2.633621991E-1,-6.141127586E0,7.920019150E0
9.009410460E-1,-2.753331959E-1,-6.145915985E0,7.922413349E0
9.029240450E-1,-2.681505978E-1,-6.150704384E0,7.939172745E0
9.049385820E-1,-2.681505978E-1,-6.145915985E0,7.951143742E0
9.069212720E-1,-2.801215947E-1,-6.138733387E0,7.963114738E0
9.089351940E-1,-3.040636182E-1,-6.160281181E0,7.967903137E0
9.109197310E-1,-2.992752194E-1,-6.181828976E0,7.960720539E0
9.129339590E-1,-2.992752194E-1,-6.186617374E0,7.946355343E0
9.149170350E-1,-3.112462163E-1,-6.179434776E0,7.934384346E0
9.169311100E-1,-2.944868207E-1,-6.172252178E0,7.934384346E0
9.189172630E-1,-2.801215947E-1,-6.177040577E0,7.936778545E0
9.209301840E-1,-2.609679997E-1,-6.167463779E0,7.934384346E0
9.229126440E-1,-2.537853718E-1,-6.150704384E0,7.912836552E0
9.249274120E-1,-2.226607651E-1,-6.157886982E0,7.903259754E0
9.269412560E-1,-2.059013397E-1,-6.167463779E0,7.886500359E0
9.289250240E-1,-1.915361285E-1,-6.167463779E0,7.881711960E0
9.309394840E-1,-1.651999205E-1,-6.174646378E0,7.874529362E0
9.329225590E-1,-1.221042871E-1,-6.189011574E0,7.879317760E0
9.349363270E-1,-1.053448766E-1,-6.198588371E0,7.874529362E0
9.369218640E-1,-9.337386489E-2,-6.210559368E0,7.869740963E0
9.389351690E-1,-7.900865376E-2,-6.246472359E0,7.862558365E0
9.409179370E-1,-7.422025502E-2,-6.248866558E0,7.860164165E0
9.429327050E-1,-6.703764945E-2,-6.258443356E0,7.869740963E0
9.449163190E-1,-6.943184882E-2,-6.275202751E0,7.888894558E0
9.469304710E-1,-6.703764945E-2,-6.287173748E0,7.893682957E0
9.489136230E-1,-1.005564705E-1,-6.313509941E0,7.886500359E0
9.509280830E-1,-1.029506698E-1,-6.308721542E0,7.857769966E0
9.529425430E-1,-1.077390760E-1,-6.311115742E0,7.852981567E0
9.549255420E-1,-1.221042871E-1,-6.306327343E0,7.836222172E0
9.569400010E-1,-1.316810995E-1,-6.303933144E0,7.829039574E0
9.589252300E-1,-1.532289088E-1,-6.299144745E0,7.819462776E0
9.609385370E-1,-1.915361285E-1,-6.282385349E0,7.809885979E0
9.629212270E-1,-2.035071403E-1,-6.272808552E0,7.817068577E0
9.649356870E-1,-2.418143749E-1,-6.248866558E0,7.829039574E0
9.669194550E-1,-2.801215947E-1,-6.222530365E0,7.829039574E0
9.689332990E-1,-2.968810201E-1,-6.205770969E0,7.841010571E0
9.709175290E-1,-3.256114423E-1,-6.203376770E0,7.855375767E0
9.729311420E-1,-3.639186621E-1,-6.200982571E0,7.845798969E0
9.749154480E-1,-3.782838583E-1,-6.179434776E0,7.829039574E0
9.769286780E-1,-3.926490843E-1,-6.167463779E0,7.805097580E0
9.789440600E-1,-4.405331016E-1,-6.141127586E0,7.788338184E0
9.809268290E-1,-4.692635238E-1,-6.143521786E0,7.788338184E0
9.829415190E-1,-5.075707436E-1,-6.133944988E0,7.795520782E0
9.849252090E-1,-5.267243981E-1,-6.143521786E0,7.817068577E0
9.869382080E-1,-5.410895944E-1,-6.155492783E0,7.833827972E0
9.889225140E-1,-5.722141862E-1,-6.165069580E0,7.884106159E0
9.909362820E-1,-5.770025849E-1,-6.186617374E0,7.915230751E0
9.929203570E-1,-5.889736414E-1,-6.200982571E0,7.939172745E0
9.949342010E-1,-5.937620401E-1,-6.215347767E0,7.927201748E0
9.969172000E-1,-5.889736414E-1,-6.203376770E0,7.927201748E0
9.989341210E-1,-5.626373887E-1,-6.177040577E0,7.924807549E0
1.000915966E0,-5.363011956E-1,-6.155492783E0,7.939172745E0
1.002929888E0,-5.123591423E-1,-6.145915985E0,7.951143742E0
1.004913809E0,-4.477157295E-1,-6.133944988E0,7.996633530E0
1.006927962E0,-3.830722570E-1,-6.095637321E0,8.010998726E0
1.008941806E0,-3.447650373E-1,-6.076483727E0,8.003816605E0
1.010925188E0,-2.825157940E-1,-6.045359135E0,7.994239330E0
1.012939726E0,-2.370259613E-1,-6.062118530E0,8.003816605E0
1.014923108E0,-2.106897533E-1,-6.074089527E0,8.022970200E0
1.016938184E0,-1.915361285E-1,-6.093243122E0,8.063671112E0
1.018922182E0,-1.675941199E-1,-6.105214119E0,8.121131897E0
1.020935334E0,-1.628057212E-1,-6.117185116E0,8.140285492E0
1.022919026E0,-1.699883193E-1,-6.162675381E0,8.142680168E0
1.024933177E0,-1.699883193E-1,-6.181828976E0,8.135497093E0
1.026916946E0,-1.532289088E-1,-6.196194172E0,8.128314972E0
1.028931021E0,-1.651999205E-1,-6.186617374E0,8.133103371E0
1.030914788E0,-1.675941199E-1,-6.189011574E0,8.123526573E0
1.032928864E0,-1.867477298E-1,-6.212953568E0,8.099584579E0
1.034942785E0,-1.771709323E-1,-6.227318764E0,8.097189903E0
1.036925860E0,-1.747767180E-1,-6.227318764E0,8.118738174E0
1.038941859E0,-1.628057212E-1,-6.210559368E0,8.159439087E0
1.040923395E0,-1.268926859E-1,-6.210559368E0,8.157045364E0
1.042938702E0,-1.125274822E-1,-6.210559368E0,8.130708694E0
1.044922469E0,-9.816227108E-2,-6.205770969E0,8.075642586E0
1.046936313E0,-8.858546615E-2,-6.193799973E0,8.030152321E0
1.048920005E0,-8.140286058E-2,-6.193799973E0,8.013393402E0
1.050934695E0,-7.182604820E-2,-6.186617374E0,8.006210327E0
1.052917463E0,-6.943184882E-2,-6.208165169E0,8.008605003E0
1.054932000E0,-7.900865376E-2,-6.210559368E0,7.996633530E0
1.056915382E0,-1.053448766E-1,-6.189011574E0,7.946355343E0
1.058930766E0,-1.101332754E-1,-6.179434776E0,7.912836552E0
1.060913764E0,-1.580173075E-1,-6.162675381E0,7.855375767E0
1.062927300E0,-1.963245422E-1,-6.138733387E0,7.807491779E0
1.064941761E0,-2.106897533E-1,-6.133944988E0,7.793126583E0
1.066925759E0,-2.442085743E-1,-6.107608318E0,7.771578789E0
1.068939066E0,-2.561795712E-1,-6.086060524E0,7.778761387E0
1.070923294E0,-2.681505978E-1,-6.069301128E0,7.776367188E0
1.072937215E0,-2.920926213E-1,-6.045359135E0,7.776367188E0
1.074920907E0,-3.136404157E-1,-6.042964935E0,7.714118004E0
1.076935289E0,-3.256114423E-1,-6.038176537E0,7.668628216E0
1.078920827E0,-3.495534360E-1,-6.004657745E0,7.575253963E0
1.080934363E0,-3.663128614E-1,-5.992686749E0,7.508216381E0
1.082915900E0,-3.734954596E-1,-5.980715752E0,7.491456985E0
1.084930976E0,-3.950432837E-1,-5.966350555E0,7.491456985E0
1.086914358E0,-4.046200812E-1,-5.947196960E0,7.503427982E0
1.088928819E0,-4.213795066E-1,-5.947196960E0,7.548917770E0
1.090942740E0,-4.596867263E-1,-5.956773758E0,7.546523571E0
1.092927046E0,-4.668693244E-1,-5.949591160E0,7.501033783E0
1.094940583E0,-4.860229492E-1,-5.925649166E0,7.378929615E0
1.096925120E0,-5.243301988E-1,-5.906495571E0,7.311892033E0
1.098938425E0,-5.315127969E-1,-5.882553577E0,7.311892033E0
1.100921809E0,-5.698199868E-1,-5.844246387E0,7.352593422E0
1.102935961E0,-5.817909837E-1,-5.820304394E0,7.400477409E0
1.104919037E0,-5.961562395E-1,-5.817910194E0,7.431602001E0
1.106933727E0,-5.913678408E-1,-5.822698593E0,7.556100368E0
1.108917494E0,-5.817909837E-1,-5.858611584E0,7.685387611E0
1.110931570E0,-5.841852427E-1,-5.880159378E0,7.714118004E0
1.112915568E0,-5.793967843E-1,-5.940014362E0,7.740454197E0
1.114929182E0,-5.865794420E-1,-5.995080948E0,7.730877399E0
1.116943257E0,-5.937620401E-1,-6.030993938E0,7.735665798E0
1.118928563E0,-6.081272364E-1,-6.105214119E0,7.740454197E0
1.120938408E0,-6.129156351E-1,-6.145915985E0,7.807491779E0
1.122925099E0,-6.607996821E-1,-6.179434776E0,7.838616371E0
1.124939943E0,-7.086837292E-1,-6.203376770E0,7.843404770E0
1.126922326E0,-7.350199223E-1,-6.229712963E0,7.874529362E0
1.128937171E0,-7.829039693E-1,-6.287173748E0,8.078036308E0
1.130921093E0,-7.829039693E-1,-6.366182327E0,8.204929352E0
1.132934706E0,-7.805097699E-1,-6.394912720E0,8.171410561E0
1.134918319E0,-7.637503147E-1,-6.416460514E0,8.075642586E0
1.136932472E0,-6.919242740E-1,-6.471527100E0,8.109161377E0
1.138918086E0,-6.512228847E-1,-6.502651691E0,8.169015884E0
1.140930008E0,-5.147533417E-1,-6.557718277E0,8.209717751E0
1.142914390E0,-4.046200812E-1,-6.591237068E0,8.121131897E0
1.144927850E0,-3.399766386E-1,-6.593631268E0,8.068459511E0
1.146942387E0,-2.489969730E-1,-6.560112476E0,8.001421928E0
1.148926308E0,-1.699883193E-1,-6.521805286E0,7.946355343E0
1.150940153E0,-1.412578970E-1,-6.502651691E0,7.948749542E0
1.152923613E0,-6.703764945E-2,-6.485892296E0,8.044517517E0
1.154938303E0,-2.394201607E-2,-6.423643112E0,8.070854187E0
1.156920841E0,3.112462163E-2,-6.394912720E0,7.996633530E0
1.158937685E0,9.576806426E-2,-6.313509941E0,7.864952564E0
1.160919298E0,1.197100878E-1,-6.284779549E0,7.805097580E0
1.162933374E0,2.011129409E-1,-6.236895561E0,7.726089001E0
1.164917142E0,3.040636182E-1,-6.196194172E0,7.661445618E0
1.166930987E0,3.543418646E-1,-6.198588371E0,7.647080421E0
1.168914908E0,4.836287498E-1,-6.153098583E0,7.649474621E0
1.170928829E0,6.177040339E-1,-6.165069580E0,7.690176010E0
1.172943597E0,6.823474765E-1,-6.179434776E0,7.692570210E0
1.174926980E0,8.068459630E-1,-6.227318764E0,7.680599213E0
1.176942594E0,8.906430602E-1,-6.260837555E0,7.673416615E0
1.178925746E0,9.169792533E-1,-6.277596951E0,7.687781811E0
1.180938667E0,9.552865028E-1,-6.356605530E0,7.697358608E0
1.182921666E0,9.361328483E-1,-6.438008308E0,7.694964409E0
1.184936433E0,9.289502501E-1,-6.485892296E0,7.704541206E0
1.186920124E0,9.050082564E-1,-6.598419666E0,7.771578789E0
1.188934046E0,8.930372596E-1,-6.665457726E0,7.809885979E0
1.190918582E0,8.523358107E-1,-6.780379295E0,7.924807549E0
1.192932504E0,7.996633649E-1,-6.895300865E0,8.034940720E0
1.194915502E0,7.781155705E-1,-6.945579052E0,8.094796181E0
1.196929423E0,6.919242740E-1,-7.053318024E0,8.221688271E0
1.198945115E0,6.320692301E-1,-7.134721279E0,8.355764389E0
1.200928497E0,6.129156351E-1,-7.165845871E0,8.408436775E0
1.202941958E0,5.267243981E-1,-7.208941460E0,8.499416351E0
1.204926033E0,4.596867263E-1,-7.247248650E0,8.616731644E0
1.206939492E0,4.213795066E-1,-7.256825447E0,8.664615631E0
1.208923261E0,3.280056417E-1,-7.254431248E0,8.753201485E0
1.210938259E0,2.633621991E-1,-7.266402245E0,8.863334656E0
1.212921104E0,2.274491638E-1,-7.268796444E0,8.930372238E0
1.214935486E0,1.292868853E-1,-7.259219646E0,9.052476883E0
1.216919561E0,9.337386489E-2,-7.256825447E0,9.169792175E0
1.218933945E0,1.675941236E-2,-7.268796444E0,9.236829758E0
1.220917097E0,-6.943184882E-2,-7.280767441E0,9.334992409E0
1.222931556E0,-1.077390760E-1,-7.266402245E0,9.346963882E0
1.224914940E0,-2.035071403E-1,-7.259219646E0,9.337387085E0
1.226928784E0,-2.681505978E-1,-7.264008045E0,9.392453194E0
1.228942552E0,-3.040636182E-1,-7.261613846E0,9.435548782E0
1.230926320E0,-3.830722570E-1,-7.271190643E0,9.507374763E0
1.232941010E0,-4.285621047E-1,-7.268796444E0,9.557653427E0
1.234924470E0,-4.405331016E-1,-7.271190643E0,9.581595421E0
1.236938315E0,-4.381389022E-1,-7.271190643E0,9.648633003E0
1.238924083E0,-4.141969085E-1,-7.278373241E0,9.686940193E0
1.240936773E0,-4.046200812E-1,-7.278373241E0,9.720458984E0
1.242920079E0,-4.070142806E-1,-7.285555840E0,9.794678688E0
1.244933924E0,-3.974374831E-1,-7.295132637E0,9.849745750E0
1.246918614E0,-3.998316824E-1,-7.287950039E0,9.873687744E0
1.248932074E0,-4.022258818E-1,-7.249642849E0,9.923966408E0
1.250916381E0,-3.926490843E-1,-7.249642849E0,9.959878922E0
1.252929686E0,-3.711012602E-1,-7.254431248E0,9.993397713E0
1.254944147E0,-3.878606856E-1,-7.230489254E0,1.001733971E1
1.256928376E0,-3.926490843E-1,-7.223306656E0,1.002931118E1
1.258942527E0,-3.974374831E-1,-7.204153061E0,1.002931118E1
1.260925296E0,-3.902548850E-1,-7.180211067E0,1.002212811E1
1.262939524E0,-3.902548850E-1,-7.170634270E0,1.001973438E1
1.264923523E0,-3.950432837E-1,-7.132327080E0,9.983820915E0
1.266936983E0,-3.950432837E-1,-7.082048416E0,9.971850395E0
1.268921289E0,-3.878606856E-1,-7.060500622E0,9.974244118E0
1.270935134E0,-3.926490843E-1,-7.012616634E0,9.959878922E0
1.272918901E0,-3.854664862E-1,-6.955155849E0,9.919178009E0
1.274933285E0,-3.878606856E-1,-6.928819656E0,9.897629738E0
1.276916437E0,-3.711012602E-1,-6.888118267E0,9.861717224E0
1.278932358E0,-3.615244627E-1,-6.840234280E0,9.818621635E0
1.280914203E0,-3.615244627E-1,-6.823474884E0,9.811438560E0
1.282929355E0,-3.112462163E-1,-6.785167694E0,9.782708168E0
1.284942814E0,-2.896983922E-1,-6.801927090E0,9.770736694E0
1.286926582E0,-2.274491638E-1,-6.801927090E0,9.780313492E0
1.288940350E0,-1.077390760E-1,-6.816292286E0,9.737217903E0
1.290924041E0,-5.746084079E-2,-6.813898087E0,9.651026726E0
1.292937654E0,1.675941236E-2,-6.787561893E0,9.595960617E0
1.294921652E0,4.309562966E-2,-6.782773495E0,9.696516991E0
1.296937344E0,4.070143029E-2,-6.766014099E0,9.706093788E0
1.298920649E0,-1.436521020E-2,-6.698976517E0,9.696516991E0
1.300933956E0,-1.125274822E-1,-6.641515732E0,9.682151794E0
1.302917262E0,-1.747767180E-1,-6.612784863E0,9.631873131E0
1.304932337E0,-2.849099934E-1,-6.531382084E0,9.581595421E0
1.306915720E0,-4.046200812E-1,-6.490680695E0,9.569623947E0
1.308929564E0,-4.429273009E-1,-6.473921299E0,9.526528358E0
1.310943409E0,-5.267243981E-1,-6.445190907E0,9.528923035E0
1.312927177E0,-5.674257874E-1,-6.440402508E0,9.555258751E0
1.314941867E0,-6.129156351E-1,-6.442796707E0,9.550470352E0
1.316924712E0,-6.991068721E-1,-6.423643112E0,9.567230225E0
1.318940941E0,-7.302315235E-1,-6.428431511E0,9.579200745E0
1.320923401E0,-7.948749661E-1,-6.430825710E0,9.574412346E0
1.322936630E0,-8.643068075E-1,-6.416460514E0,9.588777542E0
1.324920705E0,-8.978256583E-1,-6.426037312E0,9.607931137E0
1.326935397E0,-9.481038451E-1,-6.454767704E0,9.615114212E0
1.328918472E0,-1.005564690E0,-6.488286495E0,9.605537415E0
1.330932623E0,-1.017535686E0,-6.512228489E0,9.605537415E0
1.332916084E0,-1.058237195E0,-6.526593685E0,9.562441826E0
1.334930774E0,-1.094150186E0,-6.543353081E0,9.531316757E0
1.336914542E0,-1.113303781E0,-6.538564682E0,9.509769440E0
1.338929617E0,-1.098938584E0,-6.528987885E0,9.459490776E0
1.340942846E0,-1.074996591E0,-6.521805286E0,9.409213066E0
1.342926230E0,-1.063025594E0,-6.507440090E0,9.397241592E0
1.344940612E0,-1.034295082E0,-6.461950302E0,9.334992409E0
1.346924072E0,-9.648633003E-1,-6.418854713E0,9.289502144E0
1.348937609E0,-9.193734527E-1,-6.382941723E0,9.275136948E0
1.350922223E0,-8.259995580E-1,-6.315904140E0,9.248801231E0
1.352936606E0,-7.733271718E-1,-6.284779549E0,9.248801231E0
1.354919143E0,-6.560112834E-1,-6.220136166E0,9.227252960E0
1.356933526E0,-5.315127969E-1,-6.181828976E0,9.203310966E0
1.358919063E0,-4.644751251E-1,-6.162675381E0,9.196128845E0
1.360930446E0,-3.399766386E-1,-6.112396717E0,9.179368973E0
1.362915368E0,-2.298433632E-1,-6.062118530E0,9.172186852E0
1.364928904E0,-1.891419291E-1,-6.038176537E0,9.169792175E0
1.366943979E0,-1.268926859E-1,-6.016628742E0,9.193734169E0
1.368927055E0,-9.097966552E-2,-5.997475147E0,9.287108421E0
1.370940668E0,-7.422025502E-2,-5.983109951E0,9.399636269E0
1.372923974E0,-9.097966552E-2,-5.956773758E0,9.660603523E0
1.374939358E0,-1.747767180E-1,-5.944802761E0,9.923966408E0
1.376923740E0,-2.513911724E-1,-5.942408562E0,1.003888798E1
1.378937278E0,-4.453215301E-1,-5.899312973E0,1.023042393E1
1.380921199E0,-5.602431893E-1,-5.813121796E0,1.029985619E1
1.382935043E0,-8.331822157E-1,-5.765237808E0,1.025675964E1
1.384918196E0,-1.089361787E0,-5.645527840E0,9.993397713E0
1.386932655E0,-1.170764685E0,-5.578489780E0,9.775525093E0
1.388915731E0,-1.237802267E0,-5.468356609E0,9.227252960E0
1.390930114E0,-1.149216771E0,-5.367800236E0,8.664615631E0
1.392913574E0,-1.017535686E0,-5.339069843E0,8.420407295E0
1.394927726E0,-6.153098345E-1,-5.324704647E0,8.025363922E0
1.396941571E0,-7.422025502E-2,-5.315127850E0,7.809885979E0
1.398927031E0,2.178723514E-1,-5.317522049E0,7.781155586E0
1.400940568E0,8.403648138E-1,-5.336675644E0,7.773972988E0
1.402923027E0,1.391031146E0,-5.351040840E0,7.891288757E0
1.404938103E0,1.630451322E0,-5.355829239E0,7.972691536E0
1.406921486E0,1.984793186E0,-5.346252441E0,8.118738174E0
1.408935714E0,2.099714994E0,-5.272032261E0,8.228871346E0
1.410919406E0,2.073378563E0,-5.236119270E0,8.267178535E0
1.412933250E0,1.855506301E0,-5.145139217E0,8.329427719E0
1.414916634E0,1.675941229E0,-5.008669853E0,8.346187592E0
1.416932016E0,1.197100878E0,-4.948814869E0,8.360552788E0
1.418915706E0,6.560112834E-1,-4.862623692E0,8.370129585E0
1.420929167E0,3.974374831E-1,-4.826710701E0,8.389283180E0
1.422943396E0,-5.506663769E-2,-4.805162907E0,8.453926086E0
1.424926472E0,-4.357447028E-1,-4.829104900E0,8.540117264E0
1.426940547E0,-5.913678408E-1,-4.857835293E0,8.571242332E0
1.428924006E0,-8.331822157E-1,-4.951209068E0,8.643068314E0
1.430939082E0,-9.864110947E-1,-5.032611847E0,8.700529099E0
1.432922695E0,-1.027112484E0,-5.068524837E0,8.722076416E0
1.434936540E0,-1.110909581E0,-5.149928093E0,8.774748802E0
1.436919692E0,-1.151610970E0,-5.248090267E0,8.884882927E0
1.438935075E0,-1.177947283E0,-5.298368454E0,8.932766914E0
1.440918997E0,-1.180341482E0,-5.367800236E0,9.028534889E0
1.442931072E0,-1.185129881E0,-5.386953831E0,9.114726067E0
1.444915993E0,-1.185129881E0,-5.386953831E0,9.148244858E0
1.446929761E0,-1.199495077E0,-5.374982834E0,9.191340446E0
1.448913452E0,-1.197100878E0,-5.365406036E0,9.222464561E0
1.450927682E0,-1.189918280E0,-5.339069843E0,9.260771751E0
1.452941833E0,-1.156399369E0,-5.305551052E0,9.323021889E0
1.454925447E0,-1.144428372E0,-5.262455463E0,9.354146004E0
1.456940830E0,-1.120486379E0,-5.195417881E0,9.414001465E0
1.458924521E0,-1.125274777E0,-5.125985622E0,9.469067574E0
1.460937443E0,-1.132457376E0,-5.092466831E0,9.502586365E0
1.462921518E0,-1.151610970E0,-5.006275654E0,9.555258751E0
1.464934670E0,-1.180341482E0,-4.929661274E0,9.572018623E0
1.466919053E0,-1.204283476E0,-4.896142483E0,9.557653427E0
1.468932897E0,-1.249773264E0,-4.805162907E0,9.521739960E0
1.470916818E0,-1.278503656E0,-4.730942726E0,9.490615845E0
1.472931279E0,-1.273715258E0,-4.697423935E0,9.488221169E0
1.474914354E0,-1.225831270E0,-4.651933670E0,9.488221169E0
1.476927584E0,-1.113303781E0,-4.613626480E0,9.488221169E0
1.478944812E0,-1.053448796E0,-4.582501888E0,9.476250648E0
1.480927041E0,-9.050082564E-1,-4.525041103E0,9.454702377E0
1.482939886E0,-8.188169599E-1,-4.484339714E0,9.442731857E0
1.484925115E0,-6.655880809E-1,-4.472368717E0,9.406818390E0
1.486938037E0,-5.123591423E-1,-4.448426723E0,9.382876396E0
1.488922420E0,-4.453215301E-1,-4.436455727E0,9.368511200E0
1.490935649E0,-3.088520169E-1,-4.398148537E0,9.346963882E0
1.492919648E0,-2.106897533E-1,-4.355052948E0,9.313444138E0
1.494933723E0,-1.723825186E-1,-4.328716755E0,9.272743225E0
1.496918105E0,-1.101332754E-1,-4.254496574E0,9.136273384E0
1.498933181E0,-8.858546615E-2,-4.156333923E0,8.992621422E0
1.500916179E0,-7.900865376E-2,-4.091690540E0,8.923190117E0
1.502929717E0,-1.053448766E-1,-3.962403774E0,8.798690796E0
1.504914099E0,-1.651999205E-1,-3.818751812E0,8.700529099E0
1.506927020E0,-2.035071403E-1,-3.756502390E0,8.671798706E0
1.508941173E0,-2.873041928E-1,-3.658340216E0,8.657433510E0
1.510925710E0,-3.375824392E-1,-3.581725836E0,8.707711220E0
1.512938939E0,-4.333505034E-1,-3.555389643E0,8.734047890E0
1.514923322E0,-5.195417404E-1,-3.509899616E0,8.784325600E0
1.516937397E0,-5.578489900E-1,-3.505111217E0,8.805873871E0
1.518922627E0,-6.488286853E-1,-3.495534420E0,8.844181061E0
1.520931548E0,-7.158663273E-1,-3.493140221E0,8.906430244E0
1.522918931E0,-7.374141216E-1,-3.497928619E0,8.942343712E0
1.524933083E0,-8.116343617E-1,-3.529053211E0,9.014169693E0
1.526916543E0,-8.906430602E-1,-3.543418407E0,9.064447403E0
1.528931003E0,-9.361328483E-1,-3.557783842E0,9.095572472E0
1.530914001E0,-1.019929886E0,-3.586514235E0,9.119514465E0
1.532929076E0,-1.122880578E0,-3.579331636E0,9.100360870E0
1.534942383E0,-1.175553083E0,-3.576937437E0,9.071630478E0
1.536926612E0,-1.264138460E0,-3.543418407E0,9.009381294E0
1.538941072E0,-1.350329757E0,-3.519476414E0,8.951920509E0
1.540924532E0,-1.395819545E0,-3.505111217E0,8.930372238E0
1.542938376E0,-1.486799240E0,-3.462015629E0,8.932766914E0
1.544922606E0,-1.539471745E0,-3.411737442E0,8.944737434E0
1.546935911E0,-1.618480325E0,-3.383007050E0,8.947132111E0
1.548919834E0,-1.659181833E0,-3.323152065E0,8.947132111E0
1.550933985E0,-1.675941229E0,-3.311181068E0,8.944737434E0
1.552917983E0,-1.695094824E0,-3.244143248E0,8.947132111E0
1.554931598E0,-1.726219416E0,-3.184288263E0,8.930372238E0
1.556914980E0,-1.728613615E0,-3.174711466E0,8.935160637E0
1.558931209E0,-1.699883223E0,-3.157952070E0,8.942343712E0
1.560914362E0,-1.637633920E0,-3.122039080E0,8.935160637E0
1.562926975E0,-1.594538331E0,-3.107673883E0,8.935160637E0
1.564941051E0,-1.522712231E0,-3.050212860E0,8.920795441E0
1.566925742E0,-1.436521053E0,-3.043030262E0,8.904036522E0
1.568939278E0,-1.376665950E0,-3.031059265E0,8.889671326E0
1.570921969E0,-1.252167463E0,-2.999934673E0,8.851364136E0
1.572937121E0,-1.115697980E0,-2.949656487E0,8.796297073E0
1.574920736E0,-1.043871999E0,-2.908955097E0,8.762778282E0
1.576934964E0,-9.050082564E-1,-2.873042107E0,8.690952301E0
1.578918886E0,-8.403648138E-1,-2.808398485E0,8.650250435E0
1.580933115E0,-7.038952708E-1,-2.779668093E0,8.588001251E0
1.582916498E0,-5.985504389E-1,-2.731784105E0,8.520963669E0
1.584929958E0,-5.363011956E-1,-2.700659513E0,8.497021675E0
1.586914264E0,-4.453215301E-1,-2.631227732E0,8.439560890E0
1.588927878E0,-3.663128614E-1,-2.588132143E0,8.386888504E0
1.590941723E0,-3.256114423E-1,-2.561795712E0,8.362946510E0
1.592925413E0,-2.657563984E-1,-2.523488522E0,8.322244644E0
1.594939796E0,-2.130839527E-1,-2.501940727E0,8.312667847E0
1.596923179E0,-1.891419291E-1,-2.485181332E0,8.310274124E0
1.598939562E0,-1.532289088E-1,-2.458845139E0,8.288725853E0
1.600920407E0,-1.221042871E-1,-2.442085743E0,8.245630264E0
1.602935867E0,-1.053448766E-1,-2.427720547E0,8.228871346E0
1.604919557E0,-1.005564705E-1,-2.382230759E0,8.166622162E0
1.606933633E0,-8.379705995E-2,-2.341529369E0,8.121131897E0
1.608917400E0,-7.182604820E-2,-2.317587137E0,8.106766701E0
1.610931553E0,-8.140286058E-2,-2.293645144E0,8.068459511E0
1.612914628E0,-7.900865376E-2,-2.274491549E0,8.061277390E0
1.614929626E0,-9.097966552E-2,-2.221819162E0,8.034940720E0
1.616913317E0,-1.101332754E-1,-2.178723574E0,8.015787125E0
1.618927238E0,-1.244984865E-1,-2.138022184E0,8.020575523E0
1.620941621E0,-1.867477298E-1,-2.085349798E0,8.042123795E0
1.622925081E0,-2.322375625E-1,-2.059013367E0,8.094796181E0
1.624938233E0,-2.513911724E-1,-2.047042370E0,8.130708694E0
1.626922617E0,-3.136404157E-1,-2.013523579E0,8.190564156E0
1.628936076E0,-4.094084799E-1,-1.996764183E0,8.212111473E0
1.630919844E0,-4.620809257E-1,-1.991975784E0,8.226476669E0
1.632934612E0,-5.722141862E-1,-1.984793186E0,8.233659744E0
1.634917995E0,-6.751648784E-1,-1.956062794E0,8.233659744E0
1.636931840E0,-7.398083210E-1,-1.951274395E0,8.233659744E0
1.638917376E0,-8.738836050E-1,-1.927332401E0,8.216899872E0
1.640930297E0,-1.017535686E0,-1.910573006E0,8.197746277E0
1.642913373E0,-1.086967587E0,-1.920149803E0,8.207323074E0
1.644928140E0,-1.223437071E0,-1.893813491E0,8.236053467E0
1.646941678E0,-1.285686255E0,-1.884236693E0,8.245630264E0
1.648925368E0,-1.405396342E0,-1.898601890E0,8.252813339E0
1.650940366E0,-1.515529633E0,-1.865083098E0,8.238448143E0
1.652923134E0,-1.549048543E0,-1.850717902E0,8.202534676E0
1.654937902E0,-1.630451322E0,-1.831564307E0,8.106766701E0
1.656921900E0,-1.685518026E0,-1.812410712E0,7.991845131E0
1.658936976E0,-1.711854219E0,-1.800439715E0,7.958326340E0
1.660919127E0,-1.750161409E0,-1.762132406E0,7.920019150E0
1.662933049E0,-1.778891921E0,-1.731007814E0,7.910442352E0
1.664917355E0,-1.788468719E0,-1.711854219E0,7.915230751E0
1.666931199E0,-1.781286120E0,-1.678335428E0,7.924807549E0
1.668915121E0,-1.774103403E0,-1.647210717E0,7.912836552E0
1.670929273E0,-1.757344007E0,-1.647210717E0,7.903259754E0
1.672943503E0,-1.685518026E0,-1.647210717E0,7.917624950E0
1.674926501E0,-1.666364431E0,-1.628057122E0,7.910442352E0
1.676940345E0,-1.651999116E0,-1.616086125E0,7.920019150E0
1.678926190E0,-1.616086125E0,-1.630451322E0,7.903259754E0
1.680939727E0,-1.582567334E0,-1.640028119E0,7.879317760E0
1.682922186E0,-1.510741234E0,-1.649604917E0,7.812280178E0
1.684936108E0,-1.429338455E0,-1.649604917E0,7.747636795E0
1.686920414E0,-1.374271750E0,-1.656787634E0,7.716512203E0
1.688934259E0,-1.273715258E0,-1.649604917E0,7.685387611E0
1.690917873E0,-1.163581967E0,-1.647210717E0,7.661445618E0
1.692932640E0,-1.106121182E0,-1.644816518E0,7.647080421E0
1.694914870E0,-1.005564690E0,-1.635239720E0,7.642292023E0
1.696930560E0,-9.145850539E-1,-1.628057122E0,7.618350029E0
1.698913867E0,-8.738836050E-1,-1.628057122E0,7.603984833E0
1.700927788E0,-7.900865674E-1,-1.618480325E0,7.560888767E0
1.702941863E0,-6.967126727E-1,-1.599326730E0,7.524975777E0
1.704925939E0,-6.560112834E-1,-1.582567334E0,7.505822182E0
1.706939398E0,-5.722141862E-1,-1.558625340E0,7.453149796E0
1.708923090E0,-5.434837937E-1,-1.534683347E0,7.431602001E0
1.710937011E0,-4.836287498E-1,-1.513135433E0,7.412448406E0
1.712920624E0,-3.926490843E-1,-1.508347034E0,7.395689011E0
1.714934854E0,-3.663128614E-1,-1.508347034E0,7.393294811E0
1.716918159E0,-3.327940404E-1,-1.505952835E0,7.405265808E0
1.718934773E0,-2.801215947E-1,-1.470039845E0,7.438784599E0
1.720916695E0,-2.513911724E-1,-1.465251446E0,7.455543995E0
1.722929847E0,-2.274491638E-1,-1.474828243E0,7.474697590E0
1.724914461E0,-2.082955539E-1,-1.477222443E0,7.481880188E0
1.726928382E0,-2.106897533E-1,-1.477222443E0,7.486668587E0
1.728941919E0,-2.154781520E-1,-1.498770237E0,7.484274387E0
1.730926225E0,-2.657563984E-1,-1.496376038E0,7.474697590E0
1.732939762E0,-2.944868207E-1,-1.503558636E0,7.474697590E0
1.734923992E0,-3.327940404E-1,-1.541865945E0,7.460332394E0
1.736938759E0,-3.711012602E-1,-1.549048543E0,7.472303391E0
1.738923142E0,-4.022258818E-1,-1.558625340E0,7.479485989E0
1.740936294E0,-4.596867263E-1,-1.606509328E0,7.501033783E0
1.742919446E0,-4.955997467E-1,-1.673547029E0,7.522581577E0
1.744933521E0,-5.602431893E-1,-1.702277422E0,7.565677166E0
1.746917212E0,-6.224924326E-1,-1.745373011E0,7.580042362E0
1.748931749E0,-6.584054828E-1,-1.771709204E0,7.584830761E0
1.750914825E0,-7.230489254E-1,-1.838746905E0,7.589619160E0
1.752928900E0,-7.733271718E-1,-1.881842494E0,7.615955830E0
1.754943667E0,-7.996633649E-1,-1.898601890E0,7.630321026E0
1.756926743E0,-8.427590132E-1,-1.965639591E0,7.659051418E0
1.758943433E0,-8.906430602E-1,-2.025494576E0,7.704541206E0
1.760924355E0,-9.121908545E-1,-2.054224968E0,7.723694801E0
1.762939123E0,-9.241618514E-1,-2.126051188E0,7.752425194E0
1.764922198E0,-9.337386489E-1,-2.183511972E0,7.778761387E0
1.766937273E0,-9.385270476E-1,-2.202665567E0,7.783549786E0
1.768920348E0,-9.504981041E-1,-2.233790159E0,7.795520782E0
1.770935040E0,-9.361328483E-1,-2.272097349E0,7.793126583E0
1.772918192E0,-9.145850539E-1,-2.286462545E0,7.802703381E0
1.774932882E0,-9.002198577E-1,-2.305616140E0,7.809885979E0
1.776917189E0,-8.906430602E-1,-2.331952572E0,7.805097580E0
1.778931648E0,-8.355764151E-1,-2.339135170E0,7.783549786E0
1.780914723E0,-7.781155705E-1,-2.355894566E0,7.769184589E0
1.782927953E0,-7.422025204E-1,-2.365471363E0,7.752425194E0
1.784942182E0,-6.631938815E-1,-2.387019157E0,7.706935406E0
1.786926104E0,-5.770025849E-1,-2.384624958E0,7.639897823E0
1.788939717E0,-5.386953950E-1,-2.384624958E0,7.611167431E0
1.790923946E0,-4.405331016E-1,-2.425326347E0,7.548917770E0
1.792937560E0,-3.303998411E-1,-2.475604534E0,7.513004780E0
1.794921251E0,-2.681505978E-1,-2.487575531E0,7.505822182E0
1.796934711E0,-1.460463107E-1,-2.518700123E0,7.462726593E0
1.798920555E0,-5.267243832E-2,-2.552218914E0,7.462726593E0
1.800933476E0,-1.197100803E-2,-2.561795712E0,7.443572998E0
1.802917475E0,7.422025502E-2,-2.616862535E0,7.402871609E0
1.804930781E0,1.436520964E-1,-2.652775526E0,7.400477409E0
1.806915087E0,1.771709323E-1,-2.679111719E0,7.405265808E0
1.808929240E0,2.346317619E-1,-2.710236311E0,7.433996201E0
1.810943391E0,2.418143749E-1,-2.731784105E0,7.453149796E0
1.812926775E0,2.298433632E-1,-2.786850691E0,7.515398979E0
1.814940619E0,2.178723514E-1,-2.817975283E0,7.592013359E0
1.816926079E0,2.059013397E-1,-2.846705914E0,7.625532627E0
1.818940308E0,1.699883193E-1,-2.901772499E0,7.687781811E0
1.820922383E0,1.005564705E-1,-2.949656487E0,7.747636795E0
1.822937152E0,5.506663769E-2,-2.980781078E0,7.778761387E0
1.824919996E0,-3.591302410E-2,-3.055001259E0,7.824251175E0
1.826934455E0,-1.221042871E-1,-3.129221678E0,7.872135162E0
1.828917839E0,-1.628057212E-1,-3.160346270E0,7.891288757E0
1.830931991E0,-2.394201756E-1,-3.236960649E0,7.903259754E0
1.832915990E0,-3.471592367E-1,-3.337517262E0,7.922413349E0
1.834930757E0,-3.854664862E-1,-3.385401249E0,7.924807549E0
1.836913524E0,-4.620809257E-1,-3.473986626E0,7.908048153E0
1.838929139E0,-5.003881454E-1,-3.548206806E0,7.924807549E0
1.840941214E0,-5.291185975E-1,-3.608062029E0,7.927201748E0
1.842925750E0,-5.339069963E-1,-3.679888010E0,7.948749542E0
1.844939364E0,-5.315127969E-1,-3.722983599E0,7.965508938E0
1.846922978E0,-5.219359994E-1,-3.825934410E0,8.008605003E0
1.848937208E0,-4.836287498E-1,-3.912125587E0,8.042123795E0
1.850921744E0,-4.620809257E-1,-3.955221176E0,8.056488991E0
1.852935588E0,-3.926490843E-1,-4.053383350E0,8.078036308E0
1.854919049E0,-3.423708379E-1,-4.132391930E0,8.104372978E0
1.856933816E0,-3.136404157E-1,-4.165910721E0,8.106766701E0
1.858918123E0,-2.561795712E-1,-4.237737179E0,8.123526573E0
1.860932198E0,-2.035071403E-1,-4.295197964E0,8.145073891E0
1.862914734E0,-1.747767180E-1,-4.314351559E0,8.152256966E0
1.864929425E0,-1.340752989E-1,-4.357447147E0,8.161833763E0
1.866912577E0,-8.619125932E-2,-4.376600742E0,8.159439087E0
1.868926960E0,-6.943184882E-2,-4.381389141E0,8.147468567E0
1.870940805E0,-2.873042040E-2,-4.405331135E0,8.133103371E0
1.872924495E0,-1.436521020E-2,-4.402936935E0,8.135497093E0
1.874938417E0,2.633621916E-2,-4.400542736E0,8.157045364E0
1.876922108E0,5.267243832E-2,-4.398148537E0,8.154650688E0
1.878938029E0,7.900865376E-2,-4.386177540E0,8.140285492E0
1.880920566E0,1.077390760E-1,-4.388571739E0,8.166622162E0
1.882933718E0,1.412578970E-1,-4.374206543E0,8.228871346E0
1.884917794E0,1.699883193E-1,-4.357447147E0,8.252813339E0
1.886932254E0,2.106897533E-1,-4.345476151E0,8.293514252E0
1.888916175E0,2.442085743E-1,-4.340687752E0,8.327033043E0
1.890929712E0,2.729389966E-1,-4.338293552E0,8.346187592E0
1.892913172E0,3.088520169E-1,-4.331110954E0,8.386888504E0
1.894927632E0,3.639186621E-1,-4.331110954E0,8.422801971E0
1.896942400E0,3.830722570E-1,-4.323928356E0,8.444349289E0
1.898926398E0,4.237737060E-1,-4.316745758E0,8.468291283E0
1.900939320E0,4.548983276E-1,-4.321534157E0,8.475474358E0
1.902923318E0,4.692635238E-1,-4.309563160E0,8.477868080E0
1.904937162E0,4.932055473E-1,-4.316745758E0,8.499416351E0
1.906921084E0,5.123591423E-1,-4.319139957E0,8.504204750E0
1.908935005E0,5.339069963E-1,-4.331110954E0,8.525752068E0
1.910919004E0,5.458779931E-1,-4.335899353E0,8.547300339E0
1.912933156E0,5.506663918E-1,-4.347870350E0,8.576030731E0
1.914916538E0,5.410895944E-1,-4.357447147E0,8.609549522E0
1.916930076E0,5.219359994E-1,-4.362235546E0,8.602366447E0
1.918915228E0,5.123591423E-1,-4.376600742E0,8.590395927E0
1.920925073E0,4.908113480E-1,-4.374206543E0,8.549694061E0
1.922943532E0,4.716577232E-1,-4.400542736E0,8.518569946E0
1.924926684E0,4.572925270E-1,-4.395754337E0,8.508993149E0
1.926940760E0,4.237737060E-1,-4.431667328E0,8.489839554E0
1.928924451E0,3.950432837E-1,-4.441244125E0,8.477868080E0
1.930938372E0,3.758896589E-1,-4.460397720E0,8.468291283E0
1.932921755E0,3.567360640E-1,-4.493916512E0,8.477868080E0
1.934936215E0,3.471592367E-1,-4.529829502E0,8.504204750E0
1.936920521E0,3.495534360E-1,-4.548983097E0,8.523358345E0
1.938934289E0,3.591302633E-1,-4.575319290E0,8.554482460E0
1.940917671E0,3.471592367E-1,-4.599261284E0,8.556877136E0
1.942931593E0,3.495534360E-1,-4.635174274E0,8.559270859E0
1.944914976E0,3.782838583E-1,-4.666299343E0,8.525752068E0
1.946929129E0,4.046200812E-1,-4.671087742E0,8.523358345E0
1.948912742E0,4.501099288E-1,-4.699818134E0,8.513781548E0
1.950927817E0,4.764461517E-1,-4.735731125E0,8.499416351E0
1.952941124E0,4.884171486E-1,-4.745307922E0,8.492233276E0
1.954925430E0,5.363011956E-1,-4.769249916E0,8.501810074E0
1.956938659E0,5.841852427E-1,-4.793191910E0,8.506598473E0
1.958925427E0,6.129156351E-1,-4.805162907E0,8.511386871E0
1.960937655E0,6.895300746E-1,-4.819528103E0,8.497021675E0
1.962919808E0,7.637503147E-1,-4.805162907E0,8.489839554E0
1.964934652E0,7.661445141E-1,-4.790797710E0,8.487444878E0
1.966918958E0,7.876923680E-1,-4.790797710E0,8.511386871E0
1.968932188E0,8.212111592E-1,-4.754884720E0,8.513781548E0
1.970916494E0,8.355764151E-1,-4.735731125E0,8.516175270E0
1.972930262E0,8.571242094E-1,-4.714183331E0,8.528146744E0
1.974914875E0,8.667010069E-1,-4.692635536E0,8.537723541E0
1.976928181E0,8.834604025E-1,-4.659116745E0,8.578424454E0
1.978943488E0,9.097966552E-1,-4.618414879E0,8.626308441E0
1.980926255E0,9.121908545E-1,-4.604049683E0,8.640673637E0
1.982940715E0,9.385270476E-1,-4.577713490E0,8.686163902E0
1.984923790E0,9.457096457E-1,-4.513070107E0,8.746018410E0
1.986937942E0,9.433154464E-1,-4.501099110E0,8.760383606E0
1.988921633E0,9.385270476E-1,-4.467580318E0,8.805873871E0
1.990935478E0,9.576807022E-1,-4.462791920E0,8.841787338E0
1.992919476E0,9.600749016E-1,-4.455609322E0,8.868123055E0
1.994933628E0,9.576807022E-1,-4.436455727E0,8.906430244E0
1.996916473E0,9.576807022E-1,-4.446032524E0,8.935160637E0
1.998933318E0,9.528923035E-1,-4.455609322E0,8.959102631E0
2.000914623E0,9.696516991E-1,-4.465186119E0,9.002198219E0
2.002928698E0,9.672574997E-1,-4.460397720E0,9.026140213E0
2.004943774E0,9.792284966E-1,-4.465186119E0,9.030928612E0
2.006927542E0,1.010353088E0,-4.489128113E0,9.033323288E0
2.008941387E0,1.029506683E0,-4.503493309E0,9.030928612E0
2.010924385E0,1.074996591E0,-4.529829502E0,9.038111687E0
2.012939229E0,1.115697980E0,-4.541800499E0,9.023746490E0
2.014922536E0,1.130063176E0,-4.551377296E0,9.014169693E0
2.016937303E0,1.209071875E0,-4.577713490E0,8.971074104E0
2.018921994E0,1.256955862E0,-4.625597477E0,8.906430244E0
2.020934838E0,1.261744261E0,-4.644751072E0,8.870517731E0
2.022917913E0,1.300051570E0,-4.637568474E0,8.817844391E0
2.024933066E0,1.338358760E0,-4.656722069E0,8.772355080E0
2.026916141E0,1.352723956E0,-4.673481941E0,8.755595207E0
2.028929677E0,1.374271750E0,-4.699818134E0,8.729259491E0
2.030913600E0,1.398213744E0,-4.735731125E0,8.664615631E0
2.032927444E0,1.400607944E0,-4.752490520E0,8.611943245E0
2.034942212E0,1.410184860E0,-4.769249916E0,8.501810074E0
2.036925056E0,1.414973259E0,-4.788403511E0,8.453926086E0
2.038940977E0,1.414973259E0,-4.797980309E0,8.367734909E0
2.040923745E0,1.405396342E0,-4.831499100E0,8.343792915E0
2.042937051E0,1.388636947E0,-4.848258495E0,8.348581314E0
2.044921358E0,1.357512355E0,-4.891354084E0,8.343792915E0
2.046935125E0,1.333570361E0,-4.912901878E0,8.322244644E0
2.048920046E0,1.316810966E0,-4.929661274E0,8.315062523E0
2.050932968E0,1.290474772E0,-4.955997467E0,8.315062523E0
2.052916428E0,1.256955862E0,-4.979939461E0,8.348581314E0
2.054931118E0,1.242590666E0,-4.996698856E0,8.382100105E0
2.056915425E0,1.233013868E0,-5.018246651E0,8.461109161E0
2.058929884E0,1.256955862E0,-5.042188644E0,8.513781548E0
2.060912729E0,1.254561663E0,-5.070919037E0,8.540117264E0
2.062926497E0,1.235408068E0,-5.102043629E0,8.580819130E0
2.064940649E0,1.235408068E0,-5.106832027E0,8.585607529E0
2.066924032E0,1.225831270E0,-5.111620426E0,8.573636055E0
2.068938799E0,1.194706678E0,-5.137956619E0,8.602366447E0
2.070921952E0,1.182735682E0,-5.147533417E0,8.645462036E0
2.072936412E0,1.170764685E0,-5.169081688E0,8.698134422E0
2.074919794E0,1.144428372E0,-5.193023682E0,8.693346024E0
2.076934178E0,1.146822572E0,-5.207388878E0,8.659827232E0
2.078919714E0,1.144428372E0,-5.228936672E0,8.607154846E0
2.080928713E0,1.108515382E0,-5.257667065E0,8.559270859E0
2.082946558E0,1.098938584E0,-5.260061264E0,8.561665535E0
2.084929248E0,1.091755986E0,-5.288791656E0,8.623914719E0
2.086913632E0,1.086967587E0,-5.339069843E0,8.710105896E0
2.088927707E0,1.082179189E0,-5.370194435E0,8.753201485E0
2.090941935E0,1.091755986E0,-5.430049419E0,8.805873871E0
2.092925242E0,1.101332784E0,-5.506663799E0,8.865729332E0
2.094939778E0,1.106121182E0,-5.547365189E0,8.889671326E0
2.096923777E0,1.137245774E0,-5.643133640E0,8.947132111E0
2.098938160E0,1.165976286E0,-5.719748020E0,9.006986618E0
2.100921543E0,1.180341482E0,-5.760449409E0,9.040505409E0
2.102935465E0,1.201889277E0,-5.829881191E0,9.124302864E0
2.104918847E0,1.223437071E0,-5.875370979E0,9.184157372E0
2.106933308E0,1.261744261E0,-5.963956356E0,9.289502144E0
2.108917229E0,1.290474772E0,-6.035782337E0,9.358934402E0
2.110931150E0,1.309628367E0,-6.062118530E0,9.392453194E0
2.112914457E0,1.359906554E0,-6.119579315E0,9.442731857E0
2.114928916E0,1.388636947E0,-6.169857979E0,9.509769440E0
2.116942761E0,1.410184860E0,-6.189011574E0,9.536105156E0
2.118928375E0,1.460463047E0,-6.227318764E0,9.595960617E0
2.120940988E0,1.486799240E0,-6.256049156E0,9.643844604E0
2.122923987E0,1.496376038E0,-6.282385349E0,9.662998199E0
2.124938524E0,1.520318031E0,-6.325480938E0,9.722852707E0
2.126922137E0,1.549048543E0,-6.361393929E0,9.749189377E0
2.128936059E0,1.561019540E0,-6.375759125E0,9.770736694E0
2.130919673E0,1.568202138E0,-6.399701118E0,9.813833237E0
2.132934133E0,1.568202138E0,-6.390124321E0,9.794678688E0
2.134916977E0,1.584961534E0,-6.402095318E0,9.785101891E0
2.136932898E0,1.594538331E0,-6.428431511E0,9.768342972E0
2.138916359E0,1.596932530E0,-6.433219910E0,9.773131371E0
2.140929203E0,1.584961534E0,-6.442796707E0,9.758766174E0
2.142913202E0,1.589749932E0,-6.428431511E0,9.742006302E0
2.144926815E0,1.589749932E0,-6.421248913E0,9.734824181E0
2.146941813E0,1.592144132E0,-6.428431511E0,9.701305389E0
2.148924966E0,1.599326730E0,-6.423643112E0,9.662998199E0
2.150939118E0,1.584961534E0,-6.411672115E0,9.627084732E0
2.152923116E0,1.589749932E0,-6.394912720E0,9.567230225E0
2.154936884E0,1.601720929E0,-6.390124321E0,9.507374763E0
2.156920267E0,1.601720929E0,-6.373364925E0,9.476250648E0
2.158936343E0,1.611297727E0,-6.351817131E0,9.430760384E0
2.160918418E0,1.592144132E0,-6.320692539E0,9.399636269E0
2.162932339E0,1.580173135E0,-6.308721542E0,9.387664795E0
2.164916876E0,1.575384736E0,-6.296750546E0,9.339780807E0
2.166930182E0,1.565807939E0,-6.263231754E0,9.284713745E0
2.168914720E0,1.546654344E0,-6.244078159E0,9.255983353E0
2.170928641E0,1.525106430E0,-6.210559368E0,9.174580574E0
2.172942485E0,1.513135433E0,-6.205770969E0,9.133879662E0
2.174926099E0,1.479616642E0,-6.167463779E0,9.066842079E0
2.176940866E0,1.424550056E0,-6.141127586E0,9.006986618E0
2.178924326E0,1.395819545E0,-6.136339188E0,8.980650902E0
2.180938479E0,1.321599364E0,-6.110002518E0,8.937555313E0
2.182921477E0,1.271321058E0,-6.066906929E0,8.901641846E0
2.184935322E0,1.237802267E0,-6.054935932E0,8.875306129E0
2.186920012E0,1.185129881E0,-6.033388138E0,8.841787338E0
2.188933164E0,1.134851575E0,-6.007051945E0,8.796297073E0
2.190917471E0,1.096544385E0,-5.992686749E0,8.784325600E0
2.192931392E0,1.036689281E0,-5.961562157E0,8.748413086E0
2.194915391E0,9.864110947E-1,-5.925649166E0,8.719682693E0
2.196928620E0,9.648633003E-1,-5.913678169E0,8.714894295E0
2.198945233E0,8.882488012E-1,-5.872976780E0,8.705317497E0
2.200927617E0,8.379706144E-1,-5.863399982E0,8.707711220E0
2.202940922E0,8.140285611E-1,-5.851428986E0,8.714894295E0
2.204924845E0,7.565677166E-1,-5.825092793E0,8.717288017E0
2.206938766E0,7.230489254E-1,-5.820304394E0,8.717288017E0
2.208922994E0,6.512228847E-1,-5.774814606E0,8.743624687E0
2.210936840E0,5.770025849E-1,-5.753266811E0,8.741230011E0
2.212920607E0,5.339069963E-1,-5.741295815E0,8.734047890E0
2.214934143E0,4.596867263E-1,-5.707777023E0,8.746018410E0
2.216919373E0,3.854664862E-1,-5.681440830E0,8.781931877E0
2.218933448E0,3.495534360E-1,-5.674258232E0,8.777143478E0
2.220915601E0,2.801215947E-1,-5.640739441E0,8.743624687E0
2.222930060E0,1.891419291E-1,-5.604825974E0,8.695740700E0
2.224913520E0,1.364694983E-1,-5.585672379E0,8.662221909E0
2.226927673E0,4.548983276E-2,-5.568912983E0,8.611943245E0
2.228942132E0,-5.027823523E-2,-5.506663799E0,8.588001251E0
2.230925824E0,-9.097966552E-2,-5.475539207E0,8.585607529E0
2.232939899E0,-1.604115069E-1,-5.442020416E0,8.571242332E0
2.234923973E0,-2.154781520E-1,-5.413290024E0,8.559270859E0
2.236937511E0,-2.777273953E-1,-5.372588634E0,8.523358345E0
2.238923894E0,-2.777273953E-1,-5.295974255E0,8.477868080E0
2.240932276E0,-2.705447972E-1,-5.240907669E0,8.458714485E0
2.242919352E0,-2.537853718E-1,-5.219359875E0,8.427590370E0
2.244932889E0,-1.843535304E-1,-5.181052685E0,8.413225174E0
2.246916503E0,-1.316810995E-1,-5.164293289E0,8.410830498E0
2.248931655E0,-4.309562966E-2,-5.152322292E0,8.406042099E0
2.250914961E0,6.943184882E-2,-5.166687489E0,8.391676903E0
2.252928883E0,1.244984865E-1,-5.173870087E0,8.386888504E0
2.254912804E0,2.154781520E-1,-5.171475887E0,8.355764389E0
2.256927572E0,3.088520169E-1,-5.166687489E0,8.315062523E0
2.258942416E0,3.567360640E-1,-5.157110691E0,8.305485725E0
2.260924568E0,4.189853072E-1,-5.121197224E0,8.271966934E0
2.262938644E0,4.333505034E-1,-5.087678432E0,8.264783859E0
2.264922103E0,4.405331016E-1,-5.070919037E0,8.257601738E0
2.266935949E0,4.357447028E-1,-5.006275654E0,8.233659744E0
2.268919947E0,4.405331016E-1,-4.972756863E0,8.221688271E0
2.270934098E0,4.453215301E-1,-4.924872875E0,8.238448143E0
2.272917790E0,4.070142806E-1,-4.872200489E0,8.264783859E0
2.274932172E0,3.974374831E-1,-4.841075897E0,8.279149055E0
2.276914632E0,4.070142806E-1,-4.797980309E0,8.322244644E0
2.278931323E0,3.878606856E-1,-4.762067318E0,8.365341187E0
2.280914706E0,3.830722570E-1,-4.742913723E0,8.384494781E0
2.282927320E0,3.734954596E-1,-4.711789131E0,8.429984093E0
2.284942626E0,3.303998411E-1,-4.656722069E0,8.499416351E0
2.286925778E0,3.088520169E-1,-4.635174274E0,8.544905663E0
2.288939854E0,2.920926213E-1,-4.618414879E0,8.623914719E0
2.290923929E0,2.585737705E-1,-4.618414879E0,8.717288017E0
2.292937774E0,2.513911724E-1,-4.599261284E0,8.746018410E0
2.294920464E0,1.843535304E-1,-4.572925091E0,8.808267593E0
2.296936462E0,1.388636976E-1,-4.556165695E0,8.817844391E0
2.298920153E0,7.661445439E-2,-4.546588898E0,8.803479195E0
2.300933151E0,3.112462163E-2,-4.493916512E0,8.750806808E0
2.302916842E0,1.675941236E-2,-4.474762917E0,8.722076416E0
2.304931302E0,-2.154781483E-2,-4.436455727E0,8.698134422E0
2.306914685E0,-3.351882473E-2,-4.410119534E0,8.688557625E0
2.308928530E0,-4.548983276E-2,-4.400542736E0,8.695740700E0
2.310943605E0,-7.422025502E-2,-4.364629745E0,8.734047890E0
2.312926065E0,-6.703764945E-2,-4.340687752E0,8.810662270E0
2.314940756E0,-5.985504389E-2,-4.331110954E0,8.839392662E0
2.316924138E0,-7.900865376E-2,-4.340687752E0,8.839392662E0
2.318940753E0,-1.125274822E-1,-4.331110954E0,8.870517731E0
2.320921443E0,-1.388636976E-1,-4.321534157E0,8.880094528E0
2.322937057E0,-1.556231081E-1,-4.319139957E0,8.872911453E0
2.324920209E0,-1.939303428E-1,-4.321534157E0,8.848969460E0
2.326934361E0,-2.202665508E-1,-4.319139957E0,8.839392662E0
2.328918053E0,-2.705447972E-1,-4.309563160E0,8.822632790E0
2.330932204E0,-3.184288144E-1,-4.290409565E0,8.815450668E0
2.332916125E0,-3.591302633E-1,-4.268861771E0,8.820239067E0
2.334929740E0,-3.974374831E-1,-4.228160381E0,8.841787338E0
2.336913969E0,-4.046200812E-1,-4.204218388E0,8.856152534E0
2.338928197E0,-3.950432837E-1,-4.146757126E0,8.865729332E0
2.340942043E0,-3.950432837E-1,-4.077325344E0,8.832210541E0
2.342925348E0,-3.854664862E-1,-4.041412354E0,8.820239067E0
2.344939501E0,-3.687070608E-1,-3.981557369E0,8.803479195E0
2.346923268E0,-3.687070608E-1,-3.912125587E0,8.798690796E0
2.348936805E0,-3.687070608E-1,-3.861847401E0,8.784325600E0
2.350920727E0,-3.854664862E-1,-3.775655985E0,8.748413086E0
2.352934648E0,-4.094084799E-1,-3.708618402E0,8.717288017E0
2.354918339E0,-4.237737060E-1,-3.672705412E0,8.707711220E0
2.356932722E0,-4.596867263E-1,-3.593696833E0,8.705317497E0
2.358917951E0,-5.147533417E-1,-3.509899616E0,8.729259491E0
2.360931565E0,-5.506663918E-1,-3.478775024E0,8.741230011E0
2.362913717E0,-6.081272364E-1,-3.414131641E0,8.779537201E0
2.364928715E0,-6.224924326E-1,-3.380612850E0,8.798690796E0
2.366942637E0,-6.799532771E-1,-3.351882458E0,8.836998940E0
2.368926943E0,-7.422025204E-1,-3.306392431E0,8.877699852E0
2.370940711E0,-7.517793179E-1,-3.282450438E0,8.880094528E0
2.372924094E0,-7.589619160E-1,-3.239354849E0,8.872911453E0
2.374938245E0,-7.709329724E-1,-3.181894064E0,8.863334656E0
2.376922014E0,-7.709329724E-1,-3.160346270E0,8.868123055E0
2.378937089E0,-7.445967197E-1,-3.122039080E0,8.872911453E0
2.380919472E0,-7.541735172E-1,-3.078943491E0,8.896853447E0
2.382933624E0,-7.517793179E-1,-3.055001259E0,8.904036522E0
2.384917007E0,-7.134721279E-1,-3.016694069E0,8.892065048E0
2.386931544E0,-6.799532771E-1,-3.002328873E0,8.841787338E0
2.388915158E0,-6.679822803E-1,-2.983175278E0,8.817844391E0
2.390929695E0,-6.536170840E-1,-2.930502892E0,8.741230011E0
2.392913078E0,-6.368576288E-1,-2.889801502E0,8.681375504E0
2.394926537E0,-6.200982332E-1,-2.863465309E0,8.650250435E0
2.396940382E0,-5.937620401E-1,-2.829946518E0,8.585607529E0
2.398926611E0,-5.770025849E-1,-2.813186884E0,8.556877136E0
2.400939840E0,-5.482721925E-1,-2.772485495E0,8.508993149E0
2.402922531E0,-5.123591423E-1,-2.750937700E0,8.453926086E0
2.404937375E0,-5.027823448E-1,-2.734178305E0,8.437167168E0
2.406920990E0,-4.644751251E-1,-2.681505919E0,8.422801971E0
2.408934911E0,-4.333505034E-1,-2.664746523E0,8.408436775E0
2.410918217E0,-4.237737060E-1,-2.659958124E0,8.398859978E0
2.412932985E0,-4.165911078E-1,-2.636016130E0,8.403648376E0
2.414916444E0,-4.070142806E-1,-2.626439333E0,8.451532364E0
2.416930828E0,-4.070142806E-1,-2.609679937E0,8.485051155E0
2.418915134E0,-4.429273009E-1,-2.607285738E0,8.544905663E0
2.420928055E0,-4.644751251E-1,-2.595314741E0,8.621520042E0
2.422942592E0,-4.884171486E-1,-2.588132143E0,8.662221909E0
2.424925667E0,-5.458779931E-1,-2.600103140E0,8.702922821E0
2.426940127E0,-5.817909837E-1,-2.595314741E0,8.705317497E0
2.428923510E0,-5.961562395E-1,-2.595314741E0,8.700529099E0
2.430937354E0,-6.488286853E-1,-2.604891539E0,8.688557625E0
2.432921584E0,-6.679822803E-1,-2.612074137E0,8.695740700E0
2.434935505E0,-7.182605267E-1,-2.619256735E0,8.736441612E0
2.436918503E0,-7.445967197E-1,-2.619256735E0,8.772355080E0
2.438936041E0,-7.589619160E-1,-2.631227732E0,8.779537201E0
2.440917654E0,-7.781155705E-1,-2.662352324E0,8.815450668E0
2.442930807E0,-7.733271718E-1,-2.688688517E0,8.877699852E0
2.444914574E0,-7.613561153E-1,-2.719813108E0,8.925583839E0
2.446929957E0,-7.350199223E-1,-2.770091295E0,9.018958092E0
2.448912725E0,-6.847416759E-1,-2.801215887E0,9.038111687E0
2.450926877E0,-6.607996821E-1,-2.815581083E0,9.014169693E0
2.452941030E0,-6.057330370E-1,-2.861071110E0,8.949525833E0
2.454925028E0,-5.722141862E-1,-2.892195702E0,8.894459724E0
2.456939103E0,-5.530605912E-1,-2.896984100E0,8.877699852E0
2.458923179E0,-4.979939461E-1,-2.906560898E0,8.863334656E0
2.460936638E0,-4.644751251E-1,-2.954444885E0,8.851364136E0
2.462921021E0,-3.639186621E-1,-2.968810081E0,8.846575737E0
2.464934866E0,-2.801215947E-1,-2.997540474E0,8.846575737E0
2.466918787E0,-2.346317619E-1,-3.009511471E0,8.829815865E0
2.468932017E0,-1.532289088E-1,-3.045424461E0,8.813055992E0
2.470916015E0,-7.182604820E-2,-3.050212860E0,8.796297073E0
2.472929859E0,-3.112462163E-2,-3.052607059E0,8.789113998E0
2.474913858E0,4.309562966E-2,-3.086126089E0,8.769960403E0
2.476927779E0,1.388636976E-1,-3.122039080E0,8.748413086E0
2.478943701E0,1.795651317E-1,-3.117250681E0,8.736441612E0
2.480925238E0,2.370259613E-1,-3.107673883E0,8.707711220E0
2.482938851E0,3.088520169E-1,-3.126827478E0,8.686163902E0
2.484924004E0,3.423708379E-1,-3.138798475E0,8.676587105E0
2.486937925E0,4.261679053E-1,-3.129221678E0,8.655038834E0
2.488920692E0,4.932055473E-1,-3.153163671E0,8.607154846E0
2.490935153E0,5.219359994E-1,-3.155557871E0,8.578424454E0
2.492918843E0,5.865794420E-1,-3.181894064E0,8.540117264E0
2.494932919E0,6.081272364E-1,-3.191470861E0,8.523358345E0
2.496917609E0,6.751648784E-1,-3.191470861E0,8.492233276E0
2.498931992E0,7.182605267E-1,-3.205836058E0,8.475474358E0
2.500915452E0,7.230489254E-1,-3.213018656E0,8.470685959E0
2.502929527E0,7.685387731E-1,-3.260902643E0,8.458714485E0
2.504912603E0,7.972691655E-1,-3.301604033E0,8.451532364E0
2.506926755E0,8.020575643E-1,-3.325546265E0,8.468291283E0
2.508940907E0,8.355764151E-1,-3.387795448E0,8.513781548E0
2.510924675E0,8.523358107E-1,-3.464409828E0,8.561665535E0
2.512938827E0,8.547300100E-1,-3.502717018E0,8.564059258E0
2.514923057E0,8.738836050E-1,-3.579331636E0,8.506598473E0
2.516936286E0,8.978256583E-1,-3.634398222E0,8.465897560E0
2.518922207E0,9.121908545E-1,-3.670311213E0,8.458714485E0
2.520935052E0,9.169792533E-1,-3.763684988E0,8.465897560E0
2.522917511E0,9.121908545E-1,-3.818751812E0,8.456320763E0
2.524931356E0,9.002198577E-1,-3.864241600E0,8.470685959E0
2.526915662E0,8.619126081E-1,-3.926490784E0,8.523358345E0
2.528929506E0,8.427590132E-1,-3.971980572E0,8.547300339E0
2.530913275E0,7.805097699E-1,-4.048594952E0,8.595184326E0
2.532927426E0,6.895300746E-1,-4.139574528E0,8.597578049E0
2.534942194E0,6.440402865E-1,-4.194641590E0,8.597578049E0
2.536925270E0,5.578489900E-1,-4.309563160E0,8.619126320E0
2.538940883E0,4.788403511E-1,-4.412513733E0,8.674192429E0
2.540923421E0,4.333505034E-1,-4.469974518E0,8.700529099E0
2.542936957E0,3.375824392E-1,-4.575319290E0,8.755595207E0
2.544921263E0,2.442085743E-1,-4.680664539E0,8.798690796E0
2.546935339E0,1.963245422E-1,-4.728548527E0,8.798690796E0
2.548919106E0,8.140286058E-2,-4.812345505E0,8.829815865E0
2.550932642E0,4.788403399E-3,-4.900930882E0,8.858546257E0
2.552916257E0,-3.591302410E-2,-4.939238071E0,8.877699852E0
2.554930485E0,-1.005564705E-1,-4.987122059E0,8.894459724E0
2.556914100E0,-1.412578970E-1,-5.049371243E0,8.920795441E0
2.558931098E0,-2.274491638E-1,-5.066130638E0,8.947132111E0
2.560911634E0,-3.016694188E-1,-5.104437828E0,9.004592896E0
2.562926710E0,-3.280056417E-1,-5.111620426E0,9.006986618E0
2.564940939E0,-3.830722570E-1,-5.137956619E0,8.937555313E0
2.566924553E0,-3.926490843E-1,-5.154716492E0,8.870517731E0
2.568938398E0,-4.094084799E-1,-5.164293289E0,8.887276649E0
2.570921549E0,-4.333505034E-1,-5.238513470E0,9.045293808E0
2.572936625E0,-4.309563041E-1,-5.355829239E0,9.253589630E0
2.574919008E0,-4.094084799E-1,-5.413290024E0,9.358934402E0
2.576934469E0,-3.974374831E-1,-5.583278179E0,9.540893555E0
2.578917467E0,-3.974374831E-1,-5.741295815E0,9.490615845E0
2.580931695E0,-4.094084799E-1,-5.791574001E0,9.385271072E0
2.582915617E0,-3.974374831E-1,-5.849034786E0,9.155426979E0
2.584929462E0,-3.639186621E-1,-5.837063789E0,9.021351814E0
2.586912844E0,-3.399766386E-1,-5.837063789E0,9.009381294E0
2.588927074E0,-2.825157940E-1,-5.798756599E0,8.999804497E0
2.590941764E0,-2.418143749E-1,-5.726930618E0,8.949525833E0
2.592925148E0,-1.699883193E-1,-5.671864033E0,8.894459724E0
2.594939607E0,-1.053448766E-1,-5.552153587E0,8.748413086E0
2.596922067E0,-8.379705995E-2,-5.477933407E0,8.659827232E0
2.598938758E0,-2.873042040E-2,-5.329493046E0,8.513781548E0
2.600921449E0,4.309562966E-2,-5.193023682E0,8.444349289E0
2.602934140E0,7.182604820E-2,-5.142745018E0,8.418013573E0
2.604918369E0,1.244984865E-1,-5.066130638E0,8.408436775E0
2.606932905E0,1.963245422E-1,-4.987122059E0,8.339004517E0
2.608916289E0,2.346317619E-1,-4.975151062E0,8.293514252E0
2.610930364E0,2.992752194E-1,-4.948814869E0,8.209717751E0
2.612914132E0,3.495534360E-1,-4.951209068E0,8.161833763E0
2.614927899E0,3.926490843E-1,-4.965574265E0,8.149862289E0
2.616943666E0,4.740519226E-1,-5.015852451E0,8.128314972E0
2.618926665E0,5.363011956E-1,-5.080495834E0,8.133103371E0
2.620940202E0,5.626373887E-1,-5.123591423E0,8.157045364E0
2.622923892E0,6.464344859E-1,-5.200206280E0,8.233659744E0
2.624938353E0,6.823474765E-1,-5.288791656E0,8.281543732E0
2.626922043E0,7.565677166E-1,-5.329493046E0,8.288725853E0
2.628936196E0,7.996633649E-1,-5.408501625E0,8.307879448E0
2.630919655E0,8.236053586E-1,-5.439626217E0,8.312667847E0
2.632933192E0,8.523358107E-1,-5.489904404E0,8.303091049E0
2.634917806E0,8.571242094E-1,-5.530605793E0,8.324639320E0
2.636931035E0,8.690952063E-1,-5.544970989E0,8.339004517E0
2.638916265E0,8.714894056E-1,-5.578489780E0,8.398859978E0
2.640929186E0,8.379706144E-1,-5.607220173E0,8.449137688E0
2.642912492E0,8.212111592E-1,-5.628767967E0,8.458714485E0
2.644926952E0,8.044517636E-1,-5.662287235E0,8.420407295E0
2.646941412E0,7.805097699E-1,-5.657498837E0,8.350975990E0
2.648924487E0,7.709329724E-1,-5.657498837E0,8.339004517E0
2.650938639E0,7.589619160E-1,-5.664681435E0,8.362946510E0
2.652923330E0,7.757213712E-1,-5.655104637E0,8.379706383E0
2.654937098E0,7.948749661E-1,-5.659893036E0,8.386888504E0
2.656921404E0,8.020575643E-1,-5.695806026E0,8.413225174E0
2.658935632E0,8.188169599E-1,-5.731719017E0,8.427590370E0
2.660918016E0,8.523358107E-1,-5.753266811E0,8.429984093E0
2.662931937E0,8.906430602E-1,-5.796362400E0,8.350975990E0
2.664916782E0,8.954314590E-1,-5.817910194E0,8.295908928E0
2.666930088E0,9.193734527E-1,-5.846640587E0,8.197746277E0
2.668912778E0,9.313444495E-1,-5.858611584E0,8.118738174E0
2.670928162E0,9.385270476E-1,-5.865794182E0,8.082824707E0
2.672941468E0,9.576807022E-1,-5.875370979E0,8.044517517E0
2.674926004E0,9.864110947E-1,-5.884947777E0,8.013393402E0
2.676939542E0,1.005564690E0,-5.882553577E0,8.025363922E0
2.678925463E0,1.005564690E0,-5.884947777E0,8.070854187E0
2.680937769E0,1.022324085E0,-5.901707172E0,8.118738174E0
2.682921075E0,1.022324085E0,-5.925649166E0,8.137891769E0
2.684936150E0,1.024718285E0,-5.956773758E0,8.183381081E0
2.686918687E0,9.983820915E-1,-5.995080948E0,8.255207062E0
2.688933378E0,9.864110947E-1,-6.016628742E0,8.281543732E0
2.690916146E0,9.624691010E-1,-6.050147533E0,8.305485725E0
2.692930990E0,9.481038451E-1,-6.078877926E0,8.298302650E0
2.694914680E0,9.074024558E-1,-6.153098583E0,8.303091049E0
2.696929449E0,8.786720037E-1,-6.191405773E0,8.305485725E0
2.698913447E0,8.619126081E-1,-6.208165169E0,8.293514252E0
2.700928138E0,8.307880163E-1,-6.232107162E0,8.288725853E0
2.702941444E0,7.781155705E-1,-6.260837555E0,8.327033043E0
2.704924749E0,7.469909191E-1,-6.289567947E0,8.336610794E0
2.706938902E0,7.134721279E-1,-6.306327343E0,8.327033043E0
2.708922900E0,6.895300746E-1,-6.299144745E0,8.286332130E0
2.710936821E0,6.751648784E-1,-6.294356346E0,8.259995461E0
2.712919205E0,6.272808313E-1,-6.296750546E0,8.200140953E0
2.714934588E0,5.937620401E-1,-6.306327343E0,8.195352554E0
2.716917356E0,5.602431893E-1,-6.301538944E0,8.200140953E0
2.718932431E0,5.219359994E-1,-6.289567947E0,8.228871346E0
2.720915506E0,4.884171486E-1,-6.299144745E0,8.264783859E0
2.722929966E0,4.692635238E-1,-6.303933144E0,8.286332130E0
2.724913118E0,4.381389022E-1,-6.330269337E0,8.281543732E0
2.726927579E0,4.285621047E-1,-6.349422932E0,8.269572258E0
2.728942038E0,3.806780577E-1,-6.402095318E0,8.212111473E0
2.730925113E0,3.687070608E-1,-6.442796707E0,8.200140953E0
2.732939574E0,3.495534360E-1,-6.461950302E0,8.216899872E0
2.734922572E0,3.040636182E-1,-6.517016888E0,8.240841866E0
2.736937954E0,2.705447972E-1,-6.557718277E0,8.243236542E0
2.738921646E0,2.489969730E-1,-6.586448669E0,8.243236542E0
2.740934336E0,1.843535304E-1,-6.619967937E0,8.252813339E0
2.742918873E0,1.221042871E-1,-6.639121532E0,8.240841866E0
2.744932718E0,9.097966552E-2,-6.636727333E0,8.243236542E0
2.746916792E0,3.591302410E-2,-6.653486729E0,8.257601738E0
2.748930561E0,9.576806799E-3,-6.629544735E0,8.281543732E0
2.750914251E0,-9.576806799E-3,-6.627150536E0,8.274360657E0
2.752928481E0,-4.788403213E-2,-6.612784863E0,8.257601738E0
2.754943248E0,-6.224924326E-2,-6.569689274E0,8.248024940E0
2.756926015E0,-8.619125932E-2,-6.555324078E0,8.252813339E0
2.758942322E0,-1.436520964E-1,-6.512228489E0,8.267178535E0
2.760925012E0,-1.723825186E-1,-6.478709698E0,8.259995461E0
2.762937704E0,-2.059013397E-1,-6.416460514E0,8.243236542E0
2.764921932E0,-2.585737705E-1,-6.358999729E0,8.204929352E0
2.766935853E0,-2.873041928E-1,-6.335057735E0,8.197746277E0
2.768919852E0,-3.591302633E-1,-6.289567947E0,8.204929352E0
2.770934235E0,-4.453215301E-1,-6.229712963E0,8.267178535E0
2.772917310E0,-4.836287498E-1,-6.210559368E0,8.286332130E0
2.774932463E0,-5.817909837E-1,-6.181828976E0,8.319850922E0
2.776915845E0,-6.799532771E-1,-6.141127586E0,8.303091049E0
2.778930537E0,-7.326257229E-1,-6.112396717E0,8.298302650E0
2.780912458E0,-8.259995580E-1,-6.071695328E0,8.295908928E0
2.782927456E0,-9.050082564E-1,-6.042964935E0,8.327033043E0
2.784941686E0,-9.481038451E-1,-6.050147533E0,8.346187592E0
2.786924991E0,-1.003170490E0,-6.023811340E0,8.367734909E0
2.788938913E0,-1.012747288E0,-6.002263546E0,8.384494781E0
2.790922834E0,-1.058237195E0,-5.987898350E0,8.382100105E0
2.792937063E0,-1.103726983E0,-5.973533154E0,8.408436775E0
2.794920985E0,-1.113303781E0,-5.963956356E0,8.418013573E0
2.796934522E0,-1.108515382E0,-5.935225964E0,8.415618896E0
2.798919443E0,-1.125274777E0,-5.904101372E0,8.413225174E0
2.800928980E0,-1.125274777E0,-5.884947777E0,8.413225174E0
2.802916978E0,-1.132457376E0,-5.844246387E0,8.410830498E0
2.804930900E0,-1.134851575E0,-5.808333397E0,8.408436775E0
2.806914822E0,-1.142034173E0,-5.777208805E0,8.410830498E0
2.808928666E0,-1.146822572E0,-5.710171223E0,8.425195694E0
2.810912126E0,-1.130063176E0,-5.669469833E0,8.451532364E0
2.812926278E0,-1.132457376E0,-5.657498837E0,8.492233276E0
2.814940662E0,-1.132457376E0,-5.645527840E0,8.568847656E0
2.816925275E0,-1.146822572E0,-5.614402771E0,8.631096840E0
2.818939119E0,-1.144428372E0,-5.597643375E0,8.650250435E0
2.820922195E0,-1.122880578E0,-5.559336185E0,8.690952301E0
2.822936116E0,-1.120486379E0,-5.549759388E0,8.710105896E0
2.824919192E0,-1.101332784E0,-5.540182590E0,8.774748802E0
2.826933883E0,-1.101332784E0,-5.513846397E0,8.848969460E0
2.828917573E0,-1.094150186E0,-5.501875401E0,8.884882927E0
2.830931187E0,-1.079784989E0,-5.489904404E0,8.978256226E0
2.832915108E0,-1.065419793E0,-5.489904404E0,9.047688484E0
2.834929029E0,-1.072602391E0,-5.492298603E0,9.090784073E0
2.836913028E0,-1.091755986E0,-5.492298603E0,9.181763649E0
2.838928411E0,-1.103726983E0,-5.501875401E0,9.229647636E0
2.840941872E0,-1.120486379E0,-5.506663799E0,9.229647636E0
2.842924100E0,-1.216254473E0,-5.504269600E0,9.217676163E0
2.844938560E0,-1.261744261E0,-5.487510204E0,9.224859238E0
2.846922174E0,-1.285686255E0,-5.485116005E0,9.232041359E0
2.848937018E0,-1.362300754E0,-5.465962410E0,9.222464561E0
2.850920094E0,-1.400607944E0,-5.449203014E0,9.258378029E0
2.852934246E0,-1.474828243E0,-5.434837818E0,9.277531624E0
2.854918783E0,-1.549048543E0,-5.386953831E0,9.330204010E0
2.856933012E0,-1.580173135E0,-5.363011837E0,9.356540680E0
2.858916318E0,-1.630451322E0,-5.293580055E0,9.406818390E0
2.860930239E0,-1.678335428E0,-5.228936672E0,9.452308655E0
2.862912931E0,-1.702277422E0,-5.193023682E0,9.471462250E0
2.864928313E0,-1.714248419E0,-5.125985622E0,9.509769440E0
2.866941620E0,-1.745373011E0,-5.018246651E0,9.526528358E0
2.868925310E0,-1.750161409E0,-4.979939461E0,9.531316757E0
2.870939462E0,-1.764526606E0,-4.900930882E0,9.514557838E0
2.872923461E0,-1.757344007E0,-4.802768707E0,9.490615845E0
2.874937536E0,-1.764526606E0,-4.766855717E0,9.493009567E0
2.876921227E0,-1.762132406E0,-4.683058739E0,9.488221169E0
2.878936918E0,-1.762132406E0,-4.601655483E0,9.437943459E0
2.880920916E0,-1.764526606E0,-4.568136692E0,9.399636269E0
2.882932684E0,-1.783680320E0,-4.469974518E0,9.358934402E0
2.884916989E0,-1.790862918E0,-4.381389141E0,9.306262016E0
2.886931450E0,-1.817199111E0,-4.335899353E0,9.275136948E0
2.888914833E0,-1.860294700E0,-4.249708176E0,9.217676163E0
2.890928677E0,-1.905784607E0,-4.189853191E0,9.179368973E0
2.892912907E0,-1.982398987E0,-4.072536945E0,9.093177795E0
2.894926212E0,-2.070984364E0,-3.960009575E0,9.028534889E0
2.896941826E0,-2.121262789E0,-3.914519787E0,9.009381294E0
2.898925594E0,-2.226607561E0,-3.830722809E0,9.004592896E0
2.900939130E0,-2.317587137E0,-3.773261786E0,9.004592896E0
2.902921822E0,-2.355894566E0,-3.739742994E0,9.002198219E0
2.904936589E0,-2.430114746E0,-3.660734415E0,9.006986618E0
2.906919664E0,-2.477998734E0,-3.622427225E0,9.009381294E0
2.908934432E0,-2.489969730E0,-3.610456228E0,8.997409821E0
2.910918122E0,-2.509123325E0,-3.588908434E0,8.995016098E0
2.912932275E0,-2.504334927E0,-3.560178041E0,8.985439301E0
2.914915119E0,-2.501940727E0,-3.541024208E0,8.975862503E0
2.916929810E0,-2.485181332E0,-3.512293816E0,8.937555313E0
2.918915655E0,-2.477998734E0,-3.488351822E0,8.904036522E0
2.920928345E0,-2.444479942E0,-3.457227230E0,8.827422142E0
2.922941497E0,-2.389413357E0,-3.397372246E0,8.757989883E0
2.924925804E0,-2.360682964E0,-3.363853455E0,8.722076416E0
2.926939725E0,-2.305616140E0,-3.311181068E0,8.652645111E0
2.928924339E0,-2.252943754E0,-3.253720045E0,8.592789650E0
2.930937260E0,-2.209848166E0,-3.232172251E0,8.561665535E0
2.932920874E0,-2.157175779E0,-3.174711466E0,8.492233276E0
2.934935719E0,-2.111685991E0,-3.114856482E0,8.470685959E0
2.936919101E0,-2.097320795E0,-3.090914488E0,8.470685959E0
2.938933870E0,-2.082955360E0,-3.026270866E0,8.461109161E0
2.940917252E0,-2.063801765E0,-2.961627483E0,8.468291283E0
2.942931327E0,-2.080561161E0,-2.925714493E0,8.489839554E0
2.944915095E0,-2.085349798E0,-2.839523315E0,8.504204750E0
2.946928247E0,-2.087743998E0,-2.794033289E0,8.540117264E0
2.948943016E0,-2.090138197E0,-2.767697096E0,8.566453934E0
2.950925860E0,-2.099714994E0,-2.710236311E0,8.611943245E0
2.952941550E0,-2.109291792E0,-2.669534922E0,8.623914719E0
2.954924318E0,-2.123656988E0,-2.662352324E0,8.628703117E0
2.956938086E0,-2.142810583E0,-2.616862535E0,8.614337921E0
2.958924237E0,-2.159569979E0,-2.604891539E0,8.611943245E0
2.960932929E0,-2.171540976E0,-2.552218914E0,8.588001251E0
2.962919927E0,-2.202665567E0,-2.499546528E0,8.530540466E0
2.964933849E0,-2.221819162E0,-2.487575531E0,8.499416351E0
2.966918154E0,-2.255337954E0,-2.466027737E0,8.415618896E0
2.968931922E0,-2.267308950E0,-2.422932148E0,8.327033043E0
2.970915305E0,-2.274491549E0,-2.398990154E0,8.291120529E0
2.972929765E0,-2.310404539E0,-2.351106167E0,8.212111473E0
2.974912610E0,-2.358288765E0,-2.319981337E0,8.157045364E0
2.976927685E0,-2.379836559E0,-2.312798738E0,8.152256966E0
2.978942144E0,-2.401384354E0,-2.269703150E0,8.135497093E0
2.980925451E0,-2.437297344E0,-2.243366957E0,8.145073891E0
2.982939603E0,-2.454056740E0,-2.240972757E0,8.178592682E0
2.984923986E0,-2.513911724E0,-2.233790159E0,8.271966934E0
2.986936831E0,-2.547430515E0,-2.226607561E0,8.307879448E0
2.988920829E0,-2.571372509E0,-2.221819162E0,8.374917984E0
2.990934674E0,-2.595314741E0,-2.221819162E0,8.427590370E0
2.992918672E0,-2.609679937E0,-2.233790159E0,8.444349289E0
2.994933132E0,-2.640804529E0,-2.240972757E0,8.475474358E0
2.996915900E0,-2.631227732E0,-2.257732153E0,8.485051155E0
2.998932898E0,-2.612074137E0,-2.257732153E0,8.480262756E0
3.000914666E0,-2.568978310E0,-2.279279947E0,8.473079681E0
3.002927664E0,-2.535459518E0,-2.293645144E0,8.470685959E0
3.004942431E0,-2.506729126E0,-2.293645144E0,8.468291283E0
3.006925815E0,-2.470816135E0,-2.298433542E0,8.470685959E0
3.008940274E0,-2.432508945E0,-2.303221941E0,8.465897560E0
3.010923581E0,-2.403778553E0,-2.286462545E0,8.470685959E0
3.012938041E0,-2.363077164E0,-2.298433542E0,8.477868080E0
3.014921731E0,-2.341529369E0,-2.279279947E0,8.504204750E0
3.016936884E0,-2.300827742E0,-2.276885748E0,8.520963669E0
3.018919959E0,-2.238578558E0,-2.279279947E0,8.506598473E0
3.020934034E0,-2.224213362E0,-2.269703150E0,8.499416351E0
3.022917417E0,-2.166752577E0,-2.245761156E0,8.485051155E0
3.024931569E0,-2.104503393E0,-2.219424963E0,8.499416351E0
3.026915260E0,-2.063801765E0,-2.209848166E0,8.511386871E0
3.028929105E0,-1.989581585E0,-2.207453966E0,8.525752068E0
3.030913410E0,-1.927332401E0,-2.202665567E0,8.520963669E0
3.032926948E0,-1.896207690E0,-2.188300371E0,8.513781548E0
3.034940869E0,-1.831564307E0,-2.176329374E0,8.532935143E0
3.036925406E0,-1.757344007E0,-2.193088770E0,8.585607529E0
3.038940558E0,-1.721431017E0,-2.202665567E0,8.611943245E0
3.040922633E0,-1.675941229E0,-2.221819162E0,8.667010307E0
3.042938017E0,-1.625662923E0,-2.240972757E0,8.693346024E0
3.044920553E0,-1.604115129E0,-2.240972757E0,8.676587105E0
3.046934397E0,-1.570596337E0,-2.233790159E0,8.578424454E0
3.048918319E0,-1.558625340E0,-2.236184359E0,8.532935143E0
3.050932471E0,-1.549048543E0,-2.248155355E0,8.444349289E0
3.052916470E0,-1.532289028E0,-2.281674147E0,8.389283180E0
3.054930084E0,-1.520318031E0,-2.298433542E0,8.382100105E0
3.056915005E0,-1.496376038E0,-2.300827742E0,8.379706383E0
3.058929081E0,-1.446097851E0,-2.360682964E0,8.362946510E0
3.060911848E0,-1.407790542E0,-2.387019157E0,8.350975990E0
3.062926001E0,-1.350329757E0,-2.449268341E0,8.305485725E0
3.064940230E0,-1.280897856E0,-2.504334927E0,8.226476669E0
3.066923612E0,-1.244984865E0,-2.530671120E0,8.192957878E0
3.068937765E0,-1.185129881E0,-2.576161146E0,8.135497093E0
3.070921148E0,-1.125274777E0,-2.643198729E0,8.099584579E0
3.072934993E0,-1.089361787E0,-2.679111719E0,8.080430984E0
3.074919222E0,-1.012747288E0,-2.736572504E0,8.061277390E0
3.076933066E0,-9.385270476E-1,-2.803610086E0,8.025363922E0
3.078918911E0,-9.002198577E-1,-2.834734917E0,8.006210327E0
3.080931832E0,-8.068459630E-1,-2.892195702E0,7.975085735E0
3.082914368E0,-7.661445141E-1,-2.954444885E0,7.965508938E0
3.084929675E0,-6.967126727E-1,-2.995146275E0,7.960720539E0
3.086912519E0,-6.177040339E-1,-3.064578056E0,7.960720539E0
3.088926903E0,-5.626373887E-1,-3.088520288E0,7.967903137E0
3.090941055E0,-4.740519226E-1,-3.114856482E0,8.015787125E0
3.092924437E0,-3.998316824E-1,-3.174711466E0,8.063671112E0
3.094938359E0,-3.663128614E-1,-3.210624456E0,8.087613106E0
3.096922973E0,-3.160346150E-1,-3.265691042E0,8.137891769E0
3.098937972E0,-2.968810201E-1,-3.330334663E0,8.178592682E0
3.100920124E0,-2.729389966E-1,-3.359065056E0,8.192957878E0
3.102934276E0,-2.801215947E-1,-3.402160645E0,8.245630264E0
3.104918044E0,-3.064578176E-1,-3.483563423E0,8.331821442E0
3.106932503E0,-3.208230138E-1,-3.519476414E0,8.370129585E0
3.108915579E0,-3.591302633E-1,-3.591302633E0,8.415618896E0
3.110930346E0,-4.094084799E-1,-3.660734415E0,8.451532364E0
3.112913344E0,-4.237737060E-1,-3.703830004E0,8.468291283E0
3.114927805E0,-4.477157295E-1,-3.790021181E0,8.549694061E0
3.116941957E0,-4.692635238E-1,-3.890577793E0,8.671798706E0
3.118927570E0,-5.027823448E-1,-3.974374771E0,9.088389397E0
3.120940185E0,-5.458779931E-1,-4.194641590E0,9.521739960E0
3.122922567E0,-5.793967843E-1,-4.311957359E0,9.727641106E0
3.124937643E0,-6.464344859E-1,-4.584896088E0,1.005085850E1
3.126921334E0,-7.206547260E-1,-4.824316502E0,1.010831928E1
3.128935793E0,-7.685387731E-1,-4.932055473E0,1.007958889E1
3.130918869E0,-8.834604025E-1,-5.133168221E0,9.974244118E0
3.132934252E0,-9.888052940E-1,-5.291185856E0,9.911994934E0
3.134917097E0,-1.027112484E0,-5.339069843E0,9.909601212E0
3.136931556E0,-1.101332784E0,-5.439626217E0,9.957485199E0
3.138914631E0,-1.173158884E0,-5.506663799E0,9.947908401E0
3.140929015E0,-1.187524080E0,-5.528211594E0,9.928754807E0
3.142912090E0,-1.209071875E0,-5.530605793E0,9.847352028E0
3.144926319E0,-1.204283476E0,-5.501875401E0,9.770736694E0
3.146940702E0,-1.197100878E0,-5.475539207E0,9.713275909E0
3.148924469E0,-1.132457376E0,-5.401319027E0,9.581595421E0
3.150938545E0,-1.084573388E0,-5.370194435E0,9.509769440E0
3.152922543E0,-9.552865028E-1,-5.272032261E0,9.361329079E0
3.154936695E0,-8.044517636E-1,-5.190629482E0,9.287108421E0
3.156919540E0,-7.254431248E-1,-5.154716492E0,9.284713745E0
3.158936461E0,-5.913678408E-1,-5.111620426E0,9.282320023E0
3.160919230E0,-4.381389022E-1,-5.080495834E0,9.258378029E0
3.162931535E0,-3.734954596E-1,-5.075707436E0,9.244012833E0
3.164916072E0,-2.873041928E-1,-5.099649429E0,9.203310966E0
3.166929609E0,-2.154781520E-1,-5.111620426E0,9.179368973E0
3.168913992E0,-1.987187415E-1,-5.125985622E0,9.169792175E0
3.170928067E0,-1.699883193E-1,-5.195417881E0,9.162610054E0
3.172941297E0,-1.795651317E-1,-5.286397457E0,9.145850182E0
3.174925679E0,-1.963245422E-1,-5.324704647E0,9.124302864E0
3.176940447E0,-2.202665508E-1,-5.406107426E0,9.064447403E0
3.178924061E0,-2.298433632E-1,-5.475539207E0,8.995016098E0
3.180937597E0,-2.394201756E-1,-5.511452198E0,8.961497307E0
3.182921366E0,-2.394201756E-1,-5.585672379E0,8.901641846E0
3.184935210E0,-2.346317619E-1,-5.621585369E0,8.860940933E0
3.186918901E0,-2.011129409E-1,-5.669469833E0,8.734047890E0
3.188932976E0,-1.412578970E-1,-5.688623428E0,8.549694061E0
3.190915512E0,-1.077390760E-1,-5.705382824E0,8.449137688E0
3.192930819E0,-2.394201607E-2,-5.722142220E0,8.315062523E0
3.194914202E0,4.548983276E-2,-5.717353821E0,8.233659744E0
3.196927508E0,9.097966552E-2,-5.717353821E0,8.204929352E0
3.198943737E0,1.580173075E-1,-5.719748020E0,8.171410561E0
3.200923120E0,2.082955539E-1,-5.743690014E0,8.161833763E0
3.202940965E0,2.322375625E-1,-5.741295815E0,8.142680168E0
3.204925040E0,2.705447972E-1,-5.719748020E0,8.104372978E0
3.206939192E0,2.920926213E-1,-5.724536419E0,8.082824707E0
3.208921883E0,2.992752194E-1,-5.724536419E0,8.068459511E0
3.210935727E0,3.088520169E-1,-5.736507416E0,8.039729118E0
3.212919726E0,3.088520169E-1,-5.736507416E0,8.032546997E0
3.214933878E0,2.992752194E-1,-5.746084213E0,8.018181801E0
3.216918799E0,2.801215947E-1,-5.762843609E0,8.018181801E0
3.218932029E0,2.705447972E-1,-5.779603004E0,8.022970200E0
3.220915412E0,2.537853718E-1,-5.832275391E0,8.075642586E0
3.222929872E0,2.370259613E-1,-5.882553577E0,8.195352554E0
3.224912409E0,2.274491638E-1,-5.916072369E0,8.238448143E0
3.226927791E0,2.082955539E-1,-5.980715752E0,8.257601738E0
3.228941329E0,1.867477298E-1,-6.047753334E0,8.214506149E0
3.230924711E0,1.795651317E-1,-6.071695328E0,8.188169479E0
3.232938786E0,1.460463107E-1,-6.138733387E0,8.137891769E0
3.234922170E0,1.197100878E-1,-6.186617374E0,8.149862289E0
3.236936322E0,1.101332754E-1,-6.215347767E0,8.159439087E0
3.238921628E0,1.173158810E-1,-6.248866558E0,8.216899872E0
3.240935088E0,1.508347094E-1,-6.289567947E0,8.298302650E0
3.242918547E0,1.628057212E-1,-6.318298340E0,8.331821442E0
3.244932700E0,1.819593310E-1,-6.347028732E0,8.360552788E0
3.246916391E0,1.891419291E-1,-6.344634533E0,8.358158112E0
3.248929928E0,2.130839527E-1,-6.363788128E0,8.350975990E0
3.250913849E0,2.346317619E-1,-6.351817131E0,8.319850922E0
3.252928309E0,2.513911724E-1,-6.337451935E0,8.295908928E0
3.254911692E0,2.801215947E-1,-6.294356346E0,8.271966934E0
3.256926537E0,2.777273953E-1,-6.258443356E0,8.269572258E0
3.258941228E0,2.801215947E-1,-6.234501362E0,8.279149055E0
3.260924380E0,2.466027737E-1,-6.198588371E0,8.327033043E0
3.262937916E0,2.178723514E-1,-6.205770969E0,8.358158112E0
3.264921838E0,1.987187415E-1,-6.210559368E0,8.384494781E0
3.266935759E0,1.628057212E-1,-6.224924564E0,8.425195694E0
3.268919450E0,1.221042871E-1,-6.270414352E0,8.434772491E0
3.270933910E0,1.244984865E-1,-6.299144745E0,8.449137688E0
3.272917216E0,1.029506698E-1,-6.370970726E0,8.470685959E0
3.274931676E0,9.097966552E-2,-6.452373505E0,8.487444878E0
3.276915059E0,9.816227108E-2,-6.493074894E0,8.489839554E0
3.278929903E0,1.149216816E-1,-6.552929878E0,8.453926086E0
3.280911979E0,1.101332754E-1,-6.579266071E0,8.437167168E0
3.282926823E0,1.173158810E-1,-6.639121532E0,8.408436775E0
3.284940668E0,1.316810995E-1,-6.646304131E0,8.370129585E0
3.286924590E0,1.412578970E-1,-6.658275127E0,8.360552788E0
3.288938818E0,1.628057212E-1,-6.653486729E0,8.360552788E0
3.290922510E0,1.867477298E-1,-6.648698330E0,8.350975990E0
3.292936969E0,1.939303428E-1,-6.653486729E0,8.360552788E0
3.294920584E0,2.346317619E-1,-6.643909931E0,8.382100105E0
3.296935658E0,2.681505978E-1,-6.624756336E0,8.377311707E0
3.298919118E0,2.633621991E-1,-6.627150536E0,8.355764389E0
3.300931963E0,2.537853718E-1,-6.619967937E0,8.319850922E0
3.302915653E0,2.298433632E-1,-6.610390663E0,8.293514252E0
3.304930190E0,2.035071403E-1,-6.607996464E0,8.293514252E0
3.306913574E0,1.388636976E-1,-6.615179062E0,8.264783859E0
3.308928033E0,7.422025502E-2,-6.610390663E0,8.171410561E0
3.310942186E0,3.591302410E-2,-6.600813866E0,8.111555099E0
3.312925261E0,-5.506663769E-2,-6.552929878E0,8.030152321E0
3.314939720E0,-1.077390760E-1,-6.528987885E0,8.027758598E0
3.316922719E0,-2.370259613E-1,-6.481103897E0,8.058882713E0
3.318939410E0,-3.639186621E-1,-6.457161903E0,8.094796181E0
3.320921793E0,-4.333505034E-1,-6.440402508E0,8.116343498E0
3.322935022E0,-5.578489900E-1,-6.421248913E0,8.152256966E0
3.324919328E0,-6.512228847E-1,-6.421248913E0,8.219294548E0
3.326934096E0,-6.943184733E-1,-6.421248913E0,8.259995461E0
3.328916863E0,-7.685387731E-1,-6.414066315E0,8.315062523E0
3.330931015E0,-8.475474119E-1,-6.411672115E0,8.343792915E0
3.332914476E0,-8.906430602E-1,-6.428431511E0,8.355764389E0
3.334928628E0,-9.481038451E-1,-6.438008308E0,8.382100105E0
3.336913165E0,-9.911994934E-1,-6.447585106E0,8.408436775E0
3.338927701E0,-1.027112484E0,-6.452373505E0,8.427590370E0
3.340940623E0,-1.101332784E0,-6.433219910E0,8.470685959E0
3.342924622E0,-1.142034173E0,-6.435614109E0,8.504204750E0
3.344938773E0,-1.242590666E0,-6.426037312E0,8.518569946E0
3.346922465E0,-1.347935557E0,-6.385335922E0,8.537723541E0
3.348936232E0,-1.395819545E0,-6.366182327E0,8.540117264E0
3.350919692E0,-1.496376038E0,-6.311115742E0,8.532935143E0
3.352934767E0,-1.625662923E0,-6.229712963E0,8.530540466E0
3.354917842E0,-1.685518026E0,-6.189011574E0,8.540117264E0
3.356931687E0,-1.824381709E0,-6.119579315E0,8.549694061E0
3.358916609E0,-1.934514999E0,-6.047753334E0,8.573636055E0
3.360927376E0,-1.989581585E0,-6.004657745E0,8.568847656E0
3.362943298E0,-2.073378563E0,-5.930437565E0,8.525752068E0
3.364927988E0,-2.130839586E0,-5.865794182E0,8.480262756E0
3.366941755E0,-2.145204782E0,-5.829881191E0,8.444349289E0
3.368925216E0,-2.188300371E0,-5.789179802E0,8.403648376E0
3.370939599E0,-2.193088770E0,-5.743690014E0,8.389283180E0
3.372923598E0,-2.188300371E0,-5.726930618E0,8.374917984E0
3.374937826E0,-2.169146776E0,-5.683835030E0,8.382100105E0
3.376921517E0,-2.157175779E0,-5.643133640E0,8.391676903E0
3.378936208E0,-2.138022184E0,-5.643133640E0,8.434772491E0
3.380919052E0,-2.118868589E0,-5.607220173E0,8.485051155E0
3.382932820E0,-2.116474390E0,-5.595249176E0,8.489839554E0
3.384916511E0,-2.114080191E0,-5.556941986E0,8.494627953E0
3.386930663E0,-2.111685991E0,-5.513846397E0,8.468291283E0
3.388914431E0,-2.109291792E0,-5.492298603E0,8.453926086E0
3.390928275E0,-2.109291792E0,-5.427655220E0,8.441955566E0
3.392913119E0,-2.142810583E0,-5.346252441E0,8.446743965E0
3.394926734E0,-2.173935175E0,-5.319916248E0,8.465897560E0
3.396939655E0,-2.217030764E0,-5.255272865E0,8.542511940E0
3.398925500E0,-2.267308950E0,-5.181052685E0,8.611943245E0
3.400937805E0,-2.296039343E0,-5.142745018E0,8.614337921E0
3.402920880E0,-2.336740971E0,-5.051765442E0,8.578424454E0
3.404936187E0,-2.394201756E0,-4.970362663E0,8.568847656E0
3.406919339E0,-2.413355350E0,-4.929661274E0,8.580819130E0
3.408933800E0,-2.454056740E0,-4.841075897E0,8.597578049E0
3.410917490E0,-2.480392933E0,-4.797980309E0,8.614337921E0
3.412931334E0,-2.530671120E0,-4.702212334E0,8.667010307E0
3.414915333E0,-2.566584110E0,-4.649539471E0,8.707711220E0
3.416930023E0,-2.580949545E0,-4.623203278E0,8.722076416E0
3.418913792E0,-2.612074137E0,-4.570530891E0,8.724471092E0
3.420928251E0,-2.652775526E0,-4.493916512E0,8.702922821E0
3.422911018E0,-2.674323320E0,-4.455609322E0,8.722076416E0
3.424925710E0,-2.698265314E0,-4.414907932E0,8.762778282E0
3.426939246E0,-2.750937700E0,-4.395754337E0,8.796297073E0
3.428923013E0,-2.765302896E0,-4.371812344E0,8.796297073E0
3.430936858E0,-2.789244890E0,-4.311957359E0,8.781931877E0
3.432921087E0,-2.832340717E0,-4.244919777E0,8.748413086E0
3.434934625E0,-2.875436306E0,-4.218583584E0,8.719682693E0
3.436918392E0,-2.932897091E0,-4.153939724E0,8.674192429E0
3.438934621E0,-2.983175278E0,-4.050989151E0,8.621520042E0
3.440915312E0,-3.004723072E0,-4.003105164E0,8.592789650E0
3.442930079E0,-3.045424461E0,-3.914519787E0,8.573636055E0
3.444914617E0,-3.059789658E0,-3.876212597E0,8.573636055E0
3.446928538E0,-3.078943491E0,-3.799597979E0,8.592789650E0
3.448912228E0,-3.102885485E0,-3.722983599E0,8.585607529E0
3.450926612E0,-3.102885485E0,-3.691859007E0,8.568847656E0
3.452940456E0,-3.093308687E0,-3.622427225E0,8.504204750E0
3.454923608E0,-3.098097086E0,-3.536235809E0,8.468291283E0
3.456938684E0,-3.100491285E0,-3.490746021E0,8.456320763E0
3.458922605E0,-3.095702887E0,-3.406949043E0,8.487444878E0
3.460935604E0,-3.110068083E0,-3.339911461E0,8.556877136E0
3.462919294E0,-3.119644880E0,-3.318363667E0,8.590395927E0
3.464933754E0,-3.126827478E0,-3.260902643E0,8.638279915E0
3.466916830E0,-3.143586874E0,-3.189076662E0,8.652645111E0
3.468931597E0,-3.155557871E0,-3.169923067E0,8.652645111E0
3.470915211E0,-3.177105665E0,-3.107673883E0,8.626308441E0
3.472928825E0,-3.179499865E0,-3.059789658E0,8.633491516E0
3.474912515E0,-3.179499865E0,-3.040636063E0,8.647856712E0
3.476926668E0,-3.177105665E0,-2.997540474E0,8.724471092E0
3.478943204E0,-3.184288263E0,-2.983175278E0,8.769960403E0
3.480926048E0,-3.203441858E0,-2.968810081E0,8.872911453E0
3.482938970E0,-3.229778051E0,-2.940079689E0,8.963891029E0
3.484922968E0,-3.236960649E0,-2.930502892E0,8.980650902E0
3.486936506E0,-3.227383852E0,-2.920926094E0,8.997409821E0
3.488921042E0,-3.236960649E0,-2.892195702E0,8.992621422E0
3.490934348E0,-3.236960649E0,-2.865859509E0,8.995016098E0
3.492918270E0,-3.210624456E0,-2.801215887E0,8.978256226E0
3.494931884E0,-3.172317266E0,-2.748543501E0,8.918401718E0
3.496916498E0,-3.148375273E0,-2.726995707E0,8.875306129E0
3.498930650E0,-3.098097086E0,-2.655169725E0,8.753201485E0
3.500914340E0,-3.040636063E0,-2.583343744E0,8.616731644E0
3.502927878E0,-3.014299870E0,-2.545036316E0,8.556877136E0
3.504911568E0,-2.978386879E0,-2.482787132E0,8.449137688E0
3.506925644E0,-2.956839085E0,-2.415749550E0,8.398859978E0
3.508939565E0,-2.925714493E0,-2.379836559E0,8.398859978E0
3.510923871E0,-2.901772499E0,-2.308010340E0,8.422801971E0
3.512937639E0,-2.889801502E0,-2.284068346E0,8.446743965E0
3.514921329E0,-2.858676910E0,-2.238578558E0,8.506598473E0
3.516935173E0,-2.839523315E0,-2.212242365E0,8.564059258E0
3.518920403E0,-2.829946518E0,-2.205059767E0,8.588001251E0
3.520930555E0,-2.803610086E0,-2.161964178E0,8.604761124E0
3.522916400E0,-2.724601507E0,-2.130839586E0,8.652645111E0
3.524931783E0,-2.698265314E0,-2.123656988E0,8.681375504E0
3.526914627E0,-2.659958124E0,-2.121262789E0,8.738836288E0
3.528929318E0,-2.655169725E0,-2.114080191E0,8.757989883E0
3.530912085E0,-2.662352324E0,-2.106897593E0,8.753201485E0
3.532927161E0,-2.652775526E0,-2.097320795E0,8.719682693E0
3.534941082E0,-2.681505919E0,-2.104503393E0,8.705317497E0
3.536925619E0,-2.698265314E0,-2.111685991E0,8.707711220E0
3.538939464E0,-2.722207308E0,-2.138022184E0,8.753201485E0
3.540923462E0,-2.741360903E0,-2.128445387E0,8.781931877E0
3.542936075E0,-2.803610086E0,-2.128445387E0,8.863334656E0
3.544919767E0,-2.834734917E0,-2.164358377E0,8.894459724E0
3.546934611E0,-2.865859509E0,-2.171540976E0,8.904036522E0
3.548918225E0,-2.920926094E0,-2.154781580E0,8.916007042E0
3.550932377E0,-2.968810081E0,-2.147598982E0,8.916007042E0
3.552915760E0,-2.990357876E0,-2.140416384E0,8.925583839E0
3.554929990E0,-3.011905670E0,-2.140416384E0,8.985439301E0
3.556913680E0,-3.016694069E0,-2.147598982E0,9.021351814E0
3.558928987E0,-3.019088268E0,-2.149993181E0,9.050082207E0
3.560911523E0,-3.014299870E0,-2.171540976E0,9.059659004E0
3.562924983E0,-3.002328873E0,-2.181117773E0,9.018958092E0
3.564940135E0,-2.995146275E0,-2.200271368E0,8.990227699E0
3.566923518E0,-2.983175278E0,-2.221819162E0,8.906430244E0
3.568937594E0,-2.959233284E0,-2.250549555E0,8.856152534E0
3.570920669E0,-2.942473888E0,-2.250549555E0,8.846575737E0
3.572935128E0,-2.901772499E0,-2.286462545E0,8.825027466E0
3.574919127E0,-2.887407303E0,-2.308010340E0,8.827422142E0
3.576933895E0,-2.839523315E0,-2.334346771E0,8.808267593E0
3.578917354E0,-2.774879694E0,-2.367865562E0,8.743624687E0
3.580930507E0,-2.738966703E0,-2.394201756E0,8.710105896E0
3.582914582E0,-2.674323320E0,-2.420537949E0,8.667010307E0
3.584928427E0,-2.578555346E0,-2.468421936E0,8.616731644E0
3.586912348E0,-2.528276920E0,-2.489969730E0,8.597578049E0
3.588926192E0,-2.446874142E0,-2.509123325E0,8.588001251E0
3.590940961E0,-2.351106167E0,-2.533065319E0,8.549694061E0
3.592924343E0,-2.303221941E0,-2.552218914E0,8.542511940E0
3.594939111E0,-2.217030764E0,-2.576161146E0,8.552088737E0
3.596921263E0,-2.126051188E0,-2.580949545E0,8.525752068E0
3.598937569E0,-2.085349798E0,-2.592920542E0,8.465897560E0
3.600920414E0,-2.025494576E0,-2.564189911E0,8.307879448E0
3.602933951E0,-1.968033791E0,-2.533065319E0,8.145073891E0
3.604917873E0,-1.953668594E0,-2.530671120E0,8.049305916E0
3.606932025E0,-1.927332401E0,-2.506729126E0,7.896077156E0
3.608915407E0,-1.912967205E0,-2.482787132E0,7.841010571E0
3.610930175E0,-1.877054095E0,-2.477998734E0,7.726089001E0
3.612913020E0,-1.812410712E0,-2.485181332E0,7.637503624E0
3.614927787E0,-1.786074519E0,-2.494758129E0,7.618350029E0
3.616912017E0,-1.726219416E0,-2.521094322E0,7.599195957E0
3.618926553E0,-1.661576033E0,-2.583343744E0,7.623138428E0
3.620939398E0,-1.630451322E0,-2.619256735E0,7.659051418E0
3.622923396E0,-1.587355733E0,-2.717418909E0,7.728483200E0
3.624937317E0,-1.558625340E0,-2.817975283E0,7.836222172E0
3.626921009E0,-1.553836942E0,-2.863465309E0,7.896077156E0
3.628934545E0,-1.546654344E0,-2.964021683E0,7.996633530E0
3.630918159E0,-1.534683347E0,-3.078943491E0,8.066065788E0
3.632932619E0,-1.508347034E0,-3.126827478E0,8.080430984E0
3.634916079E0,-1.467645645E0,-3.232172251E0,8.061277390E0
3.636930231E0,-1.431732655E0,-3.306392431E0,8.010998726E0
3.638915768E0,-1.357512355E0,-3.337517262E0,7.994239330E0
3.640928612E0,-1.280897856E0,-3.385401249E0,7.960720539E0
3.642911073E0,-1.237802267E0,-3.404554844E0,7.958326340E0
3.644926532E0,-1.149216771E0,-3.435679436E0,7.970297337E0
3.646940300E0,-1.079784989E0,-3.452438831E0,7.991845131E0
3.648923991E0,-1.055842996E0,-3.466804028E0,7.994239330E0
3.650938758E0,-1.041477680E0,-3.524264812E0,8.034940720E0
3.652921526E0,-1.029506683E0,-3.576937437E0,8.087613106E0
3.654936293E0,-1.043871999E0,-3.600879431E0,8.113949776E0
3.656919754E0,-1.098938584E0,-3.665522814E0,8.197746277E0
3.658935675E0,-1.144428372E0,-3.787626982E0,8.279149055E0
3.660917596E0,-1.197100878E0,-3.854664803E0,8.324639320E0
3.662931749E0,-1.300051570E0,-3.998316765E0,8.444349289E0
3.664914824E0,-1.388636947E0,-4.173093796E0,8.547300339E0
3.666929283E0,-1.429338455E0,-4.273650169E0,8.576030731E0
3.668913206E0,-1.522712231E0,-4.467580318E0,8.662221909E0
3.670927665E0,-1.551442742E0,-4.616020679E0,8.700529099E0
3.672911126E0,-1.606509328E0,-4.683058739E0,8.710105896E0
3.674925893E0,-1.630451322E0,-4.826710701E0,8.734047890E0
3.676939122E0,-1.644816518E0,-4.879383087E0,8.762778282E0
3.678923736E0,-1.642422318E0,-5.006275654E0,8.832210541E0
3.680934503E0,-1.625662923E0,-5.068524837E0,8.889671326E0
3.682920579E0,-1.616086125E0,-5.090072632E0,8.913613319E0
3.684935039E0,-1.570596337E0,-5.142745018E0,8.973467827E0
3.686918421E0,-1.510741234E0,-5.183446884E0,9.074024200E0
3.688932651E0,-1.474828243E0,-5.202600479E0,9.162610054E0
3.690916341E0,-1.407790542E0,-5.250484467E0,9.346963882E0
3.692929802E0,-1.345541358E0,-5.298368454E0,9.497797966E0
3.694913492E0,-1.319205165E0,-5.327098846E0,9.557653427E0
3.696929183E0,-1.297657371E0,-5.384559631E0,9.662998199E0
3.698913566E0,-1.288080573E0,-5.470750809E0,9.698910713E0
3.700926487E0,-1.290474772E0,-5.509057999E0,9.686940193E0
3.702939639E0,-1.314416766E0,-5.602431774E0,9.639056206E0
3.704923407E0,-1.328781962E0,-5.628767967E0,9.612719536E0
3.706938098E0,-1.352723956E0,-5.681440830E0,9.583989143E0
3.708921174E0,-1.379060149E0,-5.729324818E0,9.600749016E0
3.710936018E0,-1.388636947E0,-5.753266811E0,9.631873131E0
3.712919016E0,-1.419761658E0,-5.827486992E0,9.715670586E0
3.714933861E0,-1.424550056E0,-5.916072369E0,9.856928825E0
3.716916551E0,-1.422155857E0,-5.983109951E0,9.928754807E0
3.718933166E0,-1.429338455E0,-6.102819920E0,1.002931118E1
3.720915394E0,-1.410184860E0,-6.229712963E0,1.013465595E1
3.722928623E0,-1.400607944E0,-6.272808552E0,1.018253994E1
3.724912622E0,-1.395819545E0,-6.366182327E0,1.029027843E1
3.726926697E0,-1.388636947E0,-6.457161903E0,1.037886429E1
3.728940926E0,-1.371877551E0,-6.507440090E0,1.041477776E1
3.730925463E0,-1.357512355E0,-6.588842869E0,1.048420906E1
3.732938692E0,-1.333570361E0,-6.672640324E0,1.052491093E1
3.734922460E0,-1.314416766E0,-6.703764915E0,1.053927612E1
3.736937151E0,-1.314416766E0,-6.761225700E0,1.052969933E1
3.738921226E0,-1.328781962E0,-6.780379295E0,1.050815105E1
3.740934686E0,-1.343147159E0,-6.787561893E0,1.044350815E1
3.742918376E0,-1.352723956E0,-6.792350292E0,1.035252857E1
3.744932837E0,-1.350329757E0,-6.777985096E0,1.031422138E1
3.746915912E0,-1.369483352E0,-6.766014099E0,1.025675964E1
3.748930064E0,-1.379060149E0,-6.727706909E0,1.019929886E1
3.750913755E0,-1.376665950E0,-6.701370716E0,1.018014526E1
3.752928215E0,-1.367089152E0,-6.636727333E0,1.013704967E1
3.754910983E0,-1.364694953E0,-6.564900875E0,1.007958889E1
3.756925212E0,-1.345541358E0,-6.538564682E0,1.005564690E1
3.758941825E0,-1.309628367E0,-6.469132900E0,9.998186111E0
3.760922978E0,-1.242590666E0,-6.380547523E0,9.938331604E0
3.762937822E0,-1.201889277E0,-6.332663536E0,9.916783333E0
3.764921205E0,-1.118092179E0,-6.263231754E0,9.878476143E0
3.766935281E0,-1.039083481E0,-6.215347767E0,9.842563629E0
3.768919356E0,-1.012747288E0,-6.184223175E0,9.828198433E0
3.770932893E0,-9.385270476E-1,-6.138733387E0,9.780313492E0
3.772916583E0,-9.026140571E-1,-6.119579315E0,9.753977776E0
3.774931351E0,-8.714894056E-1,-6.090848923E0,9.713275909E0
3.776915273E0,-8.547300100E-1,-6.074089527E0,9.667786598E0
3.778929117E0,-8.571242094E-1,-6.066906929E0,9.648633003E0
3.780913116E0,-8.786720037E-1,-6.033388138E0,9.605537415E0
3.782926421E0,-8.978256583E-1,-5.985504150E0,9.591172218E0
3.784940496E0,-9.169792533E-1,-5.966350555E0,9.581595421E0
3.786924572E0,-9.744400978E-1,-5.925649166E0,9.557653427E0
3.788938340E0,-1.012747288E0,-5.884947777E0,9.540893555E0
3.790922646E0,-1.034295082E0,-5.863399982E0,9.528923035E0
3.792936183E0,-1.079784989E0,-5.813121796E0,9.519346237E0
3.794919950E0,-1.127668977E0,-5.774814606E0,9.514557838E0
3.796934103E0,-1.163581967E0,-5.748478413E0,9.519346237E0
3.798918716E0,-1.225831270E0,-5.679046631E0,9.516951561E0
3.800933176E0,-1.247379065E0,-5.612008572E0,9.481039047E0
3.802915021E0,-1.302445769E0,-5.571307182E0,9.449913979E0
3.804929404E0,-1.350329757E0,-5.485116005E0,9.404424667E0
3.806914018E0,-1.381454349E0,-5.444414616E0,9.399636269E0
3.808927324E0,-1.422155857E0,-5.348646641E0,9.402029991E0
3.810942014E0,-1.465251446E0,-5.260061264E0,9.378087997E0
3.812925474E0,-1.486799240E0,-5.204994678E0,9.366117477E0
3.814939626E0,-1.522712231E0,-5.121197224E0,9.373299599E0
3.816923548E0,-1.551442742E0,-5.023035049E0,9.406818390E0
3.818937393E0,-1.568202138E0,-4.977545261E0,9.428366661E0
3.820921083E0,-1.604115129E0,-4.888959885E0,9.461885452E0
3.822935543E0,-1.606509328E0,-4.800374508E0,9.469067574E0
3.824918926E0,-1.613691926E0,-4.752490520E0,9.461885452E0
3.826933693E0,-1.628057122E0,-4.659116745E0,9.421183586E0
3.828916154E0,-1.625662923E0,-4.575319290E0,9.344569206E0
3.830930690E0,-1.620874524E0,-4.525041103E0,9.313444138E0
3.832914612E0,-1.630451322E0,-4.412513733E0,9.255983353E0
3.834927841E0,-1.644816518E0,-4.319139957E0,9.232041359E0
3.836911839E0,-1.683123827E0,-4.278438568E0,9.234436035E0
3.838927838E0,-1.704671621E0,-4.192247391E0,9.272743225E0
3.840911221E0,-1.723825216E0,-4.163516521E0,9.272743225E0
3.842923604E0,-1.757344007E0,-4.098873138E0,9.265560150E0
3.844938064E0,-1.826775908E0,-4.007893562E0,9.215282440E0
3.846922370E0,-1.855506301E0,-3.969586372E0,9.179368973E0
3.848935907E0,-1.905784607E0,-3.909731388E0,9.090784073E0
3.850919828E0,-1.960851192E0,-3.840299606E0,9.018958092E0
3.852933672E0,-1.984793186E0,-3.801992416E0,8.987833023E0
3.854917056E0,-2.039859772E0,-3.715801001E0,8.956708908E0
3.856932515E0,-2.056619167E0,-3.672705412E0,8.927978516E0
3.858916438E0,-2.049436569E0,-3.639186621E0,8.911218643E0
3.860929743E0,-2.051830769E0,-3.593696833E0,8.875306129E0
3.862913049E0,-2.030282974E0,-3.531447411E0,8.805873871E0
3.864928202E0,-2.025494576E0,-3.505111217E0,8.755595207E0
3.866910892E0,-2.027888775E0,-3.435679436E0,8.669404030E0
3.868925353E0,-2.018311977E0,-3.390189648E0,8.621520042E0
3.870938889E0,-2.003946781E0,-3.313575268E0,8.564059258E0
3.872922964E0,-1.984793186E0,-3.260902643E0,8.494627953E0
3.874936117E0,-1.977610588E0,-3.227383852E0,8.456320763E0
3.876920423E0,-1.958456993E0,-3.153163671E0,8.401253700E0
3.878936729E0,-1.948880196E0,-3.081337690E0,8.329427719E0
3.880919266E0,-1.960851192E0,-3.050212860E0,8.300697327E0
3.882932418E0,-1.975216389E0,-3.004723072E0,8.259995461E0
3.884916494E0,-1.972822189E0,-2.944868088E0,8.219294548E0
3.886930876E0,-1.977610588E0,-2.916137695E0,8.192957878E0
3.888913413E0,-1.996764183E0,-2.889801502E0,8.135497093E0
3.890928104E0,-2.018311977E0,-2.856282711E0,8.070854187E0
3.892911564E0,-2.032677174E0,-2.849100113E0,8.030152321E0
3.894926024E0,-2.059013367E0,-2.772485495E0,7.979874134E0
3.896940791E0,-2.066195965E0,-2.724601507E0,7.910442352E0
3.898924174E0,-2.070984364E0,-2.710236311E0,7.869740963E0
3.900937942E0,-2.070984364E0,-2.662352324E0,7.797914982E0
3.902921402E0,-2.075772762E0,-2.643198729E0,7.764396191E0
3.904936401E0,-2.102109194E0,-2.626439333E0,7.718906403E0
3.906918860E0,-2.114080191E0,-2.600103140E0,7.673416615E0
3.908933627E0,-2.114080191E0,-2.590526342E0,7.639897823E0
3.910917088E0,-2.140416384E0,-2.590526342E0,7.594407558E0
3.912930932E0,-2.178723574E0,-2.568978310E0,7.570465565E0
3.914914854E0,-2.188300371E0,-2.557007313E0,7.575253963E0
3.916928468E0,-2.217030764E0,-2.545036316E0,7.558494568E0
3.918914543E0,-2.284068346E0,-2.530671120E0,7.539340973E0
3.920924772E0,-2.305616140E0,-2.528276920E0,7.527369976E0
3.922941617E0,-2.355894566E0,-2.523488522E0,7.524975777E0
3.924925384E0,-2.413355350E0,-2.523488522E0,7.556100368E0
3.926939537E0,-2.434903145E0,-2.530671120E0,7.548917770E0
3.928921919E0,-2.461239338E0,-2.523488522E0,7.486668587E0
3.930936687E0,-2.516305923E0,-2.509123325E0,7.374141216E0
3.932920147E0,-2.533065319E0,-2.506729126E0,7.319074631E0
3.934934530E0,-2.583343744E0,-2.513911724E0,7.242460251E0
3.936919452E0,-2.607285738E0,-2.506729126E0,7.223306656E0
3.938933604E0,-2.655169725E0,-2.506729126E0,7.204153061E0
3.940916064E0,-2.669534922E0,-2.537853718E0,7.182605267E0
3.942929677E0,-2.679111719E0,-2.533065319E0,7.168240070E0
3.944913291E0,-2.700659513E0,-2.540247917E0,7.144298077E0
3.946927521E0,-2.715024710E0,-2.540247917E0,7.108384609E0
3.948942211E0,-2.719813108E0,-2.542642117E0,7.082048416E0
3.950925901E0,-2.712630510E0,-2.552218914E0,7.065289021E0
3.952940131E0,-2.715024710E0,-2.547430515E0,7.048529625E0
3.954923437E0,-2.705447912E0,-2.557007313E0,7.048529625E0
3.956937974E0,-2.671929121E0,-2.571372509E0,7.055712223E0
3.958923203E0,-2.638410330E0,-2.604891539E0,7.046135426E0
3.960936124E0,-2.621650934E0,-2.638410330E0,7.048529625E0
3.962918815E0,-2.576161146E0,-2.674323320E0,7.058106422E0
3.964933583E0,-2.564189911E0,-2.722207308E0,7.062894821E0
3.966917274E0,-2.566584110E0,-2.736572504E0,7.060500622E0
3.968931118E0,-2.568978310E0,-2.772485495E0,7.060500622E0
3.970914808E0,-2.580949545E0,-2.786850691E0,7.070077419E0
3.972928730E0,-2.595314741E0,-2.815581083E0,7.096413612E0
3.974912421E0,-2.614468336E0,-2.834734917E0,7.096413612E0
3.976927112E0,-2.619256735E0,-2.837129116E0,7.091625214E0
3.978941572E0,-2.631227732E0,-2.863465309E0,7.082048416E0
3.980924416E0,-2.636016130E0,-2.856282711E0,7.094019413E0
3.982938876E0,-2.631227732E0,-2.861071110E0,7.110779285E0
3.984921874E0,-2.636016130E0,-2.865859509E0,7.134721279E0
3.986936642E0,-2.647987127E0,-2.875436306E0,7.151480675E0
3.988920102E0,-2.636016130E0,-2.889801502E0,7.146692276E0
3.990934177E0,-2.614468336E0,-2.918531895E0,7.146692276E0
3.992917330E0,-2.585737944E0,-2.935291290E0,7.151480675E0
3.994932328E0,-2.568978310E0,-2.940079689E0,7.168240070E0
3.996915480E0,-2.530671120E0,-2.980781078E0,7.194576263E0
3.998931402E0,-2.497152328E0,-3.019088268E0,7.201758862E0
4.000912938E0,-2.456450939E0,-3.050212860E0,7.223306656E0
4.002927707E0,-2.410961151E0,-3.129221678E0,7.244854450E0
4.004911474E0,-2.377442360E0,-3.162740469E0,7.254431248E0
4.006925626E0,-2.317587137E0,-3.224989653E0,7.271190643E0
4.008940009E0,-2.250549555E0,-3.258508444E0,7.196970463E0
4.010922776E0,-2.217030764E0,-3.277662039E0,7.141903877E0
4.012937621E0,-2.173935175E0,-3.313575268E0,7.034164429E0
4.014920697E0,-2.178723574E0,-3.335123062E0,6.936002254E0
4.016935079E0,-2.197877169E0,-3.342305660E0,6.909666061E0
4.018919694E0,-2.252943754E0,-3.368641853E0,6.878541470E0
4.020933230E0,-2.348711967E0,-3.402160645E0,6.883329868E0
4.022916690E0,-2.387019157E0,-3.421314240E0,6.880935669E0
4.024931150E0,-2.482787132E0,-3.481169224E0,6.845022678E0
4.026914225E0,-2.626439333E0,-3.579331636E0,6.792350292E0
4.028928378E0,-2.681505919E0,-3.634398222E0,6.782773495E0
4.030912299E0,-2.796427488E0,-3.742137194E0,6.816292286E0
4.032925912E0,-2.849100113E0,-3.799597979E0,6.840234280E0
4.034940373E0,-2.918531895E0,-3.940855980E0,6.921637058E0
4.036923756E0,-2.954444885E0,-4.077325344E0,7.005434036E0
4.038939677E0,-2.954444885E0,-4.158728123E0,7.043741226E0
4.040922522E0,-2.932897091E0,-4.314351559E0,7.084442616E0
4.042935443E0,-2.894589901E0,-4.469974518E0,7.144298077E0
4.044919750E0,-2.865859509E0,-4.563348293E0,7.180211067E0
4.046934440E0,-2.784456491E0,-4.716577530E0,7.252037048E0
4.048917899E0,-2.719813108E0,-4.865017891E0,7.290344238E0
4.050932052E0,-2.671929121E0,-4.941632271E0,7.309497833E0
4.052915435E0,-2.588132143E0,-5.092466831E0,7.338228226E0
4.054929895E0,-2.521094322E0,-5.214571476E0,7.352593422E0
4.056913201E0,-2.487575531E0,-5.276820660E0,7.374141216E0
4.058927968E0,-2.451662540E0,-5.398924828E0,7.443572998E0
4.060911429E0,-2.446874142E0,-5.516240597E0,7.532158375E0
4.062924965E0,-2.468421936E0,-5.566518784E0,7.582436562E0
4.064939734E0,-2.492363930E0,-5.652710438E0,7.663839817E0
4.066923424E0,-2.516305923E0,-5.686229229E0,7.714118004E0
4.068937191E0,-2.533065319E0,-5.779603004E0,7.812280178E0
4.070920575E0,-2.545036316E0,-5.856217384E0,7.903259754E0
4.072934188E0,-2.552218914E0,-5.904101372E0,7.941566944E0
4.074917878E0,-2.542642117E0,-6.009446144E0,8.049305916E0
4.076931724E0,-2.504334927E0,-6.121973515E0,8.164227486E0
4.078917568E0,-2.473210335E0,-6.169857979E0,8.216899872E0
4.080931413E0,-2.394201756E0,-6.263231754E0,8.307879448E0
4.082913796E0,-2.312798738E0,-6.366182327E0,8.350975990E0
4.084928024E0,-2.274491549E0,-6.414066315E0,8.360552788E0
4.086912254E0,-2.169146776E0,-6.493074894E0,8.377311707E0
4.088926098E0,-2.054224968E0,-6.579266071E0,8.408436775E0
4.090939713E0,-1.999158382E0,-6.617573261E0,8.434772491E0
4.092924018E0,-1.896207690E0,-6.698976517E0,8.506598473E0
