"Time (s)","Linear Acceleration x (m/s^2)","Linear Acceleration y (m/s^2)","Linear Acceleration z (m/s^2)"
1.492452800E-2,-9.686976671E-3,-1.032614708E-1,2.107191086E-1
2.291982900E-2,-1.228996217E-1,-8.138942719E-2,1.565637589E-1
3.091582300E-2,-1.077165008E-1,-3.255844116E-2,1.290855408E-1
3.894381600E-2,-8.406004310E-2,-1.767063141E-2,1.060361862E-1
4.693711800E-2,-3.439503908E-2,-2.466106415E-2,1.698722839E-1
5.493241900E-2,-5.714192986E-2,1.215934753E-4,2.110767365E-2
6.292849000E-2,-1.192378998E-2,3.697109222E-2,-1.178455353E-2
7.092417500E-2,9.040236473E-2,1.362996101E-1,-3.801059723E-2
7.892163000E-2,1.464698315E-1,1.797776222E-1,-1.296052933E-1
8.691547100E-2,1.496869326E-1,2.017188072E-1,-1.660585403E-1
9.494131000E-2,1.586144418E-1,1.942009926E-1,-2.340717316E-1
1.029370730E-1,1.559974253E-1,1.650862694E-1,-2.961845398E-1
1.109326810E-1,1.303873658E-1,1.360321045E-1,-3.498487473E-1
1.189292910E-1,1.458819211E-1,1.419892311E-1,-3.908557892E-1
1.269237450E-1,1.506813765E-1,1.323008537E-1,-4.408960342E-1
1.349188930E-1,1.913945079E-1,1.081199646E-1,-4.396524429E-1
1.429145020E-1,2.121392936E-1,6.159687042E-2,-4.543905258E-1
1.509409570E-1,2.082935721E-1,2.706289291E-2,-4.346714020E-1
1.589385660E-1,1.933960021E-1,-1.210594177E-2,-4.191694260E-1
1.669323290E-1,1.395144165E-1,-4.717016220E-2,-3.427009583E-1
1.749283230E-1,1.110956892E-1,-6.446123123E-2,-2.571268082E-1
1.829234700E-1,1.161504090E-1,-1.050305367E-1,-2.081632614E-1
1.909193870E-1,9.023961425E-2,-9.852647781E-2,-1.726360321E-1
1.989462260E-1,7.426595688E-2,-6.410741806E-2,-1.888952255E-1
2.069415280E-1,6.212476268E-2,-2.824497223E-2,-2.067861557E-1
2.149360590E-1,4.402595013E-2,-7.565069199E-2,-9.147357941E-2
2.229314380E-1,-2.810124308E-2,-1.885199547E-1,-5.163383484E-2
2.309276620E-1,-9.732729197E-2,-2.940235138E-1,3.059673309E-2
2.389248860E-1,-9.325584769E-2,-2.980599403E-1,1.771640778E-2
2.469181880E-1,-6.819632649E-2,-2.678279877E-1,-1.265335083E-2
2.549141810E-1,-1.908227801E-3,-2.146515846E-1,-6.880664825E-2
2.629402520E-1,3.779223561E-2,-1.843452454E-1,-1.386928558E-1
2.709357070E-1,4.339984059E-2,-1.536049843E-1,-1.616334915E-1
2.789334700E-1,4.666600376E-2,-1.479940414E-1,-1.861763000E-1
2.869270780E-1,5.079169199E-2,-1.462121010E-1,-2.148571014E-1
2.949220720E-1,3.144741803E-2,-1.243262291E-1,-2.691555023E-1
3.029183730E-1,1.101803035E-2,-3.736686707E-2,-3.079233170E-1
3.109448290E-1,2.238364145E-2,2.426338196E-2,-3.657293320E-1
3.189412060E-1,4.628469050E-2,8.945322037E-2,-3.964185715E-1
3.269359690E-1,8.271953464E-2,1.464362144E-1,-3.974533081E-1
3.349316560E-1,6.751653552E-2,1.663622856E-1,-2.635231018E-1
3.429270330E-1,-5.097192526E-2,1.628088951E-1,-1.195621490E-1
3.509226430E-1,-2.818057537E-1,2.925729752E-2,-3.570079803E-2
3.589201740E-1,-3.896646500E-1,-7.883739471E-2,1.184844971E-2
3.669137070E-1,-4.079648554E-1,-1.371178627E-1,-1.502227783E-2
3.749399310E-1,-3.666562438E-1,-1.426444054E-1,-4.178714752E-2
3.829353090E-1,-2.586862445E-1,-1.381874084E-1,-1.304836273E-1
3.909306100E-1,-1.815006137E-1,-1.141467094E-1,-1.182689667E-1
3.989282190E-1,-1.673812568E-1,-1.355147362E-1,-1.058969498E-1
4.069232900E-1,-2.300400436E-1,-1.332454681E-1,-1.558542252E-1
4.149176680E-1,-2.587799132E-1,-1.573996544E-1,-1.171855927E-1
4.229442000E-1,-2.630856633E-1,-2.125554085E-1,-9.989738464E-2
4.309395010E-1,-2.975285351E-1,-2.147345543E-1,-1.278238297E-1
4.389370340E-1,-2.929992080E-1,-1.497120857E-1,-1.483745575E-1
4.469312570E-1,-2.786014676E-1,-3.930616379E-2,-1.736841202E-1
4.549257130E-1,-2.306383550E-1,8.432388306E-3,-1.081771851E-1
4.629222440E-1,-1.985457838E-1,-8.572006226E-2,-3.820896149E-2
4.709177000E-1,-2.124089301E-1,-2.064538002E-1,-4.974365234E-2
4.789453850E-1,-3.125904799E-1,-3.006520271E-1,-3.481197357E-2
4.869394560E-1,-3.281985521E-1,-3.376040459E-1,-1.062211990E-1
4.949342960E-1,-3.091938198E-1,-3.747596741E-1,-1.178712845E-1
5.029308280E-1,-3.010127842E-1,-3.548655510E-1,-9.618282318E-2
5.109256680E-1,-2.910756171E-1,-2.952690125E-1,-8.462238312E-2
5.189231230E-1,-2.094898075E-1,-2.080240250E-1,-1.526641846E-1
5.269172700E-1,-1.320985556E-1,-1.552734375E-1,-1.972875595E-1
5.349431870E-1,-1.535773426E-1,-2.151198387E-1,-2.370653152E-1
5.429384880E-1,-1.484315097E-1,-2.411618233E-1,-2.047328949E-1
5.509342510E-1,-1.585105211E-1,-2.313661575E-1,-1.197004318E-1
5.589323980E-1,-1.572992802E-1,-2.054524422E-1,-3.908157349E-3
5.669258530E-1,-1.441140473E-1,-1.518979073E-1,1.061439514E-3
5.749209240E-1,-1.255249828E-1,-8.802413940E-2,1.198616028E-1
5.829166870E-1,-1.154098809E-1,-1.722254753E-1,3.498096466E-1
5.909431420E-1,-1.652194560E-1,-2.828922272E-1,4.032306671E-1
5.989415970E-1,-3.305955827E-1,-3.812708855E-1,3.043432236E-1
6.069342060E-1,-4.232839346E-1,-3.855357170E-1,1.707448959E-1
6.149301230E-1,-5.620130301E-1,-3.596487045E-1,8.193778992E-2
6.229255770E-1,-5.373163819E-1,-3.294191360E-1,-6.461048126E-2
6.309205710E-1,-3.517196774E-1,-3.873758316E-1,-1.581225395E-1
6.389181800E-1,-1.150385737E-1,-4.348893166E-1,-2.413673401E-1
6.469430200E-1,8.699414134E-2,-4.265308380E-1,-2.952723503E-1
6.549387050E-1,2.687996924E-1,-2.689805031E-1,-4.060950279E-1
6.629341610E-1,3.818534613E-1,-1.056208611E-1,-4.946436882E-1
6.709297700E-1,5.142213702E-1,2.754497528E-2,-5.537891388E-1
6.789273790E-1,5.528562069E-1,9.568595886E-2,-4.623517990E-1
6.869206030E-1,5.485032201E-1,1.010560989E-1,-3.712639809E-1
6.949171350E-1,4.299643636E-1,1.146364212E-1,-2.667655945E-1
7.029424370E-1,2.823329568E-1,1.739621162E-1,-1.853241920E-1
7.109381220E-1,2.007135451E-1,2.287344933E-1,-2.394886017E-1
7.189355770E-1,2.373365164E-1,2.469706535E-1,-3.563575745E-1
7.269291090E-1,3.127489090E-1,2.035026550E-1,-4.225897789E-1
7.349254110E-1,4.276087284E-1,1.876678467E-1,-5.023050308E-1
7.429204820E-1,5.097110271E-1,2.285213470E-1,-5.042729378E-1
7.509162440E-1,6.317514181E-1,2.253937721E-1,-4.859995842E-1
7.589442380E-1,6.886746287E-1,2.166152000E-1,-5.000882149E-1
7.669370770E-1,6.870468259E-1,1.708450317E-1,-4.054088593E-1
7.749331480E-1,5.666567087E-1,1.449341774E-1,-2.957668304E-1
7.829288330E-1,4.600825906E-1,9.062767029E-2,-2.217206955E-1
7.909242120E-1,3.322440088E-1,1.033797264E-1,-1.906991005E-1
7.989220510E-1,2.425932437E-1,1.347126961E-1,-1.552691460E-1
8.069164300E-1,1.691081822E-1,1.030068398E-1,-4.856634140E-2
8.149417300E-1,9.322589636E-2,4.200935364E-2,1.943016052E-2
8.229377240E-1,6.008273363E-2,1.164197922E-2,4.396963120E-2
8.309337190E-1,5.272115022E-2,5.735635757E-2,5.375099182E-2
8.389306350E-1,6.778582931E-2,5.721521378E-2,7.763481140E-2
8.469243980E-1,6.429184973E-2,3.290605545E-2,1.109371185E-1
8.549200830E-1,3.332088143E-2,1.568555832E-2,1.034684181E-1
8.629155390E-1,3.482092172E-2,2.037286758E-2,5.078315735E-2
8.709413010E-1,-4.717409611E-4,1.606750488E-2,3.445053101E-2
8.789388330E-1,-8.451312035E-2,-1.390457153E-2,4.017543793E-2
8.869327500E-1,-1.839241534E-1,-9.359121323E-2,5.591344833E-2
8.949286670E-1,-2.870474756E-1,-1.467275620E-1,9.337711334E-2
9.029240450E-1,-3.564142585E-1,-1.809091568E-1,1.594462395E-1
9.109197310E-1,-3.833002448E-1,-2.016887665E-1,1.888961792E-1
9.189172630E-1,-3.607000709E-1,-1.874327660E-1,1.722121239E-1
9.269412560E-1,-2.839248478E-1,-1.688938141E-1,1.288290024E-1
9.349363270E-1,-1.819057763E-1,-1.911673546E-1,1.236958504E-1
9.429327050E-1,-1.428280175E-1,-2.423272133E-1,1.256470680E-1
9.509280830E-1,-1.772856116E-1,-2.841854095E-1,1.202106476E-1
9.589252300E-1,-2.237917185E-1,-2.663793564E-1,8.828258514E-2
9.669194550E-1,-3.430703878E-1,-1.819596291E-1,1.038904190E-1
9.749154480E-1,-4.287350774E-1,-1.318426132E-1,1.092934608E-1
9.829415190E-1,-5.402307510E-1,-8.007097244E-2,8.060455322E-2
9.909362820E-1,-5.878552198E-1,-1.275496483E-1,2.043304443E-1
9.989341210E-1,-5.507989526E-1,-1.141233444E-1,2.169361115E-1
1.006927962E0,-3.524005115E-1,-3.024053574E-2,3.051300049E-1
1.014923108E0,-1.677901149E-1,-7.551193237E-3,3.180580139E-1
1.022919026E0,-1.194032431E-1,-9.598207474E-2,4.379367828E-1
1.030914788E0,-1.090764850E-1,-1.227736473E-1,4.184808731E-1
1.038941859E0,-9.133496881E-2,-1.452665329E-1,4.537587166E-1
1.046936313E0,2.906404436E-3,-1.301946640E-1,3.233551979E-1
1.054932000E0,3.918670118E-2,-1.491928101E-1,2.884397507E-1
1.062927300E0,-4.660440981E-2,-8.020210266E-2,9.761762619E-2
1.070923294E0,-8.429409564E-2,-1.402854919E-2,6.467103958E-2
1.078920827E0,-1.334302276E-1,4.738712311E-2,-1.381392479E-1
1.086914358E0,-1.607673317E-1,1.027870178E-1,-2.107548714E-1
1.094940583E0,-2.193214893E-1,1.235690117E-1,-3.350973129E-1
1.102935961E0,-2.955758274E-1,2.297716141E-1,-3.121781349E-1
1.110931570E0,-2.804597616E-1,1.715111732E-1,3.384113312E-3
1.118928563E0,-2.891717255E-1,-5.206537247E-2,3.149509430E-2
1.126922326E0,-4.011430740E-1,-1.754198074E-1,1.671009064E-1
1.134918319E0,-4.135916531E-1,-3.623390198E-1,3.688020706E-1
1.142914390E0,-3.998801112E-2,-5.385165215E-1,4.138617516E-1
1.150940153E0,2.352327555E-1,-4.517283440E-1,2.406387329E-1
1.158937685E0,4.826958776E-1,-2.642302513E-1,1.560683250E-1
1.166930987E0,7.478678823E-1,-1.490416527E-1,-6.126022339E-2
1.174926980E0,1.194282055E0,-1.740159988E-1,-2.510023117E-2
1.182921666E0,1.302682161E0,-3.775696754E-1,-6.146907806E-3
1.190918582E0,1.189956307E0,-7.107305527E-1,2.296285629E-1
1.198945115E0,9.395768046E-1,-1.056714535E0,6.659235954E-1
1.206939492E0,7.000762224E-1,-1.173571110E0,9.778265953E-1
1.214935486E0,3.817203641E-1,-1.174786091E0,1.365712166E0
1.222931556E0,1.224052459E-1,-1.185914516E0,1.656380177E0
1.230926320E0,-1.705187112E-1,-1.199350834E0,1.809454441E0
1.238924083E0,-2.145433277E-1,-1.219388962E0,1.978552818E0
1.246918614E0,-2.080335170E-1,-1.246324539E0,2.151487827E0
1.252929686E0,-1.836967766E-1,-1.234419823E0,2.254229546E0
1.254944147E0,-2.004562020E-1,-1.210477829E0,2.278171539E0
1.262939524E0,-2.056721598E-1,-1.176720142E0,2.260268688E0
1.270935134E0,-2.121761590E-1,-1.048179626E0,2.177635193E0
1.278932358E0,-1.889176965E-1,-9.077138901E-1,2.011843204E0
1.286926582E0,-6.605972350E-2,-9.031367302E-1,1.947777748E0
1.294921652E0,1.924563348E-1,-9.191880226E-1,1.837353706E0
1.302917262E0,-3.471997380E-2,-7.868118286E-1,1.744617462E0
1.310943409E0,-3.906638026E-1,-6.593556404E-1,1.612106323E0
1.318940941E0,-5.933013558E-1,-6.853723526E-1,1.631313801E0
1.326935397E0,-8.094298840E-1,-7.570090294E-1,1.634719372E0
1.334930774E0,-9.572441578E-1,-8.932981491E-1,1.517045975E0
1.342926230E0,-9.346928596E-1,-9.074959755E-1,1.347735405E0
1.350922223E0,-7.134141922E-1,-7.675070763E-1,1.163444519E0
1.358919063E0,-3.738869727E-1,-6.672859192E-1,1.074376106E0
1.366943979E0,-6.202818453E-2,-5.759000778E-1,1.035017967E0
1.374939358E0,-1.363822371E-1,-5.609164238E-1,1.727461815E0
1.382935043E0,-8.184823394E-1,-4.421634674E-1,2.020556450E0
1.390930114E0,-1.148213387E0,-1.070218086E-1,3.884696960E-1
1.398927031E0,2.198288888E-1,-1.169323921E-1,-5.329446793E-1
1.406921486E0,1.988035798E0,-2.054100037E-1,-2.324371338E-1
1.414916634E0,1.666984200E0,7.511329651E-2,-3.983974457E-2
1.422943396E0,-8.134739101E-2,2.263674736E-1,3.647994995E-2
1.430939082E0,-1.018191457E0,-5.227184296E-2,2.527132034E-1
1.438935075E0,-1.203817844E0,-3.695015907E-1,4.547958374E-1
1.446929761E0,-1.218531489E0,-4.990296364E-1,6.828098297E-1
1.454925447E0,-1.163919926E0,-4.420123100E-1,8.140439987E-1
1.462921518E0,-1.182468414E0,-2.441411018E-1,9.825401306E-1
1.470916818E0,-1.329881191E0,-2.980279922E-2,8.843955994E-1
1.478944812E0,-1.131317019E0,5.633068085E-2,8.364849091E-1
1.486938037E0,-6.188110113E-1,1.276316643E-1,7.100019455E-1
1.494933723E0,-3.040062189E-1,1.838231087E-1,5.669946671E-1
1.502929717E0,-2.489180267E-1,4.874057770E-1,6.090068817E-2
1.510925710E0,-4.747447968E-1,8.063638210E-1,-6.133937836E-2
1.518922627E0,-7.613695264E-1,8.300223351E-1,4.376697540E-2
1.526916543E0,-9.652188420E-1,7.173547745E-1,2.320842743E-1
1.534942383E0,-1.203168392E0,6.167919636E-1,2.069664001E-1
1.542938376E0,-1.461813569E0,6.630182266E-1,3.592205048E-2
1.550933985E0,-1.596783638E0,7.435016632E-1,1.592540741E-2
1.558931209E0,-1.568134189E0,8.244392872E-1,-1.832485199E-2
1.566925742E0,-1.258490443E0,8.650968075E-1,-8.847427368E-2
1.574920736E0,-8.320615292E-1,9.245047569E-1,-2.610855103E-1
1.582916498E0,-3.730612993E-1,1.028207302E0,-5.334281921E-1
1.590941723E0,-1.003413349E-1,1.126862764E0,-7.207450867E-1
1.598939562E0,6.768226624E-2,1.160954237E0,-8.227300644E-1
1.606933633E0,1.383211911E-1,1.212443352E0,-1.016172409E0
1.614929626E0,1.434383541E-1,1.269737244E0,-1.126089096E0
1.622925081E0,2.886055410E-2,1.373459339E0,-1.087815285E0
1.630919844E0,-1.603107750E-1,1.384975195E0,-9.754533768E-1
1.638917376E0,-5.227017403E-1,1.396983624E0,-1.002427101E0
1.646941678E0,-8.824414015E-1,1.390972733E0,-9.891290665E-1
1.654937902E0,-1.178220749E0,1.397123933E0,-1.142095566E0
1.662933049E0,-1.286040545E0,1.454487085E0,-1.351312637E0
1.670929273E0,-1.236763239E0,1.499426484E0,-1.370254040E0
1.678926190E0,-1.082175255E0,1.481203914E0,-1.381293774E0
1.686920414E0,-8.388398886E-1,1.423674822E0,-1.578349590E0
1.694914870E0,-4.752700329E-1,1.418024659E0,-1.661833763E0
1.702941863E0,-1.729639769E-1,1.431201339E0,-1.786951065E0
1.710937011E0,3.815698624E-2,1.498837709E0,-1.905606747E0
1.718934773E0,2.502482235E-1,1.527204990E0,-1.883533478E0
1.726928382E0,3.416386545E-1,1.509096622E0,-1.837881088E0
1.734923992E0,2.527207434E-1,1.436859727E0,-1.864620686E0
1.742919446E0,1.302128434E-1,1.300909281E0,-1.801117420E0
1.750914825E0,-5.545186996E-2,1.133617282E0,-1.731848240E0
1.758943433E0,-1.847407222E-1,9.467816353E-1,-1.614130974E0
1.766937273E0,-2.024047971E-1,7.713685036E-1,-1.532223225E0
1.774932882E0,-1.444147825E-1,6.721429825E-1,-1.503120422E0
1.782927953E0,2.210372686E-2,6.189017296E-1,-1.557770729E0
1.790923946E0,3.222545385E-1,5.689952374E-1,-1.758207321E0
1.798920555E0,7.020347714E-1,4.553055763E-1,-1.840800285E0
1.806915087E0,9.228864312E-1,3.441112041E-1,-1.893897057E0
1.814940619E0,9.583657980E-1,2.229194641E-1,-1.701802254E0
1.822937152E0,7.967255116E-1,7.933592796E-2,-1.508649349E0
1.830931991E0,5.092700124E-1,-1.564366817E-1,-1.376838207E0
1.838929139E0,2.595404387E-1,-4.461514950E-1,-1.347201347E0
1.846922978E0,2.502623200E-1,-7.014372349E-1,-1.254850388E0
1.854919049E0,4.390729964E-1,-9.855296612E-1,-1.150732994E0
1.862914734E0,6.105632186E-1,-1.145587921E0,-1.095044136E0
1.870940805E0,7.554128766E-1,-1.214899540E0,-1.106844902E0
1.878938029E0,8.586304784E-1,-1.174495459E0,-1.092680931E0
1.886932254E0,9.844996929E-1,-1.112953663E0,-9.326667786E-1
1.894927632E0,1.131429195E0,-1.078377724E0,-7.967996597E-1
1.902923318E0,1.225340605E0,-1.030506849E0,-7.333498001E-1
1.910919004E0,1.284758329E0,-1.023101807E0,-6.532335281E-1
1.918915228E0,1.229871035E0,-1.022652149E0,-5.969104767E-1
1.926940760E0,1.118231773E0,-1.030377626E0,-6.818199158E-1
1.934936215E0,1.017975688E0,-1.074764013E0,-6.490964890E-1
1.942931593E0,9.950505495E-1,-1.119999886E0,-5.729398727E-1
1.950927817E0,1.093668103E0,-1.155408621E0,-6.094102859E-1
1.958925427E0,1.197394133E0,-1.155264616E0,-5.719509125E-1
1.966918958E0,1.333581448E0,-1.068356514E0,-5.448722839E-1
1.974914875E0,1.367342949E0,-8.959717751E-1,-4.902935028E-1
1.982940715E0,1.386233568E0,-7.067408562E-1,-3.130321503E-1
1.990935478E0,1.344910383E0,-5.197618008E-1,-1.288852692E-1
1.998933318E0,1.272043109E0,-4.433875084E-1,1.647377014E-2
2.006927542E0,1.253840685E0,-4.111614227E-1,1.180963516E-1
2.014922536E0,1.289694905E0,-4.108271599E-1,1.259336472E-1
2.022917913E0,1.368899584E0,-4.364342690E-1,-4.308795929E-2
2.030913600E0,1.375116467E0,-4.756207466E-1,-1.683521271E-1
2.038940977E0,1.300562501E0,-4.787530899E-1,-4.357624054E-1
2.046935125E0,1.134422421E0,-5.346097946E-1,-4.505138397E-1
2.054931118E0,9.660338163E-1,-5.598402023E-1,-3.590774536E-1
2.062926497E0,8.881830573E-1,-6.085367203E-1,-1.288433075E-1
2.070921952E0,7.690557837E-1,-6.000766754E-1,-3.324222565E-2
2.078919714E0,6.663631797E-1,-6.300868988E-1,-4.110622406E-2
2.086913632E0,5.464291573E-1,-6.909670830E-1,9.190750122E-2
2.094939778E0,5.046638846E-1,-8.524422646E-1,3.009376526E-1
2.102935465E0,5.406463742E-1,-1.091300964E0,5.639867783E-1
2.110931150E0,5.893810391E-1,-1.284587383E0,8.585891724E-1
2.118928375E0,6.828424931E-1,-1.416417122E0,1.085911751E0
2.126922137E0,7.192131281E-1,-1.524011612E0,1.259106636E0
2.134916977E0,7.116648555E-1,-1.545975208E0,1.310089111E0
2.142913202E0,6.812098026E-1,-1.558762550E0,1.278480530E0
2.150939118E0,6.513886452E-1,-1.533101559E0,1.171413422E0
2.158936343E0,6.629145145E-1,-1.468225956E0,9.796361923E-1
2.166930182E0,6.127039790E-1,-1.377536297E0,8.353376389E-1
2.174926099E0,5.306901932E-1,-1.281649590E0,6.170635223E-1
2.182921477E0,3.357889652E-1,-1.182358742E0,4.496383667E-1
2.190917471E0,1.847146153E-1,-1.110448360E0,3.283987045E-1
2.198945233E0,7.156610489E-3,-9.938287735E-1,2.443494797E-1
2.206938766E0,-1.245601177E-1,-9.450092316E-1,2.506809235E-1
2.214934143E0,-3.557797968E-1,-8.373112679E-1,2.734766006E-1
2.222930060E0,-5.992972255E-1,-7.392830849E-1,2.178144455E-1
2.230925824E0,-8.576828241E-1,-6.121726036E-1,1.044387817E-1
2.238923894E0,-1.024800539E0,-4.304728508E-1,-3.828048706E-3
2.246916503E0,-8.590992093E-1,-2.919073105E-1,-6.862163544E-2
2.254912804E0,-4.921759665E-1,-2.888479233E-1,-1.194677353E-1
2.262938644E0,-2.537155151E-1,-1.924948692E-1,-2.048978806E-1
2.270934098E0,-2.182493508E-1,-1.566219330E-2,-2.249860764E-1
2.278931323E0,-2.483608425E-1,1.605277061E-1,-9.241676331E-2
2.286925778E0,-2.980499268E-1,2.956933975E-1,8.981227875E-2
2.294920464E0,-3.923904300E-1,3.609466553E-1,3.528156281E-1
2.302916842E0,-5.271287560E-1,4.592146873E-1,2.645092010E-1
2.310943605E0,-5.809434652E-1,5.673766136E-1,2.730236053E-1
2.318940753E0,-5.771895051E-1,5.949993134E-1,4.036455154E-1
2.326934361E0,-6.371501684E-1,5.955028534E-1,3.633747101E-1
2.334929740E0,-7.593823671E-1,6.689686775E-1,3.531169891E-1
2.342925348E0,-6.882016659E-1,8.332443237E-1,3.163299561E-1
2.350920727E0,-6.269891858E-1,1.070333719E0,2.261810303E-1
2.358917951E0,-6.934630275E-1,1.301364899E0,1.858301163E-1
2.366942637E0,-7.945965528E-1,1.420235634E0,2.705450058E-1
2.374938245E0,-8.211277723E-1,1.547579527E0,2.726440430E-1
2.382933624E0,-7.389400005E-1,1.629160404E0,2.884197235E-1
2.390929695E0,-5.816949010E-1,1.707659721E0,1.010522842E-1
2.398926611E0,-4.508411288E-1,1.781294584E0,-1.059865952E-1
2.406920990E0,-2.891973257E-1,1.873555899E0,-2.600011826E-1
2.414916444E0,-1.871522814E-1,1.893196344E0,-2.487506866E-1
2.422942592E0,-2.271337509E-1,1.897475004E0,-5.451202393E-2
2.430937354E0,-3.487845957E-1,1.848003149E0,-4.368591309E-2
2.438936041E0,-4.227812290E-1,1.789352655E0,3.220367432E-2
2.446929957E0,-3.660422266E-1,1.615572214E0,2.553853989E-1
2.454925028E0,-1.764544249E-1,1.457259655E0,1.140270233E-1
2.462921021E0,5.074554682E-2,1.344658375E0,4.927921295E-2
2.470916015E0,3.535558879E-1,1.228490829E0,-1.744937897E-2
2.478943701E0,6.070237160E-1,1.128375769E0,-9.318637848E-2
2.486937925E0,8.474901319E-1,1.086411715E0,-1.892423630E-1
2.494932919E0,1.016909242E0,9.986999035E-1,-3.336029053E-1
2.502929527E0,1.161299467E0,9.088900089E-1,-4.085826874E-1
2.510924675E0,1.227941513E0,6.884279251E-1,-3.143272400E-1
2.518922207E0,1.272265792E0,4.689838886E-1,-4.242448807E-1
2.526915662E0,1.208415031E0,2.021431923E-1,-3.651008606E-1
2.534942194E0,9.784978628E-1,-7.442569733E-2,-2.952480316E-1
2.542936957E0,6.608988047E-1,-4.614667892E-1,-1.405878067E-1
2.550932642E0,3.174300790E-1,-7.896795273E-1,-3.921985626E-2
2.558931098E0,7.441161573E-2,-9.521169662E-1,5.027008057E-2
2.566924553E0,-1.010179520E-1,-1.031751156E0,-2.254104614E-2
2.574919008E0,-1.314263642E-1,-1.274413109E0,4.728317261E-1
2.582915617E0,-1.309857368E-1,-1.689031124E0,2.788419724E-1
2.590941764E0,1.136150956E-2,-1.542479038E0,8.405017853E-2
2.598938758E0,2.045640349E-1,-1.116761684E0,-3.388366699E-1
2.606932905E0,4.010314941E-1,-7.422590256E-1,-4.989604950E-1
2.614927899E0,5.599046946E-1,-6.837334633E-1,-6.710367203E-1
2.622923892E0,7.691535950E-1,-8.765988350E-1,-5.675754547E-1
2.630919655E0,8.966565132E-1,-1.070793152E0,-4.667596817E-1
2.638916265E0,8.913562298E-1,-1.162695408E0,-3.573236465E-1
2.646941412E0,7.458205223E-1,-1.193169117E0,-3.805160522E-1
2.654937098E0,7.072403431E-1,-1.146876812E0,-3.191661835E-1
2.662931937E0,7.519817352E-1,-1.234751225E0,-3.290510178E-1
2.670928162E0,7.493106723E-1,-1.253338337E0,-5.693330765E-1
2.678925463E0,7.646891475E-1,-1.219651699E0,-5.516386032E-1
2.686918687E0,7.040102482E-1,-1.278147697E0,-3.374795914E-1
2.694914680E0,5.576956272E-1,-1.387066364E0,-2.603807449E-1
2.702941444E0,3.729780316E-1,-1.448505402E0,-2.080535889E-1
2.710936821E0,2.172184885E-1,-1.438510895E0,-2.477321625E-1
2.718932431E0,1.775074005E-2,-1.392294884E0,-2.524557114E-1
2.726927579E0,-1.115669012E-1,-1.413527012E0,-1.871166229E-1
2.734922572E0,-2.592371702E-1,-1.544895172E0,-1.930828094E-1
2.742918873E0,-4.484716654E-1,-1.633490086E0,-1.727466583E-1
2.750914251E0,-5.724248290E-1,-1.591302872E0,-1.216993332E-1
2.758942322E0,-6.877673268E-1,-1.448890686E0,-1.135692596E-1
2.766935853E0,-8.060644865E-1,-1.245610237E0,-1.687822342E-1
2.774932463E0,-1.071131349E0,-1.068014145E0,-3.358173370E-2
2.782927456E0,-1.361577272E0,-9.064927101E-1,-1.434421539E-2
2.790922834E0,-1.479730487E0,-8.303098679E-1,5.191326141E-2
2.798919443E0,-1.510426164E0,-7.266230583E-1,9.362316132E-2
2.806914822E0,-1.489675522E0,-5.806288719E-1,1.014928818E-1
2.814940662E0,-1.440750837E0,-4.318428040E-1,2.686767578E-1
2.822936116E0,-1.387504339E0,-3.227314949E-1,4.168996811E-1
2.830931187E0,-1.306108356E0,-2.546262741E-1,6.890439987E-1
2.838928411E0,-1.293401957E0,-2.641849518E-1,9.410400391E-1
2.846922174E0,-1.441005230E0,-2.504525185E-1,9.408063889E-1
2.854918783E0,-1.668601513E0,-1.598887444E-1,1.033584595E0
2.862912931E0,-1.781492949E0,2.234077454E-2,1.166999817E0
2.870939462E0,-1.796366572E0,2.995676994E-1,1.200461388E0
2.878936918E0,-1.737585187E0,5.815262794E-1,1.113016129E0
2.886931450E0,-1.726479769E0,8.273825645E-1,9.383106232E-1
2.894926212E0,-1.902900934E0,1.179918289E0,6.784877777E-1
2.902921822E0,-2.099777460E0,1.373037100E0,6.377334595E-1
2.910918122E0,-2.155000448E0,1.491692781E0,6.145343781E-1
2.918915655E0,-2.016238689E0,1.554161549E0,5.058088303E-1
2.926939725E0,-1.725611448E0,1.684673309E0,2.338905334E-1
2.934935719E0,-1.404988527E0,1.824208975E0,2.813911438E-2
2.942931327E0,-1.242150545E0,1.945831776E0,2.015876770E-2
2.950925860E0,-1.127226114E0,2.082448244E0,1.116590500E-1
2.958924237E0,-1.061518788E0,2.108010530E0,8.239269257E-2
2.966918154E0,-1.040873408E0,2.171752930E0,-1.392889023E-1
2.974912610E0,-1.034746528E0,2.250628710E0,-4.178104401E-1
2.982939603E0,-1.027129889E0,2.269150019E0,-4.116964340E-1
2.990934674E0,-1.068963408E0,2.229959726E0,-1.760311127E-1
2.998932898E0,-9.916727543E-1,2.136616945E0,-1.356744766E-1
3.006925815E0,-7.645928860E-1,2.040734053E0,-1.566429138E-1
3.014921731E0,-5.602881908E-1,2.006719351E0,-1.345329285E-1
3.022917417E0,-3.222142458E-1,1.990154982E0,-1.650981903E-1
3.030913410E0,-3.107404709E-2,1.986756086E0,-1.406383514E-1
3.038940558E0,2.161400318E-1,1.942794085E0,-6.165885925E-2
3.046934397E0,3.993725777E-1,1.870930910E0,-1.072463989E-1
3.054930084E0,4.744596481E-1,1.771299124E0,-3.143663406E-1
3.062926001E0,6.632720232E-1,1.592479706E0,-3.996887207E-1
3.070921148E0,9.016803503E-1,1.380234957E0,-6.109733582E-1
3.078918911E0,1.134909153E0,1.180512428E0,-7.062187195E-1
3.086912519E0,1.421665072E0,9.513421059E-1,-7.504076958E-1
3.094938359E0,1.673115611E0,8.121211529E-1,-6.203508377E-1
3.102934276E0,1.755248308E0,6.302385330E-1,-4.588174820E-1
3.110930346E0,1.617429376E0,3.802635670E-1,-2.509183884E-1
3.118927570E0,1.506392479E0,6.824064255E-2,3.825941086E-1
3.126921334E0,1.248925686E0,-7.937970161E-1,1.387879372E0
3.134917097E0,8.844877481E-1,-1.325496674E0,1.168468475E0
3.142912090E0,6.317915916E-1,-1.529452801E0,1.085367203E0
3.150938545E0,6.934282780E-1,-1.372584820E0,7.331972122E-1
3.158936461E0,1.124468088E0,-1.111332417E0,4.946022034E-1
3.166929609E0,1.432861567E0,-1.103847027E0,3.821468353E-1
3.174925679E0,1.381868362E0,-1.304725647E0,3.197889328E-1
3.182921366E0,1.270000100E0,-1.547651768E0,9.332561493E-2
3.190915512E0,1.332705975E0,-1.641290188E0,-3.587369919E-1
3.198943737E0,1.524428725E0,-1.619102478E0,-6.313171387E-1
3.206939192E0,1.577240229E0,-1.577694416E0,-7.104949951E-1
3.214933878E0,1.496350527E0,-1.544418812E0,-7.615337372E-1
3.222929872E0,1.343597293E0,-1.621157169E0,-5.674324036E-1
3.230924711E0,1.195209026E0,-1.747689724E0,-5.549325943E-1
3.238921628E0,1.043580413E0,-1.860802650E0,-5.041847229E-1
3.246916391E0,1.028038502E0,-1.894542694E0,-3.403081894E-1
3.254911692E0,1.031728148E0,-1.784326077E0,-4.035797119E-1
3.262937916E0,8.826599121E-1,-1.638715267E0,-2.946128845E-1
3.270933910E0,7.069975138E-1,-1.680147171E0,-1.819648743E-1
3.278929903E0,6.237979531E-1,-1.887445450E0,-1.568040848E-1
3.286924590E0,5.867904425E-1,-1.950574875E0,-2.306900024E-1
3.294920584E0,6.278766990E-1,-1.897968769E0,-1.906356812E-1
3.302915653E0,5.815954804E-1,-1.829450130E0,-2.615585327E-1
3.310942186E0,3.578215837E-1,-1.785971165E0,-4.256610870E-1
3.318939410E0,-5.886763334E-2,-1.608561993E0,-4.239130020E-1
3.326934096E0,-3.924947381E-1,-1.541273594E0,-2.408943176E-1
3.334928628E0,-6.392943859E-1,-1.530583858E0,-1.027221680E-1
3.342924622E0,-8.201704025E-1,-1.505894184E0,3.280162811E-2
3.350919692E0,-1.158392429E0,-1.363999367E0,7.230854034E-2
3.358916609E0,-1.576656699E0,-1.086977482E0,1.218290329E-1
3.366941755E0,-1.761630535E0,-8.567523956E-1,9.346008301E-4
3.374937826E0,-1.753183484E0,-6.981773376E-1,-5.238819122E-2
3.382932820E0,-1.662940264E0,-5.979485512E-1,6.418323517E-2
3.390928275E0,-1.612595677E0,-4.191212654E-1,2.540874481E-2
3.398925500E0,-1.720786214E0,-1.629152298E-1,2.042083740E-1
3.406919339E0,-1.808160305E0,9.557533264E-2,1.813468933E-1
3.414915333E0,-1.893687248E0,3.789896965E-1,3.153638840E-1
3.422911018E0,-1.924980879E0,5.715732574E-1,3.354015350E-1
3.430936858E0,-1.956108332E0,7.084231377E-1,3.990888596E-1
3.438934621E0,-2.057072163E0,9.573264122E-1,2.412157059E-1
3.446928538E0,-2.049995899E0,1.191092253E0,2.139673233E-1
3.454923608E0,-1.955388427E0,1.429216385E0,8.921623230E-2
3.462919294E0,-1.856687069E0,1.613431931E0,2.087059021E-1
3.470915211E0,-1.790058017E0,1.780262709E0,2.385444641E-1
3.478943204E0,-1.673651934E0,1.850658417E0,3.721971512E-1
3.486936506E0,-1.599291444E0,1.850246906E0,5.857744217E-1
3.494931884E0,-1.432756186E0,1.951089144E0,4.888238907E-1
3.502927878E0,-1.165127397E0,2.072658539E0,1.053781509E-1
3.510923871E0,-9.532287121E-1,2.227897406E0,-5.063343048E-2
3.518920403E0,-7.904503345E-1,2.250634432E0,9.343624115E-2
3.526914627E0,-5.344452858E-1,2.254389048E0,2.237758636E-1
3.534941082E0,-4.707832336E-1,2.191969156E0,1.716537476E-1
3.542936075E0,-5.058741570E-1,2.087366343E0,3.124446869E-1
3.550932377E0,-5.819897652E-1,1.984109640E0,3.484840393E-1
3.558928987E0,-5.437905788E-1,1.892955065E0,4.653358459E-1
3.566923518E0,-4.244446754E-1,1.731612444E0,3.044729233E-1
3.574919127E0,-2.544400692E-1,1.558215857E0,2.082481384E-1
3.582914582E0,2.120923996E-2,1.364616871E0,3.120708466E-2
3.590940961E0,3.928387165E-1,1.180072308E0,-1.021137238E-1
3.598937569E0,6.928653717E-1,1.059014797E0,-2.010097504E-1
3.606932025E0,8.750705719E-1,1.099874973E0,-7.820177078E-1
3.614927787E0,1.035193563E0,1.083529711E0,-1.065352440E0
3.622923396E0,1.249363780E0,8.459188938E-1,-9.563331604E-1
3.630918159E0,1.313531756E0,4.767684937E-1,-6.181135178E-1
3.638915768E0,1.499594808E0,2.168288231E-1,-6.875777245E-1
3.646940300E0,1.785091758E0,1.066443920E-1,-6.854705811E-1
3.654936293E0,1.827509999E0,-3.258037567E-2,-5.574283600E-1
3.662931749E0,1.572408319E0,-4.194462299E-1,-2.223138809E-1
3.670927665E0,1.312500358E0,-1.025442362E0,3.588962555E-2
3.678923736E0,1.200232863E0,-1.398965120E0,1.675109863E-1
3.686918421E0,1.291975737E0,-1.550933599E0,4.068441391E-1
3.694913492E0,1.414857984E0,-1.658615828E0,8.836975098E-1
3.702939639E0,1.323256373E0,-1.886660576E0,9.553871155E-1
3.710936018E0,1.161481977E0,-1.994386196E0,9.406070709E-1
3.718933166E0,1.046205997E0,-2.310146332E0,1.331167221E0
3.726926697E0,1.027298808E0,-2.646773577E0,1.671707153E0
3.734922460E0,1.056123853E0,-2.896194220E0,1.818420410E0
3.742918376E0,9.702016115E-1,-2.993273497E0,1.615170479E0
3.750913755E0,8.986457586E-1,-2.913909674E0,1.425233841E0
3.758941825E0,9.220179319E-1,-2.695195675E0,1.226210594E0
3.766935281E0,1.154983759E0,-2.455364943E0,1.055130005E0
3.774931351E0,1.291644454E0,-2.344889164E0,9.121942520E-1
3.782926421E0,1.241709232E0,-2.254439116E0,7.780036926E-1
3.790922646E0,1.089585781E0,-2.148318291E0,7.052230835E-1
3.798918716E0,8.889260292E-1,-1.981256247E0,6.838026047E-1
3.806914018E0,7.286041975E-1,-1.765643358E0,5.574254990E-1
3.814939626E0,5.845439434E-1,-1.462909937E0,5.219268799E-1
3.822935543E0,4.979101419E-1,-1.164104939E0,6.079530716E-1
3.830930690E0,4.777580500E-1,-9.121398926E-1,4.414052963E-1
3.838927838E0,3.827974796E-1,-6.031525135E-1,3.884162903E-1
3.846922370E0,2.143501043E-1,-4.049530029E-1,2.810840607E-1
3.854917056E0,2.796888351E-3,-1.691958904E-1,4.494476318E-2
3.862913049E0,-2.345538139E-2,6.418228149E-3,-1.174974442E-1
3.870938889E0,-3.745353222E-2,2.241868973E-1,-3.683271408E-1
3.878936729E0,-2.210462093E-2,4.628336430E-1,-6.090707779E-1
3.886930876E0,-8.458435535E-2,6.373608112E-1,-7.490491867E-1
3.894926024E0,-1.894371510E-1,7.900824547E-1,-9.634566307E-1
3.902921402E0,-2.164279222E-1,9.189057350E-1,-1.181252956E0
3.910917088E0,-2.820832729E-1,9.598319530E-1,-1.356119633E0
3.918914543E0,-4.205523729E-1,1.004150152E0,-1.416256905E0
3.926939537E0,-5.613278151E-1,9.875516891E-1,-1.411116600E0
3.934934530E0,-6.983335018E-1,9.877803326E-1,-1.721650124E0
3.942929677E0,-7.864142656E-1,9.541513920E-1,-1.799892902E0
3.950925901E0,-8.170785904E-1,9.236285686E-1,-1.906653881E0
3.958923203E0,-7.427341938E-1,8.636629581E-1,-1.928602695E0
3.966917274E0,-6.738431454E-1,7.285084724E-1,-1.916199207E0
3.974912421E0,-7.273259163E-1,6.295750141E-1,-1.881762505E0
3.982938876E0,-7.529786825E-1,6.055674553E-1,-1.868362904E0
3.990934177E0,-7.482799292E-1,5.535762310E-1,-1.832850456E0
3.998931402E0,-6.456093788E-1,4.616665840E-1,-1.777468204E0
4.006925626E0,-4.819811583E-1,2.673985958E-1,-1.706791878E0
4.014920697E0,-3.602498770E-1,1.731822491E-1,-2.039260387E0
4.022916690E0,-5.851182938E-1,1.088733673E-1,-2.089087486E0
4.030912299E0,-1.006863952E0,-1.849308014E-1,-2.145522594E0
4.038939677E0,-1.169014215E0,-5.704314709E-1,-1.906496048E0
4.046934440E0,-9.950122833E-1,-1.094215870E0,-1.683665276E0
4.054929895E0,-7.235599756E-1,-1.555911064E0,-1.566681862E0
4.062924965E0,-6.642119884E-1,-1.870489120E0,-1.320067406E0
4.070920575E0,-7.383418083E-1,-2.120606661E0,-9.822030067E-1
4.078917568E0,-6.583782434E-1,-2.375695944E0,-6.420564651E-1
4.086912254E0,-3.470211029E-1,-2.617327690E0,-4.447536469E-1
4.094938093E0,-2.370226383E-2,-2.797154903E0,-1.836452484E-1
4.102933472E0,3.650797606E-1,-2.865089893E0,4.649257660E-2
4.110929234E0,6.754058599E-1,-2.913853645E0,1.600646973E-1
4.118926767E0,8.657642603E-1,-2.876001358E0,1.363840103E-1
4.126920915E0,1.032290816E0,-2.740098953E0,8.246803284E-2
4.134916292E0,1.114175439E0,-2.584860325E0,1.206445694E-1
4.142911978E0,1.347220659E0,-2.473382473E0,5.419406891E-1
4.150938125E0,1.825392604E0,-2.447979927E0,9.950685501E-1
4.158935042E0,2.244367599E0,-2.381892204E0,8.287897110E-1
4.166929112E0,2.587728024E0,-2.261290073E0,1.072983742E0
4.174924183E0,2.549199820E0,-2.030233383E0,1.346976280E0
4.182920869E0,2.324497461E0,-1.592795372E0,1.586045265E0
4.190915940E0,2.253896236E0,-1.029535770E0,1.328567505E0
4.198913471E0,2.277785301E0,-5.466060638E-1,1.387336731E0
4.206937080E0,2.239921570E0,-5.682835579E-1,2.209678650E0
4.214933382E0,2.121061325E0,-8.444209099E-1,2.328368187E0
4.222928452E0,2.076073647E0,-5.030674934E-1,2.521675110E0
4.230924138E0,1.910054564E0,4.713106155E-1,1.985660553E0
4.238921670E0,1.665388227E0,1.648413181E0,1.409364700E0
4.246915895E0,1.530839324E0,2.277400732E0,1.050159454E0
4.254910580E0,1.541421413E0,2.362968206E0,8.699893951E-1
4.262937036E0,1.394164920E0,2.322937727E0,5.841045380E-1
4.270932798E0,1.058904409E0,2.269343615E0,4.322357178E-1
4.278930253E0,5.858523846E-1,2.340037346E0,2.692699432E-1
4.286924094E0,3.237693906E-1,2.559912920E0,-6.361007690E-3
4.294919548E0,2.139672041E-1,2.697178841E0,-1.806249619E-1
4.302915158E0,2.390647531E-1,2.726322174E0,-4.638757706E-1
4.310941304E0,2.343393564E-1,2.520956039E0,-5.711851120E-1
4.318937298E0,1.592845917E-1,2.089516163E0,-4.336128235E-1
4.326933061E0,-1.629590988E-4,1.700160980E0,-5.950622559E-1
4.334928055E0,-1.416279674E-1,1.533417463E0,-8.254356384E-1
4.342924048E0,-3.099640608E-1,1.448537350E0,-8.839702606E-1
4.350919119E0,-5.656281114E-1,1.199574232E0,-6.444730759E-1
4.358916650E0,-8.845902085E-1,7.391519547E-1,-5.781469345E-1
4.366941029E0,-1.240491390E0,4.480936527E-1,-7.017230988E-1
4.374936407E0,-1.729182720E0,2.751364708E-1,-7.474985123E-1
4.382932939E0,-2.046911716E0,1.542668343E-1,-7.041082382E-1
4.390928087E0,-2.142724276E0,-3.158617020E-2,-6.793203354E-1
4.398924618E0,-2.143331528E0,-2.621383667E-1,-6.031522751E-1
4.406919151E0,-2.136553049E0,-4.721438885E-1,-4.656238556E-1
4.414914759E0,-2.146939278E0,-7.193794250E-1,-4.403285980E-1
4.422940984E0,-2.074114799E0,-9.167380333E-1,-6.717729568E-1
4.430936669E0,-1.800277948E0,-1.029499054E0,-7.836141586E-1
4.438933586E0,-1.484252334E0,-1.205507517E0,-6.893157959E-1
4.446927426E0,-1.349795461E0,-1.374932051E0,-5.993194580E-1
4.454923035E0,-1.134147525E0,-1.446942568E0,-7.728385925E-1
4.462919029E0,-8.716658354E-1,-1.467105389E0,-7.505903244E-1
4.470914714E0,-6.622688770E-1,-1.552836418E0,-7.171678543E-1
4.478941785E0,-5.061376095E-1,-1.689467907E0,-6.379947662E-1
4.486936624E0,-4.042344093E-1,-1.708047867E0,-7.135829926E-1
4.494931311E0,-2.572935820E-1,-1.721364021E0,-6.973080635E-1
4.502927073E0,-3.680181503E-2,-1.718810081E0,-4.359493256E-1
4.510922682E0,2.730641365E-1,-1.781240940E0,-2.784004211E-1
4.518919983E0,5.264315605E-1,-1.912003517E0,-1.276016235E-1
4.526914054E0,8.569595218E-1,-1.995441914E0,5.367851257E-2
4.534939893E0,1.058668375E0,-2.043352127E0,6.001472473E-2
4.542935887E0,1.078886271E0,-2.018366337E0,3.382415771E-1
4.550931266E0,1.176904440E0,-1.930599213E0,6.531076431E-1
4.558928567E0,1.418668270E0,-1.869602680E0,6.540117264E-1
4.566922714E0,1.913809538E0,-1.878972530E0,6.247472763E-1
4.574918015E0,2.228226900E0,-1.845056057E0,5.709323883E-1
4.582914625E0,2.253863811E0,-1.797881603E0,4.599294662E-1
4.590939848E0,2.184864759E0,-1.622841835E0,2.079629898E-1
4.598936842E0,2.193121910E0,-1.457842827E0,2.108478546E-1
4.606930912E0,2.490002632E0,-1.256402493E0,2.002763748E-1
4.614926368E0,2.731014252E0,-9.587683678E-1,3.885574341E-1
4.622923516E0,2.887852192E0,-6.942133904E-1,4.470319748E-1
4.630918278E0,2.880928993E0,-4.103074074E-1,5.143804550E-1
4.638914041E0,2.698909760E0,-1.661329269E-1,7.171106339E-1
4.646939803E0,2.564295292E0,-2.044963837E-2,8.226318359E-1
4.654934951E0,2.551870823E0,1.414284706E-1,8.189334869E-1
4.662931252E0,2.625729561E0,4.979615211E-1,6.171722412E-1
4.670926015E0,2.594083548E0,9.970924854E-1,3.290443420E-1
4.678922316E0,2.491872787E0,1.474023581E0,1.542425156E-1
4.686917387E0,2.395683527E0,1.989386320E0,-9.624099731E-2
4.694913072E0,2.193686485E0,2.229142427E0,-2.754268646E-1
4.702939220E0,1.931055069E0,2.336248159E0,-3.527145386E-1
4.710934599E0,1.490429878E0,2.398864746E0,-2.593011856E-1
4.718931438E0,1.013029456E0,2.507212639E0,-1.465263367E-1
4.726925586E0,6.373311281E-1,2.664893866E0,-4.333019257E-2
4.734921656E0,4.686176479E-1,2.714005947E0,7.840442657E-2
4.742917034E0,4.560398161E-1,2.621333361E0,2.244634628E-1
4.750913027E0,4.766496420E-1,2.506365538E0,2.390470505E-1
4.758939791E0,3.627731204E-1,2.341718674E0,4.054031372E-1
4.766935091E0,3.416523337E-2,2.172282219E0,6.899557114E-1
4.774930778E0,-4.213686585E-1,1.918090582E0,8.591699600E-1
4.782925541E0,-8.817204237E-1,1.594023228E0,9.040374756E-1
4.790921534E0,-1.277853727E0,1.338485003E0,6.578617096E-1
4.798917913E0,-1.738671184E0,1.146031380E0,3.869667053E-1
4.806913213E0,-2.135461807E0,9.137628078E-1,6.470394135E-2
4.814938823E0,-2.318170547E0,7.852079868E-1,-3.693170547E-1
4.822933893E0,-2.431621313E0,6.637933254E-1,-5.794515610E-1
4.830930117E0,-2.441147089E0,5.236444473E-1,-6.385421753E-1
4.838926418E0,-2.335945845E0,2.313876152E-1,-5.354967117E-1
4.846921489E0,-2.131895781E0,-1.501555443E-1,-5.840215683E-1
4.854916559E0,-1.922817707E0,-3.379447460E-1,-7.171916962E-1
4.862912322E0,-1.682654142E0,-3.579053879E-1,-1.019164085E0
4.870938086E0,-1.391445160E0,-3.513774872E-1,-8.733253479E-1
4.878935079E0,-1.090331316E0,-6.293721199E-1,-4.478960037E-1
4.886929457E0,-8.740068674E-1,-1.030476570E0,-2.498331070E-1
4.894924835E0,-8.336657882E-1,-1.366825819E0,-5.409469604E-1
4.902921752E0,-8.095219731E-1,-1.572522879E0,-4.988422394E-1
4.910916283E0,-7.835890055E-1,-1.726866484E0,-4.103097916E-1
4.926938040E0,-6.167992353E-1,-1.894325018E0,-7.449941635E-1
4.934933495E0,-4.659905434E-1,-1.899137974E0,-8.382272720E-1
4.942929411E0,-4.672092199E-1,-1.986760139E0,-7.927665710E-1
4.950924867E0,-4.700624943E-1,-2.106661558E0,-7.272548676E-1
4.958922015E0,-4.095641375E-1,-2.089220047E0,-8.925867081E-1
4.966916469E0,-1.910780668E-1,-2.074647903E0,-6.474304199E-1
4.974911848E0,-1.600521803E-1,-2.087680817E0,-6.628847122E-1
4.982938072E0,-1.224484444E-1,-2.091135025E0,-5.490293503E-1
4.990933066E0,1.156563759E-1,-2.264040470E0,-1.699924469E-1
4.998929751E0,4.468891621E-1,-2.458985329E0,-7.474803925E-2
5.006924822E0,6.712889671E-1,-2.490403652E0,1.024045944E-1
5.014920815E0,8.092216253E-1,-2.444044590E0,1.442480087E-1
5.022916117E0,9.963816404E-1,-2.425777435E0,2.641448975E-1
5.030912111E0,1.363391280E0,-2.412275791E0,2.548398972E-1
5.038939488E0,1.688944578E0,-2.339006424E0,3.949451447E-2
5.046933405E0,1.788862824E0,-2.222443104E0,-7.012367249E-3
5.054928783E0,2.083549261E0,-2.181280613E0,9.329414368E-2
5.062924469E0,2.466299534E0,-2.070373058E0,-7.202911377E-2
5.070920386E0,2.725136518E0,-1.800539017E0,-2.781486511E-1
5.078916687E0,2.857357979E0,-1.524805546E0,-3.684844971E-1
5.086911450E0,2.967962742E0,-1.211618423E0,-1.883487701E-1
5.094937597E0,3.148467064E0,-1.031828880E0,-2.889347076E-2
5.102932975E0,3.148982525E0,-8.617939949E-1,-2.461528778E-2
5.110928046E0,2.919353962E0,-5.279593468E-1,1.232995987E-1
5.118924732E0,2.783100128E0,-2.539758682E-1,2.110290527E-1
5.126919725E0,2.636597633E0,7.724142075E-2,2.648878098E-1
5.134915412E0,2.457954168E0,4.997167587E-1,3.750362396E-1
5.142911097E0,2.309414148E0,8.725450039E-1,4.448595047E-1
5.150937322E0,2.240142822E0,1.118680954E0,5.186901093E-1
5.158933853E0,2.224421263E0,1.250392199E0,5.718803406E-1
5.166928616E0,2.081863880E0,1.567696095E0,6.132545471E-1
5.174923686E0,1.844198942E0,1.943637848E0,5.603075027E-1
5.182919373E0,1.537233710E0,2.251543760E0,3.500576019E-1
5.190915058E0,1.486436725E0,2.422704697E0,3.868598938E-1
5.198942437E0,1.378653765E0,2.422256470E0,2.646112442E-1
5.206936892E0,1.072076678E0,2.434683800E0,1.338491440E-1
5.214932039E0,6.662722826E-1,2.405678272E0,1.811084747E-1
5.222928341E0,1.541124880E-1,2.475037336E0,3.150463104E-2
5.230923949E0,-1.953382939E-1,2.445018291E0,2.251482010E-1
5.238920866E0,-3.539282382E-1,2.240368605E0,4.061126709E-1
5.246914475E0,-6.210908890E-1,2.005667448E0,5.091705322E-1
5.254909546E0,-9.936763048E-1,1.831731319E0,5.701723099E-1
5.262936539E0,-1.465060472E0,1.640555143E0,5.199975967E-1
5.270931379E0,-1.818740368E0,1.411778212E0,5.338687897E-1
5.278929450E0,-2.034725666E0,1.262092113E0,4.210844040E-1
5.286923597E0,-2.285858154E0,1.123017073E0,2.119045258E-1
5.294919052E0,-2.432266712E0,9.917123318E-1,7.011508942E-2
5.302913814E0,-2.511476040E0,8.583774567E-1,-1.636152267E-1
5.310940809E0,-2.424766064E0,7.175931931E-1,-2.116327286E-1
5.318937417E0,-2.257887125E0,5.182487965E-1,-3.367090225E-1
5.326931872E0,-2.083240747E0,1.730027199E-1,-1.682806015E-1
5.334926942E0,-1.904031038E0,-1.741466522E-1,-1.827917099E-1
5.342923244E0,-1.762694597E0,-4.545230865E-1,-2.600431442E-1
5.350918699E0,-1.733524203E0,-5.748934746E-1,-4.264898300E-1
5.358915539E0,-1.652543306E0,-6.053774357E-1,-6.106500626E-1
5.366939917E0,-1.493327737E0,-7.284610271E-1,-6.523265839E-1
5.374935603E0,-1.315873742E0,-9.466452599E-1,-6.234035492E-1
5.382932135E0,-1.213998675E0,-1.142061472E0,-5.450620651E-1
5.390926898E0,-1.208359122E0,-1.219075441E0,-5.919408798E-1
5.398923507E0,-1.166001320E0,-1.245369196E0,-8.097267151E-1
5.406917962E0,-9.984111786E-1,-1.360072613E0,-7.458858490E-1
5.414914263E0,-8.088225126E-1,-1.558119297E0,-8.314628601E-1
5.422939872E0,-6.946326494E-1,-1.801743984E0,-8.982973099E-1
5.430935481E0,-7.192610502E-1,-1.916123390E0,-7.477064133E-1
5.438932782E0,-8.282823563E-1,-1.928507566E0,-6.852779388E-1
5.446926930E0,-7.552769184E-1,-1.892149210E0,-7.955532074E-1
5.454922539E0,-5.444220304E-1,-1.867532492E0,-8.579587936E-1
5.462917994E0,-2.686954737E-1,-1.890980482E0,-7.748661041E-1
5.470913911E0,-8.187055588E-2,-1.906864405E0,-8.307342529E-1
5.478941365E0,1.982734203E-1,-1.870661020E0,-8.784198761E-1
5.486935128E0,5.417699814E-1,-1.754464149E0,-8.773021698E-1
5.494931198E0,9.097666740E-1,-1.768300056E0,-7.276430130E-1
5.502926269E0,1.092446327E0,-1.953598022E0,-4.318704605E-1
5.510921955E0,1.098221183E0,-2.165933132E0,-9.312629700E-2
5.518919410E0,1.114431858E0,-2.244648933E0,6.989955902E-2
5.526913020E0,1.212405205E0,-2.192836285E0,6.964492798E-2
5.534939705E0,1.374261022E0,-2.145197392E0,1.316547394E-1
5.542935084E0,1.404260635E0,-2.119764805E0,1.319866180E-1
5.550930461E0,1.514132977E0,-2.044635296E0,7.680320740E-2
5.558927455E0,1.886533976E0,-1.991225719E0,3.027257919E-1
5.566921910E0,2.161047459E0,-1.922943592E0,3.046655655E-1
5.574917288E0,2.423707008E0,-1.755679607E0,2.803306580E-1
5.582913205E0,2.571317196E0,-1.541526318E0,3.572731018E-1
5.590938814E0,2.791821241E0,-1.320683956E0,3.970727921E-1
5.598934730E0,2.873966217E0,-1.060935020E0,2.574510574E-1
5.606930724E0,2.868259907E0,-8.736786842E-1,4.648733139E-1
5.614926410E0,2.944295883E0,-7.405867577E-1,7.333631516E-1
5.622921788E0,3.035400391E0,-5.453352928E-1,7.305297852E-1
5.630916936E0,2.964187622E0,-1.656894684E-1,9.591712952E-1
5.638913544E0,2.808453321E0,2.247405052E-1,9.090986252E-1
5.646938769E0,2.681681156E0,6.226649284E-1,8.388729095E-1
5.654934685E0,2.670663834E0,9.504709244E-1,8.532009125E-1
5.662930371E0,2.644463301E0,1.221550226E0,7.836790085E-1
5.670925211E0,2.516417742E0,1.589614391E0,8.067693710E-1
5.678921820E0,2.203837872E0,1.840850115E0,8.139209747E-1
5.686916890E0,1.874745846E0,2.096632719E0,7.372026443E-1
5.694912192E0,1.724627972E0,2.240751505E0,7.419166565E-1
5.702938340E0,1.577964067E0,2.374433041E0,6.671438217E-1
5.710933179E0,1.351062655E0,2.590311289E0,3.633260727E-1
5.718930634E0,1.043819547E0,2.769481182E0,3.119192123E-1
5.726924858E0,5.893907547E-1,2.999041080E0,2.220611572E-1
5.734921083E0,1.796895564E-1,3.076410532E0,2.275028229E-1
5.742917076E0,-1.512468755E-1,3.031184673E0,3.147754669E-1
5.750911839E0,-4.659210145E-1,2.849982977E0,2.946557999E-1
5.758939832E0,-6.415821910E-1,2.509681702E0,3.169622421E-1
5.766933442E0,-8.622542620E-1,2.201367378E0,2.314538956E-1
5.774930051E0,-1.266092539E0,1.956545711E0,1.530027390E-1
5.782925736E0,-1.855550885E0,1.803761721E0,2.121267319E-1
5.790921038E0,-2.166489601E0,1.522379756E0,2.784748077E-1
5.798917954E0,-2.193264008E0,1.227410316E0,4.327669144E-1
5.806911794E0,-2.168045998E0,9.472997189E-1,2.889900208E-1
5.814937941E0,-2.065650225E0,7.650022507E-1,1.191406250E-1
5.822933704E0,-1.918261290E0,6.919984818E-1,-2.925243378E-1
5.830929313E0,-1.782280087E0,5.280585289E-1,-4.671411514E-1
5.838925999E0,-1.782666445E0,1.525831223E-1,-5.152950287E-1
5.846919838E0,-1.811335802E0,-3.648483753E-1,-5.375118256E-1
5.854916140E0,-1.795859337E0,-6.465291977E-1,-8.637123108E-1
5.862911519E0,-1.757390022E0,-8.221442699E-1,-1.118244171E0
5.870937589E0,-1.731648207E0,-9.301123619E-1,-1.100769997E0
5.878935429E0,-1.632712603E0,-1.129207611E0,-1.154025078E0
5.886929037E0,-1.527955413E0,-1.343230247E0,-1.201526642E0
5.894924647E0,-1.476431608E0,-1.540497780E0,-9.602575302E-1
5.902919486E0,-1.451832175E0,-1.777107716E0,-7.669668198E-1
5.910916403E0,-1.377312779E0,-2.058649778E0,-2.484092712E-1
5.918912704E0,-1.390647650E0,-2.310454607E0,-2.634906769E-1
5.926936928E0,-1.254344821E0,-2.154166937E0,-5.683984756E-1
5.934932614E0,-8.159251213E-1,-1.970929861E0,-5.627756119E-1
5.942929223E0,-3.660290241E-1,-1.904170513E0,-6.818237305E-1
5.950923756E0,-1.330229044E-1,-1.891393900E0,-8.072175980E-1
5.958921210E0,4.064595699E-2,-1.903325081E0,-8.379755020E-1
5.966915127E0,2.006940842E-1,-1.861105442E0,-8.531227112E-1
5.974910813E0,4.904425144E-1,-1.866935730E0,-7.435932159E-1
5.982936883E0,7.033863664E-1,-1.958287954E0,-6.609830856E-1
5.990932953E0,7.706544399E-1,-2.002954960E0,-6.200351715E-1
5.998930178E0,9.619098902E-1,-2.042538643E0,-3.874082565E-1
6.006924864E0,1.114763856E0,-2.059623241E0,-2.823877335E-1
6.014919704E0,1.216084719E0,-2.048817158E0,-2.831020355E-1
6.022915390E0,1.387085438E0,-2.022862911E0,-1.862974167E-1
6.030910460E0,1.599611402E0,-2.025357246E0,-1.071739197E-1
6.038937531E0,1.664126396E0,-2.046434402E0,8.747100830E-2
6.046932909E0,1.785042167E0,-2.049572468E0,3.639698029E-2
6.054927672E0,1.993634224E0,-2.043164253E0,7.050418854E-2
6.062923665E0,2.020703793E0,-1.958542347E0,-1.148376465E-1
6.070919351E0,1.975751877E0,-1.731063366E0,-2.994003296E-1
6.078915652E0,1.945912600E0,-1.728307247E0,-3.902053833E-2
6.086910107E0,2.165124893E0,-1.838479519E0,2.281017303E-1
6.094936793E0,2.377364159E0,-1.835315704E0,1.646270752E-1
6.102932248E0,2.576513529E0,-1.718446255E0,3.968238831E-1
6.110927319E0,2.901885509E0,-1.457129955E0,1.720361710E-1
6.118924851E0,2.977910042E0,-1.130440712E0,7.404899597E-2
6.126919306E0,2.866113424E0,-7.593131065E-1,-1.793575287E-2
6.134914299E0,2.843940020E0,-4.238872528E-1,1.615514755E-1
6.142910063E0,2.931792259E0,-2.912149429E-1,5.007896423E-1
6.150936209E0,2.858522415E0,-6.532716751E-2,6.520957947E-1
6.158932511E0,2.696440220E0,1.779994965E-1,1.000544548E0
6.166927273E0,2.590353489E0,5.303106308E-1,9.738922119E-1
6.174922037E0,2.449729681E0,9.181921482E-1,8.619441986E-1
6.182918568E0,2.389300585E0,1.239804029E0,9.346294403E-1
6.190913716E0,2.434591293E0,1.502759933E0,1.109705925E0
6.198941095E0,2.294939280E0,1.801650286E0,1.010454178E0
6.206936165E0,1.913946509E0,2.248158216E0,6.542301178E-1
6.214931236E0,1.592731357E0,2.696701288E0,5.589532852E-1
6.222926613E0,1.362092257E0,3.035609007E0,5.009059906E-1
6.230923223E0,1.128175974E0,3.296821594E0,3.427915573E-1
6.238919523E0,8.650725484E-1,3.389226198E0,1.851015091E-1
6.246913594E0,6.132066846E-1,3.386094093E0,-1.042737961E-1
6.254909664E0,3.231482506E-1,3.228145838E0,2.105236053E-2
6.262935735E0,-2.605761588E-2,2.922217131E0,1.440048218E-2
6.270931191E0,-4.254903793E-1,2.522499084E0,-9.201049805E-3
6.278927799E0,-7.833106518E-1,2.321753979E0,2.057714462E-1
6.286922793E0,-1.221912622E0,2.141071320E0,2.418584824E-1
6.294917940E0,-1.556972742E0,1.980953336E0,4.205398560E-1
6.302914472E0,-1.911661506E0,1.725694895E0,4.614419937E-1
6.310908312E0,-2.327732563E0,1.473773122E0,2.300853729E-1
6.318936690E0,-2.661771774E0,1.286457300E0,1.100902557E-1
6.326931145E0,-2.793868065E0,1.037333965E0,-3.858852386E-2
6.334926831E0,-2.679012060E0,8.431332111E-1,-1.887893677E-1
6.342922132E0,-2.447064161E0,6.663444042E-1,-4.542961121E-1
6.350917895E0,-2.265746593E0,4.631645679E-1,-6.623497009E-1
6.358914428E0,-2.099648237E0,1.372480392E-1,-5.316181183E-1
6.366909574E0,-1.851672173E0,-3.194391727E-1,-6.914730072E-1
6.374935107E0,-1.779291391E0,-5.761611462E-1,-7.564878464E-1
6.382930792E0,-1.805840135E0,-6.989157200E-1,-8.276891708E-1
6.390925863E0,-1.744844794E0,-8.903181553E-1,-6.588106155E-1
6.398923087E0,-1.604092956E0,-1.403226614E0,-2.400684357E-2
6.406917466E0,-1.559625626E0,-1.826438427E0,-2.984294891E-1
6.414912843E0,-1.538484573E0,-2.056232691E0,-2.210750580E-1
6.422908837E0,-1.473888874E0,-2.138913870E0,-4.586238861E-1
6.430934984E0,-1.275496244E0,-2.073300600E0,-6.259155273E-1
6.438931978E0,-9.793801904E-1,-2.033838511E0,-6.664295197E-1
6.446926357E0,-7.173269987E-1,-2.131576061E0,-8.454723358E-1
6.454921427E0,-5.652147532E-1,-2.155963659E0,-1.071155548E0
6.462917421E0,-4.093713760E-1,-2.171079636E0,-1.170901775E0
6.470912875E0,-2.014100552E-1,-2.132019043E0,-1.067222595E0
6.478939869E0,1.513445377E-2,-2.052339554E0,-8.649826050E-1
6.486934632E0,1.963515878E-1,-1.944260359E0,-6.574287415E-1
6.494930010E0,3.028113246E-1,-1.946182728E0,-5.241107941E-1
6.502925157E0,4.277285933E-1,-2.023606062E0,-5.791034698E-1
6.510921690E0,6.191828251E-1,-1.953307152E0,-5.633592606E-1
6.518917760E0,9.473100901E-1,-1.866157055E0,-2.587280273E-1
6.526912753E0,1.220827460E0,-1.942869663E0,-1.327581406E-1
6.534938286E0,1.510246515E0,-2.005543709E0,-1.133060455E-1
6.542933971E0,1.650339127E0,-1.802033424E0,-2.612104416E-1
6.550929427E0,1.781650901E0,-1.538174152E0,-3.072071075E-1
6.558926881E0,2.035735846E0,-1.434831142E0,-2.180309296E-1
6.566921029E0,2.103316307E0,-1.377231121E0,-1.922225952E-1
6.574916715E0,2.068519592E0,-1.243511200E0,-1.386518478E-1
6.582911862E0,2.089725971E0,-1.073192120E0,-1.452722549E-1
6.590938240E0,1.928346634E0,-8.593735695E-1,-6.133556366E-2
6.598935234E0,1.580939293E0,-7.054276466E-1,-6.639289856E-2
6.606929074E0,1.597291112E0,-6.055345535E-1,1.093645096E-1
6.614925375E0,2.038430214E0,-5.541677475E-1,3.761177063E-1
6.622921061E0,2.345096111E0,-5.337781906E-1,3.939237595E-1
6.630916977E0,2.364150763E0,-4.486699104E-1,5.003843307E-1
6.638913356E0,2.290308714E0,-2.626123428E-1,5.162057877E-1
6.646938195E0,2.342423677E0,-7.768487930E-2,5.449171066E-1
6.654933266E0,2.456547976E0,4.464578629E-2,4.481582642E-1
6.662929644E0,2.554611206E0,2.965164185E-2,5.872859955E-1
6.670925022E0,2.569475412E0,-3.144264221E-2,5.553436279E-1
6.678921016E0,2.436150312E0,-2.468252182E-2,3.027296066E-1
6.686916317E0,2.150333881E0,5.516815186E-2,3.060731888E-1
6.694911465E0,1.824301958E0,7.611703873E-2,2.922048569E-1
6.702937227E0,1.626895547E0,2.253675461E-2,2.018661499E-1
6.710933221E0,1.321044803E0,6.481695175E-2,1.765079498E-1
6.718929830E0,1.058357000E0,1.850848198E-1,1.580810547E-1
6.726924670E0,9.612528682E-1,2.557587624E-1,2.778711319E-1
6.734919971E0,9.739210606E-1,2.959752083E-1,1.888589859E-1
6.742915965E0,7.861942053E-1,3.530616760E-1,2.666215897E-1
6.750911342E0,5.732393861E-1,4.644327164E-1,4.554672241E-1
6.758938413E0,4.850046039E-1,5.318517685E-1,4.010696411E-1
6.766932638E0,4.618204832E-1,5.696344376E-1,4.791078568E-1
6.774928631E0,4.457145929E-1,6.489315033E-1,4.522066116E-1
6.782923933E0,4.394710660E-1,7.576217651E-1,5.237531662E-1
6.790919695E0,4.180046320E-1,9.543220997E-1,4.082784653E-1
6.798915689E0,4.285411835E-1,1.092946529E0,2.950096130E-1
6.806910682E0,4.487114549E-1,1.228063345E0,2.029905319E-1
6.814936522E0,4.394589663E-1,1.209924936E0,4.176216125E-1
6.822932592E0,3.820736408E-1,1.204386473E0,3.215513229E-1
6.830927894E0,1.974141002E-1,1.259625196E0,2.978010178E-1
6.838925733E0,-1.210042834E-1,1.332239151E0,2.941274643E-1
6.846919650E0,-4.685397744E-1,1.404572964E0,3.586177826E-1
6.854915567E0,-6.495102644E-1,1.411407232E0,4.814558029E-1
6.862910637E0,-8.860814571E-1,1.384226084E0,5.146226883E-1
6.870936862E0,-1.052880645E0,1.258106709E0,5.875139236E-1
6.878934009E0,-1.091724396E0,9.826960564E-1,9.004049301E-1
6.886927541E0,-1.061733127E0,6.970322132E-1,1.176206589E0
6.894923842E0,-1.113833189E0,4.546253681E-1,1.185772896E0
6.902918682E0,-1.130255818E0,2.617430687E-1,1.146337509E0
6.910914598E0,-1.032786369E0,1.860656738E-1,1.147825241E0
6.918912208E0,-8.291347623E-1,1.906349659E-1,1.280505180E0
6.926936739E0,-8.001720905E-1,2.430408001E-1,1.084882736E0
6.934932195E0,-8.564060330E-1,2.606961727E-1,9.765825272E-1
6.942927881E0,-9.292898774E-1,2.570405006E-1,7.517147064E-1
6.950923182E0,-1.057905436E0,2.607192993E-1,4.679746628E-1
6.958920407E0,-1.239065409E0,3.009665012E-1,1.666135788E-1
6.966914630E0,-1.362772465E0,3.262689114E-1,-8.927059174E-2
6.974910240E0,-1.411296844E0,3.430016041E-1,-1.406621933E-1
6.982935771E0,-1.422389388E0,3.706674576E-1,-2.985286713E-1
6.990931458E0,-1.405866742E0,4.030890465E-1,-3.684453964E-1
6.998928681E0,-1.246441364E0,4.876911640E-1,-5.326175690E-1
7.006923214E0,-9.785118103E-1,5.477662086E-1,-5.816478729E-1
7.014919208E0,-6.554808021E-1,5.180273056E-1,-4.897403717E-1
7.022913893E0,-5.194323659E-1,4.960021973E-1,-5.710477829E-1
7.030909964E0,-4.898056686E-1,5.320475101E-1,-7.084379196E-1
7.038937572E0,-4.853860438E-1,5.038726330E-1,-6.794567108E-1
7.046931182E0,-4.796211123E-1,4.881744385E-1,-8.408603668E-1
7.054927175E0,-4.405974150E-1,3.827478886E-1,-8.213214874E-1
7.062922861E0,-4.467287660E-1,2.119588852E-1,-8.146562576E-1
7.070918239E0,-4.850063622E-1,4.257845879E-2,-8.616828918E-1
7.078915464E0,-4.642875195E-1,-1.160817146E-1,-8.523750305E-1
7.086909611E0,-3.661454320E-1,-2.356684208E-1,-7.653179169E-1
7.094935681E0,-1.939466298E-1,-3.550524712E-1,-5.193119049E-1
7.102931445E0,-4.303301498E-2,-4.343254566E-1,-4.019393921E-1
7.110926207E0,5.219415762E-3,-4.639518261E-1,-3.366012573E-1
7.118923739E0,1.954995468E-2,-4.778039455E-1,-3.066577911E-1
7.126918117E0,1.887921803E-2,-4.880707264E-1,-2.666940689E-1
7.134913265E0,4.470956326E-2,-5.278086662E-1,-5.206031799E-1
7.142909489E0,1.502795964E-1,-4.963088036E-1,-5.823011398E-1
7.150935944E0,2.417993844E-1,-4.372494221E-1,-7.440824509E-1
7.158931937E0,2.831893265E-1,-3.247933388E-1,-9.654216766E-1
7.166926701E0,3.200294077E-1,-2.452452183E-1,-1.145798683E0
7.174921848E0,3.991845548E-1,-1.369376183E-1,-1.318940163E0
7.182918149E0,5.288274884E-1,-9.270644188E-2,-1.534913540E0
7.190913528E0,6.419547200E-1,-3.601503372E-2,-1.707548618E0
7.198910059E0,7.256259322E-1,2.389383316E-2,-1.764894485E0
7.206935361E0,7.871422172E-1,-4.316830635E-2,-1.682435513E0
7.214931354E0,8.371920586E-1,-1.113274097E-1,-1.639173985E0
7.222926348E0,8.431637287E-1,-1.950542927E-1,-1.603995800E0
7.230921726E0,8.851771355E-1,-3.308444023E-1,-1.454994678E0
7.238918335E0,8.878600001E-1,-4.696502686E-1,-1.214187622E0
7.246913174E0,9.013464451E-1,-6.726000309E-1,-1.109511375E0
7.254939014E0,8.614590168E-1,-8.614857197E-1,-9.032621384E-1
7.262935008E0,7.830686569E-1,-9.590661526E-1,-6.252126694E-1
7.270930694E0,6.914709806E-1,-1.098234653E0,-2.722969055E-1
7.278925995E0,5.907540321E-1,-1.176694155E0,-2.779340744E-1
7.286921681E0,4.867083430E-1,-1.272458315E0,-2.320909500E-1
7.294917444E0,4.169765115E-1,-1.404689550E0,-2.063837051E-1
7.302912822E0,4.522830844E-1,-1.557428837E0,-8.254337311E-2
7.310938970E0,4.609516561E-1,-1.725135803E0,1.072883606E-2
7.318935809E0,4.342964292E-1,-1.808257580E0,-1.065254211E-3
7.326929649E0,5.118635297E-1,-1.941767216E0,1.747379303E-1
7.334925719E0,6.444692612E-1,-2.059431553E0,2.596855164E-1
7.342921021E0,8.257910609E-1,-2.171514034E0,1.586055756E-1
7.350917015E0,8.190290332E-1,-2.060616016E0,8.666038513E-3
7.358914854E0,7.346685529E-1,-1.891327381E0,7.332897186E-2
7.366939155E0,6.711629629E-1,-1.779860973E0,2.775392532E-1
7.374934225E0,6.091260910E-1,-1.766899586E0,5.409374237E-1
7.382929912E0,4.268115163E-1,-1.600779057E0,4.627294540E-1
7.390925674E0,2.705623507E-1,-1.296001434E0,2.537498474E-1
7.398922283E0,1.825755239E-1,-1.047842979E0,8.824062347E-2
7.406916661E0,1.452338099E-1,-8.277711868E-1,2.223482132E-1
7.414912347E0,1.139947772E-1,-7.043328285E-1,3.297691345E-1
7.422938263E0,7.590579987E-2,-5.845904350E-1,1.482505798E-1
7.430933565E0,8.944469690E-2,-5.005946159E-1,3.069047928E-1
7.438930174E0,2.265203595E-1,-5.938920975E-1,4.834680557E-1
7.446924629E0,4.195969105E-1,-7.284832001E-1,5.340566635E-1
7.454921008E0,4.982860088E-1,-5.867176056E-1,3.805532455E-1
7.462916308E0,2.641695738E-1,-4.402608871E-1,5.369033813E-1
7.470912072E0,-9.020465612E-2,-3.296527863E-1,4.618368149E-1
7.478939449E0,-4.112871885E-1,-3.141441345E-1,5.912227631E-1
7.486933289E0,-5.614055395E-1,-3.128299713E-1,6.208305359E-1
7.494929282E0,-4.913213253E-1,-2.513246536E-1,5.725660324E-1
7.502925276E0,-3.015492558E-1,-1.543183327E-1,2.439889908E-1
7.510921194E0,-1.536673307E-1,-4.033470154E-2,1.646337509E-1
7.518917571E0,-1.308005452E-1,1.612758636E-2,7.333469391E-2
7.526912258E0,-1.108421385E-1,-1.399121284E-1,1.402854919E-3
7.534937558E0,-2.467003763E-1,-2.266974449E-1,-1.797323227E-1
7.542933475E0,-3.506070077E-1,-1.290645599E-1,-1.683006287E-1
7.550928545E0,-2.967384756E-1,-5.879449844E-2,-7.251739502E-2
7.558926078E0,-1.682814360E-1,-4.418182373E-2,1.067056656E-1
7.566920225E0,-2.267151475E-1,-2.413272858E-2,1.676902771E-1
7.574916296E0,-4.772804677E-1,2.802467346E-2,2.136173248E-1
7.582910981E0,-8.154594302E-1,3.398084641E-2,1.275043488E-1
7.590937513E0,-1.009672642E0,-1.780509949E-2,1.513872147E-1
7.598934123E0,-1.011690140E0,-1.507759094E-3,-1.377248764E-1
7.606929116E0,-8.295050263E-1,1.124958992E-1,-3.609066010E-1
7.614923879E0,-5.084792376E-1,3.253569603E-1,-5.881013870E-1
7.622919872E0,-2.838732898E-1,3.392467499E-1,-4.846506119E-1
7.630915866E0,-2.836419642E-1,3.075919151E-1,-4.576253891E-1
7.638912551E0,-3.222912550E-1,4.960455894E-1,-4.090099335E-1
7.646936776E0,-3.149654567E-1,5.976958275E-1,-3.558425903E-1
7.654932154E0,-2.549169362E-1,6.030974388E-1,-4.369068146E-1
7.662928456E0,-1.320325434E-1,6.154346466E-1,-3.384084702E-1
7.670924219E0,-1.283347011E-1,5.691614151E-1,-2.786684036E-1
7.678920750E0,-1.640086770E-1,5.764312744E-1,-2.745990753E-1
7.686915206E0,-1.875230372E-1,6.346101761E-1,-2.496814728E-1
7.694910660E0,-2.028529644E-1,7.840499878E-1,-2.807168961E-1
7.702937116E0,-2.535813153E-1,9.152357578E-1,-1.340188980E-1
7.710932724E0,-3.610498607E-1,1.023403883E0,8.751106262E-2
7.718929718E0,-4.272137582E-1,1.127405643E0,1.275577545E-1
7.726923788E0,-4.240045547E-1,1.169461250E0,2.589054108E-1
7.734919167E0,-3.144634664E-1,1.124878883E0,3.662109375E-1
7.742914929E0,-2.293370664E-1,1.072100639E0,4.635000229E-1
7.750910539E0,-2.989907265E-1,9.675788879E-1,5.793972015E-1
7.758938225E0,-4.131373167E-1,8.525083065E-1,8.041658401E-1
7.766932449E0,-5.264722705E-1,9.120612144E-1,5.747060776E-1
7.774927443E0,-4.691911936E-1,1.128693819E0,4.952840805E-1
7.782923436E0,-1.567504406E-1,1.368921757E0,2.223663330E-1
7.790918814E0,2.575590611E-1,1.468558550E0,1.893606186E-1
7.798915807E0,4.188349247E-1,1.442329645E0,-1.439571381E-2
7.806910263E0,3.634468019E-1,1.248102188E0,1.564273834E-1
7.814936718E0,3.031308651E-1,9.545619488E-1,4.035453796E-1
7.822931788E0,2.664646506E-1,7.575395107E-1,5.303945541E-1
7.830927089E0,3.597413301E-1,7.117106915E-1,6.252536774E-1
7.838923391E0,4.774062634E-1,7.319700718E-1,5.353584290E-1
7.846918231E0,5.600934029E-1,7.532756329E-1,1.623096466E-1
7.854914147E0,5.976915359E-1,6.965365410E-1,-5.945682526E-2
7.862909834E0,6.857726574E-1,5.698792934E-1,-2.206602097E-1
7.870936057E0,6.654771566E-1,4.214308262E-1,-2.639322281E-1
7.878932359E0,5.463413000E-1,3.096868992E-1,-1.851339340E-1
7.886926814E0,4.247716069E-1,1.715676785E-1,-1.497936249E-1
7.894922808E0,4.412226081E-1,-2.784490585E-3,-7.196521759E-2
7.902918108E0,4.150846004E-1,-1.944472790E-1,5.528831482E-2
7.910913564E0,2.261978984E-1,-3.331096172E-1,-1.960525513E-1
7.918910789E0,1.724159718E-2,-4.325730801E-1,-3.132553101E-1
7.926935397E0,-1.874315739E-2,-5.258471966E-1,-4.422683716E-1
7.934931006E0,4.929864407E-2,-5.319182873E-1,-3.203907013E-1
7.942926692E0,2.595150471E-2,-4.690966606E-1,-3.578243256E-1
7.950922763E0,3.739178181E-2,-4.979996681E-1,-3.344593048E-1
7.958918679E0,8.960127831E-2,-5.996479988E-1,-5.997533798E-1
7.966913442E0,2.443810105E-1,-7.799081802E-1,-2.125473022E-1
7.974909127E0,3.625769019E-1,-8.669440746E-1,-2.866001129E-1
7.982935044E0,4.433619380E-1,-1.010339260E0,1.874446869E-2
7.990931268E0,3.753824830E-1,-1.130035400E0,2.354001999E-1
7.998927339E0,3.853728771E-1,-1.373650312E0,3.862533569E-1
8.006922102E0,5.822322369E-1,-1.612687349E0,2.613201141E-1
8.014918019E0,8.112815022E-1,-1.739949703E0,2.796363831E-1
8.022912859E0,1.009988070E0,-1.875511408E0,4.427471161E-1
8.030908852E0,1.074010730E0,-1.974153757E0,3.199329376E-1
8.038937153E0,1.077528000E0,-2.021596670E0,3.943538666E-2
8.046930993E0,9.446742535E-1,-2.123613834E0,-2.587919235E-1
8.054926910E0,6.989325285E-1,-2.217262745E0,-3.876857758E-1
8.062921749E0,4.736199379E-1,-2.287756443E0,-4.932737350E-1
8.070917743E0,3.655203283E-1,-2.305681229E0,-5.850610733E-1
8.078914582E0,3.342065811E-1,-2.252866745E0,-6.674289703E-1
8.086909115E0,2.956393063E-1,-2.119587898E0,-6.255340576E-1
8.094934878E0,2.449860275E-1,-2.005589485E0,-6.601619720E-1
8.102930255E0,1.398403645E-1,-1.995494843E0,-5.381603241E-1
8.110925942E0,9.740620852E-3,-1.880318642E0,-5.775260925E-1
8.118922627E0,-1.779285967E-1,-1.722938538E0,-4.911470413E-1
8.126917390E0,-2.948139310E-1,-1.595661163E0,-3.019704819E-1
8.134912383E0,-3.938099444E-1,-1.464145660E0,-1.593084335E-1
8.142908147E0,-5.991379619E-1,-1.424762249E0,-1.042909622E-1
8.150934524E0,-8.904707432E-1,-1.330878258E0,-2.671737671E-1
8.158930826E0,-1.286054254E0,-1.053763390E0,-3.238153458E-1
8.166925589E0,-1.529445171E0,-6.998324394E-1,-4.027242661E-1
8.174921275E0,-1.619318604E0,-2.886738777E-1,-4.128980637E-1
8.182916961E0,-1.593083143E0,-1.720952988E-2,-3.651609421E-1
8.190912415E0,-1.624493480E0,1.984329224E-1,-3.968887329E-1
8.198909333E0,-1.807689905E0,4.050602913E-1,-5.226316452E-1
8.206934864E0,-1.946182251E0,6.593499184E-1,-4.038362503E-1
8.214929858E0,-2.051355600E0,9.781122208E-1,-3.113489151E-1
8.222925928E0,-2.134347200E0,1.293228388E0,-2.271518707E-1
8.230921230E0,-2.191535950E0,1.569524050E0,2.393817902E-2
8.238917300E0,-2.171262026E0,1.657735109E0,7.399654388E-2
8.246912294E0,-2.163534164E0,1.616484404E0,1.823730469E-1
8.254937595E0,-2.118899345E0,1.617837191E0,2.893180847E-1
8.262934204E0,-1.869862199E0,1.661494017E0,1.895475388E-1
8.270929582E0,-1.513418436E0,1.773549080E0,1.565780640E-1
8.278926806E0,-1.245201707E0,1.823723555E0,3.215026855E-1
8.286921493E0,-9.670189619E-1,1.848186731E0,3.874940872E-1
8.294916024E0,-6.755224466E-1,1.875443697E0,3.553571701E-1
8.302912249E0,-4.643160105E-1,1.911415100E0,3.547925949E-1
8.310938088E0,-3.534058332E-1,1.927272320E0,3.979139328E-1
8.318934697E0,-1.347010136E-1,1.898251534E0,4.063787460E-1
8.326929537E0,1.976014376E-1,1.804780960E0,3.783483505E-1
8.334924915E0,4.564073086E-1,1.649225712E0,4.476432800E-1
8.342920832E0,6.916986704E-1,1.504077911E0,4.276227951E-1
8.350915671E0,9.791396856E-1,1.305701494E0,4.452838898E-1
8.358913435E0,1.177897573E0,1.152875423E0,4.338340759E-1
8.366907274E0,1.315751314E0,1.095349550E0,2.889642715E-1
8.374932883E0,1.433078885E0,1.036557198E0,1.505765915E-1
8.382928492E0,1.469719768E0,9.439280033E-1,7.208538055E-2
8.390924486E0,1.466053605E0,6.744608879E-1,2.201433182E-1
8.398921479E0,1.485898495E0,3.522415161E-1,3.022136688E-1
8.406915934E0,1.446106672E0,-4.804921150E-2,5.681371689E-1
8.414910928E0,1.203416824E0,-2.705659866E-1,3.944883347E-1
8.422937383E0,1.091226697E0,-4.945120811E-1,5.710906982E-1
8.430932838E0,1.075102329E0,-6.177017689E-1,3.596372604E-1
8.438930370E0,1.059221983E0,-6.749432087E-1,1.685514450E-1
8.446923825E0,1.062607527E0,-7.360570431E-1,5.217075348E-2
8.454920126E0,9.701139331E-1,-7.552039623E-1,-2.340936661E-1
8.462915812E0,1.076288700E0,-8.270707130E-1,-3.550043106E-1
8.470910882E0,1.158002734E0,-9.147551060E-1,-2.463912964E-1
8.478938569E0,1.033746481E0,-9.211034775E-1,-5.376091003E-1
8.486932716E0,1.037975550E0,-1.026198149E0,-6.605720520E-1
8.494928710E0,1.159303904E0,-1.108155727E0,-6.634569168E-1
8.502924165E0,1.232287645E0,-1.188637257E0,-5.250196457E-1
8.510919466E0,1.089982271E0,-1.265191793E0,-2.691955566E-1
8.518916460E0,8.324465752E-1,-1.450212717E0,-6.172180176E-3
8.526911145E0,7.126185298E-1,-1.716587067E0,2.328395844E-1
8.534936755E0,7.737169862E-1,-1.937554836E0,3.155908585E-1
8.542933055E0,9.635168314E-1,-2.132014275E0,4.729909897E-1
8.550928665E0,1.040412664E0,-2.200235128E0,3.342590332E-1
8.558925581E0,1.092465281E0,-2.271928072E0,3.302822113E-1
8.566919498E0,1.086491823E0,-2.394971132E0,1.810846329E-1
8.574915106E0,9.648087621E-1,-2.534201145E0,1.163959503E-1
8.582911177E0,7.020558119E-1,-2.558016777E0,-3.286733627E-1
8.590936325E0,4.125168622E-1,-2.431344986E0,-7.203407288E-1
8.598933549E0,1.669564247E-1,-2.201842785E0,-9.487638474E-1
8.606927774E0,-5.135869980E-2,-2.092438698E0,-1.072957516E0
8.614923151E0,-2.216241956E-1,-2.078419209E0,-1.021922588E0
8.622919068E0,-1.731104851E-1,-2.177918911E0,-9.196343422E-1
8.630914523E0,-1.592037678E-1,-2.172255516E0,-7.920913696E-1
8.638911440E0,-2.762260437E-1,-2.026972294E0,-5.742530823E-1
8.646935741E0,-4.074325264E-1,-1.794538021E0,-3.534240723E-1
8.654931966E0,-6.080008745E-1,-1.646426201E0,7.561874390E-2
8.662927037E0,-6.554084420E-1,-1.676067829E0,3.117733002E-1
8.670923337E0,-6.109168530E-1,-1.622530937E0,3.371133804E-1
8.678920331E0,-7.249059677E-1,-1.314779282E0,1.954813004E-1
8.686914478E0,-9.794786572E-1,-9.782137871E-1,4.022121429E-2
8.694910395E0,-1.230493784E0,-5.050973892E-1,-2.025690079E-1
8.702936311E0,-1.309229493E0,-3.241252899E-2,-3.447952271E-1
8.710931921E0,-1.395047426E0,2.638731003E-1,-2.874612808E-1
8.718928221E0,-1.497978210E0,5.382885933E-1,-3.264646530E-1
8.726922677E0,-1.558661699E0,7.503652573E-1,-1.957750320E-1
8.734918439E0,-1.676649570E0,1.023436785E0,-2.585544586E-1
8.742914356E0,-1.767600775E0,1.279876709E0,-1.191101074E-1
8.750909735E0,-1.893309116E0,1.611606598E0,-4.058771133E-1
8.758936882E0,-1.960580707E0,1.922961473E0,-6.863675117E-1
8.766931876E0,-1.880266190E0,2.111079216E0,-8.127584457E-1
8.774926715E0,-1.817782402E0,2.224328995E0,-5.865063667E-1
8.782922940E0,-1.871307492E0,2.300043344E0,-5.507116318E-1
8.790918010E0,-2.047384262E0,2.400045633E0,-6.203293800E-1
8.798915619E0,-2.054207802E0,2.332161188E0,-3.481740952E-1
8.806909458E0,-1.973310828E0,2.216941595E0,-2.876644135E-1
8.814934991E0,-1.887834191E0,2.212491274E0,5.748462677E-2
8.822931522E0,-1.767495394E0,2.224931955E0,2.788591385E-1
8.830926670E0,-1.665601492E0,2.190335035E0,5.930376053E-1
8.838922895E0,-1.434252977E0,2.037283182E0,8.510608673E-1
8.846917965E0,-1.133605003E0,1.895075083E0,7.889251709E-1
8.854912805E0,-7.641189098E-1,1.679200172E0,6.864442825E-1
8.862909644E0,-3.773331642E-1,1.423027039E0,6.333541870E-1
8.870935177E0,1.347172260E-1,1.145150661E0,6.156387329E-1
8.878931785E0,3.993656635E-1,9.709053040E-1,3.953752518E-1
8.886926933E0,6.950540543E-1,8.729407787E-1,1.245803833E-1
8.894922234E0,9.711065292E-1,7.616236210E-1,-8.845710754E-2
8.902917382E0,1.027185082E0,6.599192619E-1,-1.383180618E-1
8.910912760E0,1.112673163E0,4.330477715E-1,6.212902069E-2
8.918910292E0,1.230406523E0,1.740770340E-1,3.170890808E-1
8.926934901E0,1.211400509E0,-6.422424316E-2,3.914194107E-1
8.934930279E0,1.068140149E0,-1.535582542E-1,5.649652481E-1
8.942926196E0,8.964679241E-1,-2.995610237E-1,8.656930923E-1
8.950922189E0,8.878297806E-1,-4.294762611E-1,7.302932739E-1
8.958917952E0,1.121193647E0,-5.664849281E-1,5.198135376E-1
8.966913022E0,1.432996392E0,-7.082905769E-1,5.876636505E-1
8.974908401E0,1.453081131E0,-7.121319771E-1,3.059196472E-1
8.982934163E0,1.312957406E0,-6.947662830E-1,8.494853973E-2
8.990930849E0,1.170946121E0,-8.146071434E-1,4.101085663E-2
8.998927074E0,1.140154958E0,-9.382653236E-1,-2.488422394E-1
9.006921529E0,1.226142645E0,-1.127678871E0,-2.072343826E-1
9.014917215E0,1.161806822E0,-1.246149302E0,-1.578588486E-1
9.022912593E0,9.608474970E-1,-1.230401278E0,-4.284343719E-1
9.030908356E0,8.570737839E-1,-1.317475796E0,-2.437019348E-1
9.038935657E0,8.755702972E-1,-1.411891222E0,-1.603841782E-1
9.046929804E0,8.020081520E-1,-1.437431335E0,-1.812658310E-1
9.054925567E0,8.026055098E-1,-1.462635040E0,-4.621219635E-2
9.062920945E0,8.191581964E-1,-1.522321939E0,-1.441192627E-2
9.070916861E0,7.993760705E-1,-1.571791172E0,8.153343201E-2
9.078913471E0,8.880342841E-1,-1.655062437E0,-2.566814423E-2
9.086908003E0,1.040832996E0,-1.656824350E0,-4.034490585E-1
9.094933458E0,1.086488485E0,-1.709709167E0,-1.355028152E-1
9.102930144E0,1.057461500E0,-1.798882246E0,-1.992645264E-1
9.110925829E0,1.022332191E0,-1.810302496E0,-2.539052963E-1
9.118922131E0,9.286278486E-1,-1.791785479E0,-6.731653214E-1
9.126916509E0,6.863277555E-1,-1.750692844E0,-5.814018250E-1
9.134912272E0,4.335910082E-1,-1.731300354E0,-4.903793335E-1
9.142907573E0,2.788399458E-1,-1.733031273E0,-3.869152069E-1
9.150933182E0,9.609210491E-2,-1.765060425E0,-2.339572906E-1
9.158930099E0,-1.745929718E-1,-1.844531536E0,-2.592802048E-1
9.166925169E0,-2.919348478E-1,-1.844572067E0,-1.829643250E-1
9.174920240E0,-3.661575913E-1,-1.800806999E0,-2.013130188E-1
9.182916772E0,-4.603421092E-1,-1.707515717E0,-2.323808670E-1
9.190911227E0,-5.515213609E-1,-1.638528824E0,-2.352075577E-1
9.198938989E0,-6.507638693E-1,-1.522425652E0,-1.405639648E-1
9.206934291E0,-6.538880467E-1,-1.384368896E0,-1.962661743E-3
9.214928746E0,-7.586633563E-1,-1.229222298E0,1.108970642E-1
9.222925047E0,-1.074008465E0,-1.062370777E0,3.621673584E-2
9.230920117E0,-1.364942551E0,-8.837647438E-1,9.987640381E-2
9.238916804E0,-1.611439824E0,-6.953129768E-1,6.543064117E-2
9.246911259E0,-1.668314457E0,-4.991717339E-1,9.839916229E-2
9.254906637E0,-1.672336817E0,-1.676383018E-1,4.605674744E-2
9.262932785E0,-1.789363623E0,1.857933998E-1,1.569519043E-1
9.270929316E0,-1.932387352E0,5.054359436E-1,9.824275970E-2
9.278925003E0,-1.868026018E0,8.080782890E-1,-3.356266022E-2
9.286919842E0,-1.780986428E0,9.722216129E-1,-6.908226013E-2
9.294915220E0,-1.712957382E0,1.208500385E0,-1.697187424E-1
9.302911829E0,-1.805302501E0,1.426163912E0,-4.922962189E-2
9.310907131E0,-2.117866039E0,1.789058208E0,-5.859951973E-1
9.318933277E0,-2.225664139E0,2.051589489E0,-7.066202164E-1
9.326928118E0,-1.939743042E0,2.175182343E0,-7.097864151E-1
9.334923804E0,-1.652742147E0,2.445400715E0,-7.730345726E-1
9.342919720E0,-1.635977268E0,2.611939907E0,-8.815879822E-1
9.350915406E0,-1.713976622E0,2.648177624E0,-7.649502754E-1
9.358912322E0,-1.656838655E0,2.496233940E0,-5.410947800E-1
9.366907086E0,-1.621399403E0,2.343717575E0,-1.544342041E-1
9.374932309E0,-1.668124676E0,2.316205025E0,-2.044057846E-1
9.382928073E0,-1.625008583E0,2.354567528E0,-1.999559402E-1
9.390924066E0,-1.349415779E0,2.390421867E0,2.879657745E-1
9.398920675E0,-1.177230597E0,2.251044750E0,6.471157074E-1
9.406915131E0,-1.143361092E0,1.970550776E0,9.792976379E-1
9.414909893E0,-8.040909767E-1,1.715168715E0,9.650592804E-1
9.422906118E0,-5.888533592E-2,1.521733284E0,1.035329819E0
9.430932265E0,5.576145649E-1,1.338593960E0,9.538240433E-1
9.438928874E0,7.272872925E-1,1.144882202E0,8.000888824E-1
9.446923713E0,9.966397285E-1,8.512654305E-1,6.156244278E-1
9.454919092E0,1.237997174E0,5.699136257E-1,2.930574417E-1
9.462914392E0,1.553070545E0,3.413333893E-1,1.061038971E-1
9.470910386E0,1.822867393E0,7.459664345E-2,2.084980011E-1
9.478937149E0,1.705439448E0,-1.170513630E-1,1.023845673E-1
9.486931681E0,1.437308908E0,-2.944912910E-1,5.688476562E-2
9.494927675E0,1.342805028E0,-4.785866737E-1,2.221107483E-3
9.502923361E0,1.412874460E0,-7.865757942E-1,1.117477417E-1
9.510919047E0,1.401149035E0,-1.038399220E0,2.549600601E-1
9.518915271E0,1.223335385E0,-1.195742369E0,1.238546371E-1
9.526909495E0,1.020011425E0,-1.277286768E0,-4.534721375E-3
9.534935950E0,1.146563053E0,-1.409821749E0,2.358016968E-1
9.542931944E0,1.467717767E0,-1.595571518E0,1.520013809E-1
9.550927322E0,1.820314050E0,-1.684869766E0,3.009958267E-1
9.558923854E0,1.900334597E0,-1.907961369E0,7.779493332E-1
9.566918925E0,1.877023101E0,-2.071585894E0,3.701105118E-1
9.574914072E0,1.959708571E0,-2.071423054E0,2.783288956E-1
9.582909451E0,2.154550791E0,-2.070687771E0,-3.085327148E-2
9.590935905E0,2.376624823E0,-2.024668455E0,-1.572332382E-1
9.598933053E0,2.598543882E0,-2.111973763E0,1.704416275E-1
9.606927508E0,2.634861469E0,-2.175380230E0,-2.321863174E-1
9.614922655E0,2.594090700E0,-2.144081116E0,-3.253145218E-1
9.622918264E0,2.428309441E0,-2.124157190E0,-4.276695251E-1
9.630914258E0,2.248827934E0,-2.137828350E0,-4.651098251E-1
9.638911559E0,1.861523390E0,-2.203010559E0,-4.976654053E-1
9.646935783E0,1.392187834E0,-2.224158287E0,-8.420171738E-1
9.654931470E0,9.187443256E-1,-2.191080093E0,-9.346547127E-1
9.662927155E0,4.013351202E-1,-2.220386028E0,-9.578380585E-1
9.670922226E0,5.779063702E-2,-2.210024357E0,-8.601617813E-1
9.678918911E0,-3.249448538E-1,-2.213383675E0,-7.605495453E-1
9.686913905E0,-5.529652834E-1,-2.170518398E0,-6.653938293E-1
9.694909591E0,-8.660171032E-1,-2.063104153E0,-4.882450104E-1
9.702935739E0,-1.150557160E0,-1.932653427E0,-3.930311203E-1
9.710931193E0,-1.542721152E0,-1.840491295E0,-2.876014709E-1
9.718927495E0,-1.793764830E0,-1.640076160E0,-1.934700012E-1
9.726922180E0,-1.858908653E0,-1.446403503E0,-1.934547424E-1
9.734917559E0,-1.829635143E0,-1.238798618E0,-1.073389053E-1
9.742913860E0,-1.770542502E0,-1.060000420E0,-1.919479370E-1
9.750909007E0,-1.759845972E0,-8.493375778E-1,-1.423492432E-1
9.758935771E0,-1.816048026E0,-4.408774376E-1,-2.936277390E-1
9.766930841E0,-1.887763500E0,-1.154203415E-1,-2.767829895E-1
9.774925911E0,-1.934161305E0,2.233786583E-1,-2.669315338E-1
9.782921597E0,-1.913972497E0,4.617228508E-1,-2.906141281E-1
9.790918129E0,-1.960968971E0,7.558431625E-1,-2.744445801E-1
9.798914430E0,-1.995041251E0,1.215392590E0,-2.843627930E-1
9.806908655E0,-2.098878384E0,1.662255764E0,-4.052190781E-1
9.814935032E0,-2.251590014E0,1.994546175E0,-5.278339386E-1
9.822930180E0,-2.361606836E0,2.083029985E0,-6.272745132E-1
9.830925559E0,-2.502020121E0,2.066213846E0,-4.603891373E-1
9.838923090E0,-2.469867945E0,2.063799858E0,-4.223923683E-1
9.846916931E0,-2.298350811E0,2.061813831E0,-3.078060150E-1
9.854912616E0,-2.105477095E0,2.114050865E0,-3.445429802E-1
9.862907610E0,-1.889110804E0,2.206093073E0,-1.834096909E-1
9.870934988E0,-1.669081211E0,2.376724720E0,4.325103760E-2
9.878931905E0,-1.451103210E0,2.438010216E0,5.993709564E-1
9.886926051E0,-1.381209373E0,2.304503441E0,8.639764786E-1
9.894921507E0,-1.295207024E0,2.242166519E0,6.449575424E-1
9.902917193E0,-1.072778940E0,2.254917383E0,6.877584457E-1
9.918909180E0,6.547927856E-2,1.996278048E0,5.856094360E-1
9.926934404E0,4.469563961E-1,1.859033227E0,5.571451187E-1
9.934929475E0,4.524796009E-1,1.504498482E0,8.002758026E-1
9.942925468E0,6.755275726E-1,1.004765987E0,1.242022514E0
9.950920847E0,8.592655659E-1,5.366044044E-1,1.114864349E0
9.958917455E0,1.079466105E0,4.252376556E-1,5.952129364E-1
9.966912142E0,1.563492179E0,3.907244205E-1,1.814699173E-1
9.974907288E0,1.843519092E0,2.816874981E-1,-1.033792496E-1
9.982933744E0,1.856004477E0,-1.970291138E-2,-7.794475555E-2
9.990929353E0,1.916584730E0,-4.665381908E-1,-1.585988998E-1
9.998926269E0,1.856720209E0,-8.642272949E-1,-3.996753693E-2
1.000692080E1,1.785339594E0,-1.117950201E0,3.774738312E-2
1.001491587E1,1.829326749E0,-1.173511982E0,-2.279281616E-3
1.002291148E1,2.010173321E0,-1.142617702E0,-9.581661224E-2
1.003090755E1,1.976413012E0,-1.117602587E0,-1.184663773E-1
1.003893516E1,1.828307748E0,-1.168607235E0,-3.800048828E-1
1.004692838E1,1.707745433E0,-1.376038551E0,-3.386669159E-1
1.005492469E1,1.767165899E0,-1.586194992E0,-3.231372833E-1
1.006292014E1,1.724060059E0,-1.761786938E0,-3.429298401E-1
1.007091583E1,1.577620506E0,-1.904629707E0,-2.898979187E-1
1.007891328E1,1.467023373E0,-2.038057089E0,-1.799497604E-1
1.008690712E1,1.308304667E0,-2.355329514E0,2.324552536E-1
1.009493389E1,1.266134977E0,-2.478847980E0,-6.408786774E-2
1.010292896E1,1.351166606E0,-2.437188864E0,9.953212738E-2
1.011092410E1,1.331270695E0,-2.310302019E0,8.694362640E-2
1.011892071E1,1.174874902E0,-2.152839184E0,-3.346824646E-1
1.012691540E1,1.123311400E0,-2.111648321E0,-3.932371140E-1
1.013491139E1,1.165350437E0,-2.171497822E0,-3.884763718E-1
1.014290677E1,1.387012243E0,-2.216909647E0,-5.350761414E-1
1.015093292E1,1.532763481E0,-2.144396305E0,-6.499357224E-1
1.015892960E1,1.481729388E0,-2.114508629E0,-6.399393082E-1
1.016692398E1,1.278195977E0,-2.199924946E0,-5.797214508E-1
1.017492028E1,9.497493505E-1,-2.159773827E0,-6.201286316E-1
1.018291512E1,4.728395343E-1,-2.089980602E0,-5.252141953E-1
1.019091081E1,1.428809166E-1,-1.992395401E0,-5.845975876E-1
1.019893842E1,-1.330249310E-1,-1.877150059E0,-6.374897957E-1
1.020693264E1,-2.899676561E-1,-1.749437809E0,-6.127605438E-1
1.021492825E1,-4.053688049E-1,-1.664964676E0,-5.400657654E-1
1.022292394E1,-5.439267159E-1,-1.508176804E0,-5.152835846E-1
1.023091939E1,-5.993665457E-1,-1.342011452E0,-5.688676834E-1
1.023891600E1,-6.528807878E-1,-1.182553291E0,-4.312133789E-1
1.024691076E1,-7.093873024E-1,-1.100689888E0,-3.785467148E-1
1.025490637E1,-7.207727432E-1,-1.030857086E0,-2.154397964E-1
1.026293229E1,-7.248736620E-1,-8.468437195E-1,-4.049205780E-2
1.027092851E1,-8.375319242E-1,-6.171312332E-1,1.599063873E-1
1.027892458E1,-1.097224116E0,-3.861413002E-1,1.594476700E-1
1.028691935E1,-1.336661339E0,-1.412987709E-1,2.128219604E-1
1.029491465E1,-1.629510880E0,1.019339561E-1,3.629083633E-1
1.030291095E1,-1.847706556E0,3.570799828E-1,4.538831711E-1
1.031090610E1,-1.963436484E0,5.963106155E-1,3.666992188E-1
1.031893347E1,-2.151559353E0,1.013801098E0,1.022529602E-1
1.032692785E1,-2.413486004E0,1.485602856E0,-1.526556015E-1
1.033492354E1,-2.643545151E0,1.955444336E0,-3.125877380E-1
1.034291838E1,-2.664587021E0,2.250609636E0,-3.089981079E-1
1.035091399E1,-2.700434446E0,2.463077545E0,-4.204077721E-1
1.035891213E1,-2.731405258E0,2.446212769E0,-2.937145233E-1
1.036693582E1,-2.725602865E0,2.394933224E0,-3.718576431E-1
1.037493120E1,-2.727264404E0,2.325287819E0,-2.409029007E-1
1.038292750E1,-2.679839611E0,2.293222189E0,-1.670989990E-1
1.039092295E1,-2.519939184E0,2.252163172E0,-2.219324112E-1
1.039891987E1,-2.119185925E0,2.299103975E0,-1.353778839E-1
1.040691486E1,-1.709563017E0,2.244575977E0,6.029510498E-2
1.041490994E1,-1.384801388E0,2.009287119E0,4.336624146E-1
1.042293639E1,-1.296766043E0,1.687693596E0,6.170625687E-1
1.043093154E1,-1.154464960E0,1.543020248E0,6.418571472E-1
1.043892876E1,-7.096407413E-1,1.690487385E0,7.499895096E-1
1.044692260E1,-1.163840294E-1,1.726434946E0,9.294118881E-1
1.045491829E1,4.150919914E-1,1.591750860E0,8.392419815E-1
1.046291451E1,7.846066952E-1,1.356440306E0,8.709793091E-1
1.047090966E1,1.212741852E0,1.039236069E0,9.463968277E-1
1.047893696E1,1.511543512E0,7.896876335E-1,9.777317047E-1
1.048693111E1,1.731619120E0,6.716337204E-1,6.927843094E-1
1.049492595E1,2.022371769E0,5.303418636E-1,6.453685760E-1
1.050292225E1,2.312619686E0,3.376829624E-1,4.897212982E-1
1.051091817E1,2.597444296E0,1.004214287E-1,4.197988510E-1
1.051891447E1,2.702189207E0,-1.105470657E-1,4.256753922E-1
1.052690931E1,2.664463043E0,-3.173413277E-1,3.378038406E-1
1.053493507E1,2.585432768E0,-4.294860363E-1,1.475257874E-1
1.054293022E1,2.517453909E0,-5.534927845E-1,1.416788101E-1
1.055092675E1,2.506445646E0,-6.257152557E-1,2.324676514E-1
1.055892313E1,2.413323402E0,-7.062938213E-1,2.517318726E-1
1.056691812E1,2.250710964E0,-8.547613621E-1,2.265977859E-1
1.057491358E1,2.120669365E0,-1.064824343E0,1.160440445E-1
1.058290895E1,2.080503464E0,-1.313877583E0,2.320337296E-1
1.059093510E1,2.159621716E0,-1.536627769E0,1.456766129E-1
1.059893171E1,2.308406353E0,-1.642360210E0,-7.184982300E-3
1.060692678E1,2.353878736E0,-1.743921280E0,-1.119079590E-1
1.061492177E1,2.269805908E0,-1.845427752E0,-1.446790695E-1
1.062291754E1,2.198706865E0,-1.973558187E0,-4.235105515E-1
1.063091292E1,2.119089603E0,-2.083289862E0,-4.836988449E-1
1.063890952E1,2.013027906E0,-2.149179220E0,-6.083517075E-1
1.064693467E1,1.851680398E0,-2.196392775E0,-6.112356186E-1
1.065493043E1,1.645308256E0,-2.268959761E0,-4.176368713E-1
1.066292635E1,1.352340221E0,-2.357936144E0,-4.807090759E-1
1.067092173E1,1.035095096E0,-2.492501020E0,-2.133779526E-1
1.067891780E1,6.766157150E-1,-2.792106628E0,-2.201681137E-1
1.068691310E1,3.819703162E-1,-2.905627489E0,-3.429517746E-1
1.069490856E1,1.374397874E-1,-2.765984774E0,-5.706367493E-1
1.070293501E1,-6.216055155E-2,-2.578726768E0,-6.604785919E-1
1.071092970E1,-2.044371963E-1,-2.528374434E0,-8.342504501E-1
1.071892754E1,-3.784537911E-1,-2.413753510E0,-9.472827911E-1
1.072692115E1,-5.543028116E-1,-2.299687386E0,-9.350538254E-1
1.073491652E1,-7.928130627E-1,-2.143983364E0,-7.753314972E-1
1.074291275E1,-1.147439003E0,-1.949112892E0,-6.562557220E-1
1.075090790E1,-1.359426260E0,-1.816290379E0,-5.975017548E-1
1.075893520E1,-1.594167113E0,-1.649704456E0,-5.536155701E-1
1.076692942E1,-1.672135353E0,-1.418057442E0,-5.125837326E-1
1.077492534E1,-1.598941803E0,-1.180891514E0,-5.926465988E-1
1.078292079E1,-1.468611479E0,-8.654217720E-1,-5.776443481E-1
1.079091640E1,-1.484856606E0,-6.077837944E-1,-4.827404022E-1
1.079891340E1,-1.552653790E0,-2.812204361E-1,-5.206441879E-1
1.080690754E1,-1.631754756E0,7.797336578E-2,-3.980302811E-1
1.081493400E1,-1.614031792E0,3.857965469E-1,-6.980228424E-2
1.082292930E1,-1.703534603E0,5.608825684E-1,5.545234680E-2
1.083092499E1,-1.872636199E0,6.224060059E-1,1.811361313E-1
1.083892283E1,-2.098180771E0,6.659183502E-1,3.286323547E-1
1.084691605E1,-2.333510399E0,7.469725609E-1,4.382734299E-1
1.085491204E1,-2.578108311E0,8.480191231E-1,3.435573578E-1
1.086290711E1,-2.555226326E0,9.463393688E-1,2.798070908E-1
1.087093326E1,-2.507278919E0,1.133440495E0,1.113405228E-1
1.087893110E1,-2.299601078E0,1.437086821E0,-1.232347488E-1
1.088692440E1,-1.971485853E0,1.652641773E0,-2.136220932E-1
1.089492070E1,-1.626773834E0,1.829166651E0,-2.445392609E-1
1.090291600E1,-1.432808876E0,1.855577707E0,-1.637802124E-1
1.091091200E1,-1.390374660E0,1.810309172E0,1.529598236E-2
1.091890861E1,-1.377530575E0,1.641140223E0,2.356100082E-1
1.092693383E1,-1.337164164E0,1.505682230E0,4.681119919E-1
1.093492867E1,-1.208643436E0,1.493192911E0,5.887079239E-1
1.094292459E1,-9.684414864E-1,1.443763971E0,5.900850296E-1
1.095092027E1,-6.725738049E-1,1.362080812E0,4.675807953E-1
1.095891696E1,-3.894336224E-1,1.230581045E0,5.230274200E-1
1.096691134E1,-2.130093575E-1,1.045832157E0,5.890502930E-1
1.097490702E1,-1.149213314E-1,9.223620892E-1,3.697423935E-1
1.098293317E1,-5.764460564E-2,8.811497688E-1,2.466545105E-1
1.099092863E1,1.647174358E-1,9.428513050E-1,1.834344864E-1
1.099892577E1,3.439226151E-1,9.998779297E-1,2.416191101E-1
1.100691969E1,4.728987217E-1,9.358553886E-1,3.595438004E-1
1.101491507E1,5.619525909E-1,7.510235310E-1,4.368448257E-1
1.102291137E1,6.123123169E-1,6.347923279E-1,3.972864151E-1
1.103090644E1,7.796406746E-1,4.650590420E-1,6.949033737E-1
1.103893313E1,1.013364911E0,3.353729248E-1,5.530939102E-1
1.104692820E1,1.159147382E0,3.513205051E-1,5.293989182E-1
1.105492388E1,1.355252504E0,3.538949490E-1,5.035657883E-1
1.106291934E1,1.550790071E0,3.429999352E-1,5.209455490E-1
1.107091495E1,1.664203167E0,3.543963432E-1,3.780803680E-1
1.107891194E1,1.571132898E0,3.408367634E-1,3.186578751E-1
1.108690663E1,1.643022060E0,2.527153492E-1,2.846317291E-1
1.109493162E1,1.744673014E0,8.567452431E-2,3.452672958E-1
1.110292884E1,1.859028816E0,-1.379437447E-1,4.355020523E-1
1.111092384E1,1.879580736E0,-3.475782871E-1,3.765811920E-1
1.111892075E1,1.899792790E0,-4.829947948E-1,2.142381668E-1
1.112691498E1,1.956812382E0,-5.511949062E-1,7.047462463E-2
1.113491028E1,1.969336867E0,-5.791134834E-1,-6.428050995E-2
1.114290627E1,1.972062826E0,-6.391491890E-1,-2.131929398E-1
1.115093219E1,1.901521325E0,-6.670536995E-1,-2.731113434E-1
1.115892911E1,1.776431322E0,-6.592135429E-1,-2.822904587E-1
1.116692348E1,1.596936345E0,-6.597530842E-1,-2.506246567E-1
1.117491917E1,1.451333404E0,-7.045085430E-1,-2.260131836E-1
1.118291486E1,1.368715525E0,-8.143250942E-1,-2.153196335E-1
1.119091031E1,1.330080152E0,-1.030768633E0,-5.071544647E-2
1.119893730E1,1.238502145E0,-1.195763111E0,-7.185649872E-2
1.120693276E1,1.068590999E0,-1.339139938E0,-1.325454712E-1
1.121492714E1,8.730139136E-1,-1.371703625E0,-3.094310760E-1
1.122292344E1,7.696907520E-1,-1.403923750E0,-5.566482544E-1
1.123091859E1,7.191734314E-1,-1.438243866E0,-6.014785767E-1
1.123891489E1,6.400869489E-1,-1.400492191E0,-7.219257355E-1
1.124690965E1,4.670539796E-1,-1.451023817E0,-3.881864548E-1
1.125490534E1,2.647509575E-1,-1.466858387E0,-6.933670044E-1
1.126293141E1,7.199496031E-2,-1.434028387E0,-6.248083115E-1
1.127092717E1,-8.067029715E-2,-1.418179512E0,-3.214778900E-1
1.127892347E1,-2.118875980E-1,-1.578541279E0,-6.904602051E-4
1.128691823E1,-4.694888592E-1,-1.824520111E0,2.811031342E-1
1.129491361E1,-7.262399793E-1,-1.937113762E0,1.819887161E-1
1.130290991E1,-8.112643361E-1,-1.900564194E0,1.238327026E-1
1.131090498E1,-7.181252241E-1,-1.842826843E0,5.437564850E-2
1.131893259E1,-6.868683100E-1,-1.843434334E0,-6.875228882E-2
1.132692705E1,-7.921876311E-1,-1.842349529E0,-3.280763626E-1
1.133492243E1,-9.550200701E-1,-1.813656330E0,-4.591655731E-1
1.134291819E1,-9.794021845E-1,-1.793314934E0,-4.787836075E-1
1.135091349E1,-1.059171200E0,-1.739592552E0,-5.948047638E-1
1.135891041E1,-1.357404590E0,-1.631979465E0,-7.178964615E-1
1.136693509E1,-1.484341621E0,-1.507164955E0,-6.903333664E-1
1.137493109E1,-1.535155177E0,-1.304847717E0,-7.321567535E-1
1.138292554E1,-1.582083344E0,-1.091608524E0,-7.376856804E-1
1.139092238E1,-1.623250484E0,-9.752964973E-1,-5.955991745E-1
1.139891907E1,-1.658289433E0,-8.897676468E-1,-5.743961334E-1
1.140691352E1,-1.672745228E0,-7.616105080E-1,-5.259819031E-1
1.141490852E1,-1.635761023E0,-6.328320503E-1,-4.414539337E-1
1.142293497E1,-1.628353834E0,-4.755134583E-1,-3.570957184E-1
1.143093035E1,-1.652102590E0,-2.764296532E-1,-3.021440506E-1
1.143892796E1,-1.660658956E0,-3.034973145E-2,-3.884096146E-1
1.144692295E1,-1.542990804E0,1.688714027E-1,-3.265237808E-1
1.145491748E1,-1.464352369E0,4.176840782E-1,-2.422304153E-1
1.146291278E1,-1.453051448E0,5.881614685E-1,-1.459989548E-1
1.147090816E1,-1.518999219E0,8.156948090E-1,-1.889743805E-1
1.147893593E1,-1.626245022E0,9.766321182E-1,-3.922557831E-2
1.148693030E1,-1.699889302E0,9.302968979E-1,2.047042847E-1
1.149492691E1,-1.762920618E0,8.555393219E-1,3.567447662E-1
1.150292168E1,-1.648269892E0,9.372057915E-1,4.649095535E-1
1.151091736E1,-1.416414738E0,1.179212332E0,5.404539108E-1
1.151891366E1,-1.170367479E0,1.384377003E0,4.990139008E-1
1.152690881E1,-8.926675320E-1,1.405213356E0,5.729579926E-1
1.153493465E1,-7.949240208E-1,1.306068897E0,7.488765717E-1
1.154292972E1,-8.280417919E-1,1.300347328E0,5.968980789E-1
1.155092541E1,-8.440456390E-1,1.426417351E0,2.964925766E-1
1.155892317E1,-6.668581963E-1,1.537433863E0,1.918706894E-1
1.156691670E1,-4.506297112E-1,1.545166731E0,6.699752808E-2
1.157491146E1,-3.149390221E-1,1.574417114E0,-7.891654968E-2
1.158290807E1,-2.330050468E-1,1.520329475E0,4.735183716E-2
1.159093430E1,-1.941456795E-1,1.497089386E0,1.931858063E-2
1.159893121E1,-1.556556225E-1,1.492393494E0,8.385658264E-2
1.160692536E1,-5.326557159E-2,1.550196886E0,1.664667130E-1
1.161492105E1,1.518013477E-1,1.620959044E0,3.262500763E-1
1.162291704E1,4.960613251E-1,1.541766405E0,4.667921066E-1
1.163091150E1,7.031557560E-1,1.448754072E0,5.780143738E-1
1.163890957E1,7.997856140E-1,1.384174109E0,6.907825470E-1
1.164693456E1,9.504021406E-1,1.248654127E0,8.211164474E-1
1.165492955E1,1.034656048E0,1.069224358E0,8.902673721E-1
1.166292524E1,1.137931943E0,8.024682999E-1,8.799238205E-1
1.167092123E1,1.274332285E0,6.205434799E-1,8.701124191E-1
1.167891753E1,1.412024260E0,5.054428577E-1,8.755874634E-1
1.168691237E1,1.507050872E0,4.018337727E-1,8.085851669E-1
1.169490775E1,1.485063195E0,3.307974339E-1,6.383972168E-1
1.170293390E1,1.403268695E0,2.345089912E-1,4.348526001E-1
1.171092928E1,1.421625137E0,9.449005127E-2,3.183879852E-1
1.171892581E1,1.477177382E0,-4.114651680E-2,1.930131912E-1
1.172692026E1,1.526066065E0,-1.930618286E-1,1.569480896E-1
1.173491541E1,1.482775688E0,-3.184173107E-1,1.790800095E-1
1.174291171E1,1.336928248E0,-4.391641617E-1,1.734046936E-1
1.175090678E1,1.313538432E0,-5.440065861E-1,1.779003143E-1
1.175893416E1,1.317986965E0,-6.360731125E-1,1.919507980E-1
1.176692854E1,1.196765780E0,-7.748379707E-1,6.002330780E-2
1.177492430E1,1.135374546E0,-8.424465656E-1,-8.145332336E-2
1.178292053E1,1.195260525E0,-9.090335369E-1,-5.807685852E-2
1.179091560E1,1.185455441E0,-9.556488991E-1,-1.191949844E-1
1.179891228E1,1.186502218E0,-1.069319010E0,-5.637931824E-2
1.180690705E1,1.190824270E0,-1.181293964E0,-7.530117035E-2
1.181493319E1,1.236190796E0,-1.244487047E0,-4.897785187E-2
1.182292850E1,1.271746635E0,-1.307498932E0,-8.270454407E-2
1.183092395E1,1.271160841E0,-1.398191214E0,1.479434967E-2
1.183892087E1,1.064889908E0,-1.567202330E0,-4.837131500E-2
1.184691563E1,8.510066271E-1,-1.693118095E0,-2.426433563E-1
1.185491039E1,6.065837741E-1,-1.749050617E0,-3.642549515E-1
1.186290754E1,5.345525742E-1,-1.713731050E0,-5.899734497E-1
1.187093315E1,4.722367525E-1,-1.637244940E0,-8.211250305E-1
1.187892968E1,3.959814906E-1,-1.590836048E0,-8.000783920E-1
1.188692391E1,2.678189278E-1,-1.621018410E0,-8.027553558E-1
1.189491928E1,7.994389534E-2,-1.637177467E0,-8.436183929E-1
1.190291520E1,7.163333893E-2,-1.598675728E0,-7.225723267E-1
1.191091150E1,2.867174149E-2,-1.543692589E0,-6.463737488E-1
1.191890665E1,-5.579113960E-2,-1.582902908E0,-6.341199875E-1
1.192693210E1,-2.055888772E-1,-1.594172001E0,-6.565570831E-1
1.193492748E1,-4.018059373E-1,-1.642303944E0,-5.733308792E-1
1.194292348E1,-5.377318859E-1,-1.736981392E0,-4.097080231E-1
1.195091916E1,-7.776606679E-1,-1.728298187E0,-3.341150284E-1
1.195891638E1,-1.135541677E0,-1.651978016E0,-3.345813751E-1
1.196691061E1,-1.377592087E0,-1.534419060E0,-4.578914642E-1
1.197490622E1,-1.606278062E0,-1.390806675E0,-5.094547272E-1
1.198293175E1,-1.782413244E0,-1.273858547E0,-6.532855034E-1
1.199092805E1,-1.876554251E0,-1.206563950E0,-7.452993393E-1
1.199892435E1,-1.885543346E0,-1.149773598E0,-8.258223534E-1
1.200691973E1,-1.851738691E0,-1.055202007E0,-8.684072495E-1
1.201491419E1,-1.783446670E0,-8.759512901E-1,-1.029955387E0
1.202290987E1,-1.708992243E0,-6.952714920E-1,-1.065701008E0
1.203090587E1,-1.611003160E0,-4.928474426E-1,-1.031154156E0
1.203893394E1,-1.513563633E0,-3.565688133E-1,-9.295883179E-1
1.204692747E1,-1.387079239E0,-2.036380768E-1,-7.058048248E-1
1.205492277E1,-1.330374241E0,-2.699136734E-2,-4.908084869E-1
1.206291846E1,-1.369991899E0,8.496427536E-2,-2.789692879E-1
1.207091445E1,-1.525136590E0,2.041292191E-1,1.186466217E-2
1.207891106E1,-1.708914280E0,2.631654739E-1,1.899747849E-1
1.208690559E1,-1.908805847E0,4.184403419E-1,2.726774216E-1
1.209493166E1,-2.067056179E0,6.444745064E-1,2.396512032E-1
1.210292619E1,-2.038033962E0,9.105443954E-1,2.013311386E-1
1.211092272E1,-1.915010214E0,1.180475712E0,1.050629616E-1
1.211891964E1,-1.690147400E0,1.398806095E0,7.958507538E-2
1.212691417E1,-1.471093178E0,1.538574457E0,6.172657013E-2
1.213491009E1,-1.299516439E0,1.562045336E0,1.227841377E-1
1.214290555E1,-1.227720261E0,1.565951109E0,2.484078407E-1
1.215093162E1,-1.135771751E0,1.605164528E0,3.020572662E-1
1.215892822E1,-9.242665768E-1,1.608276844E0,4.040579796E-1
1.216692237E1,-7.302052975E-1,1.618083954E0,5.826492310E-1
1.217491837E1,-6.479442120E-1,1.610695839E0,6.347846985E-1
1.218291351E1,-5.119056702E-1,1.544362068E0,6.164875031E-1
1.219090981E1,-2.584118843E-1,1.427659988E0,6.766571999E-1
1.219890612E1,-7.537412643E-2,1.336429596E0,7.128105164E-1
1.220693103E1,1.025021076E-1,1.272893906E0,6.196479797E-1
1.221492633E1,2.657046318E-1,1.201627731E0,6.166448593E-1
1.222292210E1,4.817011356E-1,1.150210381E0,5.369358063E-1
1.223091778E1,6.222553253E-1,1.123112202E0,3.388175964E-1
1.223891470E1,7.447416782E-1,1.050230980E0,3.688735962E-1
1.224690885E1,9.200387001E-1,9.974565506E-1,4.296617508E-1
1.225493584E1,9.934253693E-1,8.628897667E-1,5.389699936E-1
1.226293060E1,1.058754444E0,7.524328232E-1,5.224742889E-1
1.227092629E1,1.153845072E0,6.109635830E-1,5.619106293E-1
1.227892259E1,1.202219009E0,5.240399837E-1,5.852146149E-1
1.228691743E1,1.237660766E0,4.293849468E-1,5.925388336E-1
1.229491373E1,1.354094028E0,3.278667927E-1,5.845909119E-1
1.230290880E1,1.506461143E0,2.584826946E-1,5.523576736E-1
1.231093495E1,1.483641148E0,2.047390938E-1,5.278501511E-1
1.231893187E1,1.362456799E0,6.831741333E-2,5.310802460E-1
1.232692632E1,1.291576266E0,-7.345223427E-2,4.459247589E-1
1.233492201E1,1.286431551E0,-1.272499561E-1,3.923416138E-1
1.234291800E1,1.242941618E0,-1.195909977E-1,3.107099533E-1
1.235091299E1,1.210721970E0,-1.319677830E-1,3.060264587E-1
1.235890960E1,1.237640023E0,-1.549158096E-1,2.696952820E-1
1.236690406E1,1.181735635E0,-2.124204636E-1,3.283596039E-1
1.237492997E1,1.075830698E0,-2.711989880E-1,2.327194214E-1
1.238292651E1,9.828197956E-1,-3.457927704E-1,2.462673187E-1
1.239092165E1,1.002941489E0,-3.775045872E-1,3.516664505E-1
1.239891819E1,1.100890875E0,-4.124832153E-1,3.901624680E-1
1.240691303E1,1.096974611E0,-4.551725388E-1,3.308267593E-1
1.241490864E1,1.094987273E0,-4.738609791E-1,2.077264786E-1
1.242290432E1,1.042144895E0,-5.043261051E-1,1.771688461E-1
1.243092993E1,1.066438675E0,-5.464920998E-1,1.412954330E-1
1.243892654E1,1.198097467E0,-6.021084785E-1,2.116680145E-2
1.244692092E1,1.361084938E0,-6.322090626E-1,-5.880928040E-2
1.245491660E1,1.446813464E0,-6.612939835E-1,-6.307125092E-2
1.246291229E1,1.418213725E0,-7.031805515E-1,-2.021989822E-1
1.247090828E1,1.314949512E0,-7.343459129E-1,-1.695184708E-1
1.247893543E1,1.181687832E0,-8.775839806E-1,-1.445112228E-1
1.248693012E1,1.011354089E0,-1.036987782E0,-2.080163956E-1
1.249492519E1,8.037748933E-1,-1.243251324E0,1.810550690E-2
1.250292064E1,6.436455250E-1,-1.360650063E0,-2.673053741E-2
1.251091625E1,4.642438889E-1,-1.424459457E0,-1.340351105E-1
1.251891347E1,2.668955326E-1,-1.482930660E0,-1.794242859E-1
1.252690801E1,1.133519411E-1,-1.552146912E0,-3.208017349E-1
1.253493346E1,-5.704534054E-2,-1.637901783E0,-4.834833145E-1
1.254292953E1,-2.105358839E-1,-1.692061424E0,-5.811681747E-1
1.255092453E1,-4.401624203E-1,-1.794415474E0,-6.118259430E-1
1.255892214E1,-7.706733942E-1,-1.923763275E0,-7.119107246E-1
1.256691628E1,-1.054966450E0,-1.972629070E0,-8.072028160E-1
1.257491189E1,-1.230553627E0,-1.932236195E0,-9.830064774E-1
1.258290788E1,-1.322889805E0,-1.905608177E0,-1.055095673E0
1.259093288E1,-1.501269341E0,-1.886926174E0,-1.050621033E0
1.259892949E1,-1.599212527E0,-1.982527256E0,-9.622082710E-1
1.260692479E1,-1.643909931E0,-2.061583042E0,-9.535899162E-1
1.261491994E1,-1.773078442E0,-2.043174744E0,-9.414734840E-1
1.262291647E1,-1.978115559E0,-1.923635483E0,-1.077872753E0
1.263091123E1,-2.041155338E0,-1.798194408E0,-1.243052483E0
1.263890815E1,-1.972200274E0,-1.700840950E0,-1.365992546E0
1.264693306E1,-1.884357810E0,-1.523165226E0,-1.525692463E0
1.265492937E1,-1.892002702E0,-1.236500263E0,-1.537260532E0
1.266292444E1,-2.043438911E0,-9.113326073E-1,-1.534466743E0
1.267092012E1,-2.192598343E0,-5.207262039E-1,-1.334867954E0
1.267891581E1,-2.301219463E0,-2.301659584E-1,-1.085250854E0
1.268691126E1,-2.472960234E0,-1.100683212E-2,-8.321990967E-1
1.269490756E1,-2.494850397E0,1.924581528E-1,-6.348104477E-1
1.270293333E1,-2.517516613E0,5.273227692E-1,-3.939914703E-1
1.271092809E1,-2.570627928E0,9.364566803E-1,-8.104181290E-2
1.271892570E1,-2.609420300E0,1.222908974E0,1.331968307E-1
1.272692008E1,-2.519023657E0,1.514375687E0,3.257250786E-1
1.273491522E1,-2.270056486E0,1.744868994E0,2.708163261E-1
1.274291083E1,-1.858986139E0,2.031039476E0,5.534777641E-1
1.275090652E1,-1.508005381E0,2.235263824E0,6.695137024E-1
1.275893428E1,-1.328602552E0,2.341358662E0,7.721233368E-1
1.276692804E1,-1.091078758E0,2.409820318E0,1.112829685E0
1.277492350E1,-8.816051483E-1,2.512368679E0,9.751191139E-1
1.278291972E1,-7.113935947E-1,2.511732578E0,1.133332729E0
1.279091487E1,-4.696066380E-1,2.451461792E0,9.895553589E-1
1.279891148E1,-2.270190716E-1,2.453627348E0,8.580207825E-1
1.280690655E1,4.878330231E-2,2.456168890E0,8.247723579E-1
1.281493231E1,3.811748028E-1,2.401966572E0,8.027148247E-1
1.282292769E1,6.881804466E-1,2.353805542E0,7.808909416E-1
1.283092376E1,9.870512486E-1,2.247870922E0,8.049163818E-1
1.283892029E1,1.265550137E0,2.101993561E0,7.968788147E-1
1.284691475E1,1.550123215E0,1.869118690E0,9.124326706E-1
1.285491013E1,1.879663587E0,1.624830484E0,6.900081635E-1
1.286290612E1,2.225540161E0,1.407660246E0,7.063980103E-1
1.287093204E1,2.383706093E0,1.179163456E0,7.564601898E-1
1.287892949E1,2.391048908E0,9.031372070E-1,7.470197678E-1
1.288692341E1,2.413107395E0,5.791270733E-1,7.402305603E-1
1.289491879E1,2.351619005E0,3.212127686E-1,7.620429993E-1
1.290291440E1,2.177245855E0,9.506034851E-2,8.119640350E-1
1.291090978E1,2.117074966E0,-1.340370178E-1,7.827453613E-1
1.291890731E1,2.141656876E0,-4.022018909E-1,7.326011658E-1
1.292693230E1,2.109797001E0,-5.938906670E-1,7.521238327E-1
1.293492737E1,2.088876724E0,-7.763257027E-1,4.875841141E-1
1.294292367E1,2.192821741E0,-9.339890480E-1,2.162065506E-1
1.295091751E1,2.250455618E0,-1.036690712E0,1.312704086E-1
1.295891597E1,2.228867292E0,-1.142856121E0,4.366302490E-2
1.296691004E1,2.172983646E0,-1.275342464E0,5.249500275E-2
1.297490549E1,2.059993982E0,-1.504554272E0,-2.832984924E-2
1.298293195E1,1.836920500E0,-1.754519224E0,-7.347583771E-2
1.299092640E1,1.565012336E0,-2.037809610E0,-4.210948944E-2
1.299892394E1,1.268651009E0,-2.370599508E0,1.151962280E-1
1.300691839E1,1.026417732E0,-2.654048681E0,-1.229953766E-2
1.301491338E1,8.702250719E-1,-2.821292639E0,-3.292741776E-1
1.302290945E1,8.330615759E-1,-2.803231001E0,-2.942237854E-1
1.303090506E1,7.270164490E-1,-2.754281759E0,-3.328590393E-1
1.303893160E1,4.840973616E-1,-2.838269949E0,-4.789247513E-1
1.304692666E1,2.606222630E-1,-3.007388115E0,-6.509542465E-1
1.305492227E1,2.356350422E-2,-3.096602917E0,-8.862590790E-1
1.306291796E1,-1.669936180E-1,-3.076708078E0,-9.499740601E-1
1.307091334E1,-3.058282137E-1,-3.061353922E0,-9.837741852E-1
1.307891025E1,-3.616046906E-1,-2.989784479E0,-1.063857079E0
1.308690510E1,-3.552737236E-1,-2.942663908E0,-1.120352268E0
1.309493124E1,-3.752543926E-1,-2.790511608E0,-1.197518826E0
1.310292624E1,-6.042243242E-1,-2.643632889E0,-1.213639259E0
1.311092169E1,-9.347219467E-1,-2.567489147E0,-1.017638206E0
1.311891945E1,-1.232010484E0,-2.562518597E0,-7.567019463E-1
1.312691360E1,-1.514301538E0,-2.522903442E0,-6.739730835E-1
1.313490875E1,-1.856564283E0,-2.264593124E0,-7.746977806E-1
1.314290413E1,-2.187041044E0,-1.877336502E0,-8.129029274E-1
1.315093081E1,-2.614027023E0,-1.451097965E0,-9.085626602E-1
1.315892688E1,-2.793486834E0,-1.249877930E0,-1.089021206E0
1.316692164E1,-2.757189512E0,-9.252705574E-1,-1.246444702E0
1.317491756E1,-2.598941803E0,-4.927310944E-1,-1.240977287E0
1.318291263E1,-2.589326620E0,-9.989356995E-2,-1.269252300E0
1.319090840E1,-2.673796654E0,2.570943832E-1,-1.096839905E0
1.319893608E1,-2.792761087E0,5.694041252E-1,-1.079208851E0
1.320693146E1,-2.806464195E0,1.004842520E0,-9.714665413E-1
1.321492592E1,-2.753580809E0,1.453525782E0,-8.043937683E-1
1.322292191E1,-2.675615072E0,1.777482033E0,-4.952130318E-1
1.323091721E1,-2.611372232E0,1.934524775E0,-1.236953735E-1
1.323891413E1,-2.478449821E0,1.972241163E0,-6.745243073E-2
1.324690835E1,-2.148887396E0,2.045841217E0,1.065740585E-1
1.325490373E1,-1.871994972E0,2.125638485E0,3.635091782E-1
1.326293011E1,-1.670229435E0,2.258509398E0,5.334587097E-1
1.327092579E1,-1.463199615E0,2.381447792E0,6.009006500E-1
1.327892179E1,-1.209287643E0,2.467561960E0,8.006458282E-1
1.328691693E1,-9.043219090E-1,2.619034767E0,1.093672752E0
1.329491254E1,-7.573533058E-1,2.724614143E0,7.148809433E-1
1.330290792E1,-6.649363041E-1,2.644660234E0,9.762697220E-1
1.331093353E1,-3.687968254E-1,2.399468184E0,8.702182770E-1
1.331893068E1,-1.978487968E-1,2.145609856E0,9.723644257E-1
1.332692575E1,-1.587200165E-2,1.832733870E0,8.729057312E-1
1.333492113E1,1.456875801E-1,1.596549153E0,8.283662796E-1
1.334291681E1,4.108355045E-1,1.407438517E0,7.277841568E-1
1.335091219E1,7.334685326E-1,1.356385469E0,4.835891724E-1
1.335891003E1,9.526593685E-1,1.277232766E0,4.097461700E-1
1.336693318E1,1.217213154E0,1.070420027E0,2.347726822E-1
1.337492948E1,1.427568674E0,8.607444763E-1,1.546077728E-1
1.338292509E1,1.545661926E0,5.621953011E-1,3.851032257E-1
1.339092016E1,1.488801956E0,3.083128929E-1,4.299154282E-1
1.339891715E1,1.385796785E0,5.109071732E-2,5.775365829E-1
1.340691184E1,1.604124784E0,-2.929382324E-1,7.545509338E-1
1.341490814E1,1.953223228E0,-5.680773258E-1,7.614250183E-1
1.342293436E1,2.210755825E0,-7.943506241E-1,7.704086304E-1
1.343092905E1,2.277511120E0,-8.853487968E-1,4.973621368E-1
1.343892627E1,2.280694485E0,-9.809632301E-1,3.370647430E-1
1.344692073E1,2.300089598E0,-1.049234867E0,9.034156799E-2
1.345491557E1,2.341291189E0,-1.056054115E0,2.511787415E-2
1.346291125E1,2.261398554E0,-9.940826893E-1,-3.552331924E-1
1.347090694E1,2.170273066E0,-9.970839024E-1,-2.879838943E-1
1.347893463E1,2.040587902E0,-1.248042583E0,-1.482267380E-1
1.348692846E1,1.735605001E0,-1.590336084E0,4.188280106E-1
1.349492446E1,1.295094132E0,-2.023368597E0,3.865318298E-1
1.350291953E1,1.135995507E0,-2.254568815E0,3.078927994E-1
1.351091552E1,1.151345015E0,-2.184432030E0,3.245353699E-2
1.351891213E1,1.334155083E0,-2.087425470E0,8.475589752E-2
1.352690751E1,1.429933429E0,-2.043131351E0,-1.299991608E-1
1.353493274E1,1.399468422E0,-2.095974445E0,-3.617124557E-1
1.354292927E1,1.318434238E0,-2.135257006E0,-6.589918137E-1
1.355092411E1,1.207233906E0,-2.196932793E0,-5.955448151E-1
1.355892102E1,1.186053038E0,-2.323128939E0,-5.008049011E-1
1.356691602E1,1.107242346E0,-2.363983393E0,-5.192995071E-1
1.357491086E1,9.036351442E-1,-2.308393478E0,-6.672325134E-1
1.358290654E1,6.729702950E-1,-2.198209286E0,-7.952079773E-1
1.359093230E1,2.859383821E-1,-2.253074884E0,-6.718931198E-1
1.359892961E1,-2.147810459E-1,-2.395319939E0,-7.952370644E-1
1.360692406E1,-6.328232288E-1,-2.434681892E0,-9.155287743E-1
1.361491944E1,-1.020801544E0,-2.426856041E0,-6.668806076E-1
1.362291474E1,-1.251236558E0,-2.432065487E0,-5.761079788E-1
1.363091104E1,-1.410511017E0,-2.404847622E0,-6.696362495E-1
1.363890742E1,-1.594915152E0,-2.364677906E0,-7.771887779E-1
1.364693234E1,-1.849698901E0,-2.286290169E0,-7.538027763E-1
1.365492772E1,-2.131514549E0,-2.173360825E0,-6.701116562E-1
1.366292394E1,-2.244672298E0,-2.021393299E0,-6.904644966E-1
1.367091909E1,-2.269262314E0,-1.753729820E0,-8.217306137E-1
1.367891600E1,-2.282155991E0,-1.414906502E0,-8.486595154E-1
1.368690984E1,-2.199048996E0,-1.091792107E0,-7.912817001E-1
1.369490607E1,-2.036793709E0,-8.137965202E-1,-8.320012093E-1
1.370293221E1,-1.920896292E0,-5.710191727E-1,-8.428001404E-1
1.371092759E1,-1.909598231E0,-2.693400383E-1,-8.287291527E-1
1.371892459E1,-1.968482494E0,-1.548767090E-2,-7.290363312E-1
1.372691897E1,-2.144551039E0,2.296500206E-1,-6.458601952E-1
1.373491465E1,-2.197642565E0,4.602546692E-1,-7.509002686E-1
1.374290949E1,-1.990812063E0,7.588973045E-1,-7.238206863E-1
1.375090548E1,-1.712145805E0,1.163608313E0,-6.957297325E-1
1.375893278E1,-1.651615620E0,1.484044313E0,-5.594315529E-1
1.376692755E1,-1.763019800E0,1.791317463E0,-6.304645538E-1
1.377492323E1,-1.748269796E0,2.038202524E0,-5.122284889E-1
1.378291861E1,-1.660135984E0,2.175963879E0,-3.184037209E-1
1.379091399E1,-1.527059317E0,2.205108643E0,-1.087360382E-1
1.379891098E1,-1.336678267E0,2.120605469E0,1.069889069E-1
1.380690567E1,-1.021274567E0,2.065265656E0,1.827850342E-1
1.381493189E1,-7.284095287E-1,2.062224865E0,4.368143082E-1
1.382292658E1,-4.366872311E-1,1.998199463E0,6.339082718E-1
1.383092257E1,-3.024742603E-1,1.921460629E0,7.031421661E-1
1.383891957E1,-1.793735027E-1,1.821900845E0,6.840324402E-1
1.384691394E1,1.499073505E-1,1.727994442E0,7.632284164E-1
1.385490902E1,5.535948277E-1,1.670579433E0,7.182054520E-1
1.386290532E1,8.457767963E-1,1.575407505E0,7.504005432E-1
1.387093123E1,9.849464893E-1,1.346643209E0,8.148193359E-1
1.387892776E1,1.216757774E0,1.090257406E0,7.194738388E-1
1.388692222E1,1.334522486E0,8.047318459E-1,6.999626160E-1
1.389491821E1,1.374580383E0,5.762391090E-1,6.232938766E-1
1.390291336E1,1.474237919E0,3.961615562E-1,7.261419296E-1
1.391090936E1,1.729110718E0,2.801451683E-1,3.645229340E-1
1.391890527E1,2.136337996E0,1.376502514E-1,1.522464752E-1
1.392693057E1,2.362728119E0,1.097655296E-1,1.956558228E-2
1.393492626E1,2.291937351E0,6.342291832E-2,-1.381750107E-1
1.394292187E1,2.107851028E0,-1.358342171E-2,-1.441898346E-1
1.395091786E1,1.962436914E0,-1.008672714E-1,-3.256988525E-1
1.395891486E1,1.807504773E0,-2.807047367E-1,-1.956825256E-1
1.396690839E1,1.920555949E0,-5.179677010E-1,4.898929596E-2
1.397490430E1,2.067074776E0,-7.210071087E-1,2.243824005E-1
1.398293114E1,1.764454961E0,-8.861780167E-1,2.687234879E-1
1.399092675E1,1.303220272E0,-1.126426458E0,9.041833878E-1
1.399892275E1,1.277732253E0,-1.502209425E0,1.026361465E0
1.400691812E1,1.452667356E0,-1.673236132E0,9.830265045E-1
1.401491258E1,1.336409688E0,-1.663355112E0,7.872467041E-1
1.402290888E1,1.041542411E0,-1.629275799E0,6.137104034E-1
1.403090434E1,8.511190414E-1,-1.626429558E0,4.650859833E-1
1.403893202E1,7.852997780E-1,-1.698387861E0,5.182390213E-1
1.404692578E1,7.066555023E-1,-1.753334761E0,6.211109161E-1
1.405492116E1,4.466021061E-1,-1.800698996E0,8.177385330E-1
1.406291693E1,1.183216572E-1,-1.781594992E0,8.748760223E-1
1.407091323E1,-1.323583126E-1,-1.758099556E0,8.900423050E-1
1.407890976E1,-2.995009422E-1,-1.683091879E0,9.281387329E-1
1.408690421E1,-3.952345848E-1,-1.619387150E0,1.036654472E0
1.409493075E1,-4.055693150E-1,-1.530994177E0,1.025836945E0
1.410292643E1,-4.055743217E-1,-1.408085108E0,8.956394196E-1
1.411092089E1,-3.816461563E-1,-1.180456161E0,5.893735886E-1
1.411891780E1,-3.536603451E-1,-9.189319611E-1,3.616895676E-1
1.412691280E1,-3.232618570E-1,-7.934353352E-1,1.534967422E-1
1.413490825E1,-2.546917200E-1,-6.742634773E-1,2.531719208E-2
1.414290363E1,-2.470839024E-1,-5.634529591E-1,3.540992737E-3
1.415092916E1,-3.294442892E-1,-3.708806038E-1,-1.046466827E-2
1.415892631E1,-4.305552244E-1,-2.223596573E-1,-5.332374573E-2
1.416692046E1,-5.034221411E-1,-1.266460419E-1,-3.013420105E-2
1.417491645E1,-6.016416550E-1,-6.608009338E-2,1.517200470E-2
1.418291191E1,-6.446386576E-1,-1.294088364E-2,4.368686676E-2
1.419090759E1,-6.583185196E-1,3.696322441E-2,-7.006645203E-3
1.419893489E1,-6.725122929E-1,1.426396370E-1,-1.730155945E-2
1.420692966E1,-6.381889582E-1,2.411935329E-1,-3.034973145E-2
1.421492480E1,-5.282925367E-1,3.510446548E-1,-2.478218079E-2
1.422292080E1,-4.762815237E-1,4.050137997E-1,-8.673858643E-2
1.423091702E1,-4.108271599E-1,4.458811283E-1,-6.322288513E-2
1.423891309E1,-3.748594522E-1,4.451997280E-1,-1.719427109E-1
1.424690778E1,-3.902312517E-1,5.641555786E-1,-5.222644806E-1
1.425490285E1,-4.188958406E-1,6.971709728E-1,-7.958507538E-1
1.426292907E1,-3.965978622E-1,7.597477436E-1,-9.829778671E-1
1.427092499E1,-2.996990681E-1,7.414145470E-1,-1.111825466E0
1.427892168E1,-2.667019367E-1,7.183265686E-1,-1.449677944E0
1.428691544E1,-3.085569143E-1,7.415001392E-1,-1.481271267E0
1.429491143E1,-4.478757381E-1,6.567497253E-1,-1.477271557E0
1.430290689E1,-5.627268553E-1,5.103495121E-1,-1.330637932E0
1.431090280E1,-5.417541265E-1,2.487699986E-1,-1.137731075E0
1.431892987E1,-4.941630363E-1,9.363722801E-2,-8.585882187E-1
1.432692464E1,-5.966738462E-1,1.052737236E-2,-6.783561707E-1
1.433492001E1,-7.320506573E-1,-1.064348221E-2,-6.068449020E-1
1.434291516E1,-7.418156862E-1,-6.999778748E-2,-6.796817780E-1
1.435091115E1,-5.743302107E-1,-4.712724686E-2,-8.345260620E-1
1.435890838E1,-4.123120308E-1,1.264669895E-1,-1.277277470E0
1.436693330E1,-3.873108625E-1,3.418402672E-1,-1.590734959E0
1.437492829E1,-4.943548441E-1,4.047403336E-1,-1.580026627E0
1.438292467E1,-5.357639790E-1,2.925844193E-1,-1.517754555E0
1.439091974E1,-3.307887316E-1,1.184170246E-1,-1.379509449E0
1.439891635E1,-1.070157290E-1,6.436109543E-3,-1.225754738E0
1.440691134E1,1.133493185E-1,-1.765751839E-2,-1.088444233E0
1.441490610E1,1.802805662E-1,-3.312873840E-2,-1.058910370E0
1.442293264E1,2.596682310E-1,-6.648778915E-2,-1.149002552E0
1.443092832E1,4.051620960E-1,-1.719298363E-1,-1.216815948E0
1.443892578E1,5.578647256E-1,-3.040986061E-1,-1.254990578E0
1.444691992E1,6.723361015E-1,-4.680938721E-1,-1.043332577E0
1.445491507E1,6.316407919E-1,-6.011109352E-1,-7.753810883E-1
1.446291045E1,4.826847315E-1,-8.213891983E-1,-3.974666595E-1
1.447090606E1,3.818158507E-1,-1.048150539E0,2.442646027E-2
1.447893436E1,3.276950717E-1,-1.338260651E0,1.173639297E-1
1.448692828E1,3.259664774E-1,-1.627537251E0,3.302860260E-1
1.449492396E1,3.382044435E-1,-1.762920380E0,3.831577301E-1
1.450291934E1,3.510366678E-1,-1.849751472E0,5.774183273E-1
1.451091410E1,3.314070702E-1,-1.910114288E0,6.730079651E-1
1.451891217E1,3.304454684E-1,-1.950280190E0,6.366910934E-1
1.452690571E1,3.910411000E-1,-1.870645046E0,6.054553986E-1
1.453493162E1,3.955693841E-1,-1.804346085E0,6.466445923E-1
1.454292792E1,3.464455605E-1,-1.744871616E0,7.142677307E-1
1.455092269E1,1.716651917E-1,-1.543704987E0,5.725622177E-1
1.455892053E1,-1.587610841E-1,-1.261561871E0,6.486082077E-1
1.456691490E1,-3.610494137E-1,-1.013331413E0,3.716259003E-1
1.457490936E1,-3.551393151E-1,-8.092074394E-1,2.173328400E-2
1.458290574E1,-2.300024033E-1,-7.118563652E-1,-1.318750381E-1
1.459093219E1,-5.800688267E-2,-6.328167915E-1,-1.613636017E-1
1.459892880E1,1.134907603E-1,-4.747233391E-1,-9.386825562E-2
1.460692295E1,1.990776062E-1,-3.908619881E-1,1.934328079E-1
1.461491833E1,2.986039221E-1,-3.091502190E-1,3.066797256E-1
1.462291424E1,2.890869379E-1,-2.433977127E-1,2.344141006E-1
1.463090993E1,2.924263775E-1,-2.163920403E-1,1.237297058E-1
1.463890631E1,2.929665148E-1,-2.112917900E-1,2.997398376E-2
1.464693184E1,3.692431450E-1,-2.608590126E-1,2.228174210E-1
1.465492660E1,4.298003614E-1,-3.517451286E-1,3.018760681E-1
1.466292252E1,4.288701415E-1,-3.890514374E-1,2.393369675E-1
1.467091828E1,2.971050143E-1,-2.907681465E-1,9.544658661E-2
1.467891543E1,5.890688300E-2,-1.352219582E-1,-1.460733414E-1
1.468690896E1,-1.085136831E-1,-7.860422134E-2,-8.333396912E-2
1.469490534E1,-2.763203382E-1,-1.338381767E-1,2.831459045E-3
1.470293149E1,-4.066746831E-1,-1.778898239E-1,-5.724143982E-2
1.471092679E1,-5.089631081E-1,-2.117671967E-1,-9.537887573E-2
1.471892348E1,-4.952786565E-1,-1.753773689E-1,-1.475448608E-1
1.472691824E1,-4.869908094E-1,-8.090448380E-2,-1.349840164E-1
1.473491385E1,-5.320237875E-1,4.727125168E-2,-1.322040558E-1
1.474290899E1,-5.465297699E-1,1.175708771E-1,-1.250562668E-1
1.475090430E1,-4.134489298E-1,1.089315414E-1,-2.615671158E-1
1.475893229E1,-2.384490967E-1,1.175947189E-1,-3.283977509E-1
1.476692644E1,-5.636250973E-2,1.687812805E-1,-3.454437256E-1
1.477492251E1,5.897110701E-2,2.478632927E-1,-2.983160019E-1
1.478291812E1,1.702859104E-1,2.981529236E-1,-3.563594818E-1
1.479091326E1,3.942058086E-1,3.161015511E-1,-3.846416473E-1
1.479891102E1,5.687839389E-1,3.164610863E-1,-3.252305984E-1
1.480690487E1,5.388659239E-1,3.029365540E-1,-2.482748032E-1
1.481493070E1,3.662155569E-1,3.101792336E-1,-9.225559235E-2
1.482292608E1,1.365581751E-1,2.896957397E-1,-1.208715439E-1
1.483092146E1,-5.790668726E-2,2.124862671E-1,3.678131104E-2
1.483891815E1,-1.494260430E-1,1.543369293E-1,1.287240982E-1
1.484691314E1,-2.537955046E-1,1.941270828E-1,1.691951752E-1
1.485490852E1,-2.677934170E-1,2.649497986E-1,1.509008408E-1
1.486290428E1,-1.552571058E-1,3.952283859E-1,1.644048691E-1
1.487093012E1,3.838801384E-2,5.656166077E-1,-6.171226501E-3
1.487892704E1,1.905332208E-1,7.388277054E-1,-2.023200989E-1
1.488692211E1,3.744978309E-1,8.882808685E-1,-2.526617050E-1
1.489491749E1,4.949567318E-1,8.982853889E-1,-2.493209839E-1
1.490291279E1,5.100540519E-1,7.062482834E-1,-2.040386200E-1
1.491090847E1,2.640853524E-1,5.140128136E-1,-1.171731949E-1
1.491890570E1,-1.708259583E-1,4.156384468E-1,4.456043243E-2
1.492692977E1,-5.795420408E-1,4.005393982E-1,7.995986938E-2
1.493492576E1,-6.713744402E-1,3.794660568E-1,1.707172394E-1
1.494292083E1,-5.282211304E-1,3.130989075E-1,3.824291229E-1
1.495091706E1,-4.359682798E-1,3.417239189E-1,5.074625015E-1
1.495891344E1,-4.739525318E-1,4.716577530E-1,3.737983704E-1
1.496690843E1,-5.330731869E-1,5.487236977E-1,2.932214737E-1
1.497490327E1,-5.112513304E-1,6.176061630E-1,1.518659592E-1
1.498292942E1,-4.076963663E-1,6.906514168E-1,-1.205005646E-1
1.499092564E1,-3.029837608E-1,6.883611679E-1,-2.642087936E-1
1.499892256E1,-2.001081705E-1,5.940694809E-1,-3.627386093E-1
1.500691617E1,-1.144375801E-1,4.757924080E-1,-3.890066147E-1
1.501491208E1,-4.124176502E-2,3.880162239E-1,-4.654855728E-1
1.502290777E1,-7.499563694E-2,3.687014580E-1,-5.591282845E-1
1.503090284E1,-6.569528580E-2,4.122452736E-1,-5.413136482E-1
1.503893083E1,1.312217712E-1,4.098877907E-1,-4.441070557E-1
1.504692536E1,2.101751566E-1,3.731408119E-1,-3.304214478E-1
1.505492097E1,3.693525791E-1,3.879361153E-1,-3.915538788E-1
1.506291612E1,4.708782434E-1,3.776640892E-1,-1.849594116E-1
1.507091173E1,4.728428125E-1,2.509012222E-1,-3.682518005E-2
1.507890865E1,3.720870018E-1,1.152262688E-1,1.010017395E-1
1.508690341E1,2.485972643E-1,-2.750778198E-2,2.428178787E-1
1.509492932E1,1.864480972E-1,-2.035226822E-1,3.600130081E-1
1.510292494E1,2.536684275E-1,-3.407087326E-1,4.834985733E-1
1.511092031E1,3.828661442E-1,-4.382057190E-1,5.077028275E-1
1.511891761E1,4.948486090E-1,-5.219082832E-1,5.627012253E-1
1.512691199E1,3.977525234E-1,-4.970602989E-1,5.024414062E-1
1.513490714E1,2.603257895E-1,-4.127349854E-1,5.731391907E-2
1.514290275E1,1.956146955E-1,-4.035773277E-1,-1.873884201E-1
1.515092920E1,2.981753349E-1,-4.363379478E-1,-1.722249985E-1
1.515892581E1,4.444409609E-1,-4.957799911E-1,-3.596916199E-1
1.516691996E1,4.755376577E-1,-4.888987541E-1,-5.817790031E-1
1.517491572E1,4.582257271E-1,-4.940004349E-1,-6.400256157E-1
1.518291172E1,4.197559357E-1,-5.173292160E-1,-5.659828186E-1
1.519090679E1,3.902595043E-1,-5.191655159E-1,-4.291620255E-1
1.519890401E1,4.196536541E-1,-5.307536125E-1,-3.636484146E-1
1.520692947E1,4.485130310E-1,-5.720472336E-1,-1.302251816E-1
1.521492400E1,5.038427114E-1,-6.890473366E-1,-3.536605835E-2
1.522292022E1,4.489873648E-1,-8.326110840E-1,9.080886841E-2
1.523091568E1,4.104392529E-1,-1.019650459E0,2.568283081E-1
1.523891221E1,2.373944521E-1,-1.247959614E0,5.358076096E-1
1.524690636E1,3.440213203E-2,-1.417355537E0,5.924882889E-1
1.525493251E1,-9.614765644E-2,-1.581933022E0,5.017919540E-1
1.526292796E1,-8.270490170E-2,-1.680260181E0,2.623958588E-1
1.527092457E1,2.539658546E-2,-1.741107464E0,-2.141094208E-2
1.527892049E1,-3.119075298E-2,-1.746403217E0,-2.602081299E-1
1.528691594E1,-1.609525681E-1,-1.729071140E0,-3.675146103E-1
1.529491070E1,-3.730087280E-1,-1.655459404E0,-4.390540123E-1
1.530290631E1,-6.717593670E-1,-1.536252499E0,-4.039611816E-1
1.531093284E1,-1.050425053E0,-1.321031094E0,-6.582331657E-1
1.531892976E1,-1.265998244E0,-1.133975983E0,-6.176166534E-1
1.532692291E1,-1.379725456E0,-8.928122520E-1,-6.528072357E-1
1.533491898E1,-1.343172669E0,-6.242384911E-1,-4.912447929E-1
1.534291490E1,-1.304577947E0,-4.374184608E-1,-3.826842308E-1
1.535091058E1,-1.463949203E0,-3.159251213E-1,-2.971158028E-1
1.535890727E1,-1.603387833E0,-1.965823174E-1,-2.657737732E-1
1.536690195E1,-1.571418643E0,3.810691833E-2,-1.221685410E-1
1.537492810E1,-1.408019066E0,3.152256012E-1,-6.334114075E-2
1.538292348E1,-1.243109345E0,5.505428314E-1,-8.984279633E-2
1.539091917E1,-1.043513417E0,8.914484978E-1,-1.064291000E-1
1.539891524E1,-8.392062187E-1,1.216213703E0,-2.581214905E-2
1.540690992E1,-7.631862164E-1,1.587091684E0,-1.765727997E-2
1.541490568E1,-7.874442339E-1,1.824653625E0,1.382446289E-2
1.542293214E1,-8.636802435E-1,2.007465124E0,2.676334381E-1
1.543092775E1,-9.013648033E-1,2.131525040E0,3.922605515E-1
1.543892320E1,-9.775261879E-1,2.163385868E0,5.026321411E-1
1.544691851E1,-1.027422905E0,2.139365673E0,7.197513580E-1
1.545491458E1,-1.030821323E0,2.061276436E0,7.821245193E-1
1.546290934E1,-9.452347755E-1,1.968493938E0,7.861986160E-1
1.547090556E1,-6.696729660E-1,1.823274136E0,7.141866684E-1
1.547893333E1,-2.549695969E-1,1.752526283E0,5.560598373E-1
1.548692716E1,8.248066902E-2,1.728791237E0,4.738664627E-1
1.549492285E1,2.832186222E-1,1.671455145E0,5.535593033E-1
1.550291877E1,4.217104912E-1,1.641889811E0,2.400484085E-1
1.551091422E1,6.092264652E-1,1.523210287E0,2.112636566E-1
1.551891076E1,7.569741011E-1,1.455432177E0,-8.911228180E-2
1.552690529E1,9.347465038E-1,1.175356865E0,-5.857849121E-2
1.553493074E1,1.125589252E0,8.886249065E-1,-6.944084167E-2
1.554292712E1,1.228056431E0,6.056580544E-1,3.061199188E-1
1.555092250E1,1.346037984E0,3.721039295E-1,2.224941254E-1
1.555891965E1,1.405498028E0,8.075809479E-2,3.448257446E-1
1.556691356E1,1.358028889E0,-1.811370850E-1,3.766412735E-1
1.557490894E1,1.597094536E0,-4.767105579E-1,4.835281372E-1
1.558290493E1,1.916104555E0,-7.902829647E-1,2.482576370E-1
1.559093131E1,1.972018600E0,-9.203259945E-1,-1.420373917E-1
1.559892792E1,2.008182049E0,-1.075234413E0,-3.597669601E-1
1.560692276E1,1.981508970E0,-1.172836542E0,-5.598344803E-1
1.561491814E1,1.923676133E0,-1.257382393E0,-6.892461777E-1
1.562291321E1,1.900596976E0,-1.420379639E0,-6.478624344E-1
1.563090943E1,1.798407197E0,-1.495511055E0,-7.543110847E-1
1.563890666E1,1.693626046E0,-1.576147079E0,-7.762260437E-1
1.564693096E1,1.614216924E0,-1.591375828E0,-7.954053879E-1
1.565492634E1,1.490987301E0,-1.654179096E0,-6.781539917E-1
1.566292179E1,1.208541274E0,-1.780359268E0,-4.816217422E-1
1.567091740E1,8.193699121E-1,-1.910364628E0,-3.208751678E-1
1.567891409E1,3.175054193E-1,-2.146426678E0,-1.510686874E-1
1.568690877E1,-4.822325706E-2,-2.347310066E0,-1.618890762E-1
1.569490454E1,-2.369956970E-1,-2.513563633E0,-1.293125153E-1
1.570293130E1,-3.100532293E-1,-2.652152061E0,-2.416706085E-2
1.571092606E1,-3.925626278E-1,-2.653333664E0,-1.748847961E-2
1.571892321E1,-7.205433846E-1,-2.413153648E0,-1.174659729E-1
1.572691705E1,-1.126642227E0,-2.063546181E0,-2.667322159E-1
1.573491304E1,-1.530058146E0,-1.678168774E0,-2.866106033E-1
1.574290819E1,-1.763850451E0,-1.514733791E0,-6.814002991E-2
1.574892072E1,-1.879413605E0,-1.443744183E0,1.018867493E-1
1.575090380E1,-1.948845387E0,-1.422196388E0,1.258287430E-1
1.575893218E1,-2.104230404E0,-1.342342377E0,1.347045898E-1
1.576692540E1,-2.263287067E0,-1.196998119E0,1.434078217E-1
1.577492224E1,-2.378794670E0,-8.683519363E-1,9.626960754E-2
1.578291677E1,-2.402775526E0,-5.077376366E-1,1.167459488E-1
1.579091215E1,-2.339931965E0,-5.900669098E-2,1.174983978E-1
1.579890876E1,-2.246285439E0,3.849511147E-1,9.251213074E-2
1.580690322E1,-2.096122265E0,7.996068001E-1,-3.165626526E-2
1.581492998E1,-1.940762758E0,1.193945885E0,2.883625031E-2
1.582292559E1,-1.799983263E0,1.497338533E0,-5.076694489E-2
1.583092096E1,-1.641266227E0,1.842553854E0,2.899169922E-3
1.583891796E1,-1.468071580E0,2.084609509E0,-3.245639801E-2
1.584691203E1,-1.202489853E0,2.325499773E0,6.825542450E-2
1.585490802E1,-8.318307400E-1,2.508318901E0,-8.636951447E-2
1.586290348E1,-5.213830471E-1,2.551251411E0,-1.175670624E-1
1.587092932E1,-1.843919754E-1,2.543347359E0,-1.460161209E-1
1.587892677E1,9.664201736E-2,2.426541805E0,-6.273651123E-2
1.588692100E1,2.403192520E-1,2.302807808E0,-8.663177490E-3
1.589491607E1,1.163341999E-1,2.182380676E0,4.784107208E-2
1.590291168E1,9.874844551E-2,2.008459330E0,2.922477722E-1
1.591090736E1,1.996147633E-1,1.758389711E0,5.403814316E-1
1.591890428E1,1.832582951E-1,1.504884481E0,8.973569870E-1
1.592692896E1,-5.161094666E-2,1.192943096E0,1.115556717E0
1.593492519E1,-9.036946297E-2,9.465005398E-1,9.373807907E-1
1.594292118E1,4.957211018E-1,6.636459827E-1,6.223840714E-1
1.595091571E1,1.378809094E0,3.615336418E-1,4.438400269E-1
1.595891256E1,1.678264856E0,1.759562492E-1,5.012655258E-1
1.596690701E1,1.710060000E0,8.003354073E-2,-1.228895187E-1
1.597490300E1,1.747556686E0,-1.006999016E-1,-4.378128052E-1
1.598292915E1,1.874561191E0,-4.702894688E-1,-5.775213242E-1
1.599092484E1,1.947071314E0,-8.654692173E-1,-3.327999115E-1
1.599892175E1,1.865192890E0,-1.112366438E0,-4.076538086E-1
1.600691598E1,1.822371244E0,-1.244741440E0,-4.975357056E-1
1.601491189E1,1.764432430E0,-1.282995701E0,-5.116157532E-1
1.602290704E1,1.562506914E0,-1.345329285E0,-4.140758514E-1
1.603090273E1,1.251092196E0,-1.480126619E0,-4.867715836E-1
1.603893003E1,9.967956543E-1,-1.747730255E0,-5.130691528E-1
1.604692418E1,7.981184721E-1,-1.962973833E0,-4.611778259E-1
1.605491994E1,6.164350510E-1,-2.048810959E0,-3.786373138E-1
1.606291624E1,4.313449860E-1,-2.032255888E0,-3.170986176E-1
1.607091100E1,2.470088005E-1,-2.037327290E0,-2.261142731E-1
1.607890730E1,3.495967388E-2,-2.096241474E0,-1.834268570E-1
1.608690230E1,-1.403959990E-1,-2.217563152E0,-1.041488647E-1
1.609492852E1,-2.607499361E-1,-2.256992817E0,-1.658792496E-1
1.610292382E1,-4.342641830E-1,-2.288795948E0,-2.084550858E-1
1.611091928E1,-5.953760147E-1,-2.294060707E0,-2.128496170E-1
