"Time (s)","Acceleration x (m/s^2)","Acceleration y (m/s^2)","Acceleration z (m/s^2)"
5.588658000E-3,9.672574997E-1,-7.793126583E0,5.408501625E0
7.633589000E-3,9.864110947E-1,-7.781155586E0,5.446808815E0
9.739367000E-3,9.792284966E-1,-7.776367188E0,5.465962410E0
1.172252900E-2,9.816226959E-1,-7.785943985E0,5.485116005E0
1.373730600E-2,1.003170490E0,-7.797914982E0,5.487510204E0
1.572100700E-2,1.012747288E0,-7.807491779E0,5.499481201E0
1.773509200E-2,1.015141487E0,-7.809885979E0,5.504269600E0
1.971817700E-2,1.029506683E0,-7.824251175E0,5.473145008E0
2.173303200E-2,1.036689281E0,-7.838616371E0,5.461174011E0
2.371581000E-2,1.053448796E0,-7.850587368E0,5.465962410E0
2.573112500E-2,1.077390790E0,-7.850587368E0,5.461174011E0
2.771551800E-2,1.108515382E0,-7.855375767E0,5.453991413E0
2.972837300E-2,1.137245774E0,-7.850587368E0,5.449203014E0
3.171092000E-2,1.165976286E0,-7.838616371E0,5.425261021E0
3.372654300E-2,1.185129881E0,-7.821856976E0,5.413290024E0
3.574070600E-2,1.189918280E0,-7.826645374E0,5.413290024E0
3.772348300E-2,1.197100878E0,-7.783549786E0,5.408501625E0
3.973856800E-2,1.194706678E0,-7.754819393E0,5.403713226E0
4.172196100E-2,1.192312479E0,-7.738059998E0,5.382165432E0
4.373550800E-2,1.180341482E0,-7.738059998E0,5.358223438E0
4.571951600E-2,1.156399369E0,-7.723694801E0,5.348646641E0
4.773460100E-2,1.103726983E0,-7.728483200E0,5.343858242E0
4.971745500E-2,1.079784989E0,-7.730877399E0,5.331887245E0
5.173154100E-2,1.063025594E0,-7.723694801E0,5.310339451E0
5.371531800E-2,1.034295082E0,-7.723694801E0,5.305551052E0
5.572909600E-2,1.017535686E0,-7.723694801E0,5.300762653E0
5.771279700E-2,9.983820915E-1,-7.730877399E0,5.279214859E0
5.972757400E-2,9.672574997E-1,-7.766790390E0,5.255272865E0
6.174212100E-2,9.504981041E-1,-7.762001991E0,5.248090267E0
6.372543700E-2,9.528923035E-1,-7.762001991E0,5.238513470E0
6.573906100E-2,9.816226959E-1,-7.778761387E0,5.221754074E0
6.772399200E-2,9.768342972E-1,-7.783549786E0,5.219359875E0
6.973692300E-2,9.983820915E-1,-7.785943985E0,5.209783077E0
7.172031600E-2,1.003170490E0,-7.809885979E0,5.207388878E0
7.373409400E-2,1.007958889E0,-7.819462776E0,5.214571476E0
7.571840900E-2,1.012747288E0,-7.812280178E0,5.236119270E0
7.773264900E-2,1.017535686E0,-7.814674377E0,5.236119270E0
7.971604200E-2,1.043871999E0,-7.819462776E0,5.228936672E0
8.173074200E-2,1.039083481E0,-7.809885979E0,5.209783077E0
8.371421200E-2,1.048660398E0,-7.809885979E0,5.202600479E0
8.572829800E-2,1.077390790E0,-7.812280178E0,5.190629482E0
8.771169000E-2,1.106121182E0,-7.807491779E0,5.171475887E0
8.972685200E-2,1.120486379E0,-7.805097580E0,5.161899090E0
9.174063000E-2,1.122880578E0,-7.812280178E0,5.154716492E0
9.372379200E-2,1.139639974E0,-7.795520782E0,5.147533417E0
9.573764600E-2,1.144428372E0,-7.790732384E0,5.154716492E0
9.772157700E-2,1.161187768E0,-7.797914982E0,5.157110691E0
9.973543300E-2,1.163581967E0,-7.790732384E0,5.137956619E0
1.017197480E-1,1.170764685E0,-7.793126583E0,5.130774021E0
1.037339100E-1,1.170764685E0,-7.800309181E0,5.128379822E0
1.057167650E-1,1.163581967E0,-7.805097580E0,5.125985622E0
1.077330040E-1,1.158793569E0,-7.809885979E0,5.137956619E0
1.097151660E-1,1.130063176E0,-7.824251175E0,5.152322292E0
1.117287890E-1,1.127668977E0,-7.838616371E0,5.147533417E0
1.137137210E-1,1.130063176E0,-7.841010571E0,5.128379822E0
1.157274990E-1,1.108515382E0,-7.845798969E0,5.128379822E0
1.177404300E-1,1.106121182E0,-7.855375767E0,5.135562420E0
1.197254390E-1,1.096544385E0,-7.872135162E0,5.140350819E0
1.217395240E-1,1.089361787E0,-7.872135162E0,5.152322292E0
1.237223780E-1,1.082179189E0,-7.864952564E0,5.147533417E0
1.257370780E-1,1.079784989E0,-7.843404770E0,5.102043629E0
1.277213950E-1,1.065419793E0,-7.850587368E0,5.051765442E0
1.297349410E-1,1.053448796E0,-7.852981567E0,5.051765442E0
1.317190260E-1,1.036689281E0,-7.850587368E0,5.125985622E0
1.337328040E-1,1.046266198E0,-7.869740963E0,5.193023682E0
1.357165050E-1,1.053448796E0,-7.874529362E0,5.197812080E0
1.377303590E-1,1.070208192E0,-7.876923561E0,5.197812080E0
1.397141360E-1,1.072602391E0,-7.881711960E0,5.193023682E0
1.417285300E-1,1.077390790E0,-7.900865555E0,5.169081688E0
1.437119220E-1,1.096544385E0,-7.900865555E0,5.142745018E0
1.457264690E-1,1.096544385E0,-7.912836552E0,5.145139217E0
1.477405550E-1,1.089361787E0,-7.929595947E0,5.140350819E0
1.497240240E-1,1.043871999E0,-7.939172745E0,5.109226227E0
1.517371860E-1,1.029506683E0,-7.948749542E0,5.090072632E0
1.537212710E-1,1.012747288E0,-7.941566944E0,5.063736439E0
1.557360490E-1,9.720458984E-1,-7.939172745E0,5.111620426E0
1.577191340E-1,9.600749016E-1,-7.948749542E0,5.133168221E0
1.597332190E-1,9.385270476E-1,-7.965508938E0,5.145139217E0
1.617175360E-1,9.313444495E-1,-7.953537941E0,5.137956619E0
1.637313900E-1,9.241618514E-1,-7.958326340E0,5.125985622E0
1.657157830E-1,9.074024558E-1,-7.972691536E0,5.140350819E0
1.677295600E-1,9.050082564E-1,-7.965508938E0,5.166687489E0
1.697127230E-1,9.193734527E-1,-7.975085735E0,5.188235283E0
1.717274230E-1,9.409212470E-1,-7.999027729E0,5.214571476E0
1.737416620E-1,9.481038451E-1,-8.015787125E0,5.207388878E0
1.757250550E-1,9.528923035E-1,-8.030152321E0,5.181052685E0
1.777392170E-1,9.552865028E-1,-8.042123795E0,5.135562420E0
1.797234560E-1,9.552865028E-1,-8.034940720E0,5.123591423E0
1.817370040E-1,9.600749016E-1,-8.039729118E0,5.090072632E0
1.837203960E-1,9.864110947E-1,-8.044517517E0,5.056553841E0
1.857346350E-1,9.935936928E-1,-8.046912193E0,5.039794445E0
1.877198740E-1,9.959878922E-1,-8.049305916E0,5.046977043E0
1.897324210E-1,1.000776291E0,-8.078036308E0,5.070919037E0
1.917161210E-1,1.005564690E0,-8.080430984E0,5.075707436E0
1.937312060E-1,1.024718285E0,-8.080430984E0,5.080495834E0
1.957146760E-1,1.017535686E0,-8.068459511E0,5.080495834E0
1.977276080E-1,1.015141487E0,-8.075642586E0,5.094861031E0
1.997432310E-1,1.029506683E0,-8.092401505E0,5.097255230E0
2.017263160E-1,1.036689281E0,-8.075642586E0,5.090072632E0
2.037399410E-1,1.046266198E0,-8.073247910E0,5.080495834E0
2.057239490E-1,1.041477680E0,-8.092401505E0,5.097255230E0
2.077386490E-1,1.051054597E0,-8.111555099E0,5.082890034E0
2.097220420E-1,1.079784989E0,-8.118738174E0,5.068524837E0
2.117365120E-1,1.094150186E0,-8.106766701E0,5.073313236E0
2.137195970E-1,1.096544385E0,-8.121131897E0,5.066130638E0
2.157331440E-1,1.091755986E0,-8.135497093E0,5.056553841E0
2.177174600E-1,1.091755986E0,-8.152256966E0,5.080495834E0
2.197320070E-1,1.103726983E0,-8.161833763E0,5.090072632E0
2.217150920E-1,1.127668977E0,-8.178592682E0,5.104437828E0
2.237292550E-1,1.156399369E0,-8.202534676E0,5.109226227E0
2.257129550E-1,1.165976286E0,-8.202534676E0,5.121197224E0
2.277277320E-1,1.182735682E0,-8.245630264E0,5.149928093E0
2.297418940E-1,1.175553083E0,-8.269572258E0,5.166687489E0
2.317245950E-1,1.173158884E0,-8.276755333E0,5.164293289E0
2.337382190E-1,1.194706678E0,-8.291120529E0,5.176264286E0
2.357231500E-1,1.204283476E0,-8.288725853E0,5.181052685E0
2.377370050E-1,1.168370485E0,-8.312667847E0,5.154716492E0
2.397203210E-1,1.156399369E0,-8.331821442E0,5.154716492E0
2.417345590E-1,1.144428372E0,-8.336610794E0,5.169081688E0
2.437176440E-1,1.134851575E0,-8.360552788E0,5.193023682E0
2.457330380E-1,1.130063176E0,-8.391676903E0,5.212177277E0
2.477167380E-1,1.120486379E0,-8.398859978E0,5.219359875E0
2.497308230E-1,1.103726983E0,-8.398859978E0,5.207388878E0
2.517146000E-1,1.082179189E0,-8.403648376E0,5.171475887E0
2.537280710E-1,1.063025594E0,-8.408436775E0,5.157110691E0
2.557419250E-1,1.036689281E0,-8.403648376E0,5.154716492E0
2.577262410E-1,1.005564690E0,-8.410830498E0,5.185841084E0
2.597401730E-1,1.005564690E0,-8.425195694E0,5.195417881E0
2.617234890E-1,9.768342972E-1,-8.413225174E0,5.224148273E0
2.637377270E-1,9.744400978E-1,-8.429984093E0,5.231330872E0
2.657217360E-1,9.888052940E-1,-8.427590370E0,5.216965675E0
2.677365140E-1,9.935936928E-1,-8.418013573E0,5.173870087E0
2.697195990E-1,9.959878922E-1,-8.418013573E0,5.161899090E0
2.717340680E-1,1.012747288E0,-8.415618896E0,5.159504890E0
2.737180000E-1,1.034295082E0,-8.420407295E0,5.190629482E0
2.757325470E-1,1.043871999E0,-8.420407295E0,5.204994678E0
2.777144010E-1,1.055842996E0,-8.427590370E0,5.221754074E0
2.797291790E-1,1.060631394E0,-8.422801971E0,5.221754074E0
2.817125720E-1,1.077390790E0,-8.420407295E0,5.207388878E0
2.837270410E-1,1.072602391E0,-8.420407295E0,5.169081688E0
2.857414340E-1,1.084573388E0,-8.420407295E0,5.135562420E0
2.877269810E-1,1.091755986E0,-8.425195694E0,5.128379822E0
2.897390660E-1,1.115697980E0,-8.432378769E0,5.125985622E0
2.917233050E-1,1.120486379E0,-8.425195694E0,5.135562420E0
2.937372370E-1,1.139639974E0,-8.408436775E0,5.149928093E0
2.957205530E-1,1.158793569E0,-8.396465302E0,5.185841084E0
2.977347150E-1,1.158793569E0,-8.406042099E0,5.209783077E0
2.997181070E-1,1.185129881E0,-8.410830498E0,5.228936672E0
3.017320390E-1,1.199495077E0,-8.420407295E0,5.233725071E0
3.037156630E-1,1.211466074E0,-8.418013573E0,5.236119270E0
3.057295940E-1,1.223437071E0,-8.420407295E0,5.226542473E0
3.077153720E-1,1.230619669E0,-8.434772491E0,5.214571476E0
3.097283030E-1,1.249773264E0,-8.434772491E0,5.209783077E0
3.117391570E-1,1.300051570E0,-8.439560890E0,5.188235283E0
3.137253190E-1,1.340752959E0,-8.458714485E0,5.173870087E0
3.157400200E-1,1.364694953E0,-8.456320763E0,5.173870087E0
3.177237980E-1,1.398213744E0,-8.468291283E0,5.221754074E0
3.197376520E-1,1.429338455E0,-8.480262756E0,5.252878666E0
3.217215840E-1,1.443703651E0,-8.468291283E0,5.255272865E0
3.237358230E-1,1.443703651E0,-8.458714485E0,5.243301868E0
3.257197540E-1,1.429338455E0,-8.456320763E0,5.226542473E0
3.277339920E-1,1.419761658E0,-8.451532364E0,5.228936672E0
3.297176170E-1,1.405396342E0,-8.434772491E0,5.221754074E0
3.317318560E-1,1.400607944E0,-8.427590370E0,5.173870087E0
3.337151710E-1,1.355118155E0,-8.425195694E0,5.149928093E0
3.357291030E-1,1.297657371E0,-8.396465302E0,5.142745018E0
3.377128040E-1,1.280897856E0,-8.394071579E0,5.147533417E0
3.397275040E-1,1.276109457E0,-8.370129585E0,5.145139217E0
3.417414350E-1,1.278503656E0,-8.398859978E0,5.161899090E0
3.437247520E-1,1.273715258E0,-8.398859978E0,5.176264286E0
3.457389910E-1,1.288080573E0,-8.406042099E0,5.228936672E0
3.477236140E-1,1.316810966E0,-8.427590370E0,5.272032261E0
3.497371610E-1,1.312022567E0,-8.437167168E0,5.291185856E0
3.517199390E-1,1.316810966E0,-8.432378769E0,5.305551052E0
3.537347160E-1,1.300051570E0,-8.427590370E0,5.281609058E0
3.557186470E-1,1.292868972E0,-8.434772491E0,5.272032261E0
3.577318870E-1,1.266532660E0,-8.465897560E0,5.228936672E0
3.597162790E-1,1.230619669E0,-8.485051155E0,5.181052685E0
3.617307490E-1,1.221042871E0,-8.470685959E0,5.171475887E0
3.637143730E-1,1.192312479E0,-8.475474358E0,5.157110691E0
3.657282280E-1,1.180341482E0,-8.470685959E0,5.173870087E0
3.677439280E-1,1.194706678E0,-8.473079681E0,5.221754074E0
3.697263970E-1,1.221042871E0,-8.489839554E0,5.233725071E0
3.717403290E-1,1.237802267E0,-8.492233276E0,5.219359875E0
3.737234140E-1,1.280897856E0,-8.477868080E0,5.159504890E0
3.757378070E-1,1.285686255E0,-8.487444878E0,5.118803024E0
3.777215080E-1,1.295263171E0,-8.485051155E0,5.097255230E0
3.797353620E-1,1.314416766E0,-8.480262756E0,5.070919037E0
3.817202940E-1,1.316810966E0,-8.461109161E0,5.044582844E0
3.837341480E-1,1.319205165E0,-8.446743965E0,5.030217648E0
3.857184640E-1,1.331176162E0,-8.444349289E0,5.003881454E0
3.877320880E-1,1.343147159E0,-8.434772491E0,5.003881454E0
3.897145570E-1,1.347935557E0,-8.432378769E0,5.006275654E0
3.917284120E-1,1.359906554E0,-8.449137688E0,5.018246651E0
3.937428820E-1,1.364694953E0,-8.439560890E0,4.991910458E0
3.957271210E-1,1.388636947E0,-8.427590370E0,4.979939461E0
3.977412840E-1,1.414973259E0,-8.415618896E0,4.975151062E0
3.997241380E-1,1.434126854E0,-8.422801971E0,4.970362663E0
4.017391460E-1,1.448492050E0,-8.427590370E0,4.948814869E0
4.037226150E-1,1.443703651E0,-8.427590370E0,4.936843872E0
4.057364710E-1,1.441309452E0,-8.425195694E0,4.927267075E0
4.077210940E-1,1.436521053E0,-8.410830498E0,4.922478676E0
4.097346400E-1,1.422155857E0,-8.389283180E0,4.932055473E0
4.117198020E-1,1.431732655E0,-8.379706383E0,4.929661274E0
4.137330420E-1,1.417367458E0,-8.386888504E0,4.900930882E0
4.157158190E-1,1.422155857E0,-8.377311707E0,4.862623692E0
4.177300580E-1,1.426944256E0,-8.370129585E0,4.848258495E0
4.197136820E-1,1.417367458E0,-8.355764389E0,4.843470097E0
4.217282290E-1,1.379060149E0,-8.339004517E0,4.867412090E0
4.237426210E-1,1.371877551E0,-8.341399193E0,4.876988888E0
4.257263220E-1,1.345541358E0,-8.331821442E0,4.903325081E0
4.277414850E-1,1.319205165E0,-8.305485725E0,4.879383087E0
4.297236470E-1,1.309628367E0,-8.305485725E0,4.853046894E0
4.317381160E-1,1.292868972E0,-8.279149055E0,4.819528103E0
4.337223560E-1,1.285686255E0,-8.269572258E0,4.814739704E0
4.357359020E-1,1.285686255E0,-8.264783859E0,4.807557106E0
4.377184490E-1,1.259350061E0,-8.259995461E0,4.802768707E0
4.397343810E-1,1.261744261E0,-8.264783859E0,4.793191910E0
4.417177730E-1,1.278503656E0,-8.279149055E0,4.769249916E0
4.437316280E-1,1.292868972E0,-8.305485725E0,4.759673119E0
4.457156360E-1,1.290474772E0,-8.317456245E0,4.752490520E0
4.477307220E-1,1.312022567E0,-8.348581314E0,4.747702122E0
4.497129600E-1,1.304839969E0,-8.372523308E0,4.718971729E0
4.517273530E-1,1.300051570E0,-8.377311707E0,4.699818134E0
4.537412850E-1,1.307234168E0,-8.420407295E0,4.663905144E0
4.557249080E-1,1.321599364E0,-8.456320763E0,4.666299343E0
4.577394550E-1,1.326387763E0,-8.461109161E0,4.687847137E0
4.597224630E-1,1.355118155E0,-8.499416351E0,4.730942726E0
4.617372410E-1,1.364694953E0,-8.508993149E0,4.711789131E0
4.637206340E-1,1.376665950E0,-8.513781548E0,4.666299343E0
4.657354110E-1,1.383848548E0,-8.508993149E0,4.563348293E0
4.677197270E-1,1.391031146E0,-8.501810074E0,4.548983097E0
4.697326590E-1,1.386242747E0,-8.504204750E0,4.541800499E0
4.717152050E-1,1.374271750E0,-8.492233276E0,4.568136692E0
4.737302900E-1,1.369483352E0,-8.489839554E0,4.589684486E0
4.757136070E-1,1.376665950E0,-8.470685959E0,4.663905144E0
4.777281530E-1,1.362300754E0,-8.480262756E0,4.728548527E0
4.797425460E-1,1.369483352E0,-8.485051155E0,4.754884720E0
4.817263240E-1,1.379060149E0,-8.523358345E0,4.781220913E0
4.837401010E-1,1.393425345E0,-8.525752068E0,4.786009312E0
4.857238020E-1,1.391031146E0,-8.537723541E0,4.781220913E0
4.877389640E-1,1.386242747E0,-8.566453934E0,4.776432514E0
4.897216650E-1,1.381454349E0,-8.583212852E0,4.793191910E0
4.917368270E-1,1.388636947E0,-8.576030731E0,4.802768707E0
4.937192190E-1,1.386242747E0,-8.595184326E0,4.829104900E0
4.957337670E-1,1.398213744E0,-8.638279915E0,4.831499100E0
4.977168520E-1,1.429338455E0,-8.659827232E0,4.855441093E0
4.997306290E-1,1.465251446E0,-8.669404030E0,4.853046894E0
5.017152520E-1,1.482010841E0,-8.676587105E0,4.850652695E0
5.037285690E-1,1.515529633E0,-8.690952301E0,4.860229492E0
5.057436540E-1,1.546654344E0,-8.681375504E0,4.872200489E0
5.077282770E-1,1.565807939E0,-8.681375504E0,4.872200489E0
5.097418250E-1,1.608903527E0,-8.669404030E0,4.881777287E0
5.117249100E-1,1.632845521E0,-8.674192429E0,4.891354084E0
5.137386870E-1,1.647210717E0,-8.671798706E0,4.888959885E0
5.157233100E-1,1.695094824E0,-8.652645111E0,4.886565685E0
5.177356270E-1,1.704671621E0,-8.628703117E0,4.898536682E0
5.197209430E-1,1.711854219E0,-8.621520042E0,4.912901878E0
5.217347200E-1,1.735796213E0,-8.619126320E0,4.917690277E0
5.237184210E-1,1.747767210E0,-8.595184326E0,4.924872875E0
5.257329680E-1,1.759738207E0,-8.595184326E0,4.924872875E0
5.277172840E-1,1.762132406E0,-8.571242332E0,4.924872875E0
5.297298300E-1,1.764526606E0,-8.559270859E0,4.927267075E0
5.317151470E-1,1.764526606E0,-8.552088737E0,4.903325081E0
5.337280780E-1,1.759738207E0,-8.530540466E0,4.896142483E0
5.357418550E-1,1.764526606E0,-8.525752068E0,4.915296078E0
5.377258640E-1,1.754949808E0,-8.520963669E0,4.929661274E0
5.397400260E-1,1.754949808E0,-8.530540466E0,4.948814869E0
5.417237260E-1,1.754949808E0,-8.518569946E0,4.939238071E0
5.437385800E-1,1.771709204E0,-8.520963669E0,4.903325081E0
5.457210510E-1,1.776497602E0,-8.520963669E0,4.857835293E0
5.477370590E-1,1.783680320E0,-8.516175270E0,4.824316502E0
5.497195280E-1,1.769315004E0,-8.506598473E0,4.774038315E0
5.517323840E-1,1.759738207E0,-8.501810074E0,4.723760128E0
5.537170840E-1,1.764526606E0,-8.511386871E0,4.702212334E0
5.557315530E-1,1.754949808E0,-8.516175270E0,4.668693542E0
5.577143310E-1,1.747767210E0,-8.525752068E0,4.627991676E0
5.597287240E-1,1.716642618E0,-8.537723541E0,4.611232281E0
5.617444250E-1,1.699883223E0,-8.535328865E0,4.587290287E0
5.637272790E-1,1.697489023E0,-8.547300339E0,4.584896088E0
5.657411340E-1,1.695094824E0,-8.547300339E0,4.577713490E0
5.677259880E-1,1.683123827E0,-8.532935143E0,4.568136692E0
5.697395350E-1,1.663970232E0,-8.535328865E0,4.558559895E0
5.717239270E-1,1.625662923E0,-8.520963669E0,4.505887508E0
5.737362440E-1,1.580173135E0,-8.511386871E0,4.465186119E0
5.757199440E-1,1.561019540E0,-8.516175270E0,4.460397720E0
5.777347210E-1,1.508347034E0,-8.487444878E0,4.450820923E0
5.797184230E-1,1.458068848E0,-8.465897560E0,4.441244125E0
5.817322770E-1,1.446097851E0,-8.451532364E0,4.431667328E0
5.837165160E-1,1.407790542E0,-8.451532364E0,4.436455727E0
5.857306770E-1,1.367089152E0,-8.446743965E0,4.429273129E0
5.877149940E-1,1.362300754E0,-8.439560890E0,4.436455727E0
5.897282330E-1,1.328781962E0,-8.437167168E0,4.462791920E0
5.917418560E-1,1.300051570E0,-8.437167168E0,4.481945515E0
5.937267120E-1,1.295263171E0,-8.427590370E0,4.486733913E0
5.957405660E-1,1.278503656E0,-8.427590370E0,4.501099110E0
5.977234200E-1,1.266532660E0,-8.422801971E0,4.508281708E0
5.997384290E-1,1.254561663E0,-8.415618896E0,4.529829502E0
6.017218980E-1,1.237802267E0,-8.403648376E0,4.551377296E0
6.037354450E-1,1.242590666E0,-8.415618896E0,4.570530891E0
6.057193760E-1,1.237802267E0,-8.403648376E0,4.613626480E0
6.077336160E-1,1.244984865E0,-8.403648376E0,4.659116745E0
6.097172390E-1,1.244984865E0,-8.403648376E0,4.673481941E0
6.117314010E-1,1.271321058E0,-8.403648376E0,4.709394932E0
6.137151010E-1,1.302445769E0,-8.403648376E0,4.714183331E0
6.157295720E-1,1.314416766E0,-8.408436775E0,4.709394932E0
6.177431180E-1,1.326387763E0,-8.418013573E0,4.730942726E0
6.197268190E-1,1.355118155E0,-8.413225174E0,4.764461517E0
6.217412890E-1,1.371877551E0,-8.413225174E0,4.778826714E0
6.237247590E-1,1.383848548E0,-8.413225174E0,4.781220913E0
6.257392280E-1,1.386242747E0,-8.413225174E0,4.807557106E0
6.277237750E-1,1.391031146E0,-8.422801971E0,4.819528103E0
6.297370140E-1,1.398213744E0,-8.420407295E0,4.845864296E0
6.317197920E-1,1.395819545E0,-8.410830498E0,4.853046894E0
6.337340300E-1,1.407790542E0,-8.418013573E0,4.860229492E0
6.357185780E-1,1.407790542E0,-8.422801971E0,4.862623692E0
6.377328170E-1,1.422155857E0,-8.429984093E0,4.872200489E0
6.397158250E-1,1.431732655E0,-8.439560890E0,4.874594688E0
6.417306800E-1,1.446097851E0,-8.446743965E0,4.879383087E0
6.437146110E-1,1.453280449E0,-8.446743965E0,4.874594688E0
6.457285420E-1,1.465251446E0,-8.449137688E0,4.881777287E0
6.477423960E-1,1.484405041E0,-8.461109161E0,4.879383087E0
6.497257900E-1,1.484405041E0,-8.449137688E0,4.874594688E0
6.517404900E-1,1.501164436E0,-8.434772491E0,4.872200489E0
6.537236520E-1,1.484405041E0,-8.444349289E0,4.869806290E0
6.557375070E-1,1.477222443E0,-8.446743965E0,4.865017891E0
6.577217460E-1,1.489193439E0,-8.451532364E0,4.867412090E0
6.597359080E-1,1.489193439E0,-8.461109161E0,4.848258495E0
6.617202230E-1,1.482010841E0,-8.458714485E0,4.838681698E0
6.637335400E-1,1.455674648E0,-8.458714485E0,4.826710701E0
6.657174710E-1,1.446097851E0,-8.451532364E0,4.809951305E0
6.677326330E-1,1.419761658E0,-8.451532364E0,4.774038315E0
6.697154100E-1,1.391031146E0,-8.458714485E0,4.759673119E0
6.717294960E-1,1.379060149E0,-8.465897560E0,4.752490520E0
6.737443500E-1,1.335964561E0,-8.456320763E0,4.723760128E0
6.757270510E-1,1.321599364E0,-8.470685959E0,4.692635536E0
6.777412900E-1,1.328781962E0,-8.480262756E0,4.680664539E0
6.797255290E-1,1.302445769E0,-8.477868080E0,4.659116745E0
6.817390760E-1,1.271321058E0,-8.470685959E0,4.644751072E0
6.837228530E-1,1.266532660E0,-8.473079681E0,4.620809078E0
6.857364000E-1,1.230619669E0,-8.470685959E0,4.592078686E0
6.877213320E-1,1.233013868E0,-8.499416351E0,4.592078686E0
6.897345700E-1,1.223437071E0,-8.513781548E0,4.589684486E0
6.917191950E-1,1.228225470E0,-8.525752068E0,4.558559895E0
6.937327410E-1,1.230619669E0,-8.542511940E0,4.522646904E0
6.957160570E-1,1.228225470E0,-8.556877136E0,4.467580318E0
6.977302200E-1,1.235408068E0,-8.554482460E0,4.429273129E0
6.997142280E-1,1.233013868E0,-8.549694061E0,4.419696331E0
7.017278510E-1,1.216254473E0,-8.556877136E0,4.398148537E0
7.037422440E-1,1.218648672E0,-8.571242332E0,4.364629745E0
7.057260220E-1,1.228225470E0,-8.578424454E0,4.352658749E0
7.077410300E-1,1.233013868E0,-8.588001251E0,4.347870350E0
7.097238070E-1,1.240196466E0,-8.592789650E0,4.340687752E0
7.117373550E-1,1.252167463E0,-8.609549522E0,4.335899353E0
7.137205160E-1,1.273715258E0,-8.626308441E0,4.343081951E0
7.157352940E-1,1.312022567E0,-8.619126320E0,4.347870350E0
7.177193020E-1,1.316810966E0,-8.631096840E0,4.350264549E0
7.197333880E-1,1.328781962E0,-8.638279915E0,4.371812344E0
7.217171650E-1,1.343147159E0,-8.638279915E0,4.381389141E0
7.237310190E-1,1.362300754E0,-8.635885239E0,4.388571739E0
7.257155660E-1,1.371877551E0,-8.650250435E0,4.383783340E0
7.277297280E-1,1.364694953E0,-8.655038834E0,4.383783340E0
7.297427360E-1,1.386242747E0,-8.647856712E0,4.402936935E0
7.317275910E-1,1.398213744E0,-8.640673637E0,4.419696331E0
7.337409070E-1,1.405396342E0,-8.645462036E0,4.429273129E0
7.357243000E-1,1.400607944E0,-8.655038834E0,4.458003521E0
7.377386920E-1,1.400607944E0,-8.645462036E0,4.467580318E0
7.397224710E-1,1.400607944E0,-8.643068314E0,4.481945515E0
7.417369400E-1,1.391031146E0,-8.621520042E0,4.505887508E0
7.437202560E-1,1.379060149E0,-8.614337921E0,4.505887508E0
7.457347250E-1,1.376665950E0,-8.619126320E0,4.520252705E0
7.477193500E-1,1.357512355E0,-8.614337921E0,4.517858505E0
7.497329730E-1,1.379060149E0,-8.609549522E0,4.522646904E0
7.517156740E-1,1.371877551E0,-8.611943245E0,4.532223701E0
7.537313750E-1,1.364694953E0,-8.607154846E0,4.527435303E0
7.557150750E-1,1.362300754E0,-8.614337921E0,4.529829502E0
7.577268520E-1,1.355118155E0,-8.609549522E0,4.522646904E0
7.597418600E-1,1.321599364E0,-8.623914719E0,4.525041103E0
7.617261770E-1,1.304839969E0,-8.631096840E0,4.517858505E0
7.637404160E-1,1.314416766E0,-8.647856712E0,4.515464306E0
7.657243470E-1,1.309628367E0,-8.674192429E0,4.501099110E0
7.677391250E-1,1.304839969E0,-8.674192429E0,4.474762917E0
7.697215950E-1,1.314416766E0,-8.693346024E0,4.467580318E0
7.717372950E-1,1.288080573E0,-8.714894295E0,4.453215122E0
7.737197650E-1,1.276109457E0,-8.731653214E0,4.446032524E0
7.757330040E-1,1.278503656E0,-8.755595207E0,4.422090530E0
7.777176280E-1,1.261744261E0,-8.774748802E0,4.383783340E0
7.797315590E-1,1.261744261E0,-8.784325600E0,4.362235546E0
7.817151830E-1,1.230619669E0,-8.781931877E0,4.328716755E0
7.837288070E-1,1.213860273E0,-8.805873871E0,4.309563160E0
7.857435840E-1,1.197100878E0,-8.817844391E0,4.297592163E0
7.877278230E-1,1.173158884E0,-8.817844391E0,4.285621166E0
7.897414470E-1,1.163581967E0,-8.832210541E0,4.259284973E0
7.917238400E-1,1.154005170E0,-8.832210541E0,4.237737179E0
7.937389250E-1,1.130063176E0,-8.841787338E0,4.199429989E0
7.957223950E-1,1.108515382E0,-8.856152534E0,4.175487995E0
7.977361720E-1,1.079784989E0,-8.853757858E0,4.168305397E0
7.997211030E-1,1.070208192E0,-8.844181061E0,4.158728123E0
8.017346500E-1,1.072602391E0,-8.851364136E0,4.153939724E0
8.037183510E-1,1.060631394E0,-8.848969460E0,4.132391930E0
8.057322820E-1,1.065419793E0,-8.848969460E0,4.115632534E0
8.077169060E-1,1.063025594E0,-8.848969460E0,4.115632534E0
8.097309920E-1,1.063025594E0,-8.846575737E0,4.096478939E0
8.117146920E-1,1.077390790E0,-8.844181061E0,4.091690540E0
8.137282380E-1,1.079784989E0,-8.848969460E0,4.084507942E0
8.157420940E-1,1.096544385E0,-8.868123055E0,4.072536945E0
8.177255630E-1,1.082179189E0,-8.884882927E0,4.046200752E0
8.197402630E-1,1.077390790E0,-8.899248123E0,4.041412354E0
8.217236560E-1,1.077390790E0,-8.894459724E0,4.029441357E0
8.237372800E-1,1.079784989E0,-8.916007042E0,4.031835556E0
8.257224420E-1,1.041477680E0,-8.925583839E0,4.046200752E0
8.277369120E-1,1.010353088E0,-8.949525833E0,4.048594952E0
8.297187660E-1,9.888052940E-1,-8.963891029E0,3.974374771E0
8.317336210E-1,9.504981041E-1,-9.009381294E0,3.904942989E0
8.337176290E-1,9.121908545E-1,-9.011775017E0,3.933673382E0
8.357326370E-1,9.050082564E-1,-8.997409821E0,3.871424198E0
8.377148770E-1,9.074024558E-1,-8.937555313E0,3.684676409E0
8.397289620E-1,9.121908545E-1,-8.901641846E0,3.655946016E0
8.417437390E-1,9.169792533E-1,-8.894459724E0,3.706224203E0
8.437271320E-1,9.145850539E-1,-8.896853447E0,3.799597979E0
8.457413710E-1,9.050082564E-1,-8.892065048E0,3.859453201E0
8.477259950E-1,9.121908545E-1,-8.889671326E0,3.842693806E0
8.497388490E-1,9.361328483E-1,-8.894459724E0,3.809175014E0
8.517231660E-1,9.265560508E-1,-8.896853447E0,3.792415380E0
8.537373280E-1,9.026140571E-1,-8.887276649E0,3.790021181E0
8.557197970E-1,9.026140571E-1,-8.889671326E0,3.780444384E0
8.577348830E-1,9.050082564E-1,-8.892065048E0,3.768473387E0
8.597179680E-1,9.145850539E-1,-8.904036522E0,3.746925592E0
8.617327450E-1,9.241618514E-1,-8.892065048E0,3.744531393E0
8.637159070E-1,9.361328483E-1,-8.889671326E0,3.739742994E0
8.657313010E-1,9.648633003E-1,-8.887276649E0,3.720589399E0
8.677146930E-1,1.005564690E0,-8.880094528E0,3.715801001E0
8.697285470E-1,1.027112484E0,-8.894459724E0,3.708618402E0
8.717405560E-1,1.070208192E0,-8.887276649E0,3.694253206E0
8.737254110E-1,1.091755986E0,-8.868123055E0,3.658340216E0
8.757399570E-1,1.103726983E0,-8.863334656E0,3.643975019E0
8.777236570E-1,1.132457376E0,-8.832210541E0,3.622427225E0
8.797383590E-1,1.180341482E0,-8.803479195E0,3.572149038E0
8.817214440E-1,1.206677675E0,-8.798690796E0,3.545812607E0
8.837356820E-1,1.242590666E0,-8.772355080E0,3.490746021E0
8.857187670E-1,1.252167463E0,-8.738836288E0,3.442862034E0
8.877337760E-1,1.304839969E0,-8.719682693E0,3.423708439E0
8.897163230E-1,1.328781962E0,-8.686163902E0,3.404554844E0
8.917331770E-1,1.345541358E0,-8.655038834E0,3.387795448E0
8.937148010E-1,1.367089152E0,-8.614337921E0,3.351882458E0
8.957289630E-1,1.414973259E0,-8.588001251E0,3.327940464E0
8.977428170E-1,1.434126854E0,-8.564059258E0,3.318363667E0
8.997267490E-1,1.474828243E0,-8.540117264E0,3.323152065E0
9.017412190E-1,1.525106430E0,-8.518569946E0,3.323152065E0
9.037243040E-1,1.556231141E0,-8.504204750E0,3.313575268E0
9.057388500E-1,1.623268723E0,-8.465897560E0,3.303998232E0
9.077237820E-1,1.675941229E0,-8.465897560E0,3.299209833E0
9.097369440E-1,1.690306425E0,-8.456320763E0,3.303998232E0
9.117210290E-1,1.745373011E0,-8.456320763E0,3.306392431E0
9.137358080E-1,1.833958507E0,-8.453926086E0,3.323152065E0
9.157188160E-1,1.869871497E0,-8.465897560E0,3.339911461E0
9.177315160E-1,1.922544003E0,-8.485051155E0,3.354276657E0
9.197169850E-1,1.944091797E0,-8.506598473E0,3.354276657E0
9.217302250E-1,2.003946781E0,-8.513781548E0,3.361459255E0
9.237443870E-1,2.044648170E0,-8.525752068E0,3.371036053E0
9.257280870E-1,2.054224968E0,-8.523358345E0,3.385401249E0
9.277431730E-1,2.094926596E0,-8.528146744E0,3.416525841E0
9.297263350E-1,2.104503393E0,-8.542511940E0,3.459621429E0
9.317414200E-1,2.109291792E0,-8.556877136E0,3.481169224E0
9.337238130E-1,2.130839586E0,-8.590395927E0,3.512293816E0
9.357379750E-1,2.130839586E0,-8.599972725E0,3.541024208E0
9.377219830E-1,2.135627985E0,-8.597578049E0,3.557783842E0
9.397356070E-1,2.135627985E0,-8.604761124E0,3.617638826E0
9.417195390E-1,2.121262789E0,-8.614337921E0,3.663128614E0
9.437337010E-1,2.121262789E0,-8.638279915E0,3.679888010E0
9.457168630E-1,2.109291792E0,-8.683769226E0,3.711012602E0
9.477319480E-1,2.097320795E0,-8.676587105E0,3.737348795E0
9.497149570E-1,2.090138197E0,-8.669404030E0,3.751713991E0
9.517261180E-1,2.061407566E0,-8.693346024E0,3.778050184E0
9.537430500E-1,2.063801765E0,-8.702922821E0,3.785232782E0
9.557273660E-1,2.061407566E0,-8.712499619E0,3.785232782E0
9.577412200E-1,2.039859772E0,-8.724471092E0,3.782838583E0
9.597249210E-1,2.018311977E0,-8.731653214E0,3.785232782E0
9.617396210E-1,2.011129379E0,-8.731653214E0,3.790021181E0
9.637223990E-1,2.025494576E0,-8.717288017E0,3.780444384E0
9.657372530E-1,2.027888775E0,-8.719682693E0,3.763684988E0
9.677205690E-1,2.025494576E0,-8.726864815E0,3.758896589E0
9.697338860E-1,2.003946781E0,-8.736441612E0,3.737348795E0
9.717185090E-1,2.003946781E0,-8.731653214E0,3.732560396E0
9.737320560E-1,2.011129379E0,-8.722076416E0,3.715801001E0
9.757160640E-1,2.011129379E0,-8.722076416E0,3.679888010E0
9.777302270E-1,2.008735180E0,-8.714894295E0,3.660734415E0
9.797440040E-1,2.035071373E0,-8.719682693E0,3.627215624E0
9.817280890E-1,2.047042370E0,-8.700529099E0,3.610456228E0
9.837424820E-1,2.061407566E0,-8.698134422E0,3.584120035E0
9.857259520E-1,2.114080191E0,-8.688557625E0,3.541024208E0
9.877406520E-1,2.133233786E0,-8.683769226E0,3.526659012E0
9.897235060E-1,2.171540976E0,-8.662221909E0,3.495534420E0
9.917367460E-1,2.231395960E0,-8.640673637E0,3.471592426E0
9.937216770E-1,2.250549555E0,-8.619126320E0,3.459621429E0
9.957363770E-1,2.286462545E0,-8.590395927E0,3.416525841E0
9.977185400E-1,2.317587137E0,-8.592789650E0,3.383007050E0
9.997336250E-1,2.348711967E0,-8.578424454E0,3.361459255E0
1.001717941E0,2.382230759E0,-8.540117264E0,3.339911461E0
1.003731487E0,2.425326347E0,-8.511386871E0,3.325546265E0
1.005714958E0,2.451662540E0,-8.501810074E0,3.318363667E0
1.007729966E0,2.482787132E0,-8.508993149E0,3.294421434E0
1.009742589E0,2.528276920E0,-8.523358345E0,3.280056238E0
1.011726983E0,2.559401512E0,-8.520963669E0,3.277662039E0
1.013741991E0,2.616862535E0,-8.511386871E0,3.287238836E0
1.015724768E0,2.638410330E0,-8.494627953E0,3.289633036E0
1.017738623E0,2.671929121E0,-8.520963669E0,3.292027235E0
1.019722324E0,2.724601507E0,-8.528146744E0,3.289633036E0
1.021736486E0,2.753331900E0,-8.516175270E0,3.299209833E0
1.023719570E0,2.774879694E0,-8.523358345E0,3.296815634E0
1.025734733E0,2.825158119E0,-8.542511940E0,3.292027235E0
1.027719280E0,2.841917515E0,-8.544905663E0,3.287238836E0
1.029732288E0,2.877830505E0,-8.571242332E0,3.289633036E0
1.031715296E0,2.908955097E0,-8.607154846E0,3.287238836E0
1.033729766E0,2.923320293E0,-8.607154846E0,3.287238836E0
1.035745159E0,2.944868088E0,-8.607154846E0,3.311181068E0
1.037728013E0,2.954444885E0,-8.635885239E0,3.325546265E0
1.039742484E0,2.968810081E0,-8.650250435E0,3.339911461E0
1.041725876E0,2.980781078E0,-8.662221909E0,3.373430252E0
1.043739961E0,2.978386879E0,-8.683769226E0,3.409343243E0
1.045723123E0,2.992752075E0,-8.683769226E0,3.438073635E0
1.047738440E0,2.985569477E0,-8.705317497E0,3.509899616E0
1.049722140E0,2.987963676E0,-8.726864815E0,3.543418407E0
1.051737302E0,2.990357876E0,-8.755595207E0,3.581725836E0
1.053719772E0,3.014299870E0,-8.779537201E0,3.620033026E0
1.055733934E0,3.004723072E0,-8.784325600E0,3.627215624E0
1.057717558E0,3.007117271E0,-8.796297073E0,3.646369219E0
1.059730566E0,2.997540474E0,-8.822632790E0,3.663128614E0
1.061745652E0,2.992752075E0,-8.846575737E0,3.670311213E0
1.063729352E0,2.987963676E0,-8.865729332E0,3.687070608E0
1.065743437E0,2.964021683E0,-8.884882927E0,3.703830004E0
1.067727754E0,2.947262287E0,-8.882488251E0,3.720589399E0
1.069740762E0,2.923320293E0,-8.906430244E0,3.742137194E0
1.071724154E0,2.904166698E0,-8.920795441E0,3.734954596E0
1.073739855E0,2.885013103E0,-8.935160637E0,3.734954596E0
1.075722940E0,2.844311714E0,-8.944737434E0,3.739742994E0
1.077735795E0,2.789244890E0,-8.983044624E0,3.720589399E0
1.079719880E0,2.772485495E0,-8.975862503E0,3.720589399E0
1.081734042E0,2.738966703E0,-8.973467827E0,3.715801001E0
1.083717666E0,2.724601507E0,-8.980650902E0,3.713406801E0
1.085732443E0,2.695871115E0,-8.973467827E0,3.687070608E0
1.087716528E0,2.671929121E0,-8.961497307E0,3.665522814E0
1.089730306E0,2.671929121E0,-8.954314232E0,3.655946016E0
1.091745391E0,2.647987127E0,-8.963891029E0,3.634398222E0
1.093728553E0,2.640804529E0,-8.956708908E0,3.596091032E0
1.095741716E0,2.640804529E0,-8.947132111E0,3.581725836E0
1.097726339E0,2.628833532E0,-8.916007042E0,3.526659012E0
1.099739578E0,2.636016130E0,-8.906430244E0,3.466804028E0
1.101723586E0,2.631227732E0,-8.908824921E0,3.445256233E0
1.103737441E0,2.640804529E0,-8.889671326E0,3.409343243E0
1.105721449E0,2.667140722E0,-8.868123055E0,3.373430252E0
1.107736534E0,2.671929121E0,-8.865729332E0,3.347094059E0
1.109719082E0,2.669534922E0,-8.858546257E0,3.289633036E0
1.111733243E0,2.693476915E0,-8.846575737E0,3.253720045E0
1.113716021E0,2.715024710E0,-8.836998940E0,3.229778051E0
1.115732260E0,2.731784105E0,-8.829815865E0,3.177105665E0
1.117715115E0,2.746149302E0,-8.825027466E0,3.157952070E0
1.119728661E0,2.784456491E0,-8.817844391E0,3.138798475E0
1.121743746E0,2.808398485E0,-8.836998940E0,3.124433279E0
1.123727063E0,2.825158119E0,-8.825027466E0,3.124433279E0
1.125741224E0,2.863465309E0,-8.832210541E0,3.110068083E0
1.127725925E0,2.889801502E0,-8.839392662E0,3.112462282E0
1.129738857E0,2.908955097E0,-8.844181061E0,3.107673883E0
1.131723480E0,2.956839085E0,-8.868123055E0,3.083731890E0
1.133736411E0,2.992752075E0,-8.882488251E0,3.047818661E0
1.135720419E0,3.021482468E0,-8.884882927E0,3.023876667E0
1.137734274E0,3.071760893E0,-8.901641846E0,3.019088268E0
1.139717590E0,3.095702887E0,-8.916007042E0,3.026270866E0
1.141733060E0,3.117250681E0,-8.927978516E0,3.043030262E0
1.143716452E0,3.160346270E0,-8.944737434E0,3.102885485E0
1.145730231E0,3.184288263E0,-8.959102631E0,3.148375273E0
1.147745700E0,3.215412855E0,-8.975862503E0,3.167528868E0
1.149728170E0,3.268085241E0,-9.004592896E0,3.165134668E0
1.151741409E0,3.299209833E0,-9.016563416E0,3.160346270E0
1.153726571E0,3.344699860E0,-9.040505409E0,3.126827478E0
1.155739887E0,3.378218651E0,-9.052476883E0,3.098097086E0
1.157723204E0,3.387795448E0,-9.052476883E0,3.098097086E0
1.159737673E0,3.414131641E0,-9.076418877E0,3.093308687E0
1.161721143E0,3.428496838E0,-9.069235802E0,3.093308687E0
1.163735305E0,3.435679436E0,-9.074024200E0,3.098097086E0
1.165718391E0,3.445256233E0,-9.074024200E0,3.081337690E0
1.167734322E0,3.459621429E0,-9.069235802E0,3.083731890E0
1.169717407E0,3.462015629E0,-9.062053680E0,3.088520288E0
1.171732262E0,3.481169224E0,-9.078812599E0,3.078943491E0
1.173715270E0,3.488351822E0,-9.076418877E0,3.086126089E0
1.175729124E0,3.493140221E0,-9.081207275E0,3.083731890E0
1.177743670E0,3.514688015E0,-9.066842079E0,3.081337690E0
1.179727064E0,3.512293816E0,-9.085995674E0,3.102885485E0
1.181741226E0,3.505111217E0,-9.078812599E0,3.095702887E0
1.183724849E0,3.517082214E0,-9.054870605E0,3.081337690E0
1.185739012E0,3.512293816E0,-9.050082207E0,3.074155092E0
1.187724020E0,3.526659012E0,-9.042900085E0,3.074155092E0
1.189736567E0,3.536235809E0,-9.021351814E0,3.074155092E0
1.191719728E0,3.541024208E0,-9.028534889E0,3.059789658E0
1.193733507E0,3.536235809E0,-9.026140213E0,3.050212860E0
1.195718207E0,3.531447411E0,-9.014169693E0,3.033453465E0
1.197732061E0,3.533841610E0,-9.002198219E0,3.016694069E0
1.199715762E0,3.514688015E0,-8.980650902E0,2.990357876E0
1.201729924E0,3.469198227E0,-8.942343712E0,2.935291290E0
1.203744394E0,3.450044632E0,-8.930372238E0,2.942473888E0
1.205728094E0,3.421314240E0,-8.935160637E0,2.923320293E0
1.207743103E0,3.380612850E0,-8.920795441E0,2.904166698E0
1.209725880E0,3.363853455E0,-8.913613319E0,2.899378300E0
1.211740735E0,3.325546265E0,-8.913613319E0,2.894589901E0
1.213723513E0,3.320757866E0,-8.906430244E0,2.892195702E0
1.215737675E0,3.308786631E0,-8.892065048E0,2.887407303E0
1.217721375E0,3.292027235E0,-8.892065048E0,2.868253708E0
1.219735460E0,3.272873640E0,-8.894459724E0,2.851494312E0
1.221719238E0,3.236960649E0,-8.870517731E0,2.841917515E0
1.223733938E0,3.198653460E0,-8.887276649E0,2.832340717E0
1.225716716E0,3.177105665E0,-8.882488251E0,2.825158119E0
1.227733032E0,3.138798475E0,-8.892065048E0,2.794033289E0
1.229715810E0,3.126827478E0,-8.875306129E0,2.791639090E0
1.231728741E0,3.112462282E0,-8.875306129E0,2.796427488E0
1.233743596E0,3.100491285E0,-8.856152534E0,2.767697096E0
1.235727527E0,3.081337690E0,-8.836998940E0,2.717418909E0
1.237740150E0,3.074155092E0,-8.834604263E0,2.707842112E0
1.239725389E0,3.071760893E0,-8.848969460E0,2.679111719E0
1.241738937E0,3.076549292E0,-8.834604263E0,2.671929121E0
1.243723021E0,3.090914488E0,-8.834604263E0,2.659958124E0
1.245737183E0,3.095702887E0,-8.832210541E0,2.655169725E0
1.247721191E0,3.102885485E0,-8.827422142E0,2.655169725E0
1.249734662E0,3.129221678E0,-8.808267593E0,2.628833532E0
1.251718439E0,3.162740469E0,-8.803479195E0,2.602497339E0
1.253732293E0,3.169923067E0,-8.796297073E0,2.590526342E0
1.255745841E0,3.217807055E0,-8.789113998E0,2.604891539E0
1.257730387E0,3.260902643E0,-8.808267593E0,2.647987127E0
1.259744241E0,3.284844637E0,-8.815450668E0,2.669534922E0
1.261727942E0,3.325546265E0,-8.808267593E0,2.681505919E0
1.263743028E0,3.378218651E0,-8.810662270E0,2.667140722E0
1.265725497E0,3.409343243E0,-8.822632790E0,2.659958124E0
1.267740967E0,3.459621429E0,-8.836998940E0,2.657563925E0
1.269723976E0,3.519476414E0,-8.836998940E0,2.662352324E0
1.271736907E0,3.543418407E0,-8.827422142E0,2.655169725E0
1.273721299E0,3.588908434E0,-8.820239067E0,2.638410330E0
1.275735770E0,3.632004023E0,-8.832210541E0,2.659958124E0
1.277719086E0,3.658340216E0,-8.834604263E0,2.659958124E0
1.279733247E0,3.687070608E0,-8.846575737E0,2.679111719E0
1.281717025E0,3.687070608E0,-8.848969460E0,2.676717520E0
1.283731111E0,3.703830004E0,-8.860940933E0,2.676717520E0
1.285745580E0,3.715801001E0,-8.865729332E0,2.715024710E0
1.287729896E0,3.708618402E0,-8.848969460E0,2.726995707E0
1.289743443E0,3.708618402E0,-8.844181061E0,2.750937700E0
1.291726913E0,3.701435804E0,-8.858546257E0,2.758120298E0
1.293741075E0,3.703830004E0,-8.875306129E0,2.765302896E0
1.295725006E0,3.691859007E0,-8.870517731E0,2.786850691E0
1.297739476E0,3.667917013E0,-8.877699852E0,2.829946518E0
1.299722023E0,3.646369219E0,-8.875306129E0,2.837129116E0
1.301737031E0,3.622427225E0,-8.868123055E0,2.856282711E0
1.303719808E0,3.596091032E0,-8.872911453E0,2.865859509E0
1.305734586E0,3.576937437E0,-8.877699852E0,2.877830505E0
1.307719210E0,3.541024208E0,-8.884882927E0,2.901772499E0
1.309732218E0,3.521870613E0,-8.889671326E0,2.942473888E0
1.311745996E0,3.481169224E0,-8.894459724E0,2.961627483E0
1.313730312E0,3.440467834E0,-8.892065048E0,2.968810081E0
1.315744243E0,3.416525841E0,-8.887276649E0,2.971204281E0
1.317726944E0,3.371036053E0,-8.894459724E0,2.985569477E0
1.319742721E0,3.330334663E0,-8.894459724E0,3.007117271E0
1.321726960E0,3.313575268E0,-8.904036522E0,3.021482468E0
1.323739660E0,3.268085241E0,-8.908824921E0,3.047818661E0
1.325724515E0,3.198653460E0,-8.896853447E0,3.050212860E0
1.327738139E0,3.160346270E0,-8.899248123E0,3.069366693E0
1.329721531E0,3.110068083E0,-8.930372238E0,3.107673883E0
1.331735925E0,3.102885485E0,-8.932766914E0,3.141192675E0
1.333719010E0,3.088520288E0,-8.939949036E0,3.141192675E0
1.335733172E0,3.040636063E0,-8.951920509E0,3.112462282E0
1.337717257E0,3.009511471E0,-8.951920509E0,3.088520288E0
1.339730497E0,2.992752075E0,-8.949525833E0,3.076549292E0
1.341745582E0,2.947262287E0,-8.959102631E0,3.057395458E0
1.343729897E0,2.935291290E0,-8.959102631E0,3.047818661E0
1.345744060E0,2.913743496E0,-8.956708908E0,3.052607059E0
1.347727760E0,2.887407303E0,-8.966285706E0,3.050212860E0
1.349741922E0,2.877830505E0,-8.978256226E0,3.047818661E0
1.351724699E0,2.858676910E0,-8.971074104E0,3.026270866E0
1.353738247E0,2.858676910E0,-8.956708908E0,3.016694069E0
1.355722255E0,2.858676910E0,-8.959102631E0,3.011905670E0
1.357736648E0,2.856282711E0,-8.961497307E0,3.002328873E0
1.359720041E0,2.858676910E0,-8.944737434E0,3.016694069E0
1.361734895E0,2.863465309E0,-8.942343712E0,3.016694069E0
1.363718596E0,2.868253708E0,-8.956708908E0,3.004723072E0
1.365732373E0,2.868253708E0,-8.963891029E0,2.992752075E0
1.367747459E0,2.875436306E0,-8.956708908E0,2.973598480E0
1.369730005E0,2.906560898E0,-8.944737434E0,2.930502892E0
1.371745090E0,2.925714493E0,-8.935160637E0,2.916137695E0
1.373727792E0,2.942473888E0,-8.935160637E0,2.887407303E0
1.375742338E0,2.971204281E0,-8.942343712E0,2.861071110E0
1.377725423E0,2.978386879E0,-8.927978516E0,2.858676910E0
1.379739892E0,3.028665066E0,-8.920795441E0,2.846705914E0
1.381723594E0,3.055001259E0,-8.906430244E0,2.834734917E0
1.383738063E0,3.059789658E0,-8.896853447E0,2.817975283E0
1.385721148E0,3.100491285E0,-8.899248123E0,2.770091295E0
1.387736773E0,3.134010077E0,-8.899248123E0,2.715024710E0
1.389719319E0,3.138798475E0,-8.892065048E0,2.700659513E0
1.391732250E0,3.162740469E0,-8.875306129E0,2.667140722E0
1.393748182E0,3.162740469E0,-8.870517731E0,2.645592928E0
1.395731652E0,3.174711466E0,-8.860940933E0,2.633621931E0
1.397745121E0,3.186682463E0,-8.844181061E0,2.607285738E0
1.399729206E0,3.193865061E0,-8.827422142E0,2.588132143E0
1.401743600E0,3.191470861E0,-8.839392662E0,2.588132143E0
1.403727685E0,3.196259260E0,-8.839392662E0,2.592920542E0
1.405740924E0,3.201047659E0,-8.829815865E0,2.609679937E0
1.407726162E0,3.193865061E0,-8.827422142E0,2.609679937E0
1.409738787E0,3.205836058E0,-8.841787338E0,2.609679937E0
1.411724256E0,3.203441858E0,-8.844181061E0,2.612074137E0
1.413736880E0,3.205836058E0,-8.836998940E0,2.616862535E0
1.415719966E0,3.165134668E0,-8.853757858E0,2.604891539E0
1.417734512E0,3.155557871E0,-8.853757858E0,2.619256735E0
1.419718135E0,3.122039080E0,-8.872911453E0,2.643198729E0
1.421732067E0,3.090914488E0,-8.872911453E0,2.676717520E0
1.423745614E0,3.076549292E0,-8.875306129E0,2.707842112E0
1.425729930E0,3.043030262E0,-8.892065048E0,2.741360903E0
1.427745861E0,3.009511471E0,-8.916007042E0,2.767697096E0
1.429728024E0,2.999934673E0,-8.920795441E0,2.772485495E0
1.431742186E0,2.973598480E0,-8.908824921E0,2.758120298E0
1.433725040E0,2.944868088E0,-8.935160637E0,2.760514498E0
1.435739741E0,2.932897091E0,-8.935160637E0,2.758120298E0
1.437723518E0,2.882618904E0,-8.939949036E0,2.753331900E0
1.439737065E0,2.839523315E0,-8.932766914E0,2.731784105E0
1.441721996E0,2.813186884E0,-8.927978516E0,2.731784105E0
1.443735466E0,2.774879694E0,-8.930372238E0,2.734178305E0
1.445719244E0,2.753331900E0,-8.927978516E0,2.741360903E0
1.447734252E0,2.707842112E0,-8.918401718E0,2.772485495E0
1.449717029E0,2.671929121E0,-8.925583839E0,2.827552319E0
1.451731807E0,2.662352324E0,-8.930372238E0,2.856282711E0
1.453745353E0,2.640804529E0,-8.935160637E0,2.911349297E0
1.455729054E0,2.602497339E0,-8.937555313E0,2.937685490E0
1.457743909E0,2.588132143E0,-8.939949036E0,2.925714493E0
1.459726609E0,2.566584110E0,-8.942343712E0,2.920926094E0
1.461740771E0,2.537853718E0,-8.951920509E0,2.894589901E0
1.463724856E0,2.528276920E0,-8.949525833E0,2.882618904E0
1.465738634E0,2.511517525E0,-8.954314232E0,2.863465309E0
1.467723565E0,2.511517525E0,-8.956708908E0,2.863465309E0
1.469736881E0,2.506729126E0,-8.959102631E0,2.851494312E0
1.471719890E0,2.477998734E0,-8.942343712E0,2.832340717E0
1.473735283E0,2.466027737E0,-8.932766914E0,2.837129116E0
1.475718368E0,2.446874142E0,-8.937555313E0,2.839523315E0
1.477731068E0,2.439691544E0,-8.947132111E0,2.844311714E0
1.479746385E0,2.432508945E0,-8.949525833E0,2.839523315E0
1.481730085E0,2.415749550E0,-8.927978516E0,2.825158119E0
1.483744247E0,2.418143749E0,-8.927978516E0,2.837129116E0
1.485728640E0,2.420537949E0,-8.925583839E0,2.856282711E0
1.487742725E0,2.401384354E0,-8.932766914E0,2.870647907E0
1.489726118E0,2.420537949E0,-8.899248123E0,2.851494312E0
1.491740050E0,2.427720547E0,-8.901641846E0,2.839523315E0
1.493723366E0,2.430114746E0,-8.906430244E0,2.825158119E0
1.495737528E0,2.420537949E0,-8.901641846E0,2.806004286E0
1.497722151E0,2.413355350E0,-8.896853447E0,2.786850691E0
1.499736006E0,2.422932148E0,-8.899248123E0,2.748543501E0
1.501719783E0,2.406172752E0,-8.877699852E0,2.731784105E0
1.503733868E0,2.396595955E0,-8.880094528E0,2.717418909E0
1.505716415E0,2.387019157E0,-8.887276649E0,2.724601507E0
1.507732424E0,2.379836559E0,-8.894459724E0,2.736572504E0
1.509745047E0,2.367865562E0,-8.892065048E0,2.726995707E0
1.511728132E0,2.353500366E0,-8.884882927E0,2.698265314E0
1.513742295E0,2.336740971E0,-8.899248123E0,2.691082716E0
1.515726303E0,2.334346771E0,-8.913613319E0,2.681505919E0
1.517741003E0,2.334346771E0,-8.925583839E0,2.698265314E0
1.519724704E0,2.327163935E0,-8.930372238E0,2.715024710E0
1.521739251E0,2.331952572E0,-8.949525833E0,2.743755102E0
1.523722874E0,2.329558372E0,-8.990227699E0,2.741360903E0
1.525736729E0,2.327163935E0,-9.006986618E0,2.724601507E0
1.527721430E0,2.341529369E0,-9.016563416E0,2.698265314E0
1.529734669E0,2.336740971E0,-9.033323288E0,2.655169725E0
1.531718600E0,2.336740971E0,-9.035717010E0,2.638410330E0
1.533731840E0,2.341529369E0,-9.059659004E0,2.638410330E0
1.535746386E0,2.346317768E0,-9.071630478E0,2.643198729E0
1.537730394E0,2.343923569E0,-9.071630478E0,2.645592928E0
1.539743864E0,2.324769735E0,-9.081207275E0,2.662352324E0
1.541728796E0,2.324769735E0,-9.097966194E0,2.662352324E0
1.543742419E0,2.331952572E0,-9.117119789E0,2.643198729E0
1.545725427E0,2.317587137E0,-9.100360870E0,2.609679937E0
1.547741128E0,2.317587137E0,-9.095572472E0,2.597708941E0
1.549724290E0,2.315192938E0,-9.095572472E0,2.583343744E0
1.551737452E0,2.305616140E0,-9.100360870E0,2.580949545E0
1.553722383E0,2.305616140E0,-9.095572472E0,2.590526342E0
1.555736007E0,2.269703150E0,-9.074024200E0,2.595314741E0
1.557718400E0,2.274491549E0,-9.083600998E0,2.590526342E0
1.559733562E0,2.269703150E0,-9.088389397E0,2.592920542E0
1.561747417E0,2.255337954E0,-9.105149269E0,2.585737944E0
1.563731425E0,2.260126352E0,-9.109937668E0,2.571372509E0
1.565745510E0,2.250549555E0,-9.117119789E0,2.554613113E0
1.567729210E0,2.229001760E0,-9.136273384E0,2.561795712E0
1.569743142E0,2.219424963E0,-9.141061783E0,2.554613113E0
1.571727381E0,2.212242365E0,-9.148244858E0,2.545036316E0
1.573740697E0,2.185906172E0,-9.143456459E0,2.559401512E0
1.575724398E0,2.173935175E0,-9.141061783E0,2.557007313E0
1.577739483E0,2.169146776E0,-9.150638580E0,2.561795712E0
1.579721953E0,2.154781580E0,-9.169792175E0,2.561795712E0
1.581736730E0,2.138022184E0,-9.167398453E0,2.561795712E0
1.583720431E0,2.114080191E0,-9.176975250E0,2.559401512E0
1.585735132E0,2.080561161E0,-9.186552048E0,2.557007313E0
1.587719447E0,2.070984364E0,-9.181763649E0,2.552218914E0
1.589732687E0,2.056619167E0,-9.186552048E0,2.540247917E0
1.591742926E0,2.035071373E0,-9.172186852E0,2.547430515E0
1.593729395E0,2.025494576E0,-9.167398453E0,2.542642117E0
1.595744096E0,1.999158382E0,-9.179368973E0,2.528276920E0
1.597727489E0,1.956062794E0,-9.155426979E0,2.525882721E0
1.599742267E0,1.946485996E0,-9.160215378E0,2.521094322E0
1.601726044E0,1.932120800E0,-9.150638580E0,2.511517525E0
1.603740130E0,1.917755604E0,-9.160215378E0,2.492363930E0
1.605723292E0,1.893813491E0,-9.150638580E0,2.487575531E0
1.607738684E0,1.872265697E0,-9.129091263E0,2.477998734E0
1.609721461E0,1.855506301E0,-9.129091263E0,2.463633537E0
1.611736163E0,1.845929503E0,-9.114726067E0,2.439691544E0
1.613718709E0,1.812410712E0,-9.093177795E0,2.425326347E0
1.615732563E0,1.812410712E0,-9.090784073E0,2.408566952E0
1.617747342E0,1.781286120E0,-9.095572472E0,2.401384354E0
1.619731042E0,1.759738207E0,-9.102754593E0,2.427720547E0
1.621745204E0,1.757344007E0,-9.097966194E0,2.451662540E0
1.623728827E0,1.738190413E0,-9.112331390E0,2.521094322E0
1.625743682E0,1.731007814E0,-9.114726067E0,2.545036316E0
1.627727921E0,1.719036818E0,-9.133879662E0,2.535459518E0
1.629740852E0,1.728613615E0,-9.157821655E0,2.485181332E0
1.631724015E0,1.721431017E0,-9.165003777E0,2.432508945E0
1.633739023E0,1.709460020E0,-9.162610054E0,2.410961151E0
1.635722723E0,1.702277422E0,-9.176975250E0,2.394201756E0
1.637735654E0,1.685518026E0,-9.191340446E0,2.406172752E0
1.639719971E0,1.671152830E0,-9.203310966E0,2.415749550E0
1.641734518E0,1.666364431E0,-9.229647636E0,2.430114746E0
1.643718449E0,1.661576033E0,-9.239224434E0,2.425326347E0
1.645732073E0,1.656787634E0,-9.241618156E0,2.408566952E0
1.647747696E0,1.632845521E0,-9.241618156E0,2.394201756E0
1.649730166E0,1.623268723E0,-9.246406555E0,2.398990154E0
1.651744406E0,1.596932530E0,-9.265560150E0,2.425326347E0
1.653728644E0,1.599326730E0,-9.270348549E0,2.456450939E0
1.655742191E0,1.592144132E0,-9.267954826E0,2.458845139E0
1.657725968E0,1.580173135E0,-9.275136948E0,2.468421936E0
1.659739746E0,1.568202138E0,-9.282320023E0,2.456450939E0
1.661723754E0,1.558625340E0,-9.284713745E0,2.446874142E0
1.663737993E0,1.549048543E0,-9.299078941E0,2.432508945E0
1.665720770E0,1.551442742E0,-9.291896820E0,2.444479942E0
1.667736779E0,1.537077546E0,-9.299078941E0,2.442085743E0
1.669719249E0,1.517923832E0,-9.308655739E0,2.442085743E0
1.671733103E0,1.508347034E0,-9.308655739E0,2.439691544E0
1.673746651E0,1.484405041E0,-9.315838814E0,2.451662540E0
1.675731505E0,1.479616642E0,-9.294290543E0,2.480392933E0
1.677745128E0,1.484405041E0,-9.287108421E0,2.482787132E0
1.679729059E0,1.470039845E0,-9.284713745E0,2.485181332E0
1.681743837E0,1.438915253E0,-9.299078941E0,2.494758129E0
1.683726999E0,1.434126854E0,-9.315838814E0,2.499546528E0
1.685741084E0,1.412579060E0,-9.306262016E0,2.504334927E0
1.687725401E0,1.391031146E0,-9.282320023E0,2.499546528E0
1.689738947E0,1.388636947E0,-9.294290543E0,2.504334927E0
1.691722955E0,1.364694953E0,-9.308655739E0,2.506729126E0
1.693736580E0,1.347935557E0,-9.337387085E0,2.497152328E0
1.695720280E0,1.340752959E0,-9.327810287E0,2.497152328E0
1.697734980E0,1.300051570E0,-9.308655739E0,2.516305923E0
1.699718065E0,1.266532660E0,-9.299078941E0,2.523488522E0
1.701732613E0,1.225831270E0,-9.301473618E0,2.528276920E0
1.703746390E0,1.213860273E0,-9.306262016E0,2.573766708E0
1.705730398E0,1.201889277E0,-9.301473618E0,2.595314741E0
1.707744946E0,1.170764685E0,-9.299078941E0,2.631227732E0
1.709728030E0,1.139639974E0,-9.315838814E0,2.676717520E0
1.711740962E0,1.120486379E0,-9.315838814E0,2.710236311E0
1.713726739E0,1.101332784E0,-9.294290543E0,2.748543501E0
1.715739979E0,1.086967587E0,-9.294290543E0,2.750937700E0
1.717722756E0,1.086967587E0,-9.294290543E0,2.762908697E0
1.719737918E0,1.082179189E0,-9.303867340E0,2.784456491E0
1.721722233E0,1.077390790E0,-9.296685219E0,2.782062292E0
1.723735396E0,1.082179189E0,-9.299078941E0,2.779668093E0
1.725718866E0,1.091755986E0,-9.267954826E0,2.782062292E0
1.727734489E0,1.091755986E0,-9.270348549E0,2.786850691E0
1.729748114E0,1.086967587E0,-9.277531624E0,2.791639090E0
1.731731429E0,1.086967587E0,-9.244012833E0,2.789244890E0
1.733745591E0,1.089361787E0,-9.208099365E0,2.784456491E0
1.735728985E0,1.091755986E0,-9.191340446E0,2.786850691E0
1.737742608E0,1.098938584E0,-9.172186852E0,2.808398485E0
1.739726924E0,1.110909581E0,-9.153033257E0,2.827552319E0
1.741741932E0,1.113303781E0,-9.124302864E0,2.882618904E0
1.743724787E0,1.134851575E0,-9.131484985E0,2.930502892E0
1.745738641E0,1.161187768E0,-9.114726067E0,2.932897091E0
1.747722341E0,1.216254473E0,-9.114726067E0,2.918531895E0
1.749736735E0,1.283292055E0,-9.126696587E0,2.887407303E0
1.751719205E0,1.307234168E0,-9.126696587E0,2.877830505E0
1.753734059E0,1.355118155E0,-9.155426979E0,2.858676910E0
1.755748451E0,1.424550056E0,-9.157821655E0,2.856282711E0
1.757731922E0,1.443703651E0,-9.172186852E0,2.861071110E0
1.759746315E0,1.505952835E0,-9.176975250E0,2.885013103E0
1.761730323E0,1.563413739E0,-9.200917244E0,2.918531895E0
1.763743947E0,1.596932530E0,-9.212887764E0,2.930502892E0
1.765728263E0,1.642422318E0,-9.227252960E0,2.973598480E0
1.767742732E0,1.649604917E0,-9.234436035E0,3.004723072E0
1.769726125E0,1.683123827E0,-9.255983353E0,3.021482468E0
1.771739903E0,1.723825216E0,-9.291896820E0,3.057395458E0
1.773723680E0,1.740584612E0,-9.291896820E0,3.078943491E0
1.775738073E0,1.764526606E0,-9.315838814E0,3.114856482E0
1.777721466E0,1.800439715E0,-9.332598686E0,3.134010077E0
1.779735628E0,1.817199111E0,-9.337387085E0,3.134010077E0
1.781719636E0,1.826775908E0,-9.358934402E0,3.136404276E0
1.783733183E0,1.841141105E0,-9.399636269E0,3.172317266E0
1.785747423E0,1.865083098E0,-9.409213066E0,3.177105665E0
1.787731046E0,1.877054095E0,-9.452308655E0,3.181894064E0
1.789745592E0,1.889025092E0,-9.488221169E0,3.198653460E0
1.791728294E0,1.905784607E0,-9.504981041E0,3.203441858E0
1.793743379E0,1.922544003E0,-9.562441826E0,3.181894064E0
1.795727387E0,1.951274395E0,-9.615114212E0,3.157952070E0
1.797740087E0,1.956062794E0,-9.648633003E0,3.153163671E0
1.799725019E0,1.956062794E0,-9.694122314E0,3.141192675E0
1.801739489E0,1.958456993E0,-9.737217903E0,3.131615877E0
1.803722881E0,2.001552582E0,-9.756371498E0,3.126827478E0
1.805737044E0,2.013523579E0,-9.806650162E0,3.131615877E0
1.807720975E0,2.015917778E0,-9.823410034E0,3.126827478E0
1.809734214E0,2.030282974E0,-9.859322548E0,3.126827478E0
1.811748992E0,2.035071373E0,-9.885659218E0,3.117250681E0
1.813732154E0,2.037465572E0,-9.885659218E0,3.117250681E0
1.815746547E0,2.025494576E0,-9.907206535E0,3.102885485E0
1.817730016E0,2.018311977E0,-9.923966408E0,3.083731890E0
1.819744102E0,2.027888775E0,-9.931148529E0,3.083731890E0
1.821728418E0,2.039859772E0,-9.950302124E0,3.086126089E0
1.823742349E0,2.042253971E0,-9.947908401E0,3.081337690E0
1.825726049E0,2.042253971E0,-9.952696800E0,3.081337690E0
1.827740751E0,2.049436569E0,-9.964667320E0,3.088520288E0
1.829723605E0,2.066195965E0,-9.957485199E0,3.083731890E0
1.831736843E0,2.066195965E0,-9.947908401E0,3.083731890E0
1.833720776E0,2.078166962E0,-9.940725327E0,3.078943491E0
1.835735630E0,2.085349798E0,-9.940725327E0,3.090914488E0
1.837718945E0,2.099714994E0,-9.943120003E0,3.150769472E0
1.839732876E0,2.147598982E0,-9.943120003E0,3.227383852E0
1.841747347E0,2.164358377E0,-9.940725327E0,3.256114244E0
1.843731047E0,2.195482969E0,-9.935936928E0,3.277662039E0
1.845744901E0,2.255337954E0,-9.928754807E0,3.282450438E0
1.847729218E0,2.279279947E0,-9.928754807E0,3.277662039E0
1.849742995E0,2.341529369E0,-9.911994934E0,3.282450438E0
1.851727311E0,2.398990154E0,-9.876082420E0,3.294421434E0
1.853740936E0,2.425326347E0,-9.852140427E0,3.303998232E0
1.855724328E0,2.468421936E0,-9.852140427E0,3.306392431E0
1.857738721E0,2.494758129E0,-9.835380554E0,3.303998232E0
1.859722190E0,2.506729126E0,-9.828198433E0,3.303998232E0
1.861736969E0,2.547430515E0,-9.801861763E0,3.308786631E0
1.863720592E0,2.561795712E0,-9.763554573E0,3.277662039E0
1.865734215E0,2.600103140E0,-9.753977776E0,3.265691042E0
1.867749301E0,2.607285738E0,-9.713275909E0,3.248931646E0
1.869732078E0,2.614468336E0,-9.691728592E0,3.236960649E0
1.871745548E0,2.628833532E0,-9.653421402E0,3.232172251E0
1.873731094E0,2.640804529E0,-9.612719536E0,3.217807055E0
1.875744950E0,2.647987127E0,-9.593565941E0,3.217807055E0
1.877726881E0,2.662352324E0,-9.564835548E0,3.227383852E0
1.879741658E0,2.674323320E0,-9.526528358E0,3.220201254E0
1.881726512E0,2.669534922E0,-9.514557838E0,3.213018656E0
1.883739444E0,2.703053713E0,-9.478644371E0,3.220201254E0
1.885723145E0,2.729389906E0,-9.435548782E0,3.193865061E0
1.887738537E0,2.712630510E0,-9.404424667E0,3.191470861E0
1.889722008E0,2.726995707E0,-9.373299599E0,3.186682463E0
1.891735785E0,2.750937700E0,-9.325415611E0,3.179499865E0
1.893718947E0,2.746149302E0,-9.306262016E0,3.184288263E0
1.895733956E0,2.748543501E0,-9.282320023E0,3.169923067E0
1.897747271E0,2.767697096E0,-9.244012833E0,3.157952070E0
1.899730972E0,2.779668093E0,-9.224859238E0,3.153163671E0
1.901745364E0,2.765302896E0,-9.165003777E0,3.157952070E0
1.903729758E0,2.774879694E0,-9.148244858E0,3.153163671E0
1.905743535E0,2.782062292E0,-9.107542992E0,3.157952070E0
1.907727543E0,2.791639090E0,-9.078812599E0,3.162740469E0
1.909740783E0,2.796427488E0,-9.062053680E0,3.160346270E0
1.911724176E0,2.810792685E0,-9.004592896E0,3.172317266E0
1.913738107E0,2.815581083E0,-8.954314232E0,3.174711466E0
1.915723038E0,2.822763920E0,-8.942343712E0,3.167528868E0
1.917737124E0,2.820369720E0,-8.887276649E0,3.160346270E0
1.919720516E0,2.839523315E0,-8.846575737E0,3.162740469E0
1.921734678E0,2.839523315E0,-8.825027466E0,3.162740469E0
1.923748841E0,2.844311714E0,-8.813055992E0,3.172317266E0
1.925732234E0,2.837129116E0,-8.757989883E0,3.172317266E0
1.927747934E0,2.841917515E0,-8.729259491E0,3.162740469E0
1.929730096E0,2.858676910E0,-8.690952301E0,3.141192675E0
1.931744643E0,2.865859509E0,-8.669404030E0,3.143586874E0
1.933728036E0,2.844311714E0,-8.650250435E0,3.141192675E0
1.935742429E0,2.834734917E0,-8.616731644E0,3.143586874E0
1.937725898E0,2.825158119E0,-8.602366447E0,3.157952070E0
1.939739676E0,2.827552319E0,-8.580819130E0,3.191470861E0
1.941723761E0,2.815581083E0,-8.561665535E0,3.246537447E0
1.943737308E0,2.803610086E0,-8.542511940E0,3.260902643E0
1.945721317E0,2.803610086E0,-8.501810074E0,3.268085241E0
1.947736094E0,2.810792685E0,-8.487444878E0,3.256114244E0
1.949719794E0,2.806004286E0,-8.485051155E0,3.253720045E0
1.951732342E0,2.817975283E0,-8.458714485E0,3.241749048E0
1.953748350E0,2.827552319E0,-8.420407295E0,3.229778051E0
1.955730819E0,2.834734917E0,-8.408436775E0,3.210624456E0
1.957744673E0,2.837129116E0,-8.374917984E0,3.210624456E0
1.959728759E0,2.851494312E0,-8.348581314E0,3.203441858E0
1.961743152E0,2.849100113E0,-8.339004517E0,3.198653460E0
1.963726622E0,2.861071110E0,-8.305485725E0,3.186682463E0
1.965741015E0,2.870647907E0,-8.267178535E0,3.179499865E0
1.967725331E0,2.889801502E0,-8.238448143E0,3.169923067E0
1.969738647E0,2.885013103E0,-8.192957878E0,3.153163671E0
1.971723270E0,2.875436306E0,-8.166622162E0,3.143586874E0
1.973736740E0,2.873042107E0,-8.118738174E0,3.150769472E0
1.975720441E0,2.870647907E0,-8.087613106E0,3.160346270E0
1.977734064E0,2.875436306E0,-8.063671112E0,3.172317266E0
1.979748150E0,2.870647907E0,-8.015787125E0,3.169923067E0
1.981731850E0,2.873042107E0,-7.970297337E0,3.157952070E0
1.983746089E0,2.870647907E0,-7.955932140E0,3.153163671E0
1.985730020E0,2.844311714E0,-7.941566944E0,3.148375273E0
1.987744799E0,2.825158119E0,-7.917624950E0,3.131615877E0
1.989728576E0,2.825158119E0,-7.881711960E0,3.126827478E0
1.991741738E0,2.808398485E0,-7.850587368E0,3.124433279E0
1.993725516E0,2.774879694E0,-7.821856976E0,3.105279684E0
1.995739908E0,2.774879694E0,-7.805097580E0,3.095702887E0
1.997723609E0,2.762908697E0,-7.795520782E0,3.086126089E0
1.999737771E0,2.748543501E0,-7.788338184E0,3.086126089E0
2.001721857E0,2.731784105E0,-7.762001991E0,3.078943491E0
2.003735326E0,2.700659513E0,-7.721300602E0,3.083731890E0
2.005749488E0,2.686294317E0,-7.716512203E0,3.088520288E0
2.007734189E0,2.647987127E0,-7.716512203E0,3.074155092E0
2.009748274E0,2.631227732E0,-7.702147007E0,3.076549292E0
2.011731744E0,2.624045134E0,-7.685387611E0,3.074155092E0
2.013745521E0,2.607285738E0,-7.659051418E0,3.071760893E0
2.015728607E0,2.597708941E0,-7.668628216E0,3.069366693E0
2.017743461E0,2.588132143E0,-7.668628216E0,3.064578056E0
2.019726546E0,2.590526342E0,-7.663839817E0,3.052607059E0
2.021740709E0,2.557007313E0,-7.673416615E0,3.052607059E0
2.023724948E0,2.557007313E0,-7.678205013E0,3.059789658E0
2.025739109E0,2.552218914E0,-7.682993412E0,3.081337690E0
2.027723194E0,2.564189911E0,-7.699752808E0,3.074155092E0
2.029737357E0,2.576161146E0,-7.702147007E0,3.086126089E0
2.031719750E0,2.583343744E0,-7.706935406E0,3.098097086E0
2.033735142E0,2.573766708E0,-7.711723804E0,3.107673883E0
2.035749075E0,2.571372509E0,-7.733271599E0,3.114856482E0
2.037731467E0,2.583343744E0,-7.759607792E0,3.117250681E0
2.039746244E0,2.585737944E0,-7.771578789E0,3.119644880E0
2.041730560E0,2.585737944E0,-7.783549786E0,3.145981073E0
2.043744108E0,2.573766708E0,-7.790732384E0,3.172317266E0
2.045727577E0,2.571372509E0,-7.805097580E0,3.191470861E0
2.047742354E0,2.597708941E0,-7.829039574E0,3.217807055E0
2.049725363E0,2.619256735E0,-7.864952564E0,3.232172251E0
2.051740141E0,2.633621931E0,-7.869740963E0,3.232172251E0
2.053723610E0,2.645592928E0,-7.874529362E0,3.251325846E0
2.055738387E0,2.657563925E0,-7.922413349E0,3.265691042E0
2.057721396E0,2.657563925E0,-7.943961143E0,3.268085241E0
2.059735251E0,2.652775526E0,-7.972691536E0,3.268085241E0
2.061750028E0,2.662352324E0,-7.989450932E0,3.284844637E0
2.063733191E0,2.679111719E0,-7.987056732E0,3.294421434E0
2.065748276E0,2.681505919E0,-7.996633530E0,3.301604033E0
2.067732284E0,2.693476915E0,-8.013393402E0,3.306392431E0
2.069745754E0,2.698265314E0,-8.025363922E0,3.342305660E0
2.071728301E0,2.712630510E0,-8.058882713E0,3.361459255E0
2.073742770E0,2.717418909E0,-8.070854187E0,3.363853455E0
2.075726701E0,2.741360903E0,-8.094796181E0,3.359065056E0
2.077741479E0,2.758120298E0,-8.099584579E0,3.337517262E0
2.079724334E0,2.772485495E0,-8.101978302E0,3.337517262E0
2.081738726E0,2.794033289E0,-8.090007782E0,3.351882458E0
2.083723119E0,2.808398485E0,-8.118738174E0,3.394978046E0
2.085736051E0,2.815581083E0,-8.135497093E0,3.414131641E0
2.087720059E0,2.856282711E0,-8.140285492E0,3.438073635E0
2.089734452E0,2.873042107E0,-8.154650688E0,3.447650433E0
2.091749922E0,2.889801502E0,-8.157045364E0,3.454833031E0
2.093732315E0,2.935291290E0,-8.190564156E0,3.445256233E0
2.095746169E0,2.947262287E0,-8.221688271E0,3.435679436E0
2.097729869E0,2.973598480E0,-8.224082947E0,3.411737442E0
2.099744109E0,3.016694069E0,-8.231265068E0,3.409343243E0
2.101727502E0,3.038241863E0,-8.245630264E0,3.404554844E0
2.103742202E0,3.064578056E0,-8.271966934E0,3.416525841E0
2.105725672E0,3.093308687E0,-8.298302650E0,3.457227230E0
2.107740450E0,3.110068083E0,-8.310274124E0,3.476380825E0
2.109723227E0,3.136404276E0,-8.329427719E0,3.500322819E0
2.111737005E0,3.155557871E0,-8.358158112E0,3.543418407E0
2.113721629E0,3.162740469E0,-8.367734909E0,3.555389643E0
2.115735560E0,3.186682463E0,-8.382100105E0,3.564966440E0
2.117748798E0,3.203441858E0,-8.413225174E0,3.572149038E0
2.119733423E0,3.215412855E0,-8.434772491E0,3.581725836E0
2.121747815E0,3.260902643E0,-8.489839554E0,3.586514235E0
2.123731516E0,3.301604033E0,-8.520963669E0,3.586514235E0
2.125744755E0,3.323152065E0,-8.537723541E0,3.591302633E0
2.127729379E0,3.361459255E0,-8.576030731E0,3.632004023E0
2.129743310E0,3.397372246E0,-8.599972725E0,3.648763418E0
2.131727010E0,3.442862034E0,-8.635885239E0,3.672705412E0
2.133740173E0,3.502717018E0,-8.650250435E0,3.663128614E0
2.135723950E0,3.505111217E0,-8.664615631E0,3.660734415E0
2.137738035E0,3.531447411E0,-8.686163902E0,3.653551817E0
2.139722120E0,3.562572241E0,-8.710105896E0,3.612850428E0
2.141736283E0,3.574543238E0,-8.714894295E0,3.596091032E0
2.143720214E0,3.572149038E0,-8.714894295E0,3.579331636E0
2.145734145E0,3.567360640E0,-8.714894295E0,3.584120035E0
2.147749847E0,3.567360640E0,-8.717288017E0,3.588908434E0
2.149731931E0,3.548206806E0,-8.712499619E0,3.617638826E0
2.151745170E0,3.531447411E0,-8.729259491E0,3.629609823E0
2.153729564E0,3.524264812E0,-8.734047890E0,3.648763418E0
2.155744341E0,3.509899616E0,-8.731653214E0,3.651157618E0
2.157727657E0,3.507505417E0,-8.757989883E0,3.622427225E0
2.159741819E0,3.502717018E0,-8.781931877E0,3.603273630E0
2.161725520E0,3.514688015E0,-8.810662270E0,3.560178041E0
2.163739143E0,3.521870613E0,-8.822632790E0,3.541024208E0
2.165723074E0,3.529053211E0,-8.841787338E0,3.490746021E0
2.167737930E0,3.581725836E0,-8.870517731E0,3.469198227E0
2.169721245E0,3.603273630E0,-8.884882927E0,3.462015629E0
2.171735715E0,3.639186621E0,-8.896853447E0,3.447650433E0
2.173749338E0,3.653551817E0,-8.918401718E0,3.464409828E0
2.175733655E0,3.667917013E0,-8.925583839E0,3.473986626E0
2.177747201E0,3.696647406E0,-8.961497307E0,3.497928619E0
2.179731440E0,3.694253206E0,-8.973467827E0,3.500322819E0
2.181745372E0,3.703830004E0,-8.968679428E0,3.497928619E0
2.183729919E0,3.675099611E0,-8.973467827E0,3.495534420E0
2.185742927E0,3.667917013E0,-8.985439301E0,3.507505417E0
2.187728165E0,3.655946016E0,-8.995016098E0,3.509899616E0
2.189741021E0,3.634398222E0,-9.002198219E0,3.509899616E0
2.191723875E0,3.610456228E0,-8.992621422E0,3.519476414E0
2.193739498E0,3.588908434E0,-8.985439301E0,3.538630009E0
2.195723276E0,3.572149038E0,-8.978256226E0,3.584120035E0
2.197735900E0,3.564966440E0,-8.990227699E0,3.598485231E0
2.199750908E0,3.564966440E0,-8.963891029E0,3.660734415E0
2.201734608E0,3.560178041E0,-8.951920509E0,3.708618402E0
2.203748771E0,3.564966440E0,-8.944737434E0,3.727771997E0
2.205732164E0,3.579331636E0,-8.930372238E0,3.766079187E0
2.207746941E0,3.584120035E0,-8.923190117E0,3.809175014E0
2.209730334E0,3.579331636E0,-8.916007042E0,3.830722809E0
2.211744573E0,3.591302633E0,-8.892065048E0,3.857059002E0
2.213728197E0,3.574543238E0,-8.882488251E0,3.873818398E0
2.215742128E0,3.572149038E0,-8.865729332E0,3.895366192E0
2.217725521E0,3.576937437E0,-8.841787338E0,3.943250179E0
2.219739991E0,3.576937437E0,-8.829815865E0,4.005499363E0
2.221723076E0,3.576937437E0,-8.832210541E0,4.043806553E0
2.223737777E0,3.610456228E0,-8.813055992E0,4.110844135E0
2.225721554E0,3.615244627E0,-8.791508675E0,4.137180328E0
2.227735639E0,3.632004023E0,-8.784325600E0,4.187458992E0
2.229748879E0,3.646369219E0,-8.765172005E0,4.216189384E0
2.231732272E0,3.641580820E0,-8.762778282E0,4.213795185E0
2.233746818E0,3.636792421E0,-8.757989883E0,4.244919777E0
2.235730211E0,3.641580820E0,-8.750806808E0,4.264073372E0
2.237744989E0,3.641580820E0,-8.753201485E0,4.268861771E0
2.239729612E0,3.639186621E0,-8.743624687E0,4.290409565E0
2.241743159E0,3.622427225E0,-8.753201485E0,4.311957359E0
2.243726551E0,3.605667830E0,-8.738836288E0,4.328716755E0
2.245741022E0,3.610456228E0,-8.729259491E0,4.359841347E0
2.247726261E0,3.612850428E0,-8.731653214E0,4.371812344E0
2.249739423E0,3.612850428E0,-8.712499619E0,4.367023945E0
2.251723509E0,3.627215624E0,-8.686163902E0,4.340687752E0
2.253736440E0,3.634398222E0,-8.690952301E0,4.323928356E0
2.255750832E0,3.636792421E0,-8.686163902E0,4.311957359E0
2.257733917E0,3.648763418E0,-8.647856712E0,4.297592163E0
2.259748772E0,3.648763418E0,-8.640673637E0,4.283226967E0
2.261732703E0,3.660734415E0,-8.643068314E0,4.244919777E0
2.263746019E0,3.699041605E0,-8.595184326E0,4.197035789E0
2.265729951E0,3.699041605E0,-8.580819130E0,4.180276394E0
2.267745421E0,3.689464808E0,-8.554482460E0,4.158728123E0
2.269727890E0,3.675099611E0,-8.542511940E0,4.151545525E0
2.271741129E0,3.670311213E0,-8.532935143E0,4.153939724E0
2.273725753E0,3.667917013E0,-8.523358345E0,4.149151325E0
2.275740531E0,3.655946016E0,-8.518569946E0,4.132391930E0
2.277722385E0,3.658340216E0,-8.520963669E0,4.120420933E0
2.279737394E0,3.665522814E0,-8.492233276E0,4.120420933E0
2.281722094E0,3.672705412E0,-8.477868080E0,4.101267338E0
2.283736256E0,3.675099611E0,-8.461109161E0,4.091690540E0
2.285749419E0,3.699041605E0,-8.446743965E0,4.067748547E0
2.287734042E0,3.722983599E0,-8.446743965E0,4.053383350E0
2.289747589E0,3.725377798E0,-8.439560890E0,4.050989151E0
2.291731366E0,3.751713991E0,-8.415618896E0,4.058171749E0
2.293745836E0,3.768473387E0,-8.413225174E0,4.067748547E0
2.295729152E0,3.794809580E0,-8.396465302E0,4.082113743E0
2.297742468E0,3.828328609E0,-8.386888504E0,4.089296341E0
2.299727014E0,3.845088005E0,-8.382100105E0,4.086902142E0
2.301741177E0,3.876212597E0,-8.372523308E0,4.098873138E0
2.303723724E0,3.902548790E0,-8.372523308E0,4.139574528E0
2.305738809E0,3.914519787E0,-8.365341187E0,4.170699596E0
2.307722818E0,3.955221176E0,-8.367734909E0,4.197035789E0
2.309736364E0,4.043806553E0,-8.379706383E0,4.151545525E0
2.311747064E0,4.082113743E0,-8.384494781E0,4.141968727E0
2.313734458E0,4.161122322E0,-8.370129585E0,4.158728123E0
2.315748312E0,4.271255970E0,-8.391676903E0,4.209006786E0
2.317732089E0,4.314351559E0,-8.408436775E0,4.240131378E0
2.319745944E0,4.410119534E0,-8.441955566E0,4.259284973E0
2.321729645E0,4.462791920E0,-8.456320763E0,4.271255970E0
2.323744653E0,4.553771496E0,-8.465897560E0,4.271255970E0
2.325728122E0,4.630385876E0,-8.487444878E0,4.261679173E0
2.327742593E0,4.666299343E0,-8.516175270E0,4.256890774E0
2.329725909E0,4.742913723E0,-8.564059258E0,4.254496574E0
2.331740070E0,4.802768707E0,-8.592789650E0,4.288015366E0
2.333723540E0,4.826710701E0,-8.614337921E0,4.309563160E0
2.335737011E0,4.903325081E0,-8.643068314E0,4.328716755E0
2.337721403E0,4.972756863E0,-8.683769226E0,4.331110954E0
2.339734642E0,4.999093056E0,-8.698134422E0,4.326322556E0
2.341749728E0,5.063736439E0,-8.717288017E0,4.311957359E0
2.343733044E0,5.111620426E0,-8.738836288E0,4.280832767E0
2.345746975E0,5.145139217E0,-8.743624687E0,4.264073372E0
2.347732444E0,5.214571476E0,-8.762778282E0,4.254496574E0
2.349745992E0,5.288791656E0,-8.779537201E0,4.261679173E0
2.351728461E0,5.322310448E0,-8.808267593E0,4.271255970E0
2.353742931E0,5.418078423E0,-8.841787338E0,4.259284973E0
2.355726939E0,5.465962410E0,-8.868123055E0,4.230554581E0
2.357740563E0,5.571307182E0,-8.884882927E0,4.170699596E0
2.359724494E0,5.669469833E0,-8.932766914E0,4.118026733E0
2.361738425E0,5.717353821E0,-8.951920509E0,4.103661537E0
2.363722434E0,5.791574001E0,-8.992621422E0,4.072536945E0
2.365735596E0,5.870582581E0,-9.016563416E0,4.029441357E0
2.367751604E0,5.908889771E0,-9.028534889E0,4.010287762E0
2.369734152E0,5.963956356E0,-9.047688484E0,3.960009575E0
2.371749160E0,5.999869347E0,-9.076418877E0,3.907337189E0
2.373732014E0,6.011840343E0,-9.083600998E0,3.878606796E0
2.375746176E0,6.026205540E0,-9.083600998E0,3.835511208E0
2.377729877E0,6.045359135E0,-9.083600998E0,3.821146011E0
2.379744347E0,6.035782337E0,-9.081207275E0,3.828328609E0
2.381727739E0,6.038176537E0,-9.069235802E0,3.890577793E0
2.383741825E0,6.069301128E0,-9.052476883E0,4.053383350E0
2.385725525E0,6.105214119E0,-9.050082207E0,4.141968727E0
2.387740303E0,6.217741966E0,-9.057265282E0,4.283226967E0
2.389723772E0,6.291962147E0,-9.071630478E0,4.304774761E0
2.391733858E0,6.464344501E0,-9.097966194E0,4.266467571E0
2.393750789E0,6.651092529E0,-9.136273384E0,4.156333923E0
2.395735720E0,6.744466305E0,-9.153033257E0,4.091690540E0
2.397749883E0,6.995857239E0,-9.172186852E0,3.974374771E0
2.399732660E0,7.235277653E0,-9.198522568E0,3.876212597E0
2.401747515E0,7.352593422E0,-9.198522568E0,3.854664803E0
2.403731830E0,7.580042362E0,-9.210494041E0,3.828328609E0
2.405745608E0,7.821856976E0,-9.229647636E0,3.840299606E0
2.407729693E0,7.934384346E0,-9.227252960E0,3.852270603E0
2.409742855E0,8.123526573E0,-9.229647636E0,3.854664803E0
2.411726326E0,8.324639320E0,-9.215282440E0,3.852270603E0
2.413740488E0,8.420407295E0,-9.198522568E0,3.845088005E0
2.415724496E0,8.590395927E0,-9.162610054E0,3.833117008E0
2.417739196E0,8.724471092E0,-9.114726067E0,3.823540211E0
2.419721974E0,8.793902397E0,-9.095572472E0,3.828328609E0
2.421736444E0,8.904036522E0,-9.047688484E0,3.840299606E0
2.423750375E0,8.949525833E0,-9.006986618E0,3.852270603E0
2.425734615E0,9.028534889E0,-8.973467827E0,3.869029999E0
2.427749699E0,9.102754593E0,-8.925583839E0,3.916913986E0
2.429731938E0,9.119514465E0,-8.906430244E0,3.943250179E0
2.431745485E0,9.160215378E0,-8.856152534E0,4.007893562E0
2.433730955E0,9.198522568E0,-8.834604263E0,4.070142746E0
2.435744502E0,9.205705643E0,-8.822632790E0,4.094084740E0
2.437727356E0,9.212887764E0,-8.801085472E0,4.153939724E0
2.439742365E0,9.200917244E0,-8.781931877E0,4.209006786E0
2.441726450E0,9.181763649E0,-8.781931877E0,4.235342979E0
2.443739919E0,9.143456459E0,-8.769960403E0,4.307168961E0
2.445722774E0,9.083600998E0,-8.772355080E0,4.369418144E0
2.447737783E0,9.038111687E0,-8.779537201E0,4.402936935E0
2.449720944E0,8.942343712E0,-8.777143478E0,4.455609322E0
2.451735414E0,8.894459724E0,-8.760383606E0,4.493916512E0
2.453748961E0,8.772355080E0,-8.734047890E0,4.532223701E0
2.455732969E0,8.614337921E0,-8.705317497E0,4.601655483E0
2.457747054E0,8.542511940E0,-8.678980827E0,4.627991676E0
2.459731447E0,8.396465302E0,-8.652645111E0,4.673481941E0
2.461745302E0,8.259995461E0,-8.611943245E0,4.714183331E0
2.463728618E0,8.190564156E0,-8.588001251E0,4.735731125E0
2.465742780E0,8.068459511E0,-8.544905663E0,4.754884720E0
2.467727404E0,7.943961143E0,-8.497021675E0,4.771644115E0
2.469740720E0,7.884106159E0,-8.470685959E0,4.774038315E0
2.471723728E0,7.797914982E0,-8.403648376E0,4.793191910E0
2.473737890E0,7.692570210E0,-8.339004517E0,4.838681698E0
2.475722206E0,7.654263020E0,-8.303091049E0,4.860229492E0
2.477736137E0,7.580042362E0,-8.259995461E0,4.900930882E0
2.479750607E0,7.529764175E0,-8.209717751E0,4.944026470E0
2.481734308E0,7.515398979E0,-8.197746277E0,4.951209068E0
2.483749009E0,7.496245384E0,-8.157045364E0,4.946420670E0
2.485731555E0,7.477091789E0,-8.133103371E0,4.972756863E0
2.487746333E0,7.448361397E0,-8.121131897E0,4.987122059E0
2.489730572E0,7.448361397E0,-8.075642586E0,5.035006046E0
2.491744811E0,7.465120792E0,-8.070854187E0,5.051765442E0
2.493727588E0,7.505822182E0,-8.075642586E0,5.025429249E0
2.495741751E0,7.546523571E0,-8.049305916E0,4.936843872E0
2.497725374E0,7.568071365E0,-8.046912193E0,4.891354084E0
2.499739536E0,7.639897823E0,-8.049305916E0,4.838681698E0
2.501723544E0,7.706935406E0,-8.030152321E0,4.797980309E0
2.503736784E0,7.750030994E0,-8.013393402E0,4.771644115E0
2.505752177E0,7.819462776E0,-7.984662533E0,4.680664539E0
2.507736261E0,7.864952564E0,-7.953537941E0,4.572925091E0
2.509749501E0,7.898471355E0,-7.941566944E0,4.527435303E0
2.511732817E0,7.963114738E0,-7.898471355E0,4.450820923E0
2.513748286E0,8.001421928E0,-7.852981567E0,4.412513733E0
2.515731064E0,8.018181801E0,-7.819462776E0,4.388571739E0
2.517744303E0,8.049305916E0,-7.773972988E0,4.345476151E0
2.519728927E0,8.078036308E0,-7.709329605E0,4.321534157E0
2.521743704E0,8.130708694E0,-7.685387611E0,4.261679173E0
2.523726405E0,8.192957878E0,-7.632715225E0,4.204218388E0
2.525741260E0,8.214506149E0,-7.613561630E0,4.173093796E0
2.527725883E0,8.257601738E0,-7.541735172E0,4.122815132E0
2.529738815E0,8.315062523E0,-7.496245384E0,4.084507942E0
2.531722515E0,8.329427719E0,-7.472303391E0,4.072536945E0
2.533736062E0,8.367734909E0,-7.410054207E0,4.048594952E0
2.535751070E0,8.415618896E0,-7.357381821E0,4.024652958E0
2.537734540E0,8.427590370E0,-7.321468830E0,4.010287762E0
2.539747779E0,8.473079681E0,-7.259219646E0,3.960009575E0
2.541732403E0,8.511386871E0,-7.184999466E0,3.907337189E0
2.543745950E0,8.528146744E0,-7.144298077E0,3.890577793E0
2.545729881E0,8.554482460E0,-7.082048416E0,3.864241600E0
2.547745043E0,8.611943245E0,-7.017405033E0,3.849876404E0
2.549728359E0,8.638279915E0,-6.983886242E0,3.854664803E0
2.551740983E0,8.710105896E0,-6.916848660E0,3.866635799E0
2.553724760E0,8.738836288E0,-6.885724068E0,3.871424198E0
2.555740153E0,8.803479195E0,-6.849811077E0,3.876212597E0
2.557723238E0,8.880094528E0,-6.799532890E0,3.902548790E0
2.559737708E0,8.923190117E0,-6.754043102E0,3.912125587E0
2.561752101E0,8.997409821E0,-6.694188118E0,3.921702385E0
2.563735186E0,9.054870605E0,-6.622362137E0,3.981557369E0
2.565749656E0,9.078812599E0,-6.591237068E0,4.010287762E0
2.567733741E0,9.136273384E0,-6.536170483E0,4.079719543E0
2.569747288E0,9.172186852E0,-6.476315498E0,4.125209332E0
2.571731912E0,9.179368973E0,-6.442796707E0,4.139574528E0
2.573744536E0,9.227252960E0,-6.368576527E0,4.161122322E0
2.575728774E0,9.265560150E0,-6.294356346E0,4.185064793E0
2.577742705E0,9.289502144E0,-6.258443356E0,4.204218388E0
2.579726330E0,9.330204010E0,-6.191405773E0,4.237737179E0
2.581741722E0,9.387664795E0,-6.129156113E0,4.185064793E0
2.583725115E0,9.425971985E0,-6.093243122E0,4.144362926E0
2.585738739E0,9.483432770E0,-6.040570736E0,4.053383350E0
2.587722978E0,9.528923035E0,-6.016628742E0,4.007893562E0
2.589736294E0,9.607931137E0,-5.959167957E0,3.955221176E0
2.591750764E0,9.689333916E0,-5.894524574E0,3.897760391E0
2.593734465E0,9.720458984E0,-5.872976780E0,3.852270603E0
2.595748857E0,9.777919769E0,-5.829881191E0,3.775655985E0
2.597731327E0,9.823410034E0,-5.767632008E0,3.711012602E0
2.599745567E0,9.837775230E0,-5.738901615E0,3.663128614E0
2.601730190E0,9.859322548E0,-5.674258232E0,3.588908434E0
2.603743967E0,9.876082420E0,-5.619191170E0,3.512293816E0
2.605727129E0,9.880870819E0,-5.578489780E0,3.485957623E0
2.607742754E0,9.876082420E0,-5.516240597E0,3.428496838E0
2.609726454E0,9.878476143E0,-5.444414616E0,3.387795448E0
2.611740693E0,9.885659218E0,-5.401319027E0,3.373430252E0
2.613723086E0,9.885659218E0,-5.315127850E0,3.323152065E0
2.615737633E0,9.907206535E0,-5.238513470E0,3.263296843E0
2.617751179E0,9.926360130E0,-5.216965675E0,3.229778051E0
2.619734572E0,9.962273598E0,-5.164293289E0,3.162740469E0
2.621749581E0,9.979032516E0,-5.130774021E0,3.131615877E0
2.623733050E0,9.998186111E0,-5.042188644E0,3.081337690E0
2.625747520E0,1.001494598E1,-4.991910458E0,3.047818661E0
2.627731837E0,1.003409958E1,-4.967968464E0,3.035847664E0
2.629745691E0,1.007958889E1,-4.908113480E0,2.999934673E0
2.631728468E0,1.009634876E1,-4.836287498E0,2.983175278E0
2.633742553E0,1.009634876E1,-4.805162907E0,2.973598480E0
2.635726947E0,1.010353088E1,-4.733336926E0,2.947262287E0
2.637740801E0,1.009395409E1,-4.668693542E0,2.896984100E0
2.639724501E0,1.008916569E1,-4.625597477E0,2.865859509E0
2.641738972E0,1.008677197E1,-4.534617901E0,2.839523315E0
2.643722057E0,1.006761837E1,-4.446032524E0,2.806004286E0
2.645736141E0,1.006282997E1,-4.395754337E0,2.782062292E0
2.647750689E0,1.004846478E1,-4.285621166E0,2.748543501E0
2.649734312E0,1.003888798E1,-4.185064793E0,2.741360903E0
2.651749397E0,1.000776291E1,-4.127603531E0,2.683900118E0
2.653731251E0,9.991003990E0,-4.027047157E0,2.640804529E0
2.655746030E0,9.974244118E0,-3.976768970E0,2.626439333E0
2.657730115E0,9.938331604E0,-3.876212597E0,2.631227732E0
2.659743969E0,9.909601212E0,-3.756502390E0,2.636016130E0
2.661728284E0,9.900024414E0,-3.701435804E0,2.628833532E0
2.663742370E0,9.904812813E0,-3.620033026E0,2.592920542E0
2.665725763E0,9.931148529E0,-3.526659012E0,2.557007313E0
2.667740848E0,9.943120003E0,-3.478775024E0,2.542642117E0
2.669723395E0,9.976638794E0,-3.416525841E0,2.528276920E0
2.671737173E0,1.003409958E1,-3.306392431E0,2.477998734E0
2.673751950E0,1.004846478E1,-3.260902643E0,2.454056740E0
2.675735342E0,1.010831928E1,-3.172317266E0,2.396595955E0
2.677748351E0,1.015620327E1,-3.086126089E0,2.353500366E0
2.679733206E0,1.018972206E1,-3.028665066E0,2.343923569E0
2.681747675E0,1.026154804E1,-2.928108692E0,2.322375536E0
2.683731376E0,1.029985619E1,-2.873042107E0,2.317587137E0
2.685744615E0,1.032379818E1,-2.741360903E0,2.279279947E0
2.687729316E0,1.033337498E1,-2.628833532E0,2.279279947E0
2.689743094E0,1.034534550E1,-2.552218914E0,2.279279947E0
2.691726486E0,1.036689377E1,-2.403778553E0,2.276885748E0
2.693741264E0,1.039083576E1,-2.245761156E0,2.286462545E0
2.695724964E0,1.037886429E1,-2.181117773E0,2.291250944E0
2.697738281E0,1.035971069E1,-2.039859772E0,2.310404539E0
2.699752135E0,1.037407589E1,-1.912967205E0,2.322375536E0
2.701736681E0,1.039083576E1,-1.845929503E0,2.324769735E0
2.703750844E0,1.038604736E1,-1.721431017E0,2.327163935E0
2.705733698E0,1.037168217E1,-1.596932530E0,2.324769735E0
2.707749091E0,1.035013390E1,-1.529894829E0,2.327163935E0
2.709732176E0,1.029506683E1,-1.460463047E0,2.238578558E0
2.711742569E0,1.027112484E1,-1.288080573E0,2.257732153E0
2.713729731E0,1.026394272E1,-1.221042871E0,2.379836559E0
2.715744124E0,1.018493366E1,-1.151610970E0,2.501940727E0
2.717727517E0,1.017056847E1,-1.098938584E0,2.509123325E0
2.719742064E0,1.017296314E1,-1.007958889E0,2.420537949E0
2.721725687E0,1.017296314E1,-9.241618514E-1,2.358288765E0
2.723739003E0,1.016578007E1,-8.834604025E-1,2.351106167E0
2.725723320E0,1.016817474E1,-8.188169599E-1,2.336740971E0
2.727738020E0,1.018732834E1,-7.493851185E-1,2.317587137E0
2.729751951E0,1.018014526E1,-7.254431248E-1,2.308010340E0
2.731735267E0,1.016578007E1,-6.607996821E-1,2.250549555E0
2.733749122E0,1.017775154E1,-6.200982332E-1,2.195482969E0
2.735733207E0,1.017296314E1,-5.937620401E-1,2.159569979E0
2.737747292E0,1.017056847E1,-5.578489900E-1,2.094926596E0
2.739730147E0,1.016099167E1,-5.051765442E-1,2.039859772E0
2.741745155E0,1.012986755E1,-4.860229492E-1,2.025494576E0
2.743728548E0,1.007240677E1,-4.237737060E-1,1.994369984E0
2.745743018E0,1.004607010E1,-3.591302633E-1,1.960851192E0
2.747727719E0,9.976638794E0,-3.327940404E-1,1.946485996E0
2.749740650E0,9.888052940E0,-2.585737705E-1,1.905784607E0
2.751723965E0,9.856928825E0,-2.226607651E-1,1.889025092E0
2.753739436E0,9.765948296E0,-1.580173075E-1,1.886630893E0
2.755723059E0,9.660603523E0,-9.337386489E-2,1.889025092E0
2.757735683E0,9.603142738E0,-5.746084079E-2,1.884236693E0
2.759751461E0,9.476250648E0,1.675941236E-2,1.874659896E0
2.761734777E0,9.358934402E0,9.576806426E-2,1.881842494E0
2.763748400E0,9.303867340E0,1.484405100E-1,1.874659896E0
2.765732946E0,9.210494041E0,2.370259613E-1,1.845929503E0
2.767746571E0,9.131484985E0,3.256114423E-1,1.793257117E0
2.769729656E0,9.097966194E0,3.639186621E-1,1.762132406E0
2.771744433E0,9.050082207E0,4.477157295E-1,1.714248419E0
2.773728056E0,9.021351814E0,5.267243981E-1,1.673547029E0
2.775741604E0,8.995016098E0,5.698199868E-1,1.656787634E0
2.777725612E0,8.956708908E0,6.584054828E-1,1.649604917E0
2.779739774E0,8.920795441E0,7.374141216E-1,1.649604917E0
2.781723244E0,8.882488251E0,7.805097699E-1,1.647210717E0
2.783737098E0,8.810662270E0,8.667010069E-1,1.637633920E0
2.785752183E0,8.772355080E0,9.026140571E-1,1.616086125E0
2.787736500E0,8.719682693E0,9.888052940E-1,1.575384736E0
2.789750277E0,8.652645111E0,1.072602391E0,1.510741234E0
2.791732439E0,8.623914719E0,1.108515382E0,1.482010841E0
2.793746909E0,8.559270859E0,1.165976286E0,1.438915253E0
2.795730072E0,8.513781548E0,1.240196466E0,1.417367458E0
2.797744849E0,8.477868080E0,1.278503656E0,1.414973259E0
2.799729088E0,8.410830498E0,1.343147159E0,1.419761658E0
2.801743250E0,8.350975990E0,1.410184860E0,1.417367458E0
2.803726335E0,8.315062523E0,1.443703651E0,1.403002143E0
2.805740882E0,8.245630264E0,1.493981838E0,1.371877551E0
2.807724505E0,8.161833763E0,1.544260144E0,1.347935557E0
2.809738437E0,8.133103371E0,1.568202138E0,1.335964561E0
2.811752907E0,8.075642586E0,1.620874524E0,1.326387763E0
2.813736299E0,8.039729118E0,1.690306425E0,1.323993564E0
2.815750770E0,7.982268333E0,1.719036818E0,1.304839969E0
2.817734086E0,7.915230751E0,1.774103403E0,1.297657371E0
2.819747940E0,7.881711960E0,1.800439715E0,1.288080573E0
2.821732256E0,7.826645374E0,1.848323703E0,1.273715258E0
2.823746418E0,7.754819393E0,1.939303398E0,1.288080573E0
2.825729273E0,7.721300602E0,1.980004787E0,1.292868972E0
2.827745511E0,7.654263020E0,2.054224968E0,1.295263171E0
2.829727751E0,7.587224960E0,2.128445387E0,1.321599364E0
2.831741528E0,7.558494568E0,2.154781580E0,1.335964561E0
2.833725306E0,7.472303391E0,2.252943754E0,1.362300754E0
2.835739775E0,7.422025204E0,2.319981337E0,1.347935557E0
2.837722784E0,7.398083210E0,2.355894566E0,1.340752959E0
2.839738254E0,7.343016624E0,2.449268341E0,1.319205165E0
2.841752646E0,7.302315235E0,2.542642117E0,1.331176162E0
2.843735194E0,7.287950039E0,2.573766708E0,1.338358760E0
2.845748971E0,7.275979042E0,2.612074137E0,1.357512355E0
2.847733979E0,7.275979042E0,2.643198729E0,1.355118155E0
2.849747218E0,7.268796444E0,2.712630510E0,1.355118155E0
2.851731458E0,7.275979042E0,2.746149302E0,1.359906554E0
2.853745312E0,7.283161640E0,2.762908697E0,1.357512355E0
2.855729627E0,7.271190643E0,2.827552319E0,1.369483352E0
2.857742944E0,7.283161640E0,2.877830505E0,1.386242747E0
2.859726260E0,7.302315235E0,2.894589901E0,1.388636947E0
2.861741037E0,7.338228226E0,2.928108692E0,1.386242747E0
2.863724507E0,7.366958618E0,2.964021683E0,1.398213744E0
2.865738285E0,7.366958618E0,2.983175278E0,1.386242747E0
2.867754062E0,7.398083210E0,3.021482468E0,1.350329757E0
2.869736532E0,7.460332394E0,3.066972494E0,1.352723956E0
2.871749464E0,7.477091789E0,3.095702887E0,1.350329757E0
2.873734010E0,7.529764175E0,3.155557871E0,1.319205165E0
2.875748249E0,7.572859764E0,3.208230257E0,1.285686255E0
2.877731565E0,7.589619160E0,3.236960649E0,1.266532660E0
2.879746112E0,7.639897823E0,3.315969467E0,1.225831270E0
2.881729812E0,7.675810814E0,3.359065056E0,1.199495077E0
2.883743974E0,7.735665798E0,3.433285236E0,1.154005170E0
2.885727906E0,7.781155586E0,3.519476414E0,1.063025594E0
2.887742760E0,7.800309181E0,3.564966440E0,1.022324085E0
2.889725538E0,7.852981567E0,3.641580820E0,9.457096457E-1
2.891739930E0,7.896077156E0,3.715801001E0,8.906430602E-1
2.893723324E0,7.922413349E0,3.763684988E0,8.571242094E-1
2.895736947E0,7.994239330E0,3.852270603E0,7.900865674E-1
2.897751725E0,8.046912193E0,3.912125587E0,7.541735172E-1
2.899735349E0,8.078036308E0,3.952826977E0,7.350199223E-1
2.901749280E0,8.116343498E0,4.027047157E0,6.655880809E-1
2.903732903E0,8.142680168E0,4.067748547E0,6.272808313E-1
2.905747374E0,8.154650688E0,4.096478939E0,6.081272364E-1
2.907731690E0,8.152256966E0,4.158728123E0,5.602431893E-1
2.909744928E0,8.145073891E0,4.223371983E0,5.315127969E-1
2.911728398E0,8.113949776E0,4.249708176E0,5.315127969E-1
2.913743099E0,8.068459511E0,4.295197964E0,5.363011956E-1
2.915727415E0,8.032546997E0,4.319139957E0,5.410895944E-1
2.917740115E0,7.927201748E0,4.381389141E0,5.339069963E-1
2.919724662E0,7.833827972E0,4.422090530E0,5.171475410E-1
2.921739209E0,7.778761387E0,4.436455727E0,5.147533417E-1
2.923752756E0,7.668628216E0,4.486733913E0,4.955997467E-1
2.925736148E0,7.570465565E0,4.527435303E0,4.812345505E-1
2.927752080E0,7.524975777E0,4.532223701E0,4.812345505E-1
2.929733935E0,7.436390400E0,4.553771496E0,4.668693244E-1
2.931749019E0,7.338228226E0,4.613626480E0,4.932055473E-1
2.933731874E0,7.280767441E0,4.620809078E0,5.051765442E-1
2.935746344E0,7.184999466E0,4.639962673E0,5.291185975E-1
2.937729660E0,7.067683220E0,4.668693542E0,5.482721925E-1
2.939743822E0,7.012616634E0,4.685452938E0,5.674257874E-1
2.941727523E0,6.909666061E0,4.699818134E0,5.985504389E-1
2.943742069E0,6.864176273E0,4.723760128E0,6.200982332E-1
2.945724847E0,6.773196697E0,4.738125324E0,6.727706790E-1
2.947740548E0,6.658275127E0,4.752490520E0,7.254431248E-1
2.949722941E0,6.603208065E0,4.762067318E0,7.350199223E-1
2.951734410E0,6.469132900E0,4.788403511E0,7.422025204E-1
2.953750957E0,6.361393929E0,4.821922302E0,7.493851185E-1
2.955735658E0,6.313509941E0,4.821922302E0,7.661445141E-1
2.957749204E0,6.212953568E0,4.821922302E0,8.212111592E-1
2.959732828E0,6.088454723E0,4.850652695E0,8.786720037E-1
2.961747298E0,6.040570736E0,4.850652695E0,9.121908545E-1
2.963731691E0,5.916072369E0,4.850652695E0,9.552865028E-1
2.965745237E0,5.791574001E0,4.867412090E0,9.888052940E-1
2.967730169E0,5.719748020E0,4.865017891E0,1.003170490E0
2.969743101E0,5.566518784E0,4.898536682E0,1.043871999E0
2.971727339E0,5.420472622E0,4.929661274E0,1.084573388E0
2.973740963E0,5.353435040E0,4.941632271E0,1.106121182E0
2.975724355E0,5.236119270E0,4.963180065E0,1.130063176E0
2.977738211E0,5.183446884E0,4.987122059E0,1.139639974E0
2.979752988E0,5.078101635E0,5.030217648E0,1.149216771E0
2.981736611E0,5.020640850E0,5.066130638E0,1.137245774E0
2.983751082E0,4.987122059E0,5.085284233E0,1.134851575E0
2.985734782E0,4.934449673E0,5.106832027E0,1.125274777E0
2.987749329E0,4.903325081E0,5.147533417E0,1.115697980E0
2.989732107E0,4.896142483E0,5.154716492E0,1.113303781E0
2.991745576E0,4.910507679E0,5.181052685E0,1.115697980E0
2.993730507E0,4.932055473E0,5.202600479E0,1.134851575E0
2.995744131E0,4.948814869E0,5.226542473E0,1.142034173E0
2.997726909E0,4.953603268E0,5.248090267E0,1.180341482E0
2.999741994E0,4.948814869E0,5.274426460E0,1.204283476E0
3.001725310E0,4.941632271E0,5.291185856E0,1.211466074E0
3.003739472E0,4.924872875E0,5.334281445E0,1.249773264E0
3.005753711E0,4.900930882E0,5.358223438E0,1.307234168E0
3.007738565E0,4.893748283E0,5.374982834E0,1.328781962E0
3.009750958E0,4.860229492E0,5.420472622E0,1.381454349E0
3.011736198E0,4.838681698E0,5.446808815E0,1.410184860E0
3.013749667E0,4.783615112E0,5.465962410E0,1.479616642E0
3.015732522E0,4.704606533E0,5.497087002E0,1.517923832E0
3.017746915E0,4.671087742E0,5.506663799E0,1.537077546E0
3.019731000E0,4.592078686E0,5.542576790E0,1.594538331E0
3.021746085E0,4.474762917E0,5.597643375E0,1.635239720E0
3.023728862E0,4.431667328E0,5.607220173E0,1.666364431E0
3.025743256E0,4.350264549E0,5.662287235E0,1.728613615E0
3.027727264E0,4.249708176E0,5.695806026E0,1.788468719E0
3.029741426E0,4.187458992E0,5.712565422E0,1.814804912E0
3.031723896E0,4.048594952E0,5.774814606E0,1.867477298E0
3.033737827E0,3.943250179E0,5.832275391E0,1.927332401E0
3.035753143E0,3.892971992E0,5.837063789E0,1.948880196E0
3.037735920E0,3.754108191E0,5.861005783E0,1.982398987E0
3.039750391E0,3.658340216E0,5.911283970E0,2.015917778E0
3.041734168E0,3.596091032E0,5.923254967E0,2.025494576E0
3.043748022E0,3.500322819E0,5.935225964E0,2.039859772E0
3.045731724E0,3.450044632E0,5.942408562E0,2.042253971E0
3.047746501E0,3.371036053E0,5.944802761E0,2.047042370E0
3.049729893E0,3.289633036E0,5.951985359E0,2.023100376E0
3.051744286E0,3.253720045E0,5.951985359E0,2.015917778E0
3.053727372E0,3.186682463E0,5.937620163E0,1.999158382E0
3.055742226E0,3.145981073E0,5.911283970E0,1.982398987E0
3.057725311E0,3.138798475E0,5.906495571E0,1.963245392E0
3.059739782E0,3.117250681E0,5.861005783E0,1.917755604E0
3.061753943E0,3.095702887E0,5.846640587E0,1.874659896E0
3.063737336E0,3.090914488E0,5.839457989E0,1.857900500E0
3.065751422E0,3.071760893E0,5.827486992E0,1.821987510E0
3.067735430E0,3.071760893E0,5.808333397E0,1.798045516E0
3.069748976E0,3.076549292E0,5.805939198E0,1.798045516E0
3.071732369E0,3.052607059E0,5.793968201E0,1.800439715E0
3.073747532E0,3.040636063E0,5.791574001E0,1.793257117E0
3.075730925E0,3.023876667E0,5.796362400E0,1.798045516E0
3.077744163E0,3.011905670E0,5.796362400E0,1.810016513E0
3.079729094E0,2.987963676E0,5.803544998E0,1.819593310E0
3.081743488E0,2.935291290E0,5.820304394E0,1.855506301E0
3.083726342E0,2.904166698E0,5.825092793E0,1.912967205E0
3.085740427E0,2.889801502E0,5.829881191E0,1.944091797E0
3.087725051E0,2.863465309E0,5.844246387E0,1.984793186E0
3.089738906E0,2.853888512E0,5.861005783E0,2.056619167E0
3.091753375E0,2.853888512E0,5.863399982E0,2.082955360E0
3.093736229E0,2.829946518E0,5.858611584E0,2.142810583E0
3.095750392E0,2.827552319E0,5.844246387E0,2.207453966E0
3.097734708E0,2.834734917E0,5.837063789E0,2.240972757E0
3.099748177E0,2.851494312E0,5.844246387E0,2.317587137E0
3.101732571E0,2.839523315E0,5.868188381E0,2.370259762E0
3.103746348E0,2.827552319E0,5.870582581E0,2.401384354E0
3.105729433E0,2.822763920E0,5.884947777E0,2.442085743E0
3.107745211E0,2.806004286E0,5.942408562E0,2.461239338E0
3.109727373E0,2.782062292E0,5.961562157E0,2.489969730E0
3.111736920E0,2.743755102E0,5.997475147E0,2.530671120E0
3.113755928E0,2.731784105E0,6.026205540E0,2.547430515E0
3.115739706E0,2.705447912E0,6.074089527E0,2.590526342E0
3.117753483E0,2.681505919E0,6.133944988E0,2.624045134E0
3.119737491E0,2.657563925E0,6.169857979E0,2.650381327E0
3.121751423E0,2.621650934E0,6.234501362E0,2.703053713E0
3.123735124E0,2.552218914E0,6.303933144E0,2.734178305E0
3.125749824E0,2.521094322E0,6.339846134E0,2.729389906E0
3.127734524E0,2.489969730E0,6.411672115E0,2.715024710E0
3.129746841E0,2.475604534E0,6.449979305E0,2.700659513E0
3.131731387E0,2.461239338E0,6.478709698E0,2.691082716E0
3.133745318E0,2.461239338E0,6.507440090E0,2.676717520E0
3.135728019E0,2.473210335E0,6.528987885E0,2.671929121E0
3.137742797E0,2.480392933E0,6.545747280E0,2.671929121E0
3.139726805E0,2.521094322E0,6.564900875E0,2.671929121E0
3.141740428E0,2.540247917E0,6.562506676E0,2.679111719E0
3.143724976E0,2.595314741E0,6.552929878E0,2.715024710E0
3.145738522E0,2.640804529E0,6.557718277E0,2.731784105E0
3.147753300E0,2.674323320E0,6.567295074E0,2.743755102E0
3.149736693E0,2.703053713E0,6.557718277E0,2.774879694E0
3.151750009E0,2.722207308E0,6.545747280E0,2.794033289E0
3.153735171E0,2.726995707E0,6.548141479E0,2.806004286E0
3.155748794E0,2.719813108E0,6.555324078E0,2.827552319E0
3.157731265E0,2.719813108E0,6.557718277E0,2.841917515E0
3.159746273E0,2.731784105E0,6.564900875E0,2.849100113E0
3.161729665E0,2.731784105E0,6.569689274E0,2.887407303E0
3.163743905E0,2.743755102E0,6.569689274E0,2.928108692E0
3.165727528E0,2.746149302E0,6.579266071E0,2.956839085E0
3.167742613E0,2.758120298E0,6.610390663E0,3.019088268E0
3.169725698E0,2.753331900E0,6.617573261E0,3.066972494E0
3.171739938E0,2.755726099E0,6.629544735E0,3.095702887E0
3.173754100E0,2.803610086E0,6.660669327E0,3.093308687E0
3.175737493E0,2.846705914E0,6.677428722E0,3.071760893E0
3.177751348E0,2.937685490E0,6.703764915E0,3.078943491E0
3.179734663E0,3.057395458E0,6.722918510E0,3.107673883E0
3.181749748E0,3.126827478E0,6.751648903E0,3.131615877E0
3.183733141E0,3.263296843E0,6.811503887E0,3.208230257E0
3.185747073E0,3.378218651E0,6.864176273E0,3.311181068E0
3.187732620E0,3.421314240E0,6.883329868E0,3.378218651E0
3.189744935E0,3.442862034E0,6.921637058E0,3.545812607E0
3.191727636E0,3.354276657E0,6.979097843E0,3.696647406E0
3.193742183E0,3.265691042E0,7.012616634E0,3.763684988E0
3.195726191E0,3.045424461E0,7.074865818E0,3.878606796E0
3.197740661E0,2.794033289E0,7.122750282E0,3.957615376E0
3.199724593E0,2.645592928E0,7.144298077E0,3.983951569E0
3.201739678E0,2.358288765E0,7.196970463E0,4.041412354E0
3.203752609E0,2.224213362E0,7.242460251E0,4.053383350E0
3.205736387E0,1.972822189E0,7.266402245E0,4.055777550E0
3.207751395E0,1.764526606E0,7.321468830E0,4.046200752E0
3.209734480E0,1.699883223E0,7.352593422E0,4.036623955E0
3.211748642E0,1.613691926E0,7.419631004E0,4.034229755E0
3.213731805E0,1.565807939E0,7.474697590E0,4.050989151E0
3.215746582E0,1.570596337E0,7.508216381E0,4.062960148E0
3.217729590E0,1.637633920E0,7.584830761E0,4.094084740E0
3.219744060E0,1.759738207E0,7.642292023E0,4.098873138E0
3.221727838E0,1.853112102E0,7.666234016E0,4.101267338E0
3.223742307E0,2.039859772E0,7.740454197E0,4.103661537E0
3.225726007E0,2.250549555E0,7.776367188E0,4.110844135E0
3.227740401E0,2.365471363E0,7.790732384E0,4.115632534E0
3.229754255E0,2.588132143E0,7.800309181E0,4.101267338E0
3.231736186E0,2.801215887E0,7.838616371E0,4.082113743E0
3.233752503E0,2.928108692E0,7.845798969E0,4.065354347E0
3.235736434E0,3.153163671E0,7.843404770E0,4.041412354E0
3.237748211E0,3.268085241E0,7.833827972E0,4.012681961E0
3.239733142E0,3.462015629E0,7.831433773E0,4.005499363E0
3.241747536E0,3.646369219E0,7.855375767E0,3.998316765E0
3.243730929E0,3.720589399E0,7.855375767E0,3.998316765E0
3.245745167E0,3.881000996E0,7.845798969E0,3.998316765E0
3.247729407E0,4.017470360E0,7.841010571E0,3.981557369E0
3.249742338E0,4.072536945E0,7.836222172E0,3.988739967E0
3.251727962E0,4.156333923E0,7.862558365E0,3.991134167E0
3.253740585E0,4.240131378E0,7.864952564E0,3.988739967E0
3.255754440E0,4.247313976E0,7.874529362E0,3.998316765E0
3.257738064E0,4.285621166E0,7.884106159E0,4.005499363E0
3.259752610E0,4.290409565E0,7.905653954E0,4.005499363E0
3.261737234E0,4.297592163E0,7.927201748E0,4.003105164E0
3.263750473E0,4.307168961E0,7.955932140E0,3.981557369E0
3.265734712E0,4.304774761E0,7.984662533E0,3.974374771E0
3.267748643E0,4.297592163E0,8.006210327E0,3.960009575E0
3.269732267E0,4.271255970E0,8.042123795E0,3.964797974E0
3.271745275E0,4.264073372E0,8.066065788E0,3.988739967E0
3.273730130E0,4.256890774E0,8.080430984E0,4.010287762E0
3.275743677E0,4.232948780E0,8.094796181E0,4.022258759E0
3.277727685E0,4.216189384E0,8.104372978E0,4.027047157E0
3.279741616E0,4.175487995E0,8.147468567E0,4.017470360E0
3.281725624E0,4.139574528E0,8.161833763E0,4.000710964E0
3.283739172E0,4.139574528E0,8.166622162E0,3.986345768E0
3.285753026E0,4.153939724E0,8.185775757E0,3.957615376E0
3.287738495E0,4.182670593E0,8.204929352E0,3.938461781E0
3.289751504E0,4.182670593E0,8.231265068E0,3.931279182E0
3.291736051E0,4.201824188E0,8.243236542E0,3.912125587E0
3.293749290E0,4.228160381E0,8.283937454E0,3.914519787E0
3.295733374E0,4.240131378E0,8.300697327E0,3.916913986E0
3.297747153E0,4.261679173E0,8.324639320E0,3.924096584E0
3.299731161E0,4.261679173E0,8.353369713E0,3.950432777E0
3.301745938E0,4.271255970E0,8.362946510E0,3.952826977E0
3.303729332E0,4.254496574E0,8.372523308E0,3.957615376E0
3.305742340E0,4.242525578E0,8.382100105E0,3.962403774E0
3.307727809E0,4.242525578E0,8.415618896E0,3.974374771E0
3.309741048E0,4.228160381E0,8.439560890E0,3.983951569E0
3.311754365E0,4.213795185E0,8.451532364E0,3.979163170E0
3.313738603E0,4.204218388E0,8.465897560E0,3.957615376E0
3.315753150E0,4.206612587E0,8.477868080E0,3.931279182E0
3.317735236E0,4.209006786E0,8.468291283E0,3.912125587E0
3.319750628E0,4.185064793E0,8.465897560E0,3.900154591E0
3.321734329E0,4.206612587E0,8.458714485E0,3.888183594E0
3.323748492E0,4.204218388E0,8.458714485E0,3.878606796E0
3.325732500E0,4.187458992E0,8.441955566E0,3.869029999E0
3.327746969E0,4.201824188E0,8.403648376E0,3.857059002E0
3.329730131E0,4.194641590E0,8.396465302E0,3.845088005E0
3.331744294E0,4.168305397E0,8.382100105E0,3.823540211E0
3.333728225E0,4.158728123E0,8.358158112E0,3.811569214E0
3.335741771E0,4.139574528E0,8.346187592E0,3.806780815E0
3.337725549E0,4.146757126E0,8.339004517E0,3.782838583E0
3.339739019E0,4.156333923E0,8.327033043E0,3.770867586E0
3.341754489E0,4.149151325E0,8.300697327E0,3.746925592E0
3.343737497E0,4.165910721E0,8.262390137E0,3.732560396E0
3.345751429E0,4.170699596E0,8.245630264E0,3.730166197E0
3.347736668E0,4.189853191E0,8.236053467E0,3.730166197E0
3.349748906E0,4.180276394E0,8.224082947E0,3.718195200E0
3.351732991E0,4.185064793E0,8.207323074E0,3.711012602E0
3.353746539E0,4.189853191E0,8.195352554E0,3.699041605E0
3.355731085E0,4.192247391E0,8.178592682E0,3.691859007E0
3.357745247E0,4.189853191E0,8.176198959E0,3.682282209E0
3.359728410E0,4.161122322E0,8.185775757E0,3.658340216E0
3.361742495E0,4.144362926E0,8.202534676E0,3.617638826E0
3.363726272E0,4.137180328E0,8.202534676E0,3.608062029E0
3.365740666E0,4.129997730E0,8.231265068E0,3.591302633E0
3.367756135E0,4.122815132E0,8.255207062E0,3.555389643E0
3.369738605E0,4.101267338E0,8.257601738E0,3.545812607E0
3.371752997E0,4.084507942E0,8.281543732E0,3.526659012E0
3.373736083E0,4.077325344E0,8.300697327E0,3.521870613E0
3.375750245E0,4.094084740E0,8.329427719E0,3.517082214E0
3.377733638E0,4.103661537E0,8.327033043E0,3.507505417E0
3.379747493E0,4.101267338E0,8.322244644E0,3.505111217E0
3.381732193E0,4.096478939E0,8.360552788E0,3.485957623E0
3.383745740E0,4.091690540E0,8.365341187E0,3.478775024E0
3.385729671E0,4.089296341E0,8.365341187E0,3.466804028E0
3.387745064E0,4.079719543E0,8.370129585E0,3.454833031E0
3.389728765E0,4.046200752E0,8.365341187E0,3.433285236E0
3.391741465E0,4.039018154E0,8.350975990E0,3.428496838E0
3.393725704E0,4.012681961E0,8.348581314E0,3.406949043E0
3.395739636E0,3.971980572E0,8.353369713E0,3.366247654E0
3.397753413E0,3.960009575E0,8.341399193E0,3.356670856E0
3.399736575E0,3.936067581E0,8.339004517E0,3.332728863E0
3.401752199E0,3.928884983E0,8.341399193E0,3.318363667E0
3.403734746E0,3.895366192E0,8.339004517E0,3.284844637E0
3.405749446E0,3.866635799E0,8.343792915E0,3.256114244E0
3.407734071E0,3.859453201E0,8.334216118E0,3.236960649E0
3.409747386E0,3.837905407E0,8.322244644E0,3.217807055E0
3.411731625E0,3.830722809E0,8.322244644E0,3.174711466E0
3.413745479E0,3.847482204E0,8.305485725E0,3.148375273E0
3.415728642E0,3.873818398E0,8.298302650E0,3.105279684E0
3.417743112E0,3.902548790E0,8.293514252E0,3.062183857E0
3.419727043E0,3.924096584E0,8.298302650E0,3.040636063E0
3.421741205E0,4.010287762E0,8.312667847E0,3.007117271E0
3.423755444E0,4.074931145E0,8.317456245E0,2.975992680E0
3.425738837E0,4.103661537E0,8.327033043E0,2.959233284E0
3.427754229E0,4.180276394E0,8.350975990E0,2.918531895E0
3.429736085E0,4.259284973E0,8.372523308E0,2.882618904E0
3.431748939E0,4.302380562E0,8.389283180E0,2.868253708E0
3.433733331E0,4.371812344E0,8.432378769E0,2.851494312E0
3.435748033E0,4.398148537E0,8.453926086E0,2.849100113E0
3.437731733E0,4.438849926E0,8.516175270E0,2.844311714E0
3.439745356E0,4.493916512E0,8.573636055E0,2.841917515E0
3.441729672E0,4.513070107E0,8.580819130E0,2.846705914E0
3.443743758E0,4.548983097E0,8.599972725E0,2.849100113E0
3.445727151E0,4.575319290E0,8.652645111E0,2.885013103E0
3.447742236E0,4.589684486E0,8.659827232E0,2.896984100E0
3.449725398E0,4.599261284E0,8.681375504E0,2.913743496E0
3.451740176E0,4.604049683E0,8.693346024E0,2.918531895E0
3.453753645E0,4.606443882E0,8.695740700E0,2.925714493E0
3.455736807E0,4.608838081E0,8.710105896E0,2.935291290E0
3.457751508E0,4.608838081E0,8.710105896E0,2.966415882E0
3.459735286E0,4.601655483E0,8.702922821E0,2.973598480E0
3.461750294E0,4.580107689E0,8.676587105E0,2.990357876E0
3.463732457E0,4.570530891E0,8.659827232E0,3.026270866E0
3.465747541E0,4.544194698E0,8.631096840E0,3.040636063E0
3.467732549E0,4.486733913E0,8.578424454E0,3.062183857E0
3.469744788E0,4.455609322E0,8.552088737E0,3.078943491E0
3.471728490E0,4.381389141E0,8.513781548E0,3.095702887E0
3.473743344E0,4.292803764E0,8.468291283E0,3.124433279E0
3.475727352E0,4.242525578E0,8.439560890E0,3.141192675E0
3.477740207E0,4.151545525E0,8.384494781E0,3.160346270E0
3.479754446E0,4.067748547E0,8.339004517E0,3.167528868E0
3.481738454E0,4.024652958E0,8.317456245E0,3.172317266E0
3.483753155E0,3.912125587E0,8.291120529E0,3.198653460E0
3.485736240E0,3.813963413E0,8.236053467E0,3.213018656E0
3.487751709E0,3.775655985E0,8.209717751E0,3.220201254E0
3.489734487E0,3.711012602E0,8.173804283E0,3.208230257E0
3.491748880E0,3.658340216E0,8.157045364E0,3.229778051E0
3.493732657E0,3.620033026E0,8.154650688E0,3.241749048E0
3.495745896E0,3.555389643E0,8.137891769E0,3.244143248E0
3.497729827E0,3.536235809E0,8.140285492E0,3.236960649E0
3.499744683E0,3.517082214E0,8.140285492E0,3.236960649E0
3.501727691E0,3.502717018E0,8.128314972E0,3.239354849E0
3.503742160E0,3.505111217E0,8.125920296E0,3.248931646E0
3.505725861E0,3.524264812E0,8.094796181E0,3.260902643E0
3.507740639E0,3.550601006E0,8.101978302E0,3.265691042E0
3.509753954E0,3.562572241E0,8.116343498E0,3.246537447E0
3.511736732E0,3.591302633E0,8.128314972E0,3.241749048E0
3.513751433E0,3.655946016E0,8.145073891E0,3.241749048E0
3.515734902E0,3.682282209E0,8.147468567E0,3.236960649E0
3.517749295E0,3.751713991E0,8.135497093E0,3.215412855E0
3.519733073E0,3.809175014E0,8.154650688E0,3.193865061E0
3.521747235E0,3.847482204E0,8.178592682E0,3.179499865E0
3.523730628E0,3.933673382E0,8.228871346E0,3.138798475E0
3.525744405E0,3.998316765E0,8.252813339E0,3.114856482E0
3.527729029E0,4.041412354E0,8.276755333E0,3.105279684E0
3.529742884E0,4.127603531E0,8.322244644E0,3.083731890E0
3.531727199E0,4.156333923E0,8.336610794E0,3.071760893E0
3.533740208E0,4.209006786E0,8.362946510E0,3.050212860E0
3.535754985E0,4.268861771E0,8.406042099E0,3.033453465E0
3.537738378E0,4.285621166E0,8.422801971E0,3.016694069E0
3.539752541E0,4.307168961E0,8.477868080E0,2.985569477E0
3.541736780E0,4.316745758E0,8.518569946E0,2.987963676E0
3.543750326E0,4.323928356E0,8.528146744E0,2.985569477E0
3.545733719E0,4.347870350E0,8.540117264E0,2.959233284E0
3.547750112E0,4.323928356E0,8.547300339E0,2.942473888E0
3.549731582E0,4.319139957E0,8.554482460E0,2.935291290E0
3.551745821E0,4.314351559E0,8.571242332E0,2.918531895E0
3.553730059E0,4.316745758E0,8.549694061E0,2.913743496E0
3.555744222E0,4.314351559E0,8.540117264E0,2.906560898E0
3.557727000E0,4.304774761E0,8.525752068E0,2.877830505E0
3.559742085E0,4.273650169E0,8.516175270E0,2.875436306E0
3.561725247E0,4.266467571E0,8.501810074E0,2.870647907E0
3.563739640E0,4.249708176E0,8.465897560E0,2.865859509E0
3.565753879E0,4.242525578E0,8.470685959E0,2.863465309E0
3.567737888E0,4.220977783E0,8.456320763E0,2.868253708E0
3.569751050E0,4.189853191E0,8.418013573E0,2.861071110E0
3.571735673E0,4.173093796E0,8.403648376E0,2.861071110E0
3.573749604E0,4.127603531E0,8.382100105E0,2.861071110E0
3.575733228E0,4.108449936E0,8.339004517E0,2.870647907E0
3.577747467E0,4.091690540E0,8.327033043E0,2.882618904E0
3.579731091E0,4.058171749E0,8.317456245E0,2.918531895E0
3.581745638E0,4.031835556E0,8.305485725E0,2.925714493E0
3.583728723E0,4.010287762E0,8.291120529E0,2.942473888E0
3.585742885E0,3.976768970E0,8.276755333E0,2.971204281E0
3.587727201E0,3.955221176E0,8.271966934E0,3.007117271E0
3.589740979E0,3.943250179E0,8.269572258E0,3.021482468E0
3.591751141E0,3.924096584E0,8.264783859E0,3.033453465E0
3.593737918E0,3.892971992E0,8.259995461E0,3.083731890E0
3.595752696E0,3.881000996E0,8.262390137E0,3.095702887E0
3.597736089E0,3.857059002E0,8.262390137E0,3.112462282E0
3.599750558E0,3.849876404E0,8.271966934E0,3.131615877E0
3.601734874E0,3.842693806E0,8.274360657E0,3.148375273E0
3.603747806E0,3.813963413E0,8.303091049E0,3.184288263E0
3.605731814E0,3.801992416E0,8.305485725E0,3.181894064E0
3.607746284E0,3.792415380E0,8.310274124E0,3.167528868E0
3.609729676E0,3.780444384E0,8.307879448E0,3.165134668E0
3.611744762E0,3.778050184E0,8.305485725E0,3.155557871E0
3.613728232E0,3.787626982E0,8.327033043E0,3.157952070E0
3.615741701E0,3.813963413E0,8.317456245E0,3.160346270E0
3.617755326E0,3.818751812E0,8.329427719E0,3.160346270E0
3.619739026E0,3.825934410E0,8.327033043E0,3.143586874E0
3.621753188E0,3.857059002E0,8.331821442E0,3.148375273E0
3.623737735E0,3.873818398E0,8.322244644E0,3.150769472E0
3.625751897E0,3.881000996E0,8.329427719E0,3.157952070E0
3.627735905E0,3.895366192E0,8.346187592E0,3.155557871E0
3.629749221E0,3.924096584E0,8.343792915E0,3.150769472E0
3.631732230E0,3.936067581E0,8.331821442E0,3.167528868E0
3.633748315E0,3.945644379E0,8.317456245E0,3.172317266E0
3.635731400E0,3.955221176E0,8.327033043E0,3.184288263E0
3.637744563E0,3.969586372E0,8.327033043E0,3.203441858E0
3.639728571E0,3.979163170E0,8.322244644E0,3.205836058E0
3.641743117E0,3.983951569E0,8.307879448E0,3.198653460E0
3.643725817E0,3.979163170E0,8.312667847E0,3.210624456E0
3.645740672E0,3.983951569E0,8.298302650E0,3.217807055E0
3.647755142E0,3.983951569E0,8.286332130E0,3.196259260E0
3.649738765E0,3.986345768E0,8.276755333E0,3.179499865E0
3.651752697E0,3.993528366E0,8.269572258E0,3.181894064E0
3.653736321E0,4.003105164E0,8.255207062E0,3.191470861E0
3.655750560E0,4.019864559E0,8.245630264E0,3.181894064E0
3.657734491E0,4.022258759E0,8.240841866E0,3.177105665E0
3.659748038E0,4.031835556E0,8.221688271E0,3.174711466E0
3.661732739E0,4.036623955E0,8.209717751E0,3.184288263E0
3.663745593E0,4.031835556E0,8.197746277E0,3.186682463E0
3.665729294E0,4.034229755E0,8.195352554E0,3.201047659E0
3.667745071E0,4.036623955E0,8.204929352E0,3.208230257E0
3.669727848E0,4.027047157E0,8.197746277E0,3.196259260E0
3.671738549E0,4.027047157E0,8.185775757E0,3.198653460E0
3.673754635E0,4.024652958E0,8.183381081E0,3.193865061E0
3.675739797E0,4.034229755E0,8.180987358E0,3.198653460E0
3.677753651E0,4.048594952E0,8.180987358E0,3.189076662E0
3.679737121E0,4.067748547E0,8.176198959E0,3.186682463E0
3.681752206E0,4.077325344E0,8.195352554E0,3.186682463E0
3.683734676E0,4.077325344E0,8.216899872E0,3.193865061E0
3.685749684E0,4.089296341E0,8.219294548E0,3.198653460E0
3.687733385E0,4.110844135E0,8.228871346E0,3.213018656E0
3.689747239E0,4.106055737E0,8.243236542E0,3.213018656E0
3.691731555E0,4.101267338E0,8.248024940E0,3.215412855E0
3.693745410E0,4.113238335E0,8.269572258E0,3.224989653E0
3.695728187E0,4.108449936E0,8.271966934E0,3.217807055E0
3.697743349E0,4.110844135E0,8.286332130E0,3.215412855E0
3.699726665E0,4.118026733E0,8.303091049E0,3.201047659E0
3.701740828E0,4.127603531E0,8.312667847E0,3.208230257E0
3.703754990E0,4.146757126E0,8.315062523E0,3.210624456E0
3.705738382E0,4.151545525E0,8.339004517E0,3.203441858E0
3.707754083E0,4.156333923E0,8.348581314E0,3.196259260E0
3.709736245E0,4.180276394E0,8.362946510E0,3.174711466E0
3.711749484E0,4.197035789E0,8.374917984E0,3.165134668E0
3.713734723E0,4.204218388E0,8.377311707E0,3.167528868E0
3.715749193E0,4.237737179E0,8.377311707E0,3.157952070E0
3.717731740E0,4.280832767E0,8.372523308E0,3.150769472E0
3.719746748E0,4.280832767E0,8.362946510E0,3.141192675E0
3.721730526E0,4.268861771E0,8.362946510E0,3.150769472E0
3.723743996E0,4.290409565E0,8.386888504E0,3.131615877E0
3.725727081E0,4.295197964E0,8.382100105E0,3.131615877E0
3.727742781E0,4.297592163E0,8.355764389E0,3.129221678E0
3.729755405E0,4.295197964E0,8.339004517E0,3.131615877E0
3.731739721E0,4.302380562E0,8.346187592E0,3.126827478E0
3.733753652E0,4.292803764E0,8.331821442E0,3.129221678E0
3.735736738E0,4.288015366E0,8.319850922E0,3.122039080E0
3.737751208E0,4.297592163E0,8.312667847E0,3.134010077E0
3.739735446E0,4.280832767E0,8.293514252E0,3.157952070E0
3.741748763E0,4.283226967E0,8.288725853E0,3.167528868E0
3.743733309E0,4.256890774E0,8.271966934E0,3.191470861E0
3.745747548E0,4.242525578E0,8.257601738E0,3.203441858E0
3.747731479E0,4.225766182E0,8.243236542E0,3.203441858E0
3.749744719E0,4.180276394E0,8.233659744E0,3.222595453E0
3.751727804E0,4.165910721E0,8.209717751E0,3.232172251E0
3.753742043E0,4.149151325E0,8.200140953E0,3.236960649E0
3.755756744E0,4.118026733E0,8.185775757E0,3.248931646E0
3.757740444E0,4.110844135E0,8.164227486E0,3.268085241E0
3.759754606E0,4.096478939E0,8.149862289E0,3.280056238E0
3.761738691E0,4.062960148E0,8.121131897E0,3.306392431E0
3.763752239E0,4.055777550E0,8.111555099E0,3.313575268E0
3.765735554E0,4.043806553E0,8.104372978E0,3.303998232E0
3.767750947E0,4.012681961E0,8.075642586E0,3.318363667E0
3.769734032E0,3.995922565E0,8.078036308E0,3.323152065E0
3.771748810E0,3.971980572E0,8.073247910E0,3.339911461E0
3.773731357E0,3.971980572E0,8.051700592E0,3.347094059E0
3.775746057E0,3.950432777E0,8.034940720E0,3.354276657E0
3.777729220E0,3.921702385E0,8.037335396E0,3.366247654E0
3.779743689E0,3.912125587E0,8.015787125E0,3.385401249E0
3.781727620E0,3.904942989E0,8.006210327E0,3.404554844E0
3.783741783E0,3.878606796E0,8.001421928E0,3.416525841E0
3.785756253E0,3.857059002E0,7.996633530E0,3.426102638E0
3.787740645E0,3.859453201E0,8.008605003E0,3.430891037E0
3.789753884E0,3.859453201E0,8.015787125E0,3.442862034E0
3.791736662E0,3.859453201E0,8.015787125E0,3.445256233E0
3.793751978E0,3.881000996E0,8.018181801E0,3.447650433E0
3.795736063E0,3.900154591E0,8.030152321E0,3.471592426E0
3.797748918E0,3.904942989E0,8.032546997E0,3.483563423E0
3.799733619E0,3.919308186E0,8.061277390E0,3.473986626E0
3.801746780E0,3.928884983E0,8.073247910E0,3.459621429E0
3.803731404E0,3.948038578E0,8.082824707E0,3.450044632E0
3.805744644E0,3.986345768E0,8.121131897E0,3.447650433E0
3.807729267E0,3.991134167E0,8.145073891E0,3.442862034E0
3.809742813E0,3.995922565E0,8.152256966E0,3.440467834E0
3.811756745E0,4.024652958E0,8.200140953E0,3.411737442E0
3.813740984E0,4.046200752E0,8.219294548E0,3.387795448E0
3.815754531E0,4.053383350E0,8.233659744E0,3.378218651E0
3.817738308E0,4.070142746E0,8.262390137E0,3.368641853E0
3.819752471E0,4.115632534E0,8.298302650E0,3.344699860E0
3.821736479E0,4.134786129E0,8.312667847E0,3.330334663E0
3.823750333E0,4.158728123E0,8.331821442E0,3.299209833E0
3.825734265E0,4.175487995E0,8.353369713E0,3.296815634E0
3.827748812E0,4.220977783E0,8.350975990E0,3.294421434E0
3.829731281E0,4.249708176E0,8.355764389E0,3.292027235E0
3.831742366E0,4.268861771E0,8.353369713E0,3.292027235E0
3.833758913E0,4.302380562E0,8.365341187E0,3.265691042E0
3.835744229E0,4.326322556E0,8.353369713E0,3.263296843E0
3.837727545E0,4.338293552E0,8.358158112E0,3.253720045E0
3.839741169E0,4.345476151E0,8.348581314E0,3.244143248E0
3.841755639E0,4.369418144E0,8.360552788E0,3.224989653E0
3.843740262E0,4.369418144E0,8.348581314E0,3.213018656E0
3.845753424E0,4.374206543E0,8.329427719E0,3.220201254E0
3.847738125E0,4.376600742E0,8.317456245E0,3.208230257E0
3.849750980E0,4.378994942E0,8.307879448E0,3.203441858E0
3.851735603E0,4.381389141E0,8.276755333E0,3.210624456E0
3.853749535E0,4.367023945E0,8.250418663E0,3.215412855E0
3.855732928E0,4.362235546E0,8.233659744E0,3.215412855E0
3.857746705E0,4.347870350E0,8.221688271E0,3.213018656E0
3.859730790E0,4.343081951E0,8.214506149E0,3.213018656E0
3.861745260E0,4.314351559E0,8.214506149E0,3.196259260E0
3.863729807E0,4.273650169E0,8.185775757E0,3.196259260E0
3.865742199E0,4.264073372E0,8.173804283E0,3.201047659E0
3.867757208E0,4.244919777E0,8.161833763E0,3.203441858E0
3.869741216E0,4.209006786E0,8.164227486E0,3.203441858E0
3.871754224E0,4.194641590E0,8.164227486E0,3.198653460E0
3.873739155E0,4.175487995E0,8.166622162E0,3.198653460E0
3.875753549E0,4.163516521E0,8.164227486E0,3.198653460E0
3.877736019E0,4.165910721E0,8.166622162E0,3.205836058E0
3.879749565E0,4.151545525E0,8.166622162E0,3.203441858E0
3.881734190E0,4.163516521E0,8.171410561E0,3.198653460E0
3.883748967E0,4.156333923E0,8.178592682E0,3.217807055E0
3.885732359E0,4.144362926E0,8.171410561E0,3.229778051E0
3.887747137E0,4.122815132E0,8.169015884E0,3.241749048E0
3.889730223E0,4.125209332E0,8.166622162E0,3.246537447E0
3.891743846E0,4.120420933E0,8.180987358E0,3.244143248E0
3.893727469E0,4.115632534E0,8.178592682E0,3.244143248E0
3.895741401E0,4.108449936E0,8.176198959E0,3.234566450E0
3.897755794E0,4.115632534E0,8.178592682E0,3.239354849E0
3.899739187E0,4.127603531E0,8.185775757E0,3.239354849E0
3.901753965E0,4.115632534E0,8.214506149E0,3.232172251E0
3.903737434E0,4.110844135E0,8.204929352E0,3.220201254E0
3.905751212E0,4.110844135E0,8.200140953E0,3.222595453E0
3.907735835E0,4.110844135E0,8.200140953E0,3.215412855E0
3.909749998E0,4.103661537E0,8.200140953E0,3.232172251E0
3.911732237E0,4.103661537E0,8.209717751E0,3.224989653E0
3.913746322E0,4.106055737E0,8.231265068E0,3.215412855E0
3.915730714E0,4.106055737E0,8.216899872E0,3.205836058E0
3.917744569E0,4.106055737E0,8.204929352E0,3.196259260E0
3.919728500E0,4.115632534E0,8.216899872E0,3.198653460E0
3.921742970E0,4.115632534E0,8.233659744E0,3.203441858E0
3.923756902E0,4.125209332E0,8.228871346E0,3.191470861E0
3.925740602E0,4.139574528E0,8.212111473E0,3.217807055E0
3.927755918E0,4.137180328E0,8.209717751E0,3.215412855E0
3.929738465E0,4.110844135E0,8.226476669E0,3.215412855E0
3.931752858E0,4.098873138E0,8.231265068E0,3.217807055E0
3.933736635E0,4.096478939E0,8.224082947E0,3.217807055E0
3.935750105E0,4.106055737E0,8.236053467E0,3.229778051E0
3.937732960E0,4.103661537E0,8.250418663E0,3.220201254E0
3.939748276E0,4.101267338E0,8.250418663E0,3.220201254E0
3.941732284E0,4.132391930E0,8.248024940E0,3.215412855E0
3.943746524E0,4.168305397E0,8.243236542E0,3.215412855E0
3.945729608E0,4.180276394E0,8.236053467E0,3.222595453E0
3.947744617E0,4.211400986E0,8.224082947E0,3.248931646E0
3.949727086E0,4.244919777E0,8.212111473E0,3.246537447E0
3.951740710E0,4.252102375E0,8.202534676E0,3.256114244E0
3.953757257E0,4.268861771E0,8.190564156E0,3.246537447E0
3.955739419E0,4.273650169E0,8.195352554E0,3.239354849E0
3.957752735E0,4.285621166E0,8.195352554E0,3.246537447E0
3.959737282E0,4.302380562E0,8.188169479E0,3.246537447E0
3.961752059E0,4.295197964E0,8.188169479E0,3.244143248E0
3.963735144E0,4.268861771E0,8.180987358E0,3.236960649E0
3.965749922E0,4.237737179E0,8.183381081E0,3.232172251E0
3.967733315E0,4.228160381E0,8.195352554E0,3.234566450E0
3.969747784E0,4.220977783E0,8.202534676E0,3.244143248E0
3.971731562E0,4.204218388E0,8.185775757E0,3.234566450E0
3.973744417E0,4.192247391E0,8.188169479E0,3.227383852E0
3.975728733E0,4.182670593E0,8.216899872E0,3.224989653E0
3.977742048E0,4.170699596E0,8.221688271E0,3.227383852E0
3.979756750E0,4.161122322E0,8.224082947E0,3.227383852E0
3.981740758E0,4.168305397E0,8.231265068E0,3.217807055E0
3.983755535E0,4.165910721E0,8.236053467E0,3.220201254E0
3.985739005E0,4.163516521E0,8.236053467E0,3.215412855E0
3.987753475E0,4.161122322E0,8.250418663E0,3.213018656E0
3.989736868E0,4.156333923E0,8.262390137E0,3.215412855E0
3.991750106E0,4.153939724E0,8.276755333E0,3.213018656E0
3.993733192E0,4.161122322E0,8.281543732E0,3.217807055E0
3.995748816E0,4.156333923E0,8.279149055E0,3.220201254E0
3.997731362E0,4.170699596E0,8.305485725E0,3.215412855E0
3.999746063E0,4.170699596E0,8.324639320E0,3.222595453E0
4.001730456E0,4.168305397E0,8.324639320E0,3.234566450E0
4.003744849E0,4.161122322E0,8.300697327E0,3.251325846E0
4.005727087E0,4.161122322E0,8.293514252E0,3.258508444E0
4.007741789E0,4.153939724E0,8.298302650E0,3.265691042E0
4.009755951E0,4.153939724E0,8.295908928E0,3.284844637E0
4.011739728E0,4.156333923E0,8.276755333E0,3.292027235E0
4.013753891E0,4.156333923E0,8.286332130E0,3.294421434E0
4.015736899E0,4.170699596E0,8.295908928E0,3.284844637E0
4.017751061E0,4.168305397E0,8.281543732E0,3.306392431E0
4.019735145E0,4.173093796E0,8.276755333E0,3.306392431E0
4.021749308E0,4.180276394E0,8.267178535E0,3.327940464E0
4.023732932E0,4.177882195E0,8.267178535E0,3.325546265E0
4.025747094E0,4.173093796E0,8.269572258E0,3.335123062E0
4.027732102E0,4.156333923E0,8.252813339E0,3.356670856E0
4.029744649E0,4.149151325E0,8.238448143E0,3.356670856E0
4.031728119E0,4.163516521E0,8.236053467E0,3.347094059E0
4.033743203E0,4.144362926E0,8.226476669E0,3.354276657E0
4.035757366E0,4.132391930E0,8.224082947E0,3.359065056E0
4.037739528E0,4.134786129E0,8.195352554E0,3.368641853E0
4.039754921E0,4.125209332E0,8.180987358E0,3.366247654E0
4.041738853E0,4.137180328E0,8.180987358E0,3.361459255E0
4.043752707E0,4.139574528E0,8.164227486E0,3.351882458E0
4.045736715E0,4.177882195E0,8.149862289E0,3.347094059E0
4.047751492E0,4.197035789E0,8.140285492E0,3.342305660E0
4.049734347E0,4.211400986E0,8.133103371E0,3.359065056E0
4.051748125E0,4.223371983E0,8.106766701E0,3.371036053E0
4.053732133E0,4.247313976E0,8.106766701E0,3.378218651E0
4.055746296E0,4.256890774E0,8.094796181E0,3.390189648E0
4.057729073E0,4.256890774E0,8.099584579E0,3.394978046E0
4.059743542E0,4.271255970E0,8.125920296E0,3.378218651E0
4.061758012E0,4.264073372E0,8.128314972E0,3.368641853E0
4.063741175E0,4.256890774E0,8.121131897E0,3.383007050E0
4.065755952E0,4.261679173E0,8.130708694E0,3.387795448E0
4.067739883E0,4.254496574E0,8.149862289E0,3.397372246E0
4.069754046E0,4.252102375E0,8.157045364E0,3.399766445E0
4.071737131E0,4.230554581E0,8.161833763E0,3.387795448E0
4.073750446E0,4.209006786E0,8.200140953E0,3.399766445E0
4.075734762E0,4.206612587E0,8.214506149E0,3.387795448E0
4.077749848E0,4.206612587E0,8.221688271E0,3.383007050E0
4.079732933E0,4.177882195E0,8.221688271E0,3.371036053E0
4.081747633E0,4.177882195E0,8.231265068E0,3.373430252E0
4.083730412E0,4.187458992E0,8.250418663E0,3.354276657E0
4.085744650E0,4.189853191E0,8.243236542E0,3.330334663E0
4.087729197E0,4.204218388E0,8.238448143E0,3.325546265E0
4.089743051E0,4.213795185E0,8.226476669E0,3.325546265E0
4.091757829E0,4.218583584E0,8.231265068E0,3.323152065E0
4.093740683E0,4.216189384E0,8.236053467E0,3.311181068E0
4.095754538E0,4.220977783E0,8.231265068E0,3.296815634E0
4.097739085E0,4.230554581E0,8.228871346E0,3.296815634E0
4.099752324E0,4.218583584E0,8.250418663E0,3.284844637E0
4.101736101E0,4.235342979E0,8.238448143E0,3.268085241E0
4.103749955E0,4.237737179E0,8.228871346E0,3.263296843E0
4.105733964E0,4.249708176E0,8.245630264E0,3.258508444E0
4.107749049E0,4.266467571E0,8.252813339E0,3.241749048E0
4.109732057E0,4.271255970E0,8.240841866E0,3.246537447E0
4.111745989E0,4.254496574E0,8.243236542E0,3.239354849E0
4.113730305E0,4.268861771E0,8.231265068E0,3.256114244E0
4.115744159E0,4.271255970E0,8.219294548E0,3.253720045E0
4.117757399E0,4.276044369E0,8.204929352E0,3.248931646E0
4.119741715E0,4.278438568E0,8.212111473E0,3.244143248E0
4.121755799E0,4.290409565E0,8.212111473E0,3.260902643E0
4.123739807E0,4.280832767E0,8.216899872E0,3.241749048E0
4.125753432E0,4.273650169E0,8.221688271E0,3.236960649E0
4.127738055E0,4.264073372E0,8.202534676E0,3.234566450E0
4.129752140E0,4.271255970E0,8.200140953E0,3.229778051E0
4.131735225E0,4.276044369E0,8.200140953E0,3.232172251E0
4.133749696E0,4.268861771E0,8.188169479E0,3.217807055E0
4.135733088E0,4.249708176E0,8.192957878E0,3.193865061E0
4.137747019E0,4.254496574E0,8.202534676E0,3.186682463E0
4.139730336E0,4.261679173E0,8.233659744E0,3.167528868E0
4.141745729E0,4.256890774E0,8.216899872E0,3.157952070E0
4.143729121E0,4.252102375E0,8.224082947E0,3.155557871E0
4.145742052E0,4.276044369E0,8.250418663E0,3.157952070E0
4.147757831E0,4.276044369E0,8.252813339E0,3.138798475E0
4.149740531E0,4.276044369E0,8.252813339E0,3.138798475E0
4.151752000E0,4.283226967E0,8.255207062E0,3.129221678E0
4.153737856E0,4.273650169E0,8.259995461E0,3.129221678E0
4.155752633E0,4.283226967E0,8.264783859E0,3.107673883E0
4.157736025E0,4.273650169E0,8.279149055E0,3.093308687E0
4.159750496E0,4.264073372E0,8.283937454E0,3.090914488E0
4.161733581E0,4.264073372E0,8.291120529E0,3.078943491E0
4.163747974E0,4.278438568E0,8.288725853E0,3.057395458E0
4.165731058E0,4.271255970E0,8.281543732E0,3.052607059E0
4.167746529E0,4.283226967E0,8.267178535E0,3.057395458E0
4.169729614E0,4.290409565E0,8.257601738E0,3.031059265E0
4.171744007E0,4.299986362E0,8.262390137E0,3.028665066E0
4.173757323E0,4.307168961E0,8.257601738E0,3.019088268E0
4.175740408E0,4.321534157E0,8.264783859E0,3.019088268E0
4.177755493E0,4.326322556E0,8.267178535E0,3.016694069E0
4.179739193E0,4.328716755E0,8.271966934E0,2.987963676E0
4.181753895E0,4.355052948E0,8.248024940E0,2.987963676E0
4.183737595E0,4.374206543E0,8.240841866E0,2.983175278E0
4.185750834E0,4.386177540E0,8.231265068E0,2.966415882E0
4.187736380E0,4.405331135E0,8.228871346E0,2.966415882E0
4.189749005E0,4.438849926E0,8.221688271E0,2.971204281E0
4.191732782E0,4.458003521E0,8.224082947E0,2.964021683E0
4.193747251E0,4.467580318E0,8.209717751E0,2.968810081E0
4.195731491E0,4.458003521E0,8.212111473E0,2.971204281E0
4.197744422E0,4.469974518E0,8.219294548E0,2.964021683E0
4.199759815E0,4.474762917E0,8.207323074E0,2.961627483E0
4.201742593E0,4.474762917E0,8.190564156E0,2.968810081E0
4.203757063E0,4.498704910E0,8.183381081E0,2.987963676E0
4.205740148E0,4.505887508E0,8.169015884E0,2.987963676E0
4.207754925E0,4.498704910E0,8.204929352E0,2.983175278E0
4.209738011E0,4.484339714E0,8.216899872E0,3.009511471E0
4.211753480E0,4.481945515E0,8.207323074E0,3.021482468E0
4.213736796E0,4.474762917E0,8.204929352E0,3.043030262E0
