"Time (s)","Gyroscope x (rad/s)","Gyroscope y (rad/s)","Gyroscope z (rad/s)"
7.633589000E-3,-2.321287990E-2,-1.594358236E-1,4.520402849E-2
9.739367000E-3,-2.321287990E-2,-1.594358236E-1,4.520402849E-2
1.172252900E-2,-2.321287990E-2,-1.594358236E-1,4.520402849E-2
1.373730600E-2,-2.321287990E-2,-1.594358236E-1,4.520402849E-2
1.572100700E-2,-2.321287990E-2,-1.594358236E-1,4.520402849E-2
1.773509200E-2,-2.321287990E-2,-1.594358236E-1,4.520402849E-2
1.971817700E-2,-2.321287990E-2,-1.594358236E-1,4.520402849E-2
2.173303200E-2,-2.321287990E-2,-1.594358236E-1,4.520402849E-2
2.371581000E-2,-2.321287990E-2,-1.594358236E-1,4.520402849E-2
2.573112500E-2,-2.321287990E-2,-1.594358236E-1,4.520402849E-2
2.771551800E-2,-2.321287990E-2,-1.594358236E-1,4.520402849E-2
2.972837300E-2,-2.321287990E-2,-1.594358236E-1,4.520402849E-2
3.171092000E-2,-2.321287990E-2,-1.594358236E-1,4.520402849E-2
3.372654300E-2,-2.321287990E-2,-1.594358236E-1,4.520402849E-2
3.574070600E-2,-2.321287990E-2,-1.594358236E-1,4.520402849E-2
3.772348300E-2,-2.321287990E-2,-1.594358236E-1,4.520402849E-2
3.973856800E-2,-2.321287990E-2,-1.594358236E-1,4.520402849E-2
4.172196100E-2,-2.321287990E-2,-1.594358236E-1,4.520402849E-2
4.373550800E-2,-2.321287990E-2,-1.594358236E-1,4.520402849E-2
4.571951600E-2,-2.321287990E-2,-1.594358236E-1,4.520402849E-2
4.773460100E-2,-2.321287990E-2,-1.594358236E-1,4.520402849E-2
4.971745500E-2,-2.321287990E-2,-1.594358236E-1,4.520402849E-2
5.173154100E-2,-2.321287990E-2,-1.594358236E-1,4.520402849E-2
5.371531800E-2,-2.321287990E-2,-1.594358236E-1,4.520402849E-2
5.572909600E-2,-2.321287990E-2,-1.594358236E-1,4.520402849E-2
5.771279700E-2,-2.321287990E-2,-1.594358236E-1,4.520402849E-2
5.972757400E-2,-2.321287990E-2,-1.594358236E-1,4.520402849E-2
6.174212100E-2,-2.321287990E-2,-1.594358236E-1,4.520402849E-2
6.372543700E-2,-2.321287990E-2,-1.594358236E-1,4.520402849E-2
6.573906100E-2,-2.321287990E-2,-1.594358236E-1,4.520402849E-2
6.772399200E-2,-2.321287990E-2,-1.594358236E-1,4.520402849E-2
6.973692300E-2,-2.321287990E-2,-1.594358236E-1,4.520402849E-2
7.172031600E-2,-1.319468915E-1,-1.185078546E-1,6.108652428E-2
7.373409400E-2,-1.337794960E-1,-1.227839142E-1,6.230825558E-2
7.571840900E-2,-1.368338168E-1,-1.295034289E-1,6.291911751E-2
7.773264900E-2,-1.374446750E-1,-1.325577646E-1,6.108652428E-2
7.971604200E-2,-1.386664063E-1,-1.398881376E-1,6.169738993E-2
8.173074200E-2,-1.423316002E-1,-1.441642046E-1,6.291911751E-2
8.371421200E-2,-1.466076523E-1,-1.441642046E-1,6.169738993E-2
8.572829800E-2,-1.502728462E-1,-1.453859210E-1,6.108652428E-2
8.771169000E-2,-1.539380401E-1,-1.453859210E-1,5.742133409E-2
8.972685200E-2,-1.545489132E-1,-1.459967941E-1,5.681046844E-2
9.174063000E-2,-1.606575549E-1,-1.429424733E-1,5.497787148E-2
9.372379200E-2,-1.649336219E-1,-1.404990107E-1,5.558873713E-2
9.573764600E-2,-1.649336219E-1,-1.386664063E-1,5.558873713E-2
9.772157700E-2,-1.710422635E-1,-1.343903542E-1,5.436700583E-2
9.973543300E-2,-1.747074574E-1,-1.295034289E-1,5.436700583E-2
1.017197480E-1,-1.759291887E-1,-1.258382350E-1,5.436700583E-2
1.037339100E-1,-1.808161139E-1,-1.227839142E-1,5.619960278E-2
1.057167650E-1,-1.820378453E-1,-1.209513173E-1,5.619960278E-2
1.077330040E-1,-1.857030392E-1,-1.166752651E-1,5.803219974E-2
1.097151660E-1,-1.869247705E-1,-1.099557430E-1,6.108652428E-2
1.117287890E-1,-1.905899495E-1,-1.111774743E-1,6.169738993E-2
1.137137210E-1,-1.948660165E-1,-1.032362282E-1,6.475171447E-2
1.157274990E-1,-1.979203373E-1,-9.896016866E-2,6.963863969E-2
1.177404300E-1,-1.997529417E-1,-9.773843735E-2,7.024950534E-2
1.197254390E-1,-2.021963894E-1,-9.346238524E-2,7.452555746E-2
1.217395240E-1,-2.046398520E-1,-9.285151958E-2,7.635815442E-2
1.237223780E-1,-2.058615834E-1,-8.979719132E-2,7.819075137E-2
1.257370780E-1,-2.119702399E-1,-8.552113175E-2,8.002334833E-2
1.277213950E-1,-2.193006277E-1,-8.307767659E-2,8.307767659E-2
1.297349410E-1,-2.186897546E-1,-8.491026610E-2,8.735372871E-2
1.317190260E-1,-2.241875380E-1,-8.368854225E-2,9.224065393E-2
1.337328040E-1,-2.272418737E-1,-8.613199741E-2,9.285151958E-2
1.357165050E-1,-2.260201424E-1,-8.735372871E-2,9.224065393E-2
1.377303590E-1,-2.266310006E-1,-9.162978828E-2,9.407325089E-2
1.397141360E-1,-2.302961946E-1,-9.224065393E-2,9.285151958E-2
1.417285300E-1,-2.296853364E-1,-9.529497474E-2,9.162978828E-2
1.437119220E-1,-2.321287990E-1,-1.007927656E-1,9.285151958E-2
1.457264690E-1,-2.327396572E-1,-1.026253626E-1,9.346238524E-2
1.477405550E-1,-2.364048511E-1,-1.069014147E-1,9.224065393E-2
1.497240240E-1,-2.400700450E-1,-1.111774743E-1,9.468411654E-2
1.517371860E-1,-2.412917763E-1,-1.136209369E-1,9.529497474E-2
1.537212710E-1,-2.467895597E-1,-1.203404516E-1,9.651670605E-2
1.557360490E-1,-2.516764700E-1,-1.252273768E-1,9.957103431E-2
1.577191340E-1,-2.528982162E-1,-1.270599663E-1,1.014036313E-1
1.597332190E-1,-2.528982162E-1,-1.337794960E-1,1.075122803E-1
1.617175360E-1,-2.571742535E-1,-1.398881376E-1,1.117883399E-1
1.637313900E-1,-2.590068579E-1,-1.429424733E-1,1.148426682E-1
1.657157830E-1,-2.596177161E-1,-1.502728462E-1,1.185078546E-1
1.677295600E-1,-2.620611787E-1,-1.569923609E-1,1.246165112E-1
1.697127230E-1,-2.626720667E-1,-1.594358236E-1,1.276708394E-1
1.717274230E-1,-2.620611787E-1,-1.643227488E-1,1.295034289E-1
1.737416620E-1,-2.614503205E-1,-1.716531366E-1,1.331686229E-1
1.757250550E-1,-2.638937831E-1,-1.747074574E-1,1.356120855E-1
1.777392170E-1,-2.645046413E-1,-1.759291887E-1,1.417207420E-1
1.797234560E-1,-2.675589919E-1,-1.789835095E-1,1.423316002E-1
1.817370040E-1,-2.681698501E-1,-1.795943826E-1,1.459967941E-1
1.837203960E-1,-2.724458873E-1,-1.820378453E-1,1.502728462E-1
1.857346350E-1,-2.724458873E-1,-1.832595766E-1,1.521054506E-1
1.877198740E-1,-2.761110961E-1,-1.802052408E-1,1.551597714E-1
1.897324210E-1,-2.803871334E-1,-1.820378453E-1,1.588249654E-1
1.917161210E-1,-2.791654170E-1,-1.826487035E-1,1.606575549E-1
1.937312060E-1,-2.809980214E-1,-1.850921661E-1,1.643227488E-1
1.957146760E-1,-2.834414840E-1,-1.844813079E-1,1.637118906E-1
1.977276080E-1,-2.828305960E-1,-1.863138974E-1,1.649336219E-1
1.997432310E-1,-2.846632004E-1,-1.863138974E-1,1.667662114E-1
2.017263160E-1,-2.852740586E-1,-1.838704348E-1,1.710422635E-1
2.037399410E-1,-2.871066630E-1,-1.857030392E-1,1.753183305E-1
2.057239490E-1,-2.889392674E-1,-1.838704348E-1,1.747074574E-1
2.077386490E-1,-2.877175212E-1,-1.838704348E-1,1.765400618E-1
2.097220420E-1,-2.901609838E-1,-1.826487035E-1,1.765400618E-1
2.117365120E-1,-2.919935882E-1,-1.802052408E-1,1.789835095E-1
2.137195970E-1,-2.926044464E-1,-1.789835095E-1,1.783726513E-1
2.157331440E-1,-2.932153046E-1,-1.753183305E-1,1.832595766E-1
2.177174600E-1,-2.956587672E-1,-1.710422635E-1,1.802052408E-1
2.197320070E-1,-2.974913716E-1,-1.685988009E-1,1.820378453E-1
2.217150920E-1,-2.987131178E-1,-1.624901593E-1,1.814269722E-1
2.237292550E-1,-2.993239760E-1,-1.576032341E-1,1.814269722E-1
2.257129550E-1,-3.011565804E-1,-1.551597714E-1,1.820378453E-1
2.277277320E-1,-3.005456924E-1,-1.533271819E-1,1.795943826E-1
2.297418940E-1,-3.023782969E-1,-1.472185254E-1,1.789835095E-1
2.317245950E-1,-3.017674387E-1,-1.459967941E-1,1.777617931E-1
2.337382190E-1,-2.999348342E-1,-1.411098689E-1,1.759291887E-1
2.357231500E-1,-3.005456924E-1,-1.404990107E-1,1.759291887E-1
2.377370050E-1,-3.011565804E-1,-1.362229437E-1,1.722639948E-1
2.397203210E-1,-3.023782969E-1,-1.325577646E-1,1.704314053E-1
2.417345590E-1,-3.042109013E-1,-1.331686229E-1,1.722639948E-1
2.437176440E-1,-3.011565804E-1,-1.288925707E-1,1.734857261E-1
2.457330380E-1,-3.011565804E-1,-1.301143020E-1,1.704314053E-1
2.477167380E-1,-3.017674387E-1,-1.319468915E-1,1.710422635E-1
2.497308230E-1,-3.023782969E-1,-1.343903542E-1,1.685988009E-1
2.517146000E-1,-2.993239760E-1,-1.356120855E-1,1.692096740E-1
2.537280710E-1,-3.042109013E-1,-1.362229437E-1,1.679879427E-1
2.557419250E-1,-3.048217595E-1,-1.435533315E-1,1.685988009E-1
2.577262410E-1,-3.048217595E-1,-1.472185254E-1,1.710422635E-1
2.597401730E-1,-3.060434759E-1,-1.508837193E-1,1.692096740E-1
2.617234890E-1,-3.011565804E-1,-1.582140923E-1,1.716531366E-1
2.637377270E-1,-3.017674387E-1,-1.643227488E-1,1.698205322E-1
2.657217360E-1,-3.005456924E-1,-1.698205322E-1,1.685988009E-1
2.677365140E-1,-2.981022298E-1,-1.771509200E-1,1.685988009E-1
2.697195990E-1,-2.987131178E-1,-1.820378453E-1,1.673770845E-1
2.717340680E-1,-2.981022298E-1,-1.887573600E-1,1.661553532E-1
2.737180000E-1,-2.950479090E-1,-2.009746730E-1,1.661553532E-1
2.757325470E-1,-2.932153046E-1,-2.076941878E-1,1.637118906E-1
2.777144010E-1,-2.883284092E-1,-2.174680233E-1,1.612684280E-1
2.797291790E-1,-2.889392674E-1,-2.296853364E-1,1.594358236E-1
2.817125720E-1,-2.846632004E-1,-2.339613885E-1,1.582140923E-1
2.837270410E-1,-2.822197378E-1,-2.419026345E-1,1.576032341E-1
2.857414340E-1,-2.828305960E-1,-2.467895597E-1,1.533271819E-1
2.877269810E-1,-2.816088796E-1,-2.522873580E-1,1.527163088E-1
2.897390660E-1,-2.791654170E-1,-2.571742535E-1,1.514945775E-1
2.917233050E-1,-2.809980214E-1,-2.614503205E-1,1.508837193E-1
2.937372370E-1,-2.809980214E-1,-2.632829249E-1,1.521054506E-1
2.957205530E-1,-2.767219543E-1,-2.712241709E-1,1.496619880E-1
2.977347150E-1,-2.736676335E-1,-2.779437006E-1,1.490511149E-1
2.997181070E-1,-2.718350291E-1,-2.816088796E-1,1.490511149E-1
3.017320390E-1,-2.687807083E-1,-2.840523422E-1,1.502728462E-1
3.037156630E-1,-2.669481039E-1,-2.852740586E-1,1.496619880E-1
3.057295940E-1,-2.638937831E-1,-2.822197378E-1,1.484402567E-1
3.077153720E-1,-2.608394623E-1,-2.736676335E-1,1.527163088E-1
3.097283030E-1,-2.626720667E-1,-2.700024247E-1,1.508837193E-1
3.117391570E-1,-2.596177161E-1,-2.596177161E-1,1.514945775E-1
3.137253190E-1,-2.596177161E-1,-2.474004179E-1,1.502728462E-1
3.157400200E-1,-2.583959997E-1,-2.449569702E-1,1.508837193E-1
3.177237980E-1,-2.577851415E-1,-2.376265824E-1,1.478293836E-1
3.197376520E-1,-2.559525371E-1,-2.315179259E-1,1.453859210E-1
3.217215840E-1,-2.559525371E-1,-2.284636050E-1,1.447750628E-1
3.237358230E-1,-2.528982162E-1,-2.241875380E-1,1.423316002E-1
3.257197540E-1,-2.516764700E-1,-2.186897546E-1,1.398881376E-1
3.277339920E-1,-2.522873580E-1,-2.168571651E-1,1.386664063E-1
3.297176170E-1,-2.522873580E-1,-2.089159191E-1,1.386664063E-1
3.317318560E-1,-2.528982162E-1,-2.003637999E-1,1.374446750E-1
3.337151710E-1,-2.522873580E-1,-1.936442852E-1,1.380555481E-1
3.357291030E-1,-2.528982162E-1,-1.838704348E-1,1.380555481E-1
3.377128040E-1,-2.528982162E-1,-1.789835095E-1,1.374446750E-1
3.397275040E-1,-2.547308207E-1,-1.673770845E-1,1.362229437E-1
3.417414350E-1,-2.565633953E-1,-1.551597714E-1,1.350012124E-1
3.437247520E-1,-2.504547536E-1,-1.533271819E-1,1.356120855E-1
3.457389910E-1,-2.486221492E-1,-1.478293836E-1,1.307251602E-1
3.477236140E-1,-2.467895597E-1,-1.466076523E-1,1.301143020E-1
3.497371610E-1,-2.443460971E-1,-1.508837193E-1,1.252273768E-1
3.517199390E-1,-2.400700450E-1,-1.624901593E-1,1.246165112E-1
3.537347160E-1,-2.345722616E-1,-1.740965992E-1,1.203404516E-1
3.557186470E-1,-2.327396572E-1,-1.832595766E-1,1.172861308E-1
3.577318870E-1,-2.290744632E-1,-1.979203373E-1,1.117883399E-1
3.597162790E-1,-2.272418737E-1,-2.083050460E-1,1.075122803E-1
3.617307490E-1,-2.247984111E-1,-2.125810981E-1,1.062905490E-1
3.637143730E-1,-2.217440903E-1,-2.211332172E-1,1.014036313E-1
3.657282280E-1,-2.180788964E-1,-2.254092693E-1,9.957103431E-2
3.677439280E-1,-2.131919712E-1,-2.364048511E-1,9.529497474E-2
3.697263970E-1,-2.028072625E-1,-2.504547536E-1,9.285151958E-2
3.717403290E-1,-2.028072625E-1,-2.571742535E-1,9.040805697E-2
3.737234140E-1,-1.979203373E-1,-2.706133127E-1,8.429940045E-2
3.757378070E-1,-1.930334121E-1,-2.852740586E-1,8.063421398E-2
3.777215080E-1,-1.924225539E-1,-2.895501256E-1,7.574728876E-2
3.797353620E-1,-1.912008226E-1,-3.017674387E-1,7.024950534E-2
3.817202940E-1,-1.893682331E-1,-3.145956099E-1,6.841690838E-2
3.837341480E-1,-1.881465018E-1,-3.176499307E-1,6.597344577E-2
3.857184640E-1,-1.850921661E-1,-3.249803185E-1,6.475171447E-2
3.877320880E-1,-1.844813079E-1,-3.292563558E-1,5.925392732E-2
3.897145570E-1,-1.850921661E-1,-3.304781020E-1,6.047565863E-2
3.917284120E-1,-1.826487035E-1,-3.335324228E-1,5.925392732E-2
3.937428820E-1,-1.820378453E-1,-3.347541690E-1,5.864306539E-2
3.957271210E-1,-1.838704348E-1,-3.335324228E-1,5.925392732E-2
3.977412840E-1,-1.820378453E-1,-3.329215646E-1,6.169738993E-2
3.997241380E-1,-1.838704348E-1,-3.292563558E-1,6.047565863E-2
4.017391460E-1,-1.850921661E-1,-3.286454976E-1,6.047565863E-2
4.037226150E-1,-1.844813079E-1,-3.200933933E-1,5.864306539E-2
4.057364710E-1,-1.869247705E-1,-3.176499307E-1,5.864306539E-2
4.077210940E-1,-1.905899495E-1,-3.072652221E-1,6.230825558E-2
4.097346400E-1,-1.918116808E-1,-2.993239760E-1,6.536258012E-2
4.117198020E-1,-1.942551434E-1,-2.932153046E-1,6.719517708E-2
4.137330420E-1,-1.948660165E-1,-2.846632004E-1,7.086037099E-2
4.157158190E-1,-1.985312104E-1,-2.730567753E-1,7.452555746E-2
4.177300580E-1,-1.997529417E-1,-2.675589919E-1,7.635815442E-2
4.197136820E-1,-2.028072625E-1,-2.602286041E-1,7.941248268E-2
4.217282290E-1,-2.040289938E-1,-2.535090744E-1,8.246681094E-2
4.237426210E-1,-2.052507252E-1,-2.486221492E-1,8.613199741E-2
4.257263220E-1,-2.040289938E-1,-2.486221492E-1,8.979719132E-2
4.277414850E-1,-2.052507252E-1,-2.455678284E-1,9.285151958E-2
4.297236470E-1,-2.076941878E-1,-2.455678284E-1,9.285151958E-2
4.317381160E-1,-2.101376504E-1,-2.443460971E-1,1.001819000E-1
4.337223560E-1,-2.113593817E-1,-2.467895597E-1,9.957103431E-2
4.357359020E-1,-2.119702399E-1,-2.516764700E-1,1.038470939E-1
4.377184490E-1,-2.107485086E-1,-2.547308207E-1,1.087340117E-1
4.397343810E-1,-2.095267773E-1,-2.565633953E-1,1.087340117E-1
4.417177730E-1,-2.064724565E-1,-2.626720667E-1,1.111774743E-1
4.437316280E-1,-2.089159191E-1,-2.675589919E-1,1.123992056E-1
4.457156360E-1,-2.040289938E-1,-2.724458873E-1,1.154535338E-1
4.477307220E-1,-1.985312104E-1,-2.748893499E-1,1.154535338E-1
4.497129600E-1,-1.960877478E-1,-2.791654170E-1,1.142318025E-1
4.517273530E-1,-1.948660165E-1,-2.791654170E-1,1.166752651E-1
4.537412850E-1,-1.899790913E-1,-2.791654170E-1,1.130100712E-1
4.557249080E-1,-1.887573600E-1,-2.767219543E-1,1.093448773E-1
4.577394550E-1,-1.850921661E-1,-2.773328125E-1,1.087340117E-1
4.597224630E-1,-1.777617931E-1,-2.748893499E-1,1.014036313E-1
4.617372410E-1,-1.728748679E-1,-2.718350291E-1,9.773843735E-2
4.637206340E-1,-1.716531366E-1,-2.706133127E-1,9.407325089E-2
4.657354110E-1,-1.704314053E-1,-2.669481039E-1,8.918632567E-2
4.677197270E-1,-1.685988009E-1,-2.645046413E-1,8.613199741E-2
4.697326590E-1,-1.698205322E-1,-2.583959997E-1,7.880161703E-2
4.717152050E-1,-1.692096740E-1,-2.547308207E-1,7.574728876E-2
4.737302900E-1,-1.692096740E-1,-2.559525371E-1,7.452555746E-2
4.757136070E-1,-1.655444801E-1,-2.547308207E-1,7.086037099E-2
4.777281530E-1,-1.631010175E-1,-2.559525371E-1,7.147123665E-2
4.797425460E-1,-1.594358236E-1,-2.608394623E-1,7.269296050E-2
4.817263240E-1,-1.594358236E-1,-2.669481039E-1,7.269296050E-2
4.837401010E-1,-1.563815027E-1,-2.779437006E-1,7.208210230E-2
4.857238020E-1,-1.563815027E-1,-2.840523422E-1,7.269296050E-2
4.877389640E-1,-1.551597714E-1,-2.956587672E-1,7.391469181E-2
4.897216650E-1,-1.576032341E-1,-3.048217595E-1,7.391469181E-2
4.917368270E-1,-1.563815027E-1,-3.090978265E-1,7.452555746E-2
4.937192190E-1,-1.551597714E-1,-3.213151097E-1,7.513642311E-2
4.957337670E-1,-1.521054506E-1,-3.274237812E-1,7.574728876E-2
4.977168520E-1,-1.502728462E-1,-3.329215646E-1,7.574728876E-2
4.997306290E-1,-1.508837193E-1,-3.451388776E-1,7.391469181E-2
5.017152520E-1,-1.478293836E-1,-3.500257730E-1,7.147123665E-2
5.037285690E-1,-1.453859210E-1,-3.628539443E-1,6.902777404E-2
5.057436540E-1,-1.411098689E-1,-3.714060783E-1,6.719517708E-2
5.077282770E-1,-1.398881376E-1,-3.750712574E-1,6.291911751E-2
5.097418250E-1,-1.374446750E-1,-3.842342496E-1,5.925392732E-2
5.117249100E-1,-1.368338168E-1,-3.891211748E-1,5.192354694E-2
5.137386870E-1,-1.325577646E-1,-3.946189582E-1,4.948008433E-2
5.157233100E-1,-1.288925707E-1,-3.995058835E-1,4.337143153E-2
5.177356270E-1,-1.264491081E-1,-4.031710625E-1,3.481931984E-2
5.197209430E-1,-1.270599663E-1,-4.074471295E-1,3.054326214E-2
5.217347200E-1,-1.252273768E-1,-4.074471295E-1,2.199114859E-2
5.237184210E-1,-1.215621829E-1,-4.111123085E-1,1.404990070E-2
5.257329680E-1,-1.191187203E-1,-4.129449129E-1,1.282817032E-2
5.277172840E-1,-1.166752651E-1,-4.111123085E-1,2.443460980E-3
5.297298300E-1,-1.178969890E-1,-4.117231667E-1,6.108652451E-4
5.317151470E-1,-1.142318025E-1,-4.117231667E-1,-6.108652335E-3
5.337280780E-1,-1.105666086E-1,-4.086688459E-1,-1.466076635E-2
5.357418550E-1,-1.093448773E-1,-4.050036669E-1,-1.771509275E-2
5.377258640E-1,-1.062905490E-1,-3.964515328E-1,-2.565634064E-2
5.397400260E-1,-1.001819000E-1,-3.915646076E-1,-2.993239649E-2
5.417237260E-1,-9.957103431E-2,-3.872885704E-1,-3.420845419E-2
5.437385800E-1,-9.651670605E-2,-3.769038618E-1,-3.726277873E-2
5.457210510E-1,-9.162978828E-2,-3.640756905E-1,-4.092797264E-2
5.477370590E-1,-9.162978828E-2,-3.567453027E-1,-4.276056588E-2
5.497195280E-1,-9.101892263E-2,-3.390302062E-1,-4.398229718E-2
5.517323840E-1,-8.857546002E-2,-3.237585723E-1,-4.520402849E-2
5.537170840E-1,-8.918632567E-2,-3.121521473E-1,-4.764748737E-2
5.557315530E-1,-9.162978828E-2,-2.926044464E-1,-4.703662544E-2
5.577143310E-1,-9.040805697E-2,-2.736676335E-1,-4.642575979E-2
5.597287240E-1,-9.101892263E-2,-2.620611787E-1,-4.825835302E-2
5.617444250E-1,-9.224065393E-2,-2.412917763E-1,-4.764748737E-2
5.637272790E-1,-9.346238524E-2,-2.302961946E-1,-4.581489414E-2
5.657411340E-1,-9.162978828E-2,-2.095267773E-1,-4.825835302E-2
5.677259880E-1,-9.162978828E-2,-1.893682331E-1,-4.764748737E-2
5.697395350E-1,-9.285151958E-2,-1.802052408E-1,-4.764748737E-2
5.717239270E-1,-9.773843735E-2,-1.612684280E-1,-4.948008433E-2
5.737362440E-1,-1.001819000E-1,-1.429424733E-1,-4.764748737E-2
5.757199440E-1,-9.957103431E-2,-1.374446750E-1,-4.581489414E-2
5.777347210E-1,-1.056796908E-1,-1.221730486E-1,-4.520402849E-2
5.797184230E-1,-1.069014147E-1,-1.062905490E-1,-4.337143153E-2
5.817322770E-1,-1.069014147E-1,-1.001819000E-1,-4.092797264E-2
5.837165160E-1,-1.111774743E-1,-8.857546002E-2,-3.665191308E-2
5.857306770E-1,-1.160643995E-1,-8.063421398E-2,-3.298672289E-2
5.877149940E-1,-1.172861308E-1,-7.513642311E-2,-3.237585723E-2
5.897282330E-1,-1.185078546E-1,-6.902777404E-2,-2.871066704E-2
5.917418560E-1,-1.191187203E-1,-6.597344577E-2,-2.382374369E-2
5.937267120E-1,-1.215621829E-1,-6.536258012E-2,-2.076941915E-2
5.957405660E-1,-1.252273768E-1,-6.414084882E-2,-1.710422710E-2
5.977234200E-1,-1.246165112E-1,-6.475171447E-2,-1.343903504E-2
5.997384290E-1,-1.288925707E-1,-6.291911751E-2,-9.162978269E-3
6.017218980E-1,-1.313360333E-1,-6.658431143E-2,-3.665191587E-3
6.037354450E-1,-1.350012124E-1,-6.536258012E-2,-1.832595794E-3
6.057193760E-1,-1.343903542E-1,-6.597344577E-2,3.665191587E-3
6.077336160E-1,-1.356120855E-1,-7.024950534E-2,6.108652335E-3
6.097172390E-1,-1.343903542E-1,-7.330382615E-2,1.038470957E-2
6.117314010E-1,-1.343903542E-1,-7.635815442E-2,1.588249579E-2
6.137151010E-1,-1.331686229E-1,-8.063421398E-2,2.138028294E-2
6.157295720E-1,-1.343903542E-1,-8.307767659E-2,2.260201424E-2
6.177431180E-1,-1.343903542E-1,-8.857546002E-2,2.443460934E-2
6.197268190E-1,-1.343903542E-1,-9.346238524E-2,2.748893574E-2
6.217412890E-1,-1.325577646E-1,-9.651670605E-2,2.932153270E-2
6.237247590E-1,-1.325577646E-1,-9.834930301E-2,3.298672289E-2
6.257392280E-1,-1.307251602E-1,-1.038470939E-1,3.420845419E-2
6.277237750E-1,-1.325577646E-1,-1.044579595E-1,3.359758854E-2
6.297370140E-1,-1.295034289E-1,-1.081231460E-1,3.848451003E-2
6.317197920E-1,-1.301143020E-1,-1.075122803E-1,3.787364438E-2
6.337340300E-1,-1.276708394E-1,-1.093448773E-1,4.153883830E-2
6.357185780E-1,-1.252273768E-1,-1.087340117E-1,4.214970022E-2
6.377328170E-1,-1.264491081E-1,-1.087340117E-1,4.276056588E-2
6.397158250E-1,-1.227839142E-1,-1.117883399E-1,4.520402849E-2
6.417306800E-1,-1.197295859E-1,-1.130100712E-1,4.948008433E-2
6.437146110E-1,-1.178969890E-1,-1.111774743E-1,4.642575979E-2
6.457285420E-1,-1.172861308E-1,-1.093448773E-1,4.764748737E-2
6.477423960E-1,-1.123992056E-1,-1.105666086E-1,4.886921868E-2
6.497257900E-1,-1.117883399E-1,-1.093448773E-1,4.948008433E-2
6.517404900E-1,-1.111774743E-1,-1.075122803E-1,4.764748737E-2
6.537236520E-1,-1.075122803E-1,-1.056796908E-1,4.948008433E-2
6.557375070E-1,-1.062905490E-1,-1.056796908E-1,4.581489414E-2
6.577217460E-1,-1.038470939E-1,-1.069014147E-1,4.642575979E-2
6.597359080E-1,-1.026253626E-1,-1.032362282E-1,4.337143153E-2
6.617202230E-1,-9.896016866E-2,-1.038470939E-1,3.909537569E-2
6.637335400E-1,-9.834930301E-2,-1.044579595E-1,3.848451003E-2
6.657174710E-1,-9.468411654E-2,-1.020144969E-1,3.726277873E-2
6.677326330E-1,-9.468411654E-2,-1.014036313E-1,3.909537569E-2
6.697154100E-1,-8.857546002E-2,-1.014036313E-1,3.420845419E-2
6.717294960E-1,-8.918632567E-2,-1.026253626E-1,3.359758854E-2
6.737443500E-1,-8.674286306E-2,-1.032362282E-1,3.420845419E-2
6.757270510E-1,-8.246681094E-2,-1.050688252E-1,3.237585723E-2
6.777412900E-1,-8.246681094E-2,-1.044579595E-1,3.054326214E-2
6.797255290E-1,-7.880161703E-2,-1.087340117E-1,3.054326214E-2
6.817390760E-1,-7.513642311E-2,-1.130100712E-1,2.993239649E-2
6.837228530E-1,-7.147123665E-2,-1.154535338E-1,3.237585723E-2
6.857364000E-1,-7.024950534E-2,-1.227839142E-1,2.809980139E-2
6.877213320E-1,-6.902777404E-2,-1.282816976E-1,2.809980139E-2
6.897345700E-1,-6.597344577E-2,-1.313360333E-1,2.565634064E-2
6.917191950E-1,-6.536258012E-2,-1.392772794E-1,2.443460934E-2
6.937327410E-1,-6.475171447E-2,-1.423316002E-1,2.260201424E-2
6.957160570E-1,-6.108652428E-2,-1.502728462E-1,2.199114859E-2
6.977302200E-1,-6.169738993E-2,-1.576032341E-1,1.832595654E-2
6.997142280E-1,-6.352998316E-2,-1.606575549E-1,1.771509275E-2
7.017278510E-1,-6.414084882E-2,-1.692096740E-1,1.771509275E-2
7.037422440E-1,-6.475171447E-2,-1.783726513E-1,1.649336144E-2
7.057260220E-1,-6.780604273E-2,-1.838704348E-1,1.649336144E-2
7.077410300E-1,-6.902777404E-2,-1.905899495E-1,1.649336144E-2
7.097238070E-1,-6.902777404E-2,-2.003637999E-1,1.527163107E-2
7.117373550E-1,-6.963863969E-2,-2.058615834E-1,1.771509275E-2
7.137205160E-1,-7.269296050E-2,-2.113593817E-1,1.832595654E-2
7.157352940E-1,-7.208210230E-2,-2.174680233E-1,2.015855350E-2
7.177193020E-1,-7.147123665E-2,-2.180788964E-1,2.138028294E-2
7.197333880E-1,-7.391469181E-2,-2.229658216E-1,2.504547499E-2
7.217171650E-1,-7.513642311E-2,-2.247984111E-1,2.626720630E-2
7.237310190E-1,-7.635815442E-2,-2.272418737E-1,2.626720630E-2
7.257155660E-1,-7.513642311E-2,-2.315179259E-1,3.054326214E-2
7.277297280E-1,-7.452555746E-2,-2.290744632E-1,3.176499158E-2
7.297427360E-1,-7.452555746E-2,-2.327396572E-1,3.176499158E-2
7.317275910E-1,-7.269296050E-2,-2.327396572E-1,3.481931984E-2
7.337409070E-1,-7.269296050E-2,-2.351831198E-1,3.481931984E-2
7.357243000E-1,-7.086037099E-2,-2.364048511E-1,3.726277873E-2
7.377386920E-1,-7.147123665E-2,-2.382374406E-1,3.909537569E-2
7.397224710E-1,-7.086037099E-2,-2.388483137E-1,4.031710699E-2
7.417369400E-1,-6.841690838E-2,-2.431243658E-1,4.092797264E-2
7.437202560E-1,-6.475171447E-2,-2.474004179E-1,4.214970022E-2
7.457347250E-1,-6.414084882E-2,-2.492330223E-1,4.153883830E-2
7.477193500E-1,-6.169738993E-2,-2.528982162E-1,4.214970022E-2
7.497329730E-1,-5.986479297E-2,-2.614503205E-1,3.848451003E-2
7.517156740E-1,-5.742133409E-2,-2.645046413E-1,3.970624134E-2
7.537313750E-1,-5.436700583E-2,-2.742784917E-1,3.909537569E-2
7.557150750E-1,-5.070181563E-2,-2.791654170E-1,3.787364438E-2
7.577268520E-1,-4.948008433E-2,-2.901609838E-1,3.726277873E-2
7.597418600E-1,-4.459316283E-2,-3.029891551E-1,3.298672289E-2
7.617261770E-1,-4.276056588E-2,-3.078760803E-1,3.176499158E-2
7.637404160E-1,-3.970624134E-2,-3.213151097E-1,2.932153270E-2
7.657243470E-1,-3.298672289E-2,-3.341432810E-1,2.626720630E-2
7.677391250E-1,-3.115412779E-2,-3.426954150E-1,2.748893574E-2
7.697215950E-1,-2.687807009E-2,-3.573561609E-1,2.443460934E-2
7.717372950E-1,-2.565634064E-2,-3.732386529E-1,2.260201424E-2
7.737197650E-1,-2.199114859E-2,-3.799581826E-1,2.260201424E-2
7.757330040E-1,-1.771509275E-2,-3.964515328E-1,1.893682219E-2
7.777176280E-1,-1.404990070E-2,-4.129449129E-1,1.893682219E-2
7.797315590E-1,-1.099557430E-2,-4.196644127E-1,1.710422710E-2
7.817151830E-1,-9.162978269E-3,-4.379903674E-1,1.527163107E-2
7.837288070E-1,-3.054326167E-3,-4.550946057E-1,1.404990070E-2
7.857435840E-1,-1.221730490E-3,-4.618141353E-1,1.343903504E-2
7.877278230E-1,3.054326167E-3,-4.825835526E-1,1.099557430E-2
7.897414470E-1,9.162978269E-3,-5.009095073E-1,1.160643995E-2
7.917238400E-1,9.162978269E-3,-5.094616413E-1,1.038470957E-2
7.937389250E-1,1.404990070E-2,-5.271766782E-1,7.941247895E-3
7.957223950E-1,1.771509275E-2,-5.406157374E-1,1.038470957E-2
7.977361720E-1,2.199114859E-2,-5.577199459E-1,1.038470957E-2
7.997211030E-1,2.932153270E-2,-5.803219676E-1,8.552113548E-3
8.017346500E-1,2.993239649E-2,-5.925393105E-1,9.773843922E-3
8.037183510E-1,3.604105115E-2,-6.169738770E-1,6.108652335E-3
8.057322820E-1,3.909537569E-2,-6.371324658E-1,4.886921961E-3
8.077169060E-1,4.520402849E-2,-6.530149579E-1,5.497787148E-3
8.097309920E-1,5.192354694E-2,-6.786713004E-1,6.108652451E-4
8.117146920E-1,5.619960278E-2,-7.073819637E-1,-3.054326167E-3
8.137282380E-1,5.986479297E-2,-7.232644558E-1,-5.497787148E-3
8.157420940E-1,6.536258012E-2,-7.519751191E-1,-1.099557430E-2
8.177255630E-1,7.147123665E-2,-7.819074988E-1,-1.649336144E-2
8.197402630E-1,7.635815442E-2,-7.965682745E-1,-1.954768784E-2
8.217236560E-1,7.880161703E-2,-8.277224302E-1,-2.565634064E-2
8.237372800E-1,8.185594529E-2,-8.423831463E-1,-2.871066704E-2
8.257224420E-1,8.979719132E-2,-8.704829812E-1,-3.359758854E-2
8.277369120E-1,9.651670605E-2,-9.046914577E-1,-3.787364438E-2
8.297187660E-1,9.712757170E-2,-9.181304574E-1,-3.787364438E-2
8.317336210E-1,1.032362282E-1,-9.498954415E-1,-4.214970022E-2
8.337176290E-1,1.081231460E-1,-9.828822017E-1,-4.153883830E-2
8.357326370E-1,1.099557430E-1,-1.001208186E0,-4.153883830E-2
8.377148770E-1,1.081231460E-1,-1.034194827E0,-4.153883830E-2
8.397289620E-1,1.075122803E-1,-1.069014192E0,-4.031710699E-2
8.417437390E-1,1.069014147E-1,-1.087950945E0,-4.153883830E-2
8.437271320E-1,1.093448773E-1,-1.123992085E0,-3.970624134E-2
8.457413710E-1,1.148426682E-1,-1.164919972E0,-4.153883830E-2
8.477259950E-1,1.166752651E-1,-1.186300278E0,-4.214970022E-2
8.497388490E-1,1.178969890E-1,-1.228450060E0,-3.970624134E-2
8.517231660E-1,1.178969890E-1,-1.265101910E0,-3.787364438E-2
8.537373280E-1,1.191187203E-1,-1.286482215E0,-3.604105115E-2
8.557197970E-1,1.227839142E-1,-1.322523236E0,-3.420845419E-2
8.577348830E-1,1.264491081E-1,-1.339016676E0,-3.115412779E-2
8.597179680E-1,1.288925707E-1,-1.372614264E0,-2.748893574E-2
8.617327450E-1,1.307251602E-1,-1.405600905E0,-2.443460934E-2
8.637159070E-1,1.331686229E-1,-1.422094345E0,-2.504547499E-2
8.657313010E-1,1.356120855E-1,-1.454470158E0,-1.893682219E-2
8.677146930E-1,1.380555481E-1,-1.489900351E0,-1.466076635E-2
8.697285470E-1,1.392772794E-1,-1.507004619E0,-1.221730467E-2
8.717405560E-1,1.392772794E-1,-1.543656468E0,-5.497787148E-3
8.737254110E-1,1.423316002E-1,-1.577864885E0,-2.443460980E-3
8.757399570E-1,1.441642046E-1,-1.593136549E0,0.000000000E0
8.777236570E-1,1.447750628E-1,-1.625512362E0,6.108652335E-3
8.797383590E-1,1.472185254E-1,-1.654223084E0,1.038470957E-2
8.817214440E-1,1.453859210E-1,-1.667051196E0,1.282817032E-2
8.837356820E-1,1.441642046E-1,-1.689042449E0,1.832595654E-2
8.857187670E-1,1.435533315E-1,-1.711644411E0,1.893682219E-2
8.877337760E-1,1.429424733E-1,-1.720196486E0,2.443460934E-2
8.897163230E-1,1.380555481E-1,-1.734246373E0,3.054326214E-2
8.917331770E-1,1.343903542E-1,-1.739744186E0,2.993239649E-2
8.937148010E-1,1.288925707E-1,-1.751961470E0,4.031710699E-2
8.957289630E-1,1.221730486E-1,-1.753794074E0,4.520402849E-2
8.977428170E-1,1.185078546E-1,-1.757459283E0,5.009094998E-2
8.997267490E-1,1.130100712E-1,-1.760513663E0,6.047565863E-2
9.017412190E-1,1.056796908E-1,-1.753794074E0,6.902777404E-2
9.037243040E-1,1.038470939E-1,-1.753183246E0,7.208210230E-2
9.057388500E-1,9.896016866E-2,-1.747074604E0,8.185594529E-2
9.077237820E-1,9.101892263E-2,-1.733635545E0,9.101892263E-2
9.097369440E-1,9.040805697E-2,-1.726305127E0,9.346238524E-2
9.117210290E-1,8.368854225E-2,-1.714698792E0,1.038470939E-1
9.137358080E-1,7.941248268E-2,-1.697594523E0,1.087340117E-1
9.157188160E-1,7.513642311E-2,-1.689653277E0,1.148426682E-1
9.177315160E-1,6.841690838E-2,-1.668272972E0,1.209513173E-1
9.197169850E-1,6.841690838E-2,-1.658499122E0,1.233947799E-1
9.217302250E-1,6.291911751E-2,-1.634675384E0,1.307251602E-1
9.237443870E-1,5.742133409E-2,-1.612073421E0,1.374446750E-1
9.257280870E-1,5.436700583E-2,-1.599856019E0,1.411098689E-1
9.277431730E-1,5.070181563E-2,-1.576032281E0,1.447750628E-1
9.297263350E-1,4.764748737E-2,-1.557095528E0,1.533271819E-1
9.317414200E-1,4.764748737E-2,-1.545489073E0,1.576032341E-1
9.337238130E-1,4.276056588E-2,-1.527773976E0,1.624901593E-1
9.357379750E-1,4.214970022E-2,-1.507615447E0,1.698205322E-1
9.377219830E-1,4.153883830E-2,-1.501506805E0,1.722639948E-1
9.397356070E-1,4.214970022E-2,-1.486845970E0,1.795943826E-1
9.417195390E-1,4.337143153E-2,-1.477072120E0,1.899790913E-1
9.437337010E-1,4.520402849E-2,-1.474017859E0,1.924225539E-1
9.457168630E-1,4.764748737E-2,-1.466687441E0,2.034181207E-1
9.477319480E-1,4.886921868E-2,-1.463633180E0,2.119702399E-1
9.497149570E-1,5.314527452E-2,-1.465465665E0,2.144137025E-1
9.517261180E-1,5.619960278E-2,-1.465465665E0,2.247984111E-1
9.537430500E-1,5.742133409E-2,-1.467298269E0,2.327396572E-1
9.557273660E-1,6.230825558E-2,-1.470963478E0,2.400700450E-1
9.577412200E-1,6.658431143E-2,-1.478904724E0,2.516764700E-1
9.597249210E-1,6.963863969E-2,-1.487456918E0,2.571742535E-1
9.617396210E-1,7.086037099E-2,-1.496619821E0,2.693915665E-1
9.637223990E-1,7.757988572E-2,-1.510669708E0,2.791654170E-1
9.657372530E-1,8.002334833E-2,-1.518000126E0,2.864958048E-1
9.677205690E-1,8.246681094E-2,-1.535104394E0,3.005456924E-1
9.697338860E-1,8.491026610E-2,-1.553430319E0,3.127630055E-1
9.717185090E-1,8.857546002E-2,-1.566258430E0,3.188716471E-1
9.737320560E-1,9.101892263E-2,-1.585195303E0,3.280346394E-1
9.757160640E-1,9.407325089E-2,-1.607186437E0,3.414736688E-1
9.777302270E-1,9.468411654E-2,-1.618792892E0,3.488040566E-1
9.797440040E-1,9.712757170E-2,-1.643227458E0,3.597996235E-1
9.817280890E-1,9.590584040E-2,-1.665829539E0,3.695734739E-1
9.837424820E-1,9.651670605E-2,-1.679879427E0,3.756821156E-1
9.857259520E-1,9.590584040E-2,-1.700648785E0,3.836233616E-1
9.877406520E-1,9.590584040E-2,-1.713477015E0,3.903428912E-1
9.897235060E-1,9.468411654E-2,-1.734857321E0,3.976732790E-1
9.917367460E-1,9.346238524E-2,-1.755626678E0,4.050036669E-1
9.937216770E-1,9.224065393E-2,-1.762346268E0,4.062253833E-1
9.957363770E-1,8.735372871E-2,-1.775785327E0,4.135557711E-1
9.977185400E-1,8.613199741E-2,-1.789224267E0,4.202753007E-1
9.997336250E-1,8.368854225E-2,-1.795943856E0,4.221078753E-1
1.001717941E0,8.063421398E-2,-1.802663326E0,4.263839424E-1
1.003731487E0,7.635815442E-2,-1.805106759E0,4.300491214E-1
1.005714958E0,7.330382615E-2,-1.806939363E0,4.294382632E-1
1.007729966E0,6.963863969E-2,-1.804495931E0,4.361577928E-1
1.009742589E0,6.414084882E-2,-1.797165513E0,4.373795092E-1
1.011726983E0,6.047565863E-2,-1.792278647E0,4.386012554E-1
1.013741991E0,5.497787148E-2,-1.783726573E0,4.404338300E-1
1.015724768E0,5.070181563E-2,-1.766622305E0,4.422664344E-1
1.017738623E0,4.642575979E-2,-1.759902716E0,4.434881806E-1
1.019722324E0,4.276056588E-2,-1.740965962E0,4.453207552E-1
1.021736486E0,3.909537569E-2,-1.731192112E0,4.477642179E-1
1.023719570E0,3.237585723E-2,-1.707368374E0,4.489859641E-1
1.025734733E0,2.565634064E-2,-1.683544636E0,4.532620013E-1
1.027719280E0,2.382374369E-2,-1.670105577E0,4.538728893E-1
1.029732288E0,1.893682219E-2,-1.645671010E0,4.563163519E-1
1.031715296E0,1.099557430E-2,-1.615127683E0,4.581489265E-1
1.033729766E0,8.552113548E-3,-1.599856019E0,4.581489265E-1
1.035745159E0,3.665191587E-3,-1.570534587E0,4.624249935E-1
1.037728013E0,6.108652451E-4,-1.539991260E0,4.642575979E-1
1.039742484E0,-2.443460980E-3,-1.523497939E0,4.667010605E-1
1.041725876E0,-6.719517522E-3,-1.494176388E0,4.679227769E-1
1.043739961E0,-8.552113548E-3,-1.464244008E0,4.721988440E-1
1.045723123E0,-9.162978269E-3,-1.449583173E0,4.734205604E-1
1.047738440E0,-1.221730467E-2,-1.419650793E0,4.783074856E-1
1.049722140E0,-9.162978269E-3,-1.393994451E0,4.795292318E-1
1.051737302E0,-8.552113548E-3,-1.381777167E0,4.825835526E-1
1.053719772E0,-7.330383174E-3,-1.357342601E0,4.880813360E-1
1.055733934E0,-4.886921961E-3,-1.345125318E0,4.886921942E-1
1.057717558E0,-6.108652451E-4,-1.324966669E0,4.893030524E-1
1.059730566E0,1.832595794E-3,-1.307862520E0,4.954117239E-1
1.061745652E0,3.665191587E-3,-1.298699498E0,4.960225821E-1
1.063729352E0,9.162978269E-3,-1.287703991E0,5.015203953E-1
1.065743437E0,1.466076635E-2,-1.276708364E0,5.064072609E-1
1.067727754E0,1.649336144E-2,-1.276097536E0,5.106833577E-1
1.069740762E0,2.015855350E-2,-1.273653984E0,5.143485069E-1
1.071724154E0,2.687807009E-2,-1.274264932E0,5.204572082E-1
1.073739855E0,2.871066704E-2,-1.276708364E0,5.216789246E-1
1.075722940E0,3.481931984E-2,-1.281595230E0,5.283984542E-1
1.077735795E0,4.031710699E-2,-1.292590857E0,5.338962078E-1
1.079719880E0,4.153883830E-2,-1.299310327E0,5.375614166E-1
1.081734042E0,4.703662544E-2,-1.315803766E0,5.430592299E-1
1.083717666E0,5.070181563E-2,-1.324966669E0,5.442809463E-1
1.085732443E0,5.436700583E-2,-1.348179579E0,5.528330207E-1
1.087716528E0,5.925392732E-2,-1.370781660E0,5.577199459E-1
1.089730306E0,6.352998316E-2,-1.382387996E0,5.595525503E-1
1.091745391E0,6.719517708E-2,-1.411709547E0,5.644394755E-1
1.093728553E0,7.208210230E-2,-1.442252874E0,5.705481172E-1
1.095741716E0,7.391469181E-2,-1.456913590E0,5.705481172E-1
1.097726339E0,7.635815442E-2,-1.488067746E0,5.723807216E-1
1.099739578E0,7.757988572E-2,-1.516778350E0,5.772676468E-1
1.101723586E0,8.124507964E-2,-1.533271790E0,5.772676468E-1
1.103737441E0,8.124507964E-2,-1.563204169E0,5.784893632E-1
1.105721449E0,8.002334833E-2,-1.588860512E0,5.797111392E-1
1.107736534E0,8.124507964E-2,-1.604743004E0,5.803219676E-1
1.109719082E0,7.819075137E-2,-1.631010175E0,5.809328556E-1
1.111733243E0,7.757988572E-2,-1.653001308E0,5.815436840E-1
1.113716021E0,7.635815442E-2,-1.665218711E0,5.803219676E-1
1.115732260E0,7.452555746E-2,-1.684155464E0,5.809328556E-1
1.117715115E0,7.208210230E-2,-1.692096710E0,5.797111392E-1
1.119728661E0,6.780604273E-2,-1.705535769E0,5.809328556E-1
1.121743746E0,6.475171447E-2,-1.720807433E0,5.833762884E-1
1.123727063E0,6.291911751E-2,-1.725083470E0,5.852088928E-1
1.125741224E0,6.230825558E-2,-1.733635545E0,5.821545720E-1
1.127725925E0,5.864306539E-2,-1.739744186E0,5.815436840E-1
1.129738857E0,5.742133409E-2,-1.741576791E0,5.833762884E-1
1.131723480E0,5.436700583E-2,-1.742798567E0,5.803219676E-1
1.133736411E0,5.253441259E-2,-1.740965962E0,5.815436840E-1
1.135720419E0,4.825835302E-2,-1.739744186E0,5.815436840E-1
1.137734274E0,4.764748737E-2,-1.735468149E0,5.815436840E-1
1.139717590E0,4.459316283E-2,-1.726305127E0,5.809328556E-1
1.141733060E0,4.337143153E-2,-1.722640038E0,5.803219676E-1
1.143716452E0,4.581489414E-2,-1.711644411E0,5.797111392E-1
1.145730231E0,4.825835302E-2,-1.698205352E0,5.778785348E-1
1.147745700E0,5.009094998E-2,-1.689653277E0,5.778785348E-1
1.149728170E0,5.375614017E-2,-1.673159957E0,5.748242140E-1
1.151741409E0,5.436700583E-2,-1.662775159E0,5.736024380E-1
1.153726571E0,5.619960278E-2,-1.643227458E0,5.717698932E-1
1.155739887E0,6.047565863E-2,-1.618182063E0,5.711590052E-1
1.157723204E0,6.230825558E-2,-1.605964780E0,5.717698932E-1
1.159737673E0,6.291911751E-2,-1.579697490E0,5.742133260E-1
1.161721143E0,6.597344577E-2,-1.551597714E0,5.736024380E-1
1.163735305E0,6.841690838E-2,-1.535715222E0,5.742133260E-1
1.165718391E0,7.086037099E-2,-1.506393671E0,5.778785348E-1
1.167734322E0,7.269296050E-2,-1.477683067E0,5.809328556E-1
1.169717407E0,7.513642311E-2,-1.461189628E0,5.833762884E-1
1.171732262E0,7.696902007E-2,-1.432479024E0,5.876523852E-1
1.173715270E0,8.002334833E-2,-1.406211853E0,5.907067060E-1
1.175729124E0,8.124507964E-2,-1.393383622E0,5.925393105E-1
1.177743670E0,8.368854225E-2,-1.365894675E0,5.992587805E-1
1.179727064E0,8.613199741E-2,-1.345736146E0,6.017022729E-1
1.181741226E0,8.735372871E-2,-1.332907915E0,6.035348773E-1
1.183724849E0,9.285151958E-2,-1.311527729E0,6.047565937E-1
1.185739012E0,9.285151958E-2,-1.302364707E0,6.096435189E-1
1.187724020E0,9.712757170E-2,-1.285260439E0,6.072000265E-1
1.189736567E0,1.007927656E-1,-1.266934514E0,6.072000265E-1
1.191719728E0,1.020144969E-1,-1.261436701E0,6.072000265E-1
1.193733507E0,1.026253626E-1,-1.250441194E0,6.065891981E-1
1.195718207E0,1.038470939E-1,-1.237002134E0,6.029239893E-1
1.197732061E0,1.062905490E-1,-1.234558702E0,6.041457057E-1
1.199715762E0,1.081231460E-1,-1.227228284E0,6.023131609E-1
1.201729924E0,1.105666086E-1,-1.222341299E0,6.004805565E-1
1.203744394E0,1.062905490E-1,-1.221119642E0,5.968153477E-1
1.205728094E0,1.056796908E-1,-1.218065262E0,5.968153477E-1
1.207743103E0,1.075122803E-1,-1.220508814E0,5.931501389E-1
1.209725880E0,1.069014147E-1,-1.218065262E0,5.876523852E-1
1.211740735E0,1.081231460E-1,-1.224784851E0,5.827654600E-1
1.213723513E0,1.056796908E-1,-1.226617455E0,5.815436840E-1
1.215737675E0,1.081231460E-1,-1.233947754E0,5.760459304E-1
1.217721375E0,1.069014147E-1,-1.239445567E0,5.729916096E-1
1.219735460E0,1.069014147E-1,-1.244943380E0,5.711590052E-1
1.221719238E0,1.056796908E-1,-1.253495455E0,5.638286471E-1
1.223733938E0,1.044579595E-1,-1.256549835E0,5.564982295E-1
1.225716716E0,1.050688252E-1,-1.263269305E0,5.583308339E-1
1.227733032E0,1.007927656E-1,-1.270599723E0,5.516113043E-1
1.229715810E0,1.007927656E-1,-1.275486588E0,5.473352671E-1
1.231728741E0,1.014036313E-1,-1.279151797E0,5.448917747E-1
1.233743596E0,9.957103431E-2,-1.282817006E0,5.393940210E-1
1.235727527E0,9.651670605E-2,-1.284649611E0,5.357288122E-1
1.237740150E0,9.712757170E-2,-1.284038782E0,5.332853794E-1
1.239725389E0,9.468411654E-2,-1.284038782E0,5.290092826E-1
1.241738937E0,8.979719132E-2,-1.282206178E0,5.253441334E-1
1.243723021E0,8.735372871E-2,-1.281595230E0,5.216789246E-1
1.245737183E0,8.307767659E-2,-1.275486588E0,5.204572082E-1
1.247721191E0,8.063421398E-2,-1.275486588E0,5.174028873E-1
1.249734662E0,7.880161703E-2,-1.269377947E0,5.155702829E-1
1.251718439E0,7.330382615E-2,-1.257160664E0,5.119050741E-1
1.253732293E0,7.147123665E-2,-1.252273798E0,5.094616413E-1
1.255745841E0,6.841690838E-2,-1.240056396E0,5.027421117E-1
1.257730387E0,6.475171447E-2,-1.222341299E0,5.002986193E-1
1.259744241E0,6.414084882E-2,-1.213789225E0,4.978551865E-1
1.261727942E0,6.108652428E-2,-1.193630695E0,4.941899776E-1
1.263743028E0,5.803219974E-2,-1.168585181E0,4.874704778E-1
1.265725497E0,5.803219974E-2,-1.156978726E0,4.862487316E-1
1.267740967E0,5.375614017E-2,-1.130711555E0,4.795292318E-1
1.269723976E0,5.192354694E-2,-1.097724795E0,4.746423066E-1
1.271736907E0,4.886921868E-2,-1.083674908E0,4.709770977E-1
1.273721299E0,4.276056588E-2,-1.048855662E0,4.636467099E-1
1.275735770E0,3.787364438E-2,-1.010982037E0,4.605923891E-1
1.277719086E0,3.726277873E-2,-9.938777685E-1,4.532620013E-1
1.279733247E0,3.176499158E-2,-9.547823668E-1,4.502076805E-1
1.281717025E0,2.871066704E-2,-9.327912331E-1,4.459316432E-1
1.283731111E0,2.260201424E-2,-8.918632865E-1,4.428772926E-1
1.285745580E0,1.771509275E-2,-8.478809595E-1,4.392121136E-1
1.287729896E0,1.710422710E-2,-8.295549750E-1,4.386012554E-1
1.289743443E0,1.038470957E-2,-7.867944241E-1,4.361577928E-1
1.291726913E0,5.497787148E-3,-7.422012687E-1,4.349360466E-1
1.293741075E0,3.665191587E-3,-7.202101350E-1,4.318817258E-1
1.295725006E0,-1.221730490E-3,-6.756169796E-1,4.312708676E-1
1.297739476E0,-7.330383174E-3,-6.352998614E-1,4.312708676E-1
1.299722023E0,-7.330383174E-3,-6.151412725E-1,4.306600094E-1
1.301737031E0,-1.221730467E-2,-5.760459304E-1,4.276056588E-1
1.303719808E0,-1.771509275E-2,-5.375614166E-1,4.288274050E-1
1.305734586E0,-1.710422710E-2,-5.210680366E-1,4.331034720E-1
1.307719210E0,-2.199114859E-2,-4.844161272E-1,4.294382632E-1
1.309732218E0,-2.626720630E-2,-4.532620013E-1,4.294382632E-1
1.311745996E0,-2.504547499E-2,-4.392121136E-1,4.300491214E-1
1.313730312E0,-2.993239649E-2,-4.123340547E-1,4.294382632E-1
1.315744243E0,-2.932153270E-2,-4.001167417E-1,4.288274050E-1
1.317726944E0,-3.237585723E-2,-3.787364662E-1,4.257730842E-1
1.319742721E0,-3.543018550E-2,-3.610213697E-1,4.276056588E-1
1.321726960E0,-3.726277873E-2,-3.518583775E-1,4.263839424E-1
1.323739660E0,-3.726277873E-2,-3.414736688E-1,4.239404798E-1
1.325724515E0,-3.726277873E-2,-3.341432810E-1,4.208861589E-1
1.327738139E0,-3.726277873E-2,-3.310889602E-1,4.214970171E-1
1.329721531E0,-3.787364438E-2,-3.262020350E-1,4.196644127E-1
1.331735925E0,-3.665191308E-2,-3.268128932E-1,4.153883755E-1
1.333719010E0,-3.420845419E-2,-3.262020350E-1,4.135557711E-1
1.335733172E0,-3.543018550E-2,-3.280346394E-1,4.098905921E-1
1.337717257E0,-3.237585723E-2,-3.359758854E-1,4.080579877E-1
1.339730497E0,-3.359758854E-2,-3.384193480E-1,4.043927789E-1
1.341745582E0,-3.176499158E-2,-3.457497358E-1,4.013384581E-1
1.343729897E0,-3.237585723E-2,-3.512475193E-1,3.988949955E-1
1.345744060E0,-3.237585723E-2,-3.604104817E-1,3.940080702E-1
1.347727760E0,-3.054326214E-2,-3.714060783E-1,3.915646076E-1
1.349741922E0,-3.115412779E-2,-3.775147200E-1,3.872885704E-1
1.351724699E0,-2.993239649E-2,-3.933972120E-1,3.830125034E-1
1.353738247E0,-3.176499158E-2,-4.043927789E-1,3.799581826E-1
1.355722255E0,-2.993239649E-2,-4.123340547E-1,3.775147200E-1
1.357736648E0,-3.176499158E-2,-4.245513380E-1,3.726277947E-1
1.359720041E0,-3.054326214E-2,-4.361577928E-1,3.701843321E-1
1.361734895E0,-2.871066704E-2,-4.447098970E-1,3.683517575E-1
1.363718596E0,-2.809980139E-2,-4.532620013E-1,3.646865487E-1
1.365732373E0,-2.626720630E-2,-4.642575979E-1,3.591887653E-1
1.367747459E0,-2.443460934E-2,-4.679227769E-1,3.573561609E-1
1.369730005E0,-2.443460934E-2,-4.728097022E-1,3.530801237E-1
1.371745090E0,-2.443460934E-2,-4.758640230E-1,3.475823104E-1
1.373727792E0,-2.382374369E-2,-4.758640230E-1,3.469714522E-1
1.375742338E0,-2.260201424E-2,-4.746423066E-1,3.426954150E-1
1.377725423E0,-2.504547499E-2,-4.709770977E-1,3.414736688E-1
1.379739892E0,-2.015855350E-2,-4.667010605E-1,3.353650272E-1
1.381723594E0,-2.015855350E-2,-4.575380683E-1,3.323107064E-1
1.383738063E0,-2.076941915E-2,-4.508185387E-1,3.298672438E-1
1.385721148E0,-1.893682219E-2,-4.379903674E-1,3.237585723E-1
1.387736773E0,-2.199114859E-2,-4.184426963E-1,3.200933933E-1
1.389719319E0,-2.260201424E-2,-4.086688459E-1,3.200933933E-1
1.391732250E0,-2.626720630E-2,-3.848451078E-1,3.139847219E-1
1.393748182E0,-2.809980139E-2,-3.628539443E-1,3.139847219E-1
1.395731652E0,-2.932153270E-2,-3.488040566E-1,3.103195429E-1
1.397745121E0,-3.298672289E-2,-3.213151097E-1,3.072652221E-1
1.399729206E0,-3.726277873E-2,-2.932153046E-1,3.090978265E-1
1.401743600E0,-3.848451003E-2,-2.791654170E-1,3.060434759E-1
1.403727685E0,-4.337143153E-2,-2.480112910E-1,3.072652221E-1
1.405740924E0,-4.581489414E-2,-2.199114859E-1,3.042109013E-1
1.407726162E0,-4.703662544E-2,-2.028072625E-1,3.042109013E-1
1.409738787E0,-4.948008433E-2,-1.710422635E-1,3.054326177E-1
1.411724256E0,-5.314527452E-2,-1.569923609E-1,3.042109013E-1
1.413736880E0,-5.314527452E-2,-1.270599663E-1,3.023782969E-1
1.415719966E0,-5.681046844E-2,-9.712757170E-2,3.023782969E-1
1.417734512E0,-6.108652428E-2,-8.246681094E-2,3.011565804E-1
1.419718135E0,-6.414084882E-2,-5.314527452E-2,3.005456924E-1
1.421732067E0,-6.536258012E-2,-2.809980139E-2,2.987131178E-1
1.423745614E0,-6.780604273E-2,-1.404990070E-2,2.962696552E-1
1.425729930E0,-6.658431143E-2,1.221730467E-2,2.987131178E-1
1.427745861E0,-6.902777404E-2,3.481931984E-2,2.962696552E-1
1.429728024E0,-6.902777404E-2,4.825835302E-2,2.950479090E-1
1.431742186E0,-6.475171447E-2,6.536258012E-2,2.932153046E-1
1.433725040E0,-6.841690838E-2,8.491026610E-2,2.901609838E-1
1.435739741E0,-7.024950534E-2,9.224065393E-2,2.913827300E-1
1.437723518E0,-7.086037099E-2,1.050688252E-1,2.877175212E-1
1.439737065E0,-7.208210230E-2,1.154535338E-1,2.883284092E-1
1.441721996E0,-7.391469181E-2,1.215621829E-1,2.852740586E-1
1.443735466E0,-7.819075137E-2,1.270599663E-1,2.822197378E-1
1.445719244E0,-8.002334833E-2,1.288925707E-1,2.828305960E-1
1.447734252E0,-7.757988572E-2,1.288925707E-1,2.809980214E-1
1.449717029E0,-8.063421398E-2,1.270599663E-1,2.779437006E-1
1.451731807E0,-7.757988572E-2,1.252273768E-1,2.767219543E-1
1.453745353E0,-7.757988572E-2,1.203404516E-1,2.742784917E-1
1.455729054E0,-7.574728876E-2,1.130100712E-1,2.718350291E-1
1.457743909E0,-7.513642311E-2,1.087340117E-1,2.681698501E-1
1.459726609E0,-7.024950534E-2,1.007927656E-1,2.663372457E-1
1.461740771E0,-7.024950534E-2,9.040805697E-2,2.620611787E-1
1.463724856E0,-7.086037099E-2,8.429940045E-2,2.626720667E-1
1.465738634E0,-6.841690838E-2,7.696902007E-2,2.571742535E-1
1.467723565E0,-6.719517708E-2,6.597344577E-2,2.522873580E-1
1.469736881E0,-6.719517708E-2,6.108652428E-2,2.522873580E-1
1.471719890E0,-6.902777404E-2,5.253441259E-2,2.474004179E-1
1.473735283E0,-6.719517708E-2,3.909537569E-2,2.480112910E-1
1.475718368E0,-6.658431143E-2,3.481931984E-2,2.437352389E-1
1.477731068E0,-6.597344577E-2,2.443460934E-2,2.437352389E-1
1.479746385E0,-6.536258012E-2,1.954768784E-2,2.425135076E-1
1.481730085E0,-6.597344577E-2,9.162978269E-3,2.388483137E-1
1.483744247E0,-6.108652428E-2,0.000000000E0,2.388483137E-1
1.485728640E0,-6.169738993E-2,-3.054326167E-3,2.382374406E-1
1.487742725E0,-6.169738993E-2,-1.160643995E-2,2.376265824E-1
1.489726118E0,-5.925392732E-2,-1.832595654E-2,2.351831198E-1
1.491740050E0,-5.742133409E-2,-2.015855350E-2,2.351831198E-1
1.493723366E0,-5.681046844E-2,-2.260201424E-2,2.339613885E-1
1.495737528E0,-5.497787148E-2,-2.809980139E-2,2.333505303E-1
1.497722151E0,-5.436700583E-2,-2.871066704E-2,2.339613885E-1
1.499736006E0,-5.864306539E-2,-2.687807009E-2,2.345722616E-1
1.501719783E0,-5.619960278E-2,-2.443460934E-2,2.357939780E-1
1.503733868E0,-5.803219974E-2,-2.504547499E-2,2.333505303E-1
1.505716415E0,-5.864306539E-2,-2.015855350E-2,2.333505303E-1
1.507732424E0,-6.047565863E-2,-1.954768784E-2,2.345722616E-1
1.509745047E0,-5.986479297E-2,-1.832595654E-2,2.327396572E-1
1.511728132E0,-6.108652428E-2,-1.343903504E-2,2.357939780E-1
1.513742295E0,-6.169738993E-2,-1.282817032E-2,2.339613885E-1
1.515726303E0,-6.230825558E-2,-7.941247895E-3,2.357939780E-1
1.517741003E0,-6.352998316E-2,-3.665191587E-3,2.357939780E-1
1.519724704E0,-6.352998316E-2,-3.665191587E-3,2.351831198E-1
1.521739251E0,-6.108652428E-2,3.665191587E-3,2.351831198E-1
1.523722874E0,-5.986479297E-2,6.719517522E-3,2.364048511E-1
1.525736729E0,-5.864306539E-2,9.773843922E-3,2.364048511E-1
1.527721430E0,-5.803219974E-2,1.404990070E-2,2.370157093E-1
1.529734669E0,-5.803219974E-2,2.321287990E-2,2.327396572E-1
1.531718600E0,-5.619960278E-2,2.504547499E-2,2.333505303E-1
1.533731840E0,-5.497787148E-2,3.176499158E-2,2.309070677E-1
1.535746386E0,-5.619960278E-2,3.970624134E-2,2.290744632E-1
1.537730394E0,-5.253441259E-2,4.337143153E-2,2.278527319E-1
1.539743864E0,-5.070181563E-2,5.192354694E-2,2.284636050E-1
1.541728796E0,-4.825835302E-2,5.803219974E-2,2.260201424E-1
1.543742419E0,-4.764748737E-2,6.597344577E-2,2.254092693E-1
1.545725427E0,-4.642575979E-2,7.452555746E-2,2.229658216E-1
1.547741128E0,-4.520402849E-2,8.124507964E-2,2.247984111E-1
1.549724290E0,-4.642575979E-2,9.285151958E-2,2.241875380E-1
1.551737452E0,-4.276056588E-2,1.050688252E-1,2.205223590E-1
1.553722383E0,-4.214970022E-2,1.093448773E-1,2.199114859E-1
1.555736007E0,-3.970624134E-2,1.233947799E-1,2.186897546E-1
1.557718400E0,-4.031710699E-2,1.350012124E-1,2.205223590E-1
1.559733562E0,-3.787364438E-2,1.411098689E-1,2.205223590E-1
1.561747417E0,-3.665191308E-2,1.551597714E-1,2.186897546E-1
1.563731425E0,-3.481931984E-2,1.685988009E-1,2.193006277E-1
1.565745510E0,-3.481931984E-2,1.777617931E-1,2.168571651E-1
1.567729210E0,-3.420845419E-2,1.905899495E-1,2.162462920E-1
1.569743142E0,-3.298672289E-2,2.064724565E-1,2.156354338E-1
1.571727381E0,-3.359758854E-2,2.144137025E-1,2.162462920E-1
1.573740697E0,-3.237585723E-2,2.278527319E-1,2.180788964E-1
1.575724398E0,-3.115412779E-2,2.327396572E-1,2.168571651E-1
1.577739483E0,-2.932153270E-2,2.461786866E-1,2.138028294E-1
1.579721953E0,-2.809980139E-2,2.620611787E-1,2.156354338E-1
1.581736730E0,-2.809980139E-2,2.651155293E-1,2.150245607E-1
1.583720431E0,-2.871066704E-2,2.791654170E-1,2.138028294E-1
1.585735132E0,-2.871066704E-2,2.907718420E-1,2.144137025E-1
1.587719447E0,-2.748893574E-2,2.950479090E-1,2.144137025E-1
1.589732687E0,-2.626720630E-2,3.023782969E-1,2.138028294E-1
1.591742926E0,-2.809980139E-2,3.109304011E-1,2.101376504E-1
1.593729395E0,-2.504547499E-2,3.127630055E-1,2.119702399E-1
1.595744096E0,-2.687807009E-2,3.213151097E-1,2.083050460E-1
1.597727489E0,-2.748893574E-2,3.286454976E-1,2.083050460E-1
1.599742267E0,-2.565634064E-2,3.292563558E-1,2.089159191E-1
1.601726044E0,-2.504547499E-2,3.341432810E-1,2.070833147E-1
1.603740130E0,-2.504547499E-2,3.329215646E-1,2.046398520E-1
1.605723292E0,-2.565634064E-2,3.341432810E-1,2.046398520E-1
1.607738684E0,-2.993239649E-2,3.359758854E-1,2.003637999E-1
1.609721461E0,-2.932153270E-2,3.335324228E-1,2.009746730E-1
1.611736163E0,-3.176499158E-2,3.323107064E-1,1.942551434E-1
1.613718709E0,-3.298672289E-2,3.268128932E-1,1.942551434E-1
1.615732563E0,-3.543018550E-2,3.237585723E-1,1.905899495E-1
1.617747342E0,-3.543018550E-2,3.170390725E-1,1.857030392E-1
1.619731042E0,-3.909537569E-2,3.066543639E-1,1.832595766E-1
1.621745204E0,-3.909537569E-2,3.017674387E-1,1.789835095E-1
1.623728827E0,-3.543018550E-2,2.913827300E-1,1.734857261E-1
1.625743682E0,-3.237585723E-2,2.816088796E-1,1.667662114E-1
1.627727921E0,-3.176499158E-2,2.742784917E-1,1.649336219E-1
1.629740852E0,-2.932153270E-2,2.645046413E-1,1.545489132E-1
1.631724015E0,-2.871066704E-2,2.522873580E-1,1.478293836E-1
1.633739023E0,-2.993239649E-2,2.486221492E-1,1.441642046E-1
1.635722723E0,-3.115412779E-2,2.357939780E-1,1.325577646E-1
1.637735654E0,-2.993239649E-2,2.247984111E-1,1.307251602E-1
1.639719971E0,-3.115412779E-2,2.199114859E-1,1.215621829E-1
1.641734518E0,-3.176499158E-2,2.058615834E-1,1.148426682E-1
1.643718449E0,-2.993239649E-2,1.979203373E-1,1.087340117E-1
1.645732073E0,-3.115412779E-2,1.875356287E-1,1.038470939E-1
1.647747696E0,-2.871066704E-2,1.753183305E-1,9.468411654E-2
1.649730166E0,-2.626720630E-2,1.698205322E-1,9.224065393E-2
1.651744406E0,-2.687807009E-2,1.576032341E-1,8.246681094E-2
1.653728644E0,-2.321287990E-2,1.466076523E-1,7.574728876E-2
1.655742191E0,-2.076941915E-2,1.404990107E-1,7.208210230E-2
1.657725968E0,-1.710422710E-2,1.295034289E-1,6.475171447E-2
1.659739746E0,-1.466076635E-2,1.197295859E-1,5.986479297E-2
1.661723754E0,-1.466076635E-2,1.154535338E-1,5.375614017E-2
1.663737993E0,-1.038470957E-2,1.081231460E-1,4.703662544E-2
1.665720770E0,-1.038470957E-2,9.957103431E-2,4.031710699E-2
1.667736779E0,-7.330383174E-3,9.407325089E-2,3.665191308E-2
1.669719249E0,-4.886921961E-3,8.857546002E-2,2.871066704E-2
1.671733103E0,-6.108652451E-4,8.185594529E-2,2.504547499E-2
1.673746651E0,1.221730490E-3,7.819075137E-2,1.954768784E-2
1.675731505E0,4.276056774E-3,7.330382615E-2,1.527163107E-2
1.677745128E0,7.330383174E-3,6.841690838E-2,1.038470957E-2
1.679729059E0,1.038470957E-2,6.230825558E-2,4.886921961E-3
1.681743837E0,1.527163107E-2,5.497787148E-2,-2.443460980E-3
1.683726999E0,1.832595654E-2,5.192354694E-2,-5.497787148E-3
1.685741084E0,2.443460934E-2,3.909537569E-2,-9.773843922E-3
1.687725401E0,2.932153270E-2,2.993239649E-2,-1.466076635E-2
1.689738947E0,2.993239649E-2,2.626720630E-2,-1.771509275E-2
1.691722955E0,3.604105115E-2,1.282817032E-2,-2.504547499E-2
1.693736580E0,4.092797264E-2,0.000000000E0,-2.932153270E-2
1.695720280E0,4.398229718E-2,-6.719517522E-3,-3.176499158E-2
1.697734980E0,5.070181563E-2,-2.199114859E-2,-3.604105115E-2
1.699718065E0,5.558873713E-2,-3.909537569E-2,-4.031710699E-2
1.701732613E0,5.864306539E-2,-4.642575979E-2,-4.092797264E-2
1.703746390E0,6.536258012E-2,-6.414084882E-2,-4.642575979E-2
1.705730398E0,6.841690838E-2,-7.391469181E-2,-4.764748737E-2
1.707744946E0,7.696902007E-2,-9.285151958E-2,-5.070181563E-2
1.709728030E0,8.674286306E-2,-1.111774743E-1,-5.436700583E-2
1.711740962E0,9.224065393E-2,-1.221730486E-1,-5.497787148E-2
1.713726739E0,1.044579595E-1,-1.472185254E-1,-5.986479297E-2
1.715739979E0,1.166752651E-1,-1.673770845E-1,-6.414084882E-2
1.717722756E0,1.221730486E-1,-1.795943826E-1,-6.658431143E-2
1.719737918E0,1.343903542E-1,-2.021963894E-1,-6.963863969E-2
1.721722233E0,1.459967941E-1,-2.284636050E-1,-7.269296050E-2
1.723735396E0,1.527163088E-1,-2.419026345E-1,-7.574728876E-2
1.725718866E0,1.612684280E-1,-2.687807083E-1,-8.246681094E-2
1.727734489E0,1.728748679E-1,-2.932153046E-1,-8.613199741E-2
1.729748114E0,1.789835095E-1,-3.078760803E-1,-8.979719132E-2
1.731731429E0,1.893682331E-1,-3.365867436E-1,-9.346238524E-2
1.733745591E0,1.960877478E-1,-3.628539443E-1,-9.896016866E-2
1.735728985E0,2.003637999E-1,-3.775147200E-1,-1.038470939E-1
1.737742608E0,2.113593817E-1,-4.068362415E-1,-1.093448773E-1
1.739726924E0,2.162462920E-1,-4.184426963E-1,-1.117883399E-1
1.741741932E0,2.260201424E-1,-4.477642179E-1,-1.178969890E-1
1.743724787E0,2.376265824E-1,-4.734205604E-1,-1.252273768E-1
1.745738641E0,2.425135076E-1,-4.874704778E-1,-1.295034289E-1
1.747722341E0,2.535090744E-1,-5.119050741E-1,-1.398881376E-1
1.749736735E0,2.675589919E-1,-5.357288122E-1,-1.496619880E-1
1.751719205E0,2.700024247E-1,-5.448917747E-1,-1.569923609E-1
1.753734059E0,2.791654170E-1,-5.662720799E-1,-1.673770845E-1
1.755748451E0,2.901609838E-1,-5.845980644E-1,-1.789835095E-1
1.757731922E0,2.938261926E-1,-5.931501389E-1,-1.875356287E-1
1.759746315E0,3.029891551E-1,-6.090326309E-1,-2.009746730E-1
1.761730323E0,3.103195429E-1,-6.206390858E-1,-2.168571651E-1
1.763743947E0,3.176499307E-1,-6.298020482E-1,-2.241875380E-1
1.765728263E0,3.280346394E-1,-6.414085031E-1,-2.388483137E-1
1.767742732E0,3.347541690E-1,-6.475171447E-1,-2.559525371E-1
1.769726125E0,3.402519524E-1,-6.524040699E-1,-2.632829249E-1
1.771739903E0,3.481931984E-1,-6.597344875E-1,-2.809980214E-1
1.773723680E0,3.500257730E-1,-6.615670323E-1,-2.895501256E-1
1.775738073E0,3.604104817E-1,-6.640105247E-1,-3.078760803E-1
1.777721466E0,3.683517575E-1,-6.731734872E-1,-3.231477141E-1
1.779735628E0,3.732386529E-1,-6.743952036E-1,-3.249803185E-1
1.781719636E0,3.787364662E-1,-6.768386960E-1,-3.451388776E-1
1.783733183E0,3.891211748E-1,-6.786713004E-1,-3.604104817E-1
1.785747423E0,3.921754956E-1,-6.805039048E-1,-3.677408695E-1
1.787731046E0,4.013384581E-1,-6.853908300E-1,-3.824016452E-1
1.789745592E0,4.098905921E-1,-6.860016584E-1,-3.976732790E-1
1.791728294E0,4.135557711E-1,-6.878342628E-1,-4.043927789E-1
1.793743379E0,4.245513380E-1,-6.933320761E-1,-4.196644127E-1
1.795727387E0,4.312708676E-1,-6.969972253E-1,-4.349360466E-1
1.797740087E0,4.337143302E-1,-7.000515461E-1,-4.398229718E-1
1.799725019E0,4.410447180E-1,-7.043276429E-1,-4.557054639E-1
1.801739489E0,4.447098970E-1,-7.086036801E-1,-4.630358517E-1
1.803722881E0,4.508185387E-1,-7.171558142E-1,-4.776966274E-1
1.805737044E0,4.550946057E-1,-7.250970602E-1,-4.966334403E-1
1.807720975E0,4.569272101E-1,-7.299839854E-1,-5.021312237E-1
1.809734214E0,4.642575979E-1,-7.373143435E-1,-5.149593949E-1
1.811748992E0,4.667010605E-1,-7.483099103E-1,-5.277875662E-1
1.813732154E0,4.673119187E-1,-7.519751191E-1,-5.363397002E-1
1.815746547E0,4.728097022E-1,-7.611380816E-1,-5.503895879E-1
1.817730016E0,4.740314186E-1,-7.684684992E-1,-5.632177591E-1
1.819744102E0,4.752531648E-1,-7.733554244E-1,-5.693264008E-1
1.821728418E0,4.770857692E-1,-7.825183868E-1,-5.784893632E-1
1.823742349E0,4.801400900E-1,-7.898487449E-1,-5.882632136E-1
1.825726049E0,4.807509482E-1,-7.922922373E-1,-5.931501389E-1
1.827740751E0,4.844161272E-1,-8.026769161E-1,-6.017022729E-1
1.829723605E0,4.850270152E-1,-8.112290502E-1,-6.114761233E-1
1.831736843E0,4.838052690E-1,-8.148942590E-1,-6.151412725E-1
1.833720776E0,4.856378734E-1,-8.222246170E-1,-6.230825782E-1
1.835735630E0,4.868595898E-1,-8.252789378E-1,-6.249151230E-1
1.837718945E0,4.868595898E-1,-8.301658630E-1,-6.328563690E-1
1.839732876E0,4.917465150E-1,-8.362745047E-1,-6.383541822E-1
1.841747347E0,4.923573732E-1,-8.374962807E-1,-6.438519955E-1
1.843731047E0,4.984660447E-1,-8.399397135E-1,-6.499606371E-1
1.845744901E0,5.057964325E-1,-8.442157507E-1,-6.536257863E-1
1.847729218E0,5.064072609E-1,-8.460483551E-1,-6.585127115E-1
1.849742995E0,5.112941861E-1,-8.460483551E-1,-6.640105247E-1
1.851727311E0,5.174028873E-1,-8.454375267E-1,-6.725626588E-1
1.853740936E0,5.186246037E-1,-8.436049223E-1,-6.768386960E-1
1.855724328E0,5.216789246E-1,-8.381071091E-1,-6.805039048E-1
1.857738721E0,5.271766782E-1,-8.338310719E-1,-6.860016584E-1
1.859722190E0,5.296201706E-1,-8.307767510E-1,-6.896668673E-1
1.861736969E0,5.320636034E-1,-8.246681094E-1,-6.914994717E-1
1.863720592E0,5.393940210E-1,-8.167268038E-1,-6.957755089E-1
1.865734215E0,5.381723046E-1,-8.106181622E-1,-6.969972253E-1
1.867749301E0,5.418374538E-1,-8.008443117E-1,-6.976081133E-1
1.869732078E0,5.400048494E-1,-7.947356701E-1,-6.982190013E-1
1.871745548E0,5.436700583E-1,-7.812966704E-1,-6.988298297E-1
1.873731094E0,5.430592299E-1,-7.678576112E-1,-6.963863969E-1
1.875744950E0,5.424483418E-1,-7.629706860E-1,-6.945537925E-1
1.877726881E0,5.418374538E-1,-7.489207983E-1,-6.939429045E-1
1.879741658E0,5.406157374E-1,-7.330383062E-1,-6.896668673E-1
1.881726512E0,5.387831330E-1,-7.269296646E-1,-6.866125464E-1
1.883739444E0,5.387831330E-1,-7.079927921E-1,-6.798930168E-1
1.885723145E0,5.381723046E-1,-6.927211881E-1,-6.762278080E-1
1.887738537E0,5.387831330E-1,-6.835582256E-1,-6.676757336E-1
1.889722008E0,5.351179838E-1,-6.646214128E-1,-6.658431292E-1
1.891735785E0,5.326744914E-1,-6.469063163E-1,-6.566801667E-1
1.893718947E0,5.283984542E-1,-6.371324658E-1,-6.548475623E-1
1.895733956E0,5.259549618E-1,-6.163630486E-1,-6.487388611E-1
1.897747271E0,5.241223574E-1,-5.955936313E-1,-6.432411075E-1
1.899730972E0,5.222898126E-1,-5.894849896E-1,-6.383541822E-1
1.901745364E0,5.167919993E-1,-5.662720799E-1,-6.346889734E-1
1.903729758E0,5.143485069E-1,-5.595525503E-1,-6.310238242E-1
1.905743535E0,5.076290369E-1,-5.393940210E-1,-6.298020482E-1
1.907727543E0,5.039638281E-1,-5.198463202E-1,-6.224716902E-1
1.909740783E0,5.009095073E-1,-5.088507533E-1,-6.230825782E-1
1.911724176E0,4.941899776E-1,-4.899139404E-1,-6.206390858E-1
1.913738107E0,4.929682612E-1,-4.734205604E-1,-6.157521605E-1
1.915723038E0,4.868595898E-1,-4.642575979E-1,-6.145304441E-1
1.917737124E0,4.819726646E-1,-4.483750761E-1,-6.114761233E-1
1.919720516E0,4.758640230E-1,-4.312708676E-1,-6.084218025E-1
1.921734678E0,4.721988440E-1,-4.245513380E-1,-6.108652353E-1
1.923748841E0,4.654793143E-1,-4.074471295E-1,-6.102544069E-1
1.925732234E0,4.563163519E-1,-3.946189582E-1,-6.090326309E-1
1.927747934E0,4.526511431E-1,-3.885102868E-1,-6.084218025E-1
1.929730096E0,4.453207552E-1,-3.769038618E-1,-6.078109145E-1
1.931744643E0,4.379903674E-1,-3.646865487E-1,-6.078109145E-1
1.933728036E0,4.337143302E-1,-3.573561609E-1,-6.072000265E-1
1.935742429E0,4.239404798E-1,-3.463605940E-1,-6.053674817E-1
1.937725898E0,4.214970171E-1,-3.439171314E-1,-6.059783101E-1
1.939739676E0,4.166100919E-1,-3.304781020E-1,-6.023131609E-1
1.941723761E0,4.098905921E-1,-3.243694305E-1,-5.986479521E-1
1.943737308E0,4.105014503E-1,-3.213151097E-1,-5.992587805E-1
1.945721317E0,4.019493461E-1,-3.109304011E-1,-5.949827433E-1
1.947736094E0,4.007275999E-1,-3.017674387E-1,-5.919284225E-1
1.949719794E0,3.988949955E-1,-2.974913716E-1,-5.888741016E-1
1.951732342E0,3.933972120E-1,-2.846632004E-1,-5.839871764E-1
1.953748350E0,3.915646076E-1,-2.755002379E-1,-5.772676468E-1
1.955730819E0,3.872885704E-1,-2.675589919E-1,-5.766568184E-1
1.957744673E0,3.805690408E-1,-2.553416789E-1,-5.699372888E-1
1.959728759E0,3.744603992E-1,-2.425135076E-1,-5.650503635E-1
1.961743152E0,3.701843321E-1,-2.364048511E-1,-5.613851547E-1
1.963726622E0,3.671300113E-1,-2.211332172E-1,-5.540547967E-1
1.965741015E0,3.628539443E-1,-2.125810981E-1,-5.516113043E-1
1.967725331E0,3.555235863E-1,-1.966986060E-1,-5.448917747E-1
1.969738647E0,3.494149148E-1,-1.808161139E-1,-5.357288122E-1
1.971723270E0,3.469714522E-1,-1.722639948E-1,-5.314527750E-1
1.973736740E0,3.396410644E-1,-1.576032341E-1,-5.235115290E-1
1.975720441E0,3.335324228E-1,-1.392772794E-1,-5.137376785E-1
1.977734064E0,3.304781020E-1,-1.295034289E-1,-5.112941861E-1
1.979748150E0,3.243694305E-1,-1.142318025E-1,-5.039638281E-1
1.981731850E0,3.170390725E-1,-9.896016866E-2,-4.929682612E-1
1.983746089E0,3.139847219E-1,-8.979719132E-2,-4.893030524E-1
1.985730020E0,3.090978265E-1,-7.574728876E-2,-4.783074856E-1
1.987744799E0,3.042109013E-1,-6.047565863E-2,-4.697553813E-1
1.989728576E0,2.981022298E-1,-5.314527452E-2,-4.642575979E-1
1.991741738E0,2.926044464E-1,-4.337143153E-2,-4.526511431E-1
1.993725516E0,2.858849466E-1,-3.054326214E-2,-4.459316432E-1
1.995739908E0,2.816088796E-1,-2.260201424E-2,-4.416555762E-1
1.997723609E0,2.736676335E-1,-1.282817032E-2,-4.318817258E-1
1.999737771E0,2.700024247E-1,-7.941247895E-3,-4.263839424E-1
2.001721857E0,2.645046413E-1,-2.443460980E-3,-4.153883755E-1
2.003735326E0,2.541199327E-1,4.276056774E-3,-4.037819207E-1
2.005749488E0,2.498438805E-1,8.552113548E-3,-4.013384581E-1
2.007734189E0,2.437352389E-1,9.773843922E-3,-3.891211748E-1
2.009748274E0,2.364048511E-1,1.160643995E-2,-3.805690408E-1
2.011731744E0,2.327396572E-1,1.466076635E-2,-3.744603992E-1
2.013745521E0,2.260201424E-1,1.649336144E-2,-3.659082949E-1
2.015728607E0,2.150245607E-1,1.588249579E-2,-3.573561609E-1
2.017743461E0,2.150245607E-1,1.588249579E-2,-3.481931984E-1
2.019726546E0,2.034181207E-1,1.527163107E-2,-3.414736688E-1
2.021740709E0,1.966986060E-1,1.343903504E-2,-3.292563558E-1
2.023724948E0,1.924225539E-1,9.773843922E-3,-3.255911767E-1
2.025739109E0,1.832595766E-1,6.719517522E-3,-3.145956099E-1
2.027723194E0,1.759291887E-1,1.221730490E-3,-3.042109013E-1
2.029737357E0,1.704314053E-1,0.000000000E0,-2.993239760E-1
2.031719750E0,1.655444801E-1,-6.719517522E-3,-2.895501256E-1
2.033735142E0,1.612684280E-1,-1.160643995E-2,-2.822197378E-1
2.035749075E0,1.508837193E-1,-1.649336144E-2,-2.736676335E-1
2.037731467E0,1.429424733E-1,-2.504547499E-2,-2.626720667E-1
2.039746244E0,1.362229437E-1,-2.748893574E-2,-2.583959997E-1
2.041730560E0,1.295034289E-1,-3.481931984E-2,-2.467895597E-1
2.043744108E0,1.227839142E-1,-4.459316283E-2,-2.357939780E-1
2.045727577E0,1.209513173E-1,-4.825835302E-2,-2.309070677E-1
2.047742354E0,1.142318025E-1,-5.864306539E-2,-2.174680233E-1
2.049725363E0,1.062905490E-1,-6.597344577E-2,-2.076941878E-1
2.051740141E0,1.014036313E-1,-7.330382615E-2,-2.021963894E-1
2.053723610E0,9.896016866E-2,-8.368854225E-2,-1.912008226E-1
2.055738387E0,9.224065393E-2,-9.407325089E-2,-1.795943826E-1
2.057721396E0,8.979719132E-2,-1.032362282E-1,-1.728748679E-1
2.059735251E0,8.063421398E-2,-1.166752651E-1,-1.612684280E-1
2.061750028E0,7.635815442E-2,-1.282816976E-1,-1.478293836E-1
2.063733191E0,7.330382615E-2,-1.337794960E-1,-1.453859210E-1
2.065748276E0,6.719517708E-2,-1.472185254E-1,-1.325577646E-1
2.067732284E0,6.658431143E-2,-1.557706445E-1,-1.288925707E-1
2.069745754E0,6.658431143E-2,-1.698205322E-1,-1.154535338E-1
2.071728301E0,6.169738993E-2,-1.814269722E-1,-1.056796908E-1
2.073742770E0,5.864306539E-2,-1.869247705E-1,-9.957103431E-2
2.075726701E0,5.436700583E-2,-2.028072625E-1,-8.857546002E-2
2.077741479E0,5.070181563E-2,-2.107485086E-1,-8.063421398E-2
2.079724334E0,4.886921868E-2,-2.168571651E-1,-7.330382615E-2
2.081738726E0,4.459316283E-2,-2.260201424E-1,-6.414084882E-2
2.083723119E0,4.337143153E-2,-2.382374406E-1,-5.558873713E-2
2.085736051E0,4.337143153E-2,-2.400700450E-1,-5.192354694E-2
2.087720059E0,4.214970022E-2,-2.480112910E-1,-4.398229718E-2
2.089734452E0,3.909537569E-2,-2.571742535E-1,-3.359758854E-2
2.091749922E0,3.848451003E-2,-2.602286041E-1,-2.932153270E-2
2.093732315E0,3.970624134E-2,-2.663372457E-1,-2.321287990E-2
2.095746169E0,3.909537569E-2,-2.687807083E-1,-2.015855350E-2
2.097729869E0,3.726277873E-2,-2.724458873E-1,-1.160643995E-2
2.099744109E0,3.481931984E-2,-2.755002379E-1,-6.719517522E-3
2.101727502E0,3.420845419E-2,-2.779437006E-1,-1.832595794E-3
2.103742202E0,3.115412779E-2,-2.816088796E-1,3.665191587E-3
2.105725672E0,3.237585723E-2,-2.834414840E-1,1.160643995E-2
2.107740450E0,2.993239649E-2,-2.858849466E-1,1.221730467E-2
2.109723227E0,2.993239649E-2,-2.901609838E-1,1.954768784E-2
2.111737005E0,3.115412779E-2,-2.950479090E-1,2.443460934E-2
2.113721629E0,2.993239649E-2,-2.932153046E-1,2.687807009E-2
2.115735560E0,2.871066704E-2,-2.993239760E-1,2.809980139E-2
2.117748798E0,3.054326214E-2,-3.017674387E-1,3.298672289E-2
2.119733423E0,3.054326214E-2,-3.017674387E-1,3.481931984E-2
2.121747815E0,2.809980139E-2,-3.066543639E-1,3.726277873E-2
2.123731516E0,2.871066704E-2,-3.072652221E-1,3.848451003E-2
2.125744755E0,2.748893574E-2,-3.078760803E-1,3.909537569E-2
2.127729379E0,2.932153270E-2,-3.115412891E-1,3.787364438E-2
2.129743310E0,2.687807009E-2,-3.103195429E-1,3.481931984E-2
2.131727010E0,2.687807009E-2,-3.127630055E-1,3.543018550E-2
2.133740173E0,2.321287990E-2,-3.170390725E-1,3.054326214E-2
2.135723950E0,2.260201424E-2,-3.170390725E-1,2.748893574E-2
2.137738035E0,1.710422710E-2,-3.200933933E-1,2.076941915E-2
2.139722120E0,1.466076635E-2,-3.182607889E-1,1.649336144E-2
2.141736283E0,1.160643995E-2,-3.139847219E-1,1.527163107E-2
2.143720214E0,7.941247895E-3,-3.097086847E-1,7.330383174E-3
2.145734145E0,1.832595794E-3,-3.023782969E-1,3.054326167E-3
2.147749847E0,2.443460980E-3,-2.968805134E-1,0.000000000E0
2.149731931E0,-1.832595794E-3,-2.871066630E-1,-2.443460980E-3
2.151745170E0,-6.108652451E-4,-2.761110961E-1,-6.108652451E-4
2.153729564E0,0.000000000E0,-2.712241709E-1,-5.497787148E-3
2.155744341E0,6.108652451E-4,-2.602286041E-1,-4.886921961E-3
2.157727657E0,-2.443460980E-3,-2.486221492E-1,-2.443460980E-3
2.159741819E0,-5.497787148E-3,-2.400700450E-1,-2.443460980E-3
2.161725520E0,-1.160643995E-2,-2.272418737E-1,1.221730490E-3
2.163739143E0,-1.099557430E-2,-2.223549485E-1,3.665191587E-3
2.165723074E0,-1.649336144E-2,-2.089159191E-1,5.497787148E-3
2.167737930E0,-1.954768784E-2,-1.930334121E-1,7.941247895E-3
2.169721245E0,-2.199114859E-2,-1.826487035E-1,8.552113548E-3
2.171735715E0,-2.626720630E-2,-1.698205322E-1,1.160643995E-2
2.173749338E0,-2.626720630E-2,-1.563815027E-1,1.343903504E-2
2.175733655E0,-2.871066704E-2,-1.496619880E-1,1.221730467E-2
2.177747201E0,-3.054326214E-2,-1.343903542E-1,1.404990070E-2
2.179731440E0,-2.809980139E-2,-1.221730486E-1,1.527163107E-2
2.181745372E0,-2.809980139E-2,-1.136209369E-1,1.466076635E-2
2.183729919E0,-2.504547499E-2,-1.001819000E-1,1.404990070E-2
2.185742927E0,-2.565634064E-2,-8.124507964E-2,1.527163107E-2
2.187728165E0,-2.321287990E-2,-7.208210230E-2,1.343903504E-2
2.189741021E0,-1.954768784E-2,-5.436700583E-2,1.282817032E-2
2.191723875E0,-1.710422710E-2,-3.420845419E-2,1.404990070E-2
2.193739498E0,-1.527163107E-2,-2.260201424E-2,1.160643995E-2
2.195723276E0,-7.330383174E-3,-1.832595794E-3,7.330383174E-3
2.197735900E0,-3.054326167E-3,1.038470957E-2,1.221730467E-2
2.199750908E0,6.108652451E-4,3.115412779E-2,9.162978269E-3
2.201734608E0,6.719517522E-3,5.314527452E-2,6.719517522E-3
2.203748771E0,9.773843922E-3,6.291911751E-2,8.552113548E-3
2.205732164E0,1.221730467E-2,8.002334833E-2,5.497787148E-3
2.207746941E0,2.199114859E-2,9.529497474E-2,4.276056774E-3
2.209730334E0,2.321287990E-2,1.044579595E-1,1.221730490E-3
2.211744573E0,2.871066704E-2,1.191187203E-1,-6.108652451E-4
2.213728197E0,3.298672289E-2,1.307251602E-1,-7.941247895E-3
2.215742128E0,3.848451003E-2,1.362229437E-1,-7.330383174E-3
2.217725521E0,4.153883830E-2,1.478293836E-1,-1.404990070E-2
2.219739991E0,4.886921868E-2,1.502728462E-1,-1.710422710E-2
2.221723076E0,5.314527452E-2,1.508837193E-1,-2.199114859E-2
2.223737777E0,6.230825558E-2,1.478293836E-1,-2.748893574E-2
2.225721554E0,6.352998316E-2,1.478293836E-1,-3.359758854E-2
2.227735639E0,7.330382615E-2,1.374446750E-1,-4.214970022E-2
2.229748879E0,7.819075137E-2,1.252273768E-1,-5.070181563E-2
2.231732272E0,8.674286306E-2,1.160643995E-1,-5.314527452E-2
2.233746818E0,9.529497474E-2,9.834930301E-2,-6.291911751E-2
2.235730211E0,9.957103431E-2,7.819075137E-2,-7.452555746E-2
2.237744989E0,1.056796908E-1,6.597344577E-2,-7.819075137E-2
2.239729612E0,1.142318025E-1,4.031710699E-2,-8.796459436E-2
2.241743159E0,1.209513173E-1,1.099557430E-2,-9.651670605E-2
2.243726551E0,1.240056455E-1,-3.054326167E-3,-1.038470939E-1
2.245741022E0,1.319468915E-1,-3.726277873E-2,-1.136209369E-1
2.247726261E0,1.398881376E-1,-7.086037099E-2,-1.246165112E-1
2.249739423E0,1.441642046E-1,-8.918632567E-2,-1.313360333E-1
2.251723509E0,1.514945775E-1,-1.258382350E-1,-1.429424733E-1
2.253736440E0,1.563815027E-1,-1.618792862E-1,-1.545489132E-1
2.255750832E0,1.606575549E-1,-1.820378453E-1,-1.576032341E-1
2.257733917E0,1.661553532E-1,-2.205223590E-1,-1.722639948E-1
2.259748772E0,1.698205322E-1,-2.412917763E-1,-1.795943826E-1
2.261732703E0,1.759291887E-1,-2.809980214E-1,-1.924225539E-1
2.263746019E0,1.820378453E-1,-3.200933933E-1,-2.040289938E-1
2.265729951E0,1.850921661E-1,-3.384193480E-1,-2.113593817E-1
2.267745421E0,1.930334121E-1,-3.781255782E-1,-2.266310006E-1
2.269727890E0,2.021963894E-1,-4.153883755E-1,-2.400700450E-1
2.271741129E0,2.040289938E-1,-4.343251884E-1,-2.461786866E-1
2.273725753E0,2.150245607E-1,-4.685336351E-1,-2.571742535E-1
2.275740531E0,2.217440903E-1,-5.002986193E-1,-2.675589919E-1
2.277722385E0,2.247984111E-1,-5.149593949E-1,-2.712241709E-1
2.279737394E0,2.327396572E-1,-5.436700583E-1,-2.803871334E-1
2.281722094E0,2.425135076E-1,-5.723807216E-1,-2.895501256E-1
2.283736256E0,2.492330223E-1,-5.833762884E-1,-2.944370508E-1
2.285749419E0,2.571742535E-1,-6.023131609E-1,-3.029891551E-1
2.287734042E0,2.632829249E-1,-6.218608022E-1,-3.097086847E-1
2.289747589E0,2.693915665E-1,-6.279694438E-1,-3.115412891E-1
2.291731366E0,2.791654170E-1,-6.444628239E-1,-3.176499307E-1
2.293745836E0,2.834414840E-1,-6.499606371E-1,-3.207042515E-1
2.295729152E0,2.919935882E-1,-6.609562039E-1,-3.200933933E-1
2.297742468E0,3.005456924E-1,-6.670648456E-1,-3.286454976E-1
2.299727014E0,3.036000133E-1,-6.713408828E-1,-3.274237812E-1
2.301741177E0,3.127630055E-1,-6.774495840E-1,-3.323107064E-1
2.303723724E0,3.207042515E-1,-6.792821288E-1,-3.323107064E-1
2.305738809E0,3.255911767E-1,-6.786713004E-1,-3.329215646E-1
2.307722818E0,3.335324228E-1,-6.756169796E-1,-3.365867436E-1
2.309736364E0,3.408628106E-1,-6.713408828E-1,-3.420845270E-1
2.311747064E0,3.457497358E-1,-6.707300544E-1,-3.439171314E-1
2.313734458E0,3.555235863E-1,-6.676757336E-1,-3.518583775E-1
2.315748312E0,3.628539443E-1,-6.646214128E-1,-3.610213697E-1
2.317732089E0,3.683517575E-1,-6.640105247E-1,-3.634648323E-1
2.319745944E0,3.787364662E-1,-6.621779203E-1,-3.732386529E-1
2.321729645E0,3.891211748E-1,-6.627888083E-1,-3.854559660E-1
2.323744653E0,3.952298164E-1,-6.640105247E-1,-3.921754956E-1
2.325728122E0,4.043927789E-1,-6.658431292E-1,-4.056145251E-1
2.327742593E0,4.086688459E-1,-6.670648456E-1,-4.153883755E-1
2.329725909E0,4.172209501E-1,-6.701191664E-1,-4.288274050E-1
2.331740070E0,4.276056588E-1,-6.725626588E-1,-4.422664344E-1
2.333723540E0,4.337143302E-1,-6.768386960E-1,-4.508185387E-1
2.335737011E0,4.447098970E-1,-6.811147332E-1,-4.679227769E-1
2.337721403E0,4.532620013E-1,-6.884451509E-1,-4.831944108E-1
2.339734642E0,4.587597847E-1,-6.927211881E-1,-4.911356568E-1
2.341749728E0,4.642575979E-1,-7.018841505E-1,-5.082398653E-1
2.343733044E0,4.685336351E-1,-7.122688890E-1,-5.259549618E-1
2.345746975E0,4.691445231E-1,-7.177666426E-1,-5.357288122E-1
2.347732444E0,4.752531648E-1,-7.305948138E-1,-5.534439087E-1
2.349745992E0,4.789183438E-1,-7.458664775E-1,-5.754350424E-1
2.351728461E0,4.776966274E-1,-7.574729323E-1,-5.858197808E-1
2.353742931E0,4.801400900E-1,-7.745771408E-1,-6.096435189E-1
2.355726939E0,4.844161272E-1,-7.861835957E-1,-6.206390858E-1
2.357740563E0,4.838052690E-1,-8.093964458E-1,-6.469063163E-1
2.359724494E0,4.838052690E-1,-8.338310719E-1,-6.756169796E-1
2.361738425E0,4.807509482E-1,-8.448266387E-1,-6.908885837E-1
2.363722434E0,4.789183438E-1,-8.753699064E-1,-7.226535678E-1
2.365735596E0,4.764748812E-1,-9.053022861E-1,-7.531968355E-1
2.367751604E0,4.740314186E-1,-9.217956662E-1,-7.709119320E-1
2.369734152E0,4.734205604E-1,-9.560040832E-1,-8.026769161E-1
2.371749160E0,4.642575979E-1,-9.871582389E-1,-8.368853927E-1
2.373732014E0,4.612032473E-1,-1.009149432E0,-8.527678847E-1
2.375746176E0,4.532620013E-1,-1.041525245E0,-8.869763613E-1
2.377729877E0,4.434881806E-1,-1.077566266E0,-9.175195694E-1
2.379744347E0,4.416555762E-1,-1.094059706E0,-9.334021211E-1
2.381727739E0,4.373795092E-1,-1.127046347E0,-9.663888216E-1
2.383741825E0,4.373795092E-1,-1.155757070E0,-9.957103729E-1
2.385725525E0,4.422664344E-1,-1.171028733E0,-1.010371089E0
2.387740303E0,4.532620013E-1,-1.193019867E0,-1.043968678E0
2.389723772E0,4.599815309E-1,-1.201571941E0,-1.061072946E0
2.391733858E0,4.752531648E-1,-1.211345792E0,-1.096503139E0
2.393750789E0,4.893030524E-1,-1.209513187E0,-1.134987593E0
2.395735720E0,4.984660447E-1,-1.205237150E0,-1.156367898E0
2.397749883E0,5.106833577E-1,-1.188132882E0,-1.197906733E0
2.399732660E0,5.216789246E-1,-1.161865711E0,-1.236391306E0
2.401747515E0,5.277875662E-1,-1.142928839E0,-1.258993268E0
2.403731830E0,5.387831330E-1,-1.102611780E0,-1.299310327E0
2.405745608E0,5.522221923E-1,-1.050077319E0,-1.340238333E0
2.407729693E0,5.564982295E-1,-1.021977544E0,-1.361007810E0
2.409742855E0,5.626068711E-1,-9.584475756E-1,-1.398270488E0
2.411726326E0,5.705481172E-1,-8.857545853E-1,-1.434922457E0
2.413740488E0,5.742133260E-1,-8.442157507E-1,-1.452637553E0
2.415724496E0,5.760459304E-1,-7.599163651E-1,-1.486235142E0
2.417739196E0,5.821545720E-1,-6.695083380E-1,-1.517389297E0
2.419721974E0,5.845980644E-1,-6.224716902E-1,-1.530217409E0
2.421736444E0,5.833762884E-1,-5.235115290E-1,-1.558317184E0
2.423750375E0,5.864306092E-1,-4.752531648E-1,-1.569312811E0
2.425734615E0,5.894849896E-1,-3.762930036E-1,-1.590082288E0
2.427749699E0,5.931501389E-1,-2.797762752E-1,-1.609629869E0
2.429731938E0,5.962044597E-1,-2.290744632E-1,-1.620014668E0
2.431745485E0,5.998696685E-1,-1.350012124E-1,-1.634675384E0
2.433730955E0,6.084218025E-1,-4.459316283E-2,-1.649947047E0
2.435744502E0,6.090326309E-1,-6.108652451E-4,-1.657888293E0
2.437727356E0,6.151412725E-1,7.941248268E-2,-1.667051196E0
2.439742365E0,6.224716902E-1,1.514945775E-1,-1.680490255E0
2.441726450E0,6.255260110E-1,1.844813079E-1,-1.685988069E0
2.443739919E0,6.328563690E-1,2.455678284E-1,-1.700648785E0
2.445722774E0,6.426302195E-1,2.932153046E-1,-1.714087844E0
2.447737783E0,6.469063163E-1,3.139847219E-1,-1.721418262E0
2.449720944E0,6.560692787E-1,3.469714522E-1,-1.740355134E0
2.451735414E0,6.646214128E-1,3.701843321E-1,-1.753183246E0
2.453748961E0,6.719517708E-1,3.793473244E-1,-1.766011477E0
2.455732969E0,6.853908300E-1,3.915646076E-1,-1.783726573E0
2.457747054E0,6.914994717E-1,3.909537494E-1,-1.792889476E0
2.459731447E0,7.031059265E-1,3.854559660E-1,-1.814880610E0
2.461745302E0,7.183775306E-1,3.695734739E-1,-1.838093519E0
2.463728618E0,7.250970602E-1,3.604104817E-1,-1.847867370E0
2.465742780E0,7.397578359E-1,3.292563558E-1,-1.874745488E0
2.467727404E0,7.513642311E-1,2.871066630E-1,-1.900401831E0
2.469740720E0,7.599163651E-1,2.638937831E-1,-1.913840771E0
2.471723728E0,7.715228200E-1,2.101376504E-1,-1.940718889E0
2.473737890E0,7.861835957E-1,1.496619880E-1,-1.973094702E0
2.475722206E0,7.922922373E-1,1.136209369E-1,-1.989588141E0
2.477736137E0,8.093964458E-1,3.970624134E-2,-2.019520521E0
2.479750607E0,8.234463334E-1,-4.031710699E-2,-2.051896334E0
2.481734308E0,8.295549750E-1,-8.124507964E-2,-2.068389654E0
2.483749009E0,8.454375267E-1,-1.685988009E-1,-2.102598190E0
2.485731555E0,8.515461683E-1,-2.565633953E-1,-2.120313168E0
2.487746333E0,8.698720932E-1,-2.999348342E-1,-2.157576084E0
2.489730572E0,8.857545853E-1,-3.885102868E-1,-2.191173553E0
2.491744811E0,8.949176073E-1,-4.324925840E-1,-2.208888769E0
2.493727588E0,9.138544202E-1,-5.174028873E-1,-2.245540619E0
2.495741751E0,9.272934198E-1,-5.974262357E-1,-2.284025192E0
2.497725374E0,9.376781583E-1,-6.377432942E-1,-2.301129341E0
2.499739536E0,9.505063295E-1,-7.086036801E-1,-2.341446400E0
2.501723544E0,9.615018964E-1,-7.757988572E-1,-2.375044107E0
2.503736784E0,9.682214260E-1,-8.081747293E-1,-2.394591808E0
2.505752177E0,9.810495973E-1,-8.613200188E-1,-2.431243658E0
2.507736261E0,9.908234477E-1,-9.089674950E-1,-2.466673851E0
2.509749501E0,9.987646937E-1,-9.303477407E-1,-2.481334686E0
2.511732817E0,1.007316828E0,-9.657779336E-1,-2.514321327E0
2.513748286E0,1.017701507E0,-9.926560521E-1,-2.544253826E0
2.515731064E0,1.023199320E0,-1.006095052E0,-2.559525490E0
2.517744303E0,1.032362223E0,-1.025642753E0,-2.585181713E0
2.519728927E0,1.036027431E0,-1.032362223E0,-2.596788168E0
2.521743704E0,1.045801282E0,-1.043968678E0,-2.618779421E0
2.523726405E0,1.051299095E0,-1.046412110E0,-2.640159607E0
2.525741260E0,1.052520871E0,-1.048855662E0,-2.649322510E0
2.527725883E0,1.059240341E0,-1.043968678E0,-2.667648554E0
2.529738815E0,1.060462117E0,-1.036027431E0,-2.682309389E0
2.531722515E0,1.064127207E0,-1.033583999E0,-2.688417912E0
2.533736062E0,1.069625020E0,-1.025031924E0,-2.704300404E0
2.535751070E0,1.073290229E0,-1.014647126E0,-2.715906858E0
2.537734540E0,1.073901057E0,-1.007316828E0,-2.720793724E0
2.539747779E0,1.075733662E0,-9.957103729E-1,-2.732400179E0
2.541732403E0,1.072679400E0,-9.828822017E-1,-2.741563320E0
2.543745950E0,1.073901057E0,-9.804387093E-1,-2.745228529E0
2.545729881E0,1.070846796E0,-9.694431424E-1,-2.756834745E0
2.547745043E0,1.066570759E0,-9.615018964E-1,-2.764165163E0
2.549728359E0,1.065348983E0,-9.602801800E-1,-2.768441200E0
2.551740983E0,1.061072946E0,-9.572258592E-1,-2.778825998E0
2.553724760E0,1.058018565E0,-9.602801800E-1,-2.781880379E0
2.555740153E0,1.049466491E0,-9.669997096E-1,-2.798373699E0
2.557723238E0,1.043968678E0,-9.792169929E-1,-2.813034534E0
2.559737708E0,1.040914416E0,-9.902125597E-1,-2.822197437E0
2.561752101E0,1.033583999E0,-1.010982037E0,-2.836858273E0
2.563735186E0,1.028697014E0,-1.037249207E0,-2.857627630E0
2.565749656E0,1.026253581E0,-1.051909924E0,-2.867401361E0
2.567733741E0,1.025031924E0,-1.087340117E0,-2.890614271E0
2.569747288E0,1.020755768E0,-1.127657294E0,-2.910772800E0
2.571731912E0,1.018312335E0,-1.149648428E0,-2.922990084E0
2.573744536E0,1.015868902E0,-1.196684957E0,-2.946202993E0
2.575728774E0,1.014647126E0,-1.244943380E0,-2.975524664E0
2.577742705E0,1.013425469E0,-1.270599723E0,-2.987741947E0
2.579726330E0,1.014036298E0,-1.316414595E0,-3.015230894E0
2.581741722E0,1.010982037E0,-1.366505504E0,-3.042719841E0
2.583725115E0,1.010371089E0,-1.387274981E0,-3.053104401E0
2.585738739E0,1.004262447E0,-1.426981211E0,-3.084869385E0
2.587722978E0,1.001819015E0,-1.448361516E0,-3.100141048E0
2.589736294E0,9.938777685E-1,-1.485013366E0,-3.130684376E0
2.591750764E0,9.828822017E-1,-1.518000126E0,-3.154508114E0
2.593734465E0,9.792169929E-1,-1.530828357E0,-3.170390606E0
2.595748857E0,9.706648588E-1,-1.558317184E0,-3.196657896E0
2.597731327E0,9.596692920E-1,-1.576643229E0,-3.223536015E0
2.599745567E0,9.529497623E-1,-1.583362699E0,-3.238196611E0
2.601730190E0,9.388998747E-1,-1.594969153E0,-3.257744312E0
2.603743967E0,9.248499870E-1,-1.596801758E0,-3.281568050E0
2.605727129E0,9.199630618E-1,-1.599856019E0,-3.290120125E0
2.607742754E0,9.071348906E-1,-1.594969153E0,-3.309667826E0
2.609726454E0,8.936958313E-1,-1.587638736E0,-3.324328661E0
2.611740693E0,8.875871897E-1,-1.582751870E0,-3.334102392E0
2.613723086E0,8.741481900E-1,-1.569923639E0,-3.347541571E0
2.615737633E0,8.546004891E-1,-1.557095528E0,-3.362202406E0
2.617751179E0,8.472700715E-1,-1.550375938E0,-3.366478443E0
2.619734572E0,8.283332586E-1,-1.539380431E0,-3.378084898E0
2.621749581E0,8.185594082E-1,-1.532050014E0,-3.384804249E0
2.623733050E0,7.990117669E-1,-1.519832730E0,-3.395189047E0
2.625747520E0,7.770205736E-1,-1.507004619E0,-3.405573845E0
2.627731837E0,7.678576112E-1,-1.502728462E0,-3.407406330E0
2.629745691E0,7.489207983E-1,-1.492954612E0,-3.420234442E0
2.631728468E0,7.257078886E-1,-1.490511179E0,-3.431840897E0
2.633742553E0,7.165449262E-1,-1.489900351E0,-3.437338829E0
2.635726947E0,6.933320761E-1,-1.489900351E0,-3.447112560E0
2.637740801E0,6.713408828E-1,-1.491732955E0,-3.457497358E0
2.639724501E0,6.585127115E-1,-1.492343783E0,-3.463605881E0
2.641738972E0,6.334672570E-1,-1.496008992E0,-3.477655888E0
2.643722057E0,6.114761233E-1,-1.501506805E0,-3.492316723E0
2.645736141E0,5.992587805E-1,-1.505172014E0,-3.500257969E0
2.647750689E0,5.729916096E-1,-1.511891484E0,-3.513696909E0
2.649734312E0,5.485569835E-1,-1.523497939E0,-3.524692535E0
2.651749397E0,5.351179838E-1,-1.530217409E0,-3.532022953E0
2.653731251E0,5.106833577E-1,-1.540602207E0,-3.545461893E0
2.655746030E0,4.960225821E-1,-1.545489073E0,-3.552792311E0
2.657730115E0,4.752531648E-1,-1.554041147E0,-3.564398766E0
2.659743969E0,4.538728893E-1,-1.559538960E0,-3.577226877E0
2.661728284E0,4.465425014E-1,-1.562593341E0,-3.583946466E0
2.663742370E0,4.318817258E-1,-1.560760736E0,-3.596774578E0
2.665725763E0,4.147774875E-1,-1.560760736E0,-3.610213518E0
2.667740848E0,4.025602043E-1,-1.556484699E0,-3.615100622E0
2.669723395E0,3.891211748E-1,-1.547321677E0,-3.629761219E0
2.671737173E0,3.695734739E-1,-1.537547827E0,-3.643200397E0
2.673751950E0,3.585779071E-1,-1.530217409E0,-3.649919748E0
2.675735342E0,3.408628106E-1,-1.516167521E0,-3.664580584E0
2.677748351E0,3.213151097E-1,-1.496619821E0,-3.679241419E0
2.679733206E0,3.097086847E-1,-1.486845970E0,-3.686571836E0
2.681747675E0,2.858849466E-1,-1.466076612E0,-3.700621605E0
2.683731376E0,2.755002379E-1,-1.456913590E0,-3.704286814E0
2.685744615E0,2.541199327E-1,-1.431868076E0,-3.716504097E0
2.687729316E0,2.339613885E-1,-1.408044338E0,-3.727499723E0
2.689743094E0,2.217440903E-1,-1.396438003E0,-3.730554104E0
2.691726486E0,2.015855312E-1,-1.373835921E0,-3.737273455E0
2.693741264E0,1.789835095E-1,-1.349401355E0,-3.745825768E0
2.695724964E0,1.698205322E-1,-1.338405728E0,-3.747658253E0
2.697738281E0,1.496619880E-1,-1.313971162E0,-3.750712633E0
2.699752135E0,1.301143020E-1,-1.291369081E0,-3.752545118E0
2.701736681E0,1.191187203E-1,-1.278540969E0,-3.753767014E0
2.703750844E0,9.896016866E-2,-1.252884626E0,-3.756821156E0
2.705733698E0,7.941248268E-2,-1.232726097E0,-3.759264708E0
2.707749091E0,7.086037099E-2,-1.227839112E0,-3.759264708E0
2.709732176E0,4.337143153E-2,-1.204626322E0,-3.756821156E0
2.711742569E0,2.626720630E-2,-1.181413412E0,-3.756821156E0
2.713729731E0,2.015855350E-2,-1.168585181E0,-3.750712633E0
2.715744124E0,7.941247895E-3,-1.147204876E0,-3.752545118E0
2.717727517E0,2.443460980E-3,-1.138041973E0,-3.751323462E0
2.719742064E0,-7.941247895E-3,-1.110553026E0,-3.749490976E0
2.721725687E0,-2.504547499E-2,-1.078177214E0,-3.750101805E0
2.723739003E0,-3.420845419E-2,-1.067181587E0,-3.751323462E0
2.725723320E0,-4.398229718E-2,-1.035416603E0,-3.756210327E0
2.727738020E0,-5.681046844E-2,-1.003040791E0,-3.761708260E0
2.729751951E0,-5.986479297E-2,-9.908234477E-1,-3.767205954E0
2.731735267E0,-7.147123665E-2,-9.590584636E-1,-3.770871162E0
2.733749122E0,-8.124507964E-2,-9.272934198E-1,-3.783699274E0
2.735733207E0,-8.552113175E-2,-9.114109278E-1,-3.787975311E0
2.737747292E0,-9.590584040E-2,-8.827002645E-1,-3.794694901E0
2.739730147E0,-1.105666086E-1,-8.515461683E-1,-3.801414490E0
2.741745155E0,-1.142318025E-1,-8.368853927E-1,-3.806912184E0
2.743728548E0,-1.258382350E-1,-8.124507666E-1,-3.816686153E0
2.745743018E0,-1.398881376E-1,-7.861835957E-1,-3.826459885E0
2.747727719E0,-1.435533315E-1,-7.757988572E-1,-3.830125093E0
2.749740650E0,-1.576032341E-1,-7.525860071E-1,-3.835011959E0
2.751723965E0,-1.631010175E-1,-7.415903807E-1,-3.835622787E0
2.753739436E0,-1.728748679E-1,-7.232644558E-1,-3.838677168E0
2.755723059E0,-1.857030392E-1,-7.037167549E-1,-3.839898825E0
2.757735683E0,-1.887573600E-1,-6.957755089E-1,-3.840509892E0
2.759751461E0,-1.985312104E-1,-6.786713004E-1,-3.837455511E0
2.761734777E0,-2.089159191E-1,-6.646214128E-1,-3.833790302E0
2.763748400E0,-2.144137025E-1,-6.579018831E-1,-3.831957579E0
2.765732946E0,-2.235766798E-1,-6.475171447E-1,-3.827070713E0
2.767746571E0,-2.345722616E-1,-6.359107494E-1,-3.822794676E0
2.769729656E0,-2.382374406E-1,-6.285803318E-1,-3.823405504E0
2.771744433E0,-2.528982162E-1,-6.188064814E-1,-3.817296982E0
2.773728056E0,-2.626720667E-1,-6.078109145E-1,-3.816075087E0
2.775741604E0,-2.706133127E-1,-6.035348773E-1,-3.813631773E0
2.777725612E0,-2.828305960E-1,-5.931501389E-1,-3.808133841E0
2.779739774E0,-2.968805134E-1,-5.845980644E-1,-3.805690527E0
2.781723244E0,-3.036000133E-1,-5.778785348E-1,-3.803857803E0
2.783737098E0,-3.158173263E-1,-5.681046844E-1,-3.801414490E0
2.785752183E0,-3.219259977E-1,-5.619960427E-1,-3.799581766E0
2.787736500E0,-3.341432810E-1,-5.516113043E-1,-3.797138453E0
2.789750277E0,-3.500257730E-1,-5.406157374E-1,-3.790418863E0
2.791732439E0,-3.585779071E-1,-5.351179838E-1,-3.789197206E0
2.793746909E0,-3.756821156E-1,-5.265658498E-1,-3.784921169E0
2.795730072E0,-3.946189582E-1,-5.204572082E-1,-3.779423237E0
2.797744849E0,-4.037819207E-1,-5.198463202E-1,-3.775147200E0
2.799729088E0,-4.227187634E-1,-5.167919993E-1,-3.765984297E0
2.801743250E0,-4.428772926E-1,-5.198463202E-1,-3.758043051E0
2.803726335E0,-4.532620013E-1,-5.204572082E-1,-3.753767014E0
2.805740882E0,-4.764748812E-1,-5.229006410E-1,-3.743993044E0
2.807724505E0,-5.015203953E-1,-5.277875662E-1,-3.732997417E0
2.809738437E0,-5.106833577E-1,-5.277875662E-1,-3.726888895E0
2.811752907E0,-5.326744914E-1,-5.314527750E-1,-3.719558477E0
2.813736299E0,-5.442809463E-1,-5.345070958E-1,-3.713449717E0
2.815750770E0,-5.699372888E-1,-5.393940210E-1,-3.700621605E0
2.817734086E0,-5.943718553E-1,-5.448917747E-1,-3.689015150E0
2.819747940E0,-6.072000265E-1,-5.522221923E-1,-3.682295799E0
2.821732256E0,-6.304129362E-1,-5.626068711E-1,-3.667634964E0
2.823746418E0,-6.566801667E-1,-5.736024380E-1,-3.656028509E0
2.825729273E0,-6.664539576E-1,-5.803219676E-1,-3.648087263E0
2.827745511E0,-6.896668673E-1,-5.980370641E-1,-3.635259151E0
2.829727751E0,-7.104362845E-1,-6.139195561E-1,-3.615711451E0
2.831741528E0,-7.220427394E-1,-6.279694438E-1,-3.609602690E0
2.833725306E0,-7.440338731E-1,-6.493497491E-1,-3.589444160E0
2.835739775E0,-7.623597980E-1,-6.725626588E-1,-3.573561668E0
2.837722784E0,-7.733554244E-1,-6.841690540E-1,-3.561955214E0
2.839738254E0,-7.929030657E-1,-7.104362845E-1,-3.542407513E0
2.841752646E0,-8.100073338E-1,-7.391469479E-1,-3.519805431E0
2.843735194E0,-8.185594082E-1,-7.531968355E-1,-3.510031700E0
2.845748971E0,-8.356636763E-1,-7.837401032E-1,-3.489262342E0
2.847733979E0,-8.436049223E-1,-8.008443117E-1,-3.477655888E0
2.849747218E0,-8.576548100E-1,-8.344419003E-1,-3.457497358E0
2.851731458E0,-8.723155856E-1,-8.649851680E-1,-3.442225695E0
2.853745312E0,-8.765916228E-1,-8.814785480E-1,-3.430008411E0
2.855729627E0,-8.912523985E-1,-9.156870246E-1,-3.411071539E0
2.857742944E0,-8.998045325E-1,-9.486737251E-1,-3.393356323E0
2.859726260E0,-9.077457786E-1,-9.639453292E-1,-3.385415077E0
2.861741037E0,-9.187413454E-1,-9.993755221E-1,-3.370143652E0
2.863724507E0,-9.303477407E-1,-1.025031924E0,-3.354871988E0
2.865738285E0,-9.334021211E-1,-1.037249207E0,-3.348152399E0
2.867754062E0,-9.456194043E-1,-1.059240341E0,-3.337767601E0
2.869736532E0,-9.596692920E-1,-1.075122833E0,-3.326772213E0
2.871749464E0,-9.639453292E-1,-1.083064079E0,-3.323107004E0
2.873734010E0,-9.731083512E-1,-1.091616154E0,-3.312111378E0
2.875748249E0,-9.822713137E-1,-1.097113967E0,-3.305391788E0
2.877731565E0,-9.865473509E-1,-1.097724795E0,-3.299283266E0
2.879746112E0,-9.950994849E-1,-1.094059706E0,-3.290731192E0
2.881729812E0,-1.000597239E0,-1.087950945E0,-3.286454916E0
2.883743974E0,-1.009149432E0,-1.076344609E0,-3.281568050E0
2.885727906E0,-1.022588372E0,-1.055575132E0,-3.271794319E0
2.887742760E0,-1.030529618E0,-1.042747021E0,-3.266907215E0
2.889725538E0,-1.037860036E0,-1.014036298E0,-3.258965969E0
2.891739930E0,-1.047633886E0,-9.779952765E-1,-3.249803066E0
2.893723324E0,-1.054353356E0,-9.578366876E-1,-3.246748686E0
2.895736947E0,-1.062905550E0,-9.132435322E-1,-3.237585783E0
2.897751725E0,-1.070235968E0,-8.625417352E-1,-3.229644537E0
2.899735349E0,-1.070846796E0,-8.362745047E-1,-3.223536015E0
2.901749280E0,-1.075733662E0,-7.819074988E-1,-3.214372873E0
2.903732903E0,-1.082453251E0,-7.214318514E-1,-3.203988314E0
2.905747374E0,-1.089172721E0,-6.908885837E-1,-3.197268724E0
2.907731690E0,-1.100779176E0,-6.316346526E-1,-3.185662270E0
2.909744928E0,-1.111774802E0,-5.711590052E-1,-3.175888300E0
2.911728398E0,-1.114218235E0,-5.406157374E-1,-3.169168949E0
2.913743099E0,-1.124602914E0,-4.801400900E-1,-3.155118942E0
2.915727415E0,-1.127046347E0,-4.508185387E-1,-3.145956039E0
2.917740115E0,-1.134987593E0,-3.915646076E-1,-3.134960413E0
2.919724662E0,-1.142318010E0,-3.341432810E-1,-3.117856264E0
2.921739209E0,-1.143539786E0,-3.048217595E-1,-3.111747503E0
2.923752756E0,-1.148426652E0,-2.480112910E-1,-3.095865011E0
2.925736148E0,-1.150870085E0,-1.997529417E-1,-3.079371691E0
2.927752080E0,-1.153924465E0,-1.759291887E-1,-3.069597960E0
2.929733935E0,-1.155757070E0,-1.319468915E-1,-3.053715467E0
2.931749019E0,-1.158811331E0,-9.834930301E-2,-3.039054632E0
2.933731874E0,-1.161254883E0,-8.063421398E-2,-3.033556700E0
2.935746344E0,-1.164309144E0,-5.986479297E-2,-3.020728588E0
2.937729660E0,-1.166141748E0,-4.153883830E-2,-3.009122133E0
2.939743822E0,-1.169806957E0,-3.604105115E-2,-3.000570059E0
2.941727523E0,-1.174693823E0,-2.626720630E-2,-2.991407156E0
2.943742069E0,-1.175915599E0,-2.687807009E-2,-2.984076738E0
2.945724847E0,-1.181413412E0,-3.115412779E-2,-2.974302769E0
2.947740548E0,-1.185078621E0,-3.848451003E-2,-2.966972589E0
2.949722941E0,-1.189354658E0,-4.337143153E-2,-2.962085485E0
2.951734410E0,-1.193630695E0,-5.619960278E-2,-2.955976963E0
2.953750957E0,-1.197906733E0,-7.208210230E-2,-2.947424889E0
2.955735658E0,-1.199739337E0,-8.063421398E-2,-2.943148851E0
2.957749204E0,-1.206458807E0,-1.038470939E-1,-2.935818434E0
2.959732828E0,-1.207069755E0,-1.282816976E-1,-2.927266359E0
2.961747298E0,-1.210734963E0,-1.398881376E-1,-2.925433636E0
2.963731691E0,-1.213789225E0,-1.679879427E-1,-2.915659904E0
2.965745237E0,-1.216232657E0,-1.912008226E-1,-2.904664278E0
2.967730169E0,-1.217454433E0,-2.015855312E-1,-2.899166346E0
2.969743101E0,-1.220508814E0,-2.217440903E-1,-2.886949062E0
2.971727339E0,-1.222952247E0,-2.394591719E-1,-2.870455742E0
2.973740963E0,-1.224173903E0,-2.461786866E-1,-2.863125324E0
2.975724355E0,-1.221730471E0,-2.608394623E-1,-2.845410347E0
2.977738211E0,-1.224784851E0,-2.620611787E-1,-2.835636377E0
2.979752988E0,-1.224784851E0,-2.687807083E-1,-2.815477848E0
2.981736611E0,-1.224173903E0,-2.742784917E-1,-2.791043282E0
2.983751082E0,-1.223563075E0,-2.718350291E-1,-2.780047655E0
2.985734782E0,-1.224784851E0,-2.657263875E-1,-2.755613089E0
2.987749329E0,-1.225395679E0,-2.590068579E-1,-2.733622074E0
2.989732107E0,-1.224173903E0,-2.547308207E-1,-2.718961239E0
2.991745576E0,-1.226617455E0,-2.400700450E-1,-2.696359158E0
2.993730507E0,-1.225395679E0,-2.272418737E-1,-2.671313763E0
2.995744131E0,-1.226617455E0,-2.180788964E-1,-2.660318136E0
2.997726909E0,-1.225395679E0,-2.052507252E-1,-2.635883570E0
2.999741994E0,-1.224784851E0,-1.887573600E-1,-2.611449003E0
3.001725310E0,-1.225395679E0,-1.826487035E-1,-2.601064205E0
3.003739472E0,-1.224173903E0,-1.679879427E-1,-2.579072952E0
3.005753711E0,-1.222341299E0,-1.557706445E-1,-2.557081938E0
3.007738565E0,-1.221119642E0,-1.527163088E-1,-2.544253826E0
3.009750958E0,-1.218676209E0,-1.417207420E-1,-2.521040916E0
3.011736198E0,-1.216232657E0,-1.337794960E-1,-2.508212805E0
3.013749667E0,-1.213789225E0,-1.258382350E-1,-2.484389067E0
3.015732522E0,-1.207069755E0,-1.197295859E-1,-2.465452194E0
3.017746915E0,-1.205847979E0,-1.130100712E-1,-2.454456568E0
3.019731000E0,-1.199739337E0,-1.123992056E-1,-2.431243658E0
3.021746085E0,-1.193630695E0,-1.069014147E-1,-2.407419920E0
3.023728862E0,-1.189965487E0,-1.081231460E-1,-2.393980980E0
3.025743256E0,-1.179580808E0,-1.069014147E-1,-2.371989727E0
3.027727264E0,-1.172861218E0,-1.099557430E-1,-2.349387646E0
3.029741426E0,-1.164919972E0,-1.130100712E-1,-2.337170362E0
3.031723896E0,-1.156978726E0,-1.172861308E-1,-2.311514139E0
3.033737827E0,-1.145372391E0,-1.264491081E-1,-2.288301229E0
3.035753143E0,-1.139263630E0,-1.325577646E-1,-2.273029566E0
3.037735920E0,-1.127046347E0,-1.472185254E-1,-2.248594999E0
3.039750391E0,-1.114829063E0,-1.679879427E-1,-2.219884396E0
3.041734168E0,-1.110553026E0,-1.777617931E-1,-2.207667112E0
3.043748022E0,-1.098946571E0,-2.040289938E-1,-2.177734613E0
3.045731724E0,-1.096503139E0,-2.174680233E-1,-2.164906502E0
3.047746501E0,-1.083064079E0,-2.425135076E-1,-2.137417555E0
3.049729893E0,-1.075733662E0,-2.724458873E-1,-2.110539436E0
3.051744286E0,-1.070846796E0,-2.852740586E-1,-2.095878601E0
3.053727372E0,-1.064127207E0,-3.103195429E-1,-2.068389654E0
3.055742226E0,-1.058629513E0,-3.341432810E-1,-2.043955088E0
3.057725311E0,-1.056185961E0,-3.488040566E-1,-2.031126976E0
3.059739782E0,-1.051909924E0,-3.701843321E-1,-2.005470514E0
3.061753943E0,-1.048855662E0,-3.872885704E-1,-1.981035948E0
3.063737336E0,-1.048244715E0,-3.982841372E-1,-1.970040441E0
3.065751422E0,-1.047633886E0,-4.123340547E-1,-1.947438359E0
3.067735430E0,-1.045190454E0,-4.239404798E-1,-1.923003793E0
3.069748976E0,-1.043968678E0,-4.282165468E-1,-1.911397338E0
3.071732369E0,-1.046412110E0,-4.355469346E-1,-1.886351824E0
3.073747532E0,-1.043968678E0,-4.379903674E-1,-1.863139033E0
3.075730925E0,-1.044579625E0,-4.404338300E-1,-1.849089146E0
3.077744163E0,-1.043968678E0,-4.440990388E-1,-1.824043632E0
3.079729094E0,-1.042747021E0,-4.459316432E-1,-1.810604572E0
3.081743488E0,-1.043357849E0,-4.447098970E-1,-1.781893969E0
3.083726342E0,-1.043357849E0,-4.416555762E-1,-1.756237626E0
3.085740427E0,-1.039692640E0,-4.422664344E-1,-1.739133358E0
3.087725051E0,-1.038470864E0,-4.367686510E-1,-1.712255239E0
3.089738906E0,-1.032973170E0,-4.337143302E-1,-1.679268599E0
3.091753375E0,-1.029307961E0,-4.276056588E-1,-1.665829539E0
3.093736229E0,-1.023810148E0,-4.221078753E-1,-1.632231951E0
3.095750392E0,-1.014036298E0,-4.153883755E-1,-1.605964780E0
3.097734708E0,-1.008538485E0,-4.123340547E-1,-1.588860512E0
3.099748177E0,-9.993755221E-1,-4.098905921E-1,-1.557706356E0
3.101732571E0,-9.877691269E-1,-4.031710625E-1,-1.527163148E0
3.103746348E0,-9.804387093E-1,-4.037819207E-1,-1.511280656E0
3.105729433E0,-9.700540304E-1,-3.958406746E-1,-1.481348276E0
3.107745211E0,-9.615018964E-1,-3.970624208E-1,-1.465465665E0
3.109727373E0,-9.505063295E-1,-3.958406746E-1,-1.436144233E0
3.111736920E0,-9.364564419E-1,-3.976732790E-1,-1.408655286E0
3.113755928E0,-9.315695167E-1,-3.995058835E-1,-1.393383622E0
3.115739706E0,-9.199630618E-1,-4.074471295E-1,-1.361618638E0
3.117753483E0,-9.046914577E-1,-4.172209501E-1,-1.332907915E0
3.119737491E0,-8.967501521E-1,-4.257730842E-1,-1.318247199E0
3.121751423E0,-8.839219809E-1,-4.398229718E-1,-1.290147424E0
3.123735124E0,-8.704829812E-1,-4.557054639E-1,-1.258993268E0
3.125749824E0,-8.662069440E-1,-4.642575979E-1,-1.246165156E0
3.127734524E0,-8.521569967E-1,-4.862487316E-1,-1.219287038E0
3.129746841E0,-8.436049223E-1,-5.106833577E-1,-1.189965487E0
3.131731387E0,-8.362745047E-1,-5.235115290E-1,-1.178359032E0
3.133745318E0,-8.301658630E-1,-5.479460955E-1,-1.153924465E0
3.135728019E0,-8.210029006E-1,-5.784893632E-1,-1.129489779E0
3.137742797E0,-8.173376918E-1,-5.925393105E-1,-1.119716048E0
3.139726805E0,-8.142833710E-1,-6.212499738E-1,-1.095892191E0
3.141740428E0,-8.093964458E-1,-6.346889734E-1,-1.082453251E0
3.143724976E0,-8.045095205E-1,-6.658431292E-1,-1.060462117E0
3.145738522E0,-7.996225953E-1,-6.890559793E-1,-1.041525245E0
3.147753300E0,-7.935139537E-1,-7.000515461E-1,-1.029307961E0
3.149736693E0,-7.880161405E-1,-7.208209634E-1,-1.010982037E0
3.151750009E0,-7.825183868E-1,-7.342600226E-1,-9.883799553E-1
3.153735171E0,-7.770205736E-1,-7.385360599E-1,-9.786061049E-1
3.155748794E0,-7.690793276E-1,-7.452555895E-1,-9.560040832E-1
3.157731265E0,-7.617489696E-1,-7.446447611E-1,-9.340129495E-1
3.159746273E0,-7.599163651E-1,-7.440338731E-1,-9.224064946E-1
3.161729665E0,-7.507534027E-1,-7.385360599E-1,-8.979719281E-1
3.163743905E0,-7.458664775E-1,-7.312057018E-1,-8.729264140E-1
3.165727528E0,-7.397578359E-1,-7.269296646E-1,-8.594874144E-1
3.167742613E0,-7.299839854E-1,-7.128797174E-1,-8.326093554E-1
3.169725698E0,-7.208209634E-1,-6.982190013E-1,-8.075638413E-1
3.171739938E0,-7.110471725E-1,-6.890559793E-1,-7.922922373E-1
3.173754100E0,-6.982190013E-1,-6.713408828E-1,-7.666358948E-1
3.175737493E0,-6.902777553E-1,-6.627888083E-1,-7.544185519E-1
3.177751348E0,-6.762278080E-1,-6.438519955E-1,-7.293730974E-1
3.179734663E0,-6.591235995E-1,-6.291912198E-1,-7.092145681E-1
3.181749748E0,-6.536257863E-1,-6.236934066E-1,-6.988298297E-1
3.183733141E0,-6.395758986E-1,-6.163630486E-1,-6.811147332E-1
3.185747073E0,-6.249151230E-1,-6.157521605E-1,-6.695083380E-1
3.187732620E0,-6.181956530E-1,-6.163630486E-1,-6.603453159E-1
3.189744935E0,-6.010913849E-1,-6.249151230E-1,-6.462954283E-1
3.191727636E0,-5.858197808E-1,-6.377432942E-1,-6.310238242E-1
3.193742183E0,-5.778785348E-1,-6.438519955E-1,-6.224716902E-1
3.195726191E0,-5.595525503E-1,-6.572909951E-1,-6.065891981E-1
3.197740661E0,-5.436700583E-1,-6.701191664E-1,-5.845980644E-1
3.199724593E0,-5.338962078E-1,-6.792821288E-1,-5.723807216E-1
3.201739678E0,-5.149593949E-1,-6.866125464E-1,-5.430592299E-1
3.203752609E0,-4.990769029E-1,-6.927211881E-1,-5.155702829E-1
3.205736387E0,-4.905247986E-1,-6.927211881E-1,-5.009095073E-1
3.207751395E0,-4.709770977E-1,-6.957755089E-1,-4.654793143E-1
3.209734480E0,-4.581489265E-1,-6.951646209E-1,-4.459316432E-1
3.211748642E0,-4.392121136E-1,-6.945537925E-1,-4.111123085E-1
3.213731805E0,-4.178318381E-1,-6.945537925E-1,-3.726277947E-1
3.215746582E0,-4.068362415E-1,-6.939429045E-1,-3.573561609E-1
3.217729590E0,-3.915646076E-1,-6.951646209E-1,-3.237585723E-1
3.219744060E0,-3.744603992E-1,-6.951646209E-1,-2.944370508E-1
3.221727838E0,-3.665191531E-1,-6.963863969E-1,-2.816088796E-1
3.223742307E0,-3.494149148E-1,-6.994407177E-1,-2.528982162E-1
3.225726007E0,-3.335324228E-1,-7.043276429E-1,-2.351831198E-1
3.227740401E0,-3.280346394E-1,-7.104362845E-1,-2.229658216E-1
3.229754255E0,-3.145956099E-1,-7.171558142E-1,-2.089159191E-1
3.231736186E0,-3.042109013E-1,-7.214318514E-1,-1.960877478E-1
3.233752503E0,-2.968805134E-1,-7.238753438E-1,-1.893682331E-1
3.235736434E0,-2.889392674E-1,-7.250970602E-1,-1.820378453E-1
3.237748211E0,-2.797762752E-1,-7.195992470E-1,-1.783726513E-1
3.239733142E0,-2.755002379E-1,-7.171558142E-1,-1.753183305E-1
3.241747536E0,-2.632829249E-1,-7.092145681E-1,-1.692096740E-1
3.243730929E0,-2.583959997E-1,-7.049384713E-1,-1.704314053E-1
3.245745167E0,-2.528982162E-1,-6.872233748E-1,-1.673770845E-1
3.247729407E0,-2.412917763E-1,-6.658431292E-1,-1.655444801E-1
3.249742338E0,-2.370157093E-1,-6.554583907E-1,-1.655444801E-1
3.251727962E0,-2.272418737E-1,-6.304129362E-1,-1.637118906E-1
3.253740585E0,-2.180788964E-1,-6.029239893E-1,-1.588249654E-1
3.255754440E0,-2.119702399E-1,-5.907067060E-1,-1.582140923E-1
3.257738064E0,-2.028072625E-1,-5.619960427E-1,-1.514945775E-1
3.259752610E0,-1.948660165E-1,-5.345070958E-1,-1.466076523E-1
3.261737234E0,-1.899790913E-1,-5.198463202E-1,-1.447750628E-1
3.263750473E0,-1.777617931E-1,-4.948008358E-1,-1.380555481E-1
3.265734712E0,-1.704314053E-1,-4.703662395E-1,-1.325577646E-1
3.267748643E0,-1.661553532E-1,-4.587597847E-1,-1.301143020E-1
3.269732267E0,-1.569923609E-1,-4.392121136E-1,-1.246165112E-1
3.271745275E0,-1.496619880E-1,-4.251621962E-1,-1.166752651E-1
3.273730130E0,-1.459967941E-1,-4.172209501E-1,-1.142318025E-1
3.275743677E0,-1.368338168E-1,-4.086688459E-1,-1.087340117E-1
3.277727685E0,-1.362229437E-1,-4.043927789E-1,-1.075122803E-1
3.279741616E0,-1.258382350E-1,-3.958406746E-1,-1.020144969E-1
3.281725624E0,-1.215621829E-1,-3.921754956E-1,-1.001819000E-1
3.283739172E0,-1.172861308E-1,-3.921754956E-1,-9.957103431E-2
3.285753026E0,-1.130100712E-1,-3.927863538E-1,-9.590584040E-2
3.287738495E0,-1.069014147E-1,-3.982841372E-1,-9.346238524E-2
3.289751504E0,-1.056796908E-1,-4.031710625E-1,-9.468411654E-2
3.291736051E0,-9.957103431E-2,-4.105014503E-1,-9.407325089E-2
3.293749290E0,-9.590584040E-2,-4.166100919E-1,-9.346238524E-2
3.295733374E0,-9.346238524E-2,-4.208861589E-1,-9.529497474E-2
3.297747153E0,-9.101892263E-2,-4.288274050E-1,-9.834930301E-2
3.299731161E0,-8.368854225E-2,-4.349360466E-1,-9.834930301E-2
3.301745938E0,-8.307767659E-2,-4.386012554E-1,-1.032362282E-1
3.303729332E0,-7.880161703E-2,-4.392121136E-1,-1.020144969E-1
3.305742340E0,-7.819075137E-2,-4.404338300E-1,-1.032362282E-1
3.307727809E0,-7.147123665E-2,-4.379903674E-1,-1.062905490E-1
3.309741048E0,-6.658431143E-2,-4.355469346E-1,-1.038470939E-1
3.311754365E0,-6.597344577E-2,-4.337143302E-1,-1.032362282E-1
3.313738603E0,-6.230825558E-2,-4.221078753E-1,-1.026253626E-1
3.315753150E0,-5.742133409E-2,-4.105014503E-1,-1.007927656E-1
3.317735236E0,-5.681046844E-2,-4.056145251E-1,-9.834930301E-2
3.319750628E0,-5.497787148E-2,-3.866777122E-1,-9.285151958E-2
3.321734329E0,-5.314527452E-2,-3.671300113E-1,-8.796459436E-2
3.323748492E0,-4.886921868E-2,-3.579670191E-1,-8.674286306E-2
3.325732500E0,-5.009094998E-2,-3.292563558E-1,-8.246681094E-2
3.327746969E0,-4.520402849E-2,-3.017674387E-1,-7.574728876E-2
3.329730131E0,-4.153883830E-2,-2.877175212E-1,-7.391469181E-2
3.331744294E0,-3.787364438E-2,-2.614503205E-1,-6.658431143E-2
3.333728225E0,-3.726277873E-2,-2.327396572E-1,-6.414084882E-2
3.335741771E0,-3.481931984E-2,-2.168571651E-1,-5.681046844E-2
3.337725549E0,-3.298672289E-2,-1.912008226E-1,-5.131268129E-2
3.339739019E0,-3.359758854E-2,-1.802052408E-1,-4.825835302E-2
3.341754489E0,-3.543018550E-2,-1.533271819E-1,-4.276056588E-2
3.343737497E0,-3.298672289E-2,-1.295034289E-1,-3.726277873E-2
3.345751429E0,-3.481931984E-2,-1.221730486E-1,-3.237585723E-2
3.347736668E0,-3.543018550E-2,-9.896016866E-2,-3.054326214E-2
3.349748906E0,-3.359758854E-2,-8.368854225E-2,-2.382374369E-2
3.351732991E0,-3.237585723E-2,-7.513642311E-2,-2.199114859E-2
3.353746539E0,-2.993239649E-2,-6.108652428E-2,-2.015855350E-2
3.355731085E0,-2.993239649E-2,-4.886921868E-2,-1.649336144E-2
3.357745247E0,-2.993239649E-2,-4.459316283E-2,-1.099557430E-2
3.359728410E0,-2.993239649E-2,-3.726277873E-2,-1.099557430E-2
3.361742495E0,-3.054326214E-2,-2.993239649E-2,-6.719517522E-3
3.363726272E0,-2.993239649E-2,-2.932153270E-2,-6.108652335E-3
3.365740666E0,-3.054326214E-2,-2.382374369E-2,6.108652451E-4
3.367756135E0,-3.176499158E-2,-2.260201424E-2,4.276056774E-3
3.369738605E0,-3.298672289E-2,-2.443460934E-2,7.941247895E-3
3.371752997E0,-3.420845419E-2,-2.382374369E-2,1.099557430E-2
3.373736083E0,-3.420845419E-2,-2.321287990E-2,1.343903504E-2
3.375750245E0,-3.787364438E-2,-2.748893574E-2,1.954768784E-2
3.377733638E0,-3.848451003E-2,-3.298672289E-2,2.382374369E-2
3.379747493E0,-3.848451003E-2,-3.481931984E-2,2.504547499E-2
3.381732193E0,-4.092797264E-2,-3.481931984E-2,2.993239649E-2
3.383745740E0,-3.970624134E-2,-4.092797264E-2,3.543018550E-2
3.385729671E0,-4.153883830E-2,-4.337143153E-2,3.726277873E-2
3.387745064E0,-4.520402849E-2,-4.214970022E-2,4.031710699E-2
3.389728765E0,-4.703662544E-2,-4.337143153E-2,4.581489414E-2
3.391741465E0,-5.009094998E-2,-4.153883830E-2,4.886921868E-2
3.393725704E0,-5.192354694E-2,-4.153883830E-2,5.253441259E-2
3.395739636E0,-5.497787148E-2,-3.481931984E-2,5.497787148E-2
3.397753413E0,-5.314527452E-2,-3.420845419E-2,5.925392732E-2
3.399736575E0,-5.497787148E-2,-2.443460934E-2,6.291911751E-2
3.401752199E0,-5.558873713E-2,-1.954768784E-2,6.719517708E-2
3.403734746E0,-5.742133409E-2,-9.773843922E-3,7.269296050E-2
3.405749446E0,-5.619960278E-2,-6.108652451E-4,8.063421398E-2
3.407734071E0,-5.558873713E-2,6.719517522E-3,8.429940045E-2
3.409747386E0,-5.803219974E-2,1.588249579E-2,9.285151958E-2
3.411731625E0,-6.047565863E-2,2.443460934E-2,9.712757170E-2
3.413745479E0,-6.047565863E-2,2.932153270E-2,1.020144969E-1
3.415728642E0,-6.047565863E-2,3.420845419E-2,1.099557430E-1
3.417743112E0,-6.414084882E-2,4.031710699E-2,1.136209369E-1
3.419727043E0,-6.536258012E-2,4.276056588E-2,1.172861308E-1
3.421741205E0,-6.658431143E-2,4.398229718E-2,1.203404516E-1
3.423755444E0,-6.963863969E-2,4.276056588E-2,1.221730486E-1
3.425738837E0,-7.086037099E-2,4.214970022E-2,1.240056455E-1
3.427754229E0,-7.147123665E-2,4.214970022E-2,1.221730486E-1
3.429736085E0,-7.452555746E-2,4.092797264E-2,1.227839142E-1
3.431748939E0,-7.635815442E-2,3.970624134E-2,1.203404516E-1
3.433733331E0,-7.880161703E-2,4.031710699E-2,1.154535338E-1
3.435748033E0,-7.941248268E-2,3.787364438E-2,1.136209369E-1
3.437731733E0,-8.124507964E-2,3.909537569E-2,1.123992056E-1
3.439745356E0,-8.491026610E-2,4.031710699E-2,1.050688252E-1
3.441729672E0,-8.796459436E-2,4.031710699E-2,1.032362282E-1
3.443743758E0,-8.979719132E-2,4.398229718E-2,9.834930301E-2
3.445727151E0,-9.285151958E-2,4.825835302E-2,9.529497474E-2
3.447742236E0,-9.285151958E-2,4.948008433E-2,9.040805697E-2
3.449725398E0,-9.651670605E-2,5.864306539E-2,8.613199741E-2
3.451740176E0,-9.896016866E-2,6.780604273E-2,7.941248268E-2
3.453753645E0,-1.001819000E-1,7.086037099E-2,7.452555746E-2
3.455736807E0,-9.957103431E-2,7.757988572E-2,7.024950534E-2
3.457751508E0,-1.014036313E-1,9.040805697E-2,6.169738993E-2
3.459735286E0,-1.038470939E-1,9.590584040E-2,5.986479297E-2
3.461750294E0,-1.026253626E-1,1.050688252E-1,5.192354694E-2
3.463732457E0,-1.050688252E-1,1.111774743E-1,4.459316283E-2
3.465747541E0,-1.062905490E-1,1.160643995E-1,3.909537569E-2
3.467732549E0,-1.081231460E-1,1.221730486E-1,3.359758854E-2
3.469744788E0,-1.081231460E-1,1.252273768E-1,3.054326214E-2
3.471728490E0,-1.075122803E-1,1.325577646E-1,2.443460934E-2
3.473743344E0,-1.062905490E-1,1.343903542E-1,2.015855350E-2
3.475727352E0,-1.069014147E-1,1.343903542E-1,1.649336144E-2
3.477740207E0,-1.056796908E-1,1.374446750E-1,1.343903504E-2
3.479754446E0,-1.056796908E-1,1.404990107E-1,1.221730467E-2
3.481738454E0,-1.032362282E-1,1.380555481E-1,9.162978269E-3
3.483753155E0,-1.007927656E-1,1.404990107E-1,7.330383174E-3
3.485736240E0,-1.020144969E-1,1.319468915E-1,7.941247895E-3
3.487751709E0,-9.896016866E-2,1.288925707E-1,1.038470957E-2
3.489734487E0,-9.712757170E-2,1.191187203E-1,1.221730467E-2
3.491748880E0,-9.407325089E-2,1.087340117E-1,1.527163107E-2
3.493732657E0,-9.407325089E-2,1.038470939E-1,1.710422710E-2
3.495745896E0,-9.162978828E-2,9.040805697E-2,1.954768784E-2
3.497729827E0,-8.918632567E-2,8.063421398E-2,2.260201424E-2
3.499744683E0,-8.918632567E-2,6.963863969E-2,2.809980139E-2
3.501727691E0,-8.246681094E-2,5.070181563E-2,3.298672289E-2
3.503742160E0,-8.185594529E-2,4.398229718E-2,3.543018550E-2
3.505725861E0,-7.757988572E-2,2.809980139E-2,3.848451003E-2
3.507740639E0,-7.635815442E-2,1.038470957E-2,4.459316283E-2
3.509753954E0,-7.391469181E-2,4.886921961E-3,4.520402849E-2
3.511736732E0,-7.086037099E-2,-1.221730467E-2,4.948008433E-2
3.513751433E0,-6.963863969E-2,-2.382374369E-2,5.375614017E-2
3.515734902E0,-6.719517708E-2,-3.176499158E-2,5.253441259E-2
3.517749295E0,-6.536258012E-2,-4.337143153E-2,5.497787148E-2
3.519733073E0,-6.108652428E-2,-5.314527452E-2,5.497787148E-2
3.521747235E0,-6.169738993E-2,-5.803219974E-2,5.436700583E-2
3.523730628E0,-5.864306539E-2,-6.841690838E-2,5.375614017E-2
3.525744405E0,-5.497787148E-2,-7.574728876E-2,5.375614017E-2
3.527729029E0,-5.436700583E-2,-8.124507964E-2,5.131268129E-2
3.529742884E0,-5.619960278E-2,-8.674286306E-2,4.703662544E-2
3.531727199E0,-5.619960278E-2,-8.857546002E-2,4.581489414E-2
3.533740208E0,-5.436700583E-2,-9.285151958E-2,4.214970022E-2
3.535754985E0,-5.314527452E-2,-9.346238524E-2,4.092797264E-2
3.537738378E0,-5.314527452E-2,-9.468411654E-2,3.848451003E-2
3.539752541E0,-5.192354694E-2,-9.040805697E-2,3.726277873E-2
3.541736780E0,-5.192354694E-2,-8.552113175E-2,3.298672289E-2
3.543750326E0,-5.131268129E-2,-8.246681094E-2,3.115412779E-2
3.545733719E0,-5.253441259E-2,-7.513642311E-2,2.809980139E-2
3.547750112E0,-5.375614017E-2,-6.475171447E-2,2.626720630E-2
3.549731582E0,-5.375614017E-2,-6.291911751E-2,2.504547499E-2
3.551745821E0,-5.253441259E-2,-5.314527452E-2,2.138028294E-2
3.553730059E0,-5.436700583E-2,-4.581489414E-2,1.649336144E-2
3.555744222E0,-5.497787148E-2,-3.970624134E-2,1.771509275E-2
3.557727000E0,-5.497787148E-2,-3.481931984E-2,1.343903504E-2
3.559742085E0,-5.864306539E-2,-2.504547499E-2,9.773843922E-3
3.561725247E0,-5.925392732E-2,-2.504547499E-2,9.162978269E-3
3.563739640E0,-5.925392732E-2,-2.015855350E-2,7.330383174E-3
3.565753879E0,-6.108652428E-2,-1.771509275E-2,4.276056774E-3
3.567737888E0,-6.108652428E-2,-1.221730467E-2,1.221730490E-3
3.569751050E0,-6.352998316E-2,-9.773843922E-3,-1.832595794E-3
3.571735673E0,-6.291911751E-2,-8.552113548E-3,6.108652451E-4
3.573749604E0,-6.536258012E-2,-4.276056774E-3,-6.108652335E-3
3.575733228E0,-6.780604273E-2,-6.108652451E-4,-6.719517522E-3
3.577747467E0,-6.841690838E-2,0.000000000E0,-8.552113548E-3
3.579731091E0,-6.780604273E-2,-1.221730490E-3,-1.221730467E-2
3.581745638E0,-7.208210230E-2,6.108652451E-4,-1.221730467E-2
3.583728723E0,-7.086037099E-2,-3.054326167E-3,-1.404990070E-2
3.585742885E0,-7.269296050E-2,-2.443460980E-3,-1.404990070E-2
3.587727201E0,-7.391469181E-2,-4.276056774E-3,-1.527163107E-2
3.589740979E0,-7.208210230E-2,-5.497787148E-3,-1.588249579E-2
3.591751141E0,-7.574728876E-2,-7.941247895E-3,-1.588249579E-2
3.593737918E0,-7.513642311E-2,-1.282817032E-2,-1.404990070E-2
3.595752696E0,-7.574728876E-2,-1.588249579E-2,-1.343903504E-2
3.597736089E0,-7.635815442E-2,-1.954768784E-2,-1.282817032E-2
3.599750558E0,-7.574728876E-2,-2.504547499E-2,-9.773843922E-3
3.601734874E0,-7.391469181E-2,-3.115412779E-2,-1.160643995E-2
3.603747806E0,-7.452555746E-2,-3.481931984E-2,-7.941247895E-3
3.605731814E0,-7.513642311E-2,-3.543018550E-2,-7.941247895E-3
3.607746284E0,-7.696902007E-2,-3.970624134E-2,-4.886921961E-3
3.609729676E0,-7.635815442E-2,-4.520402849E-2,-2.443460980E-3
3.611744762E0,-7.513642311E-2,-4.581489414E-2,-6.108652451E-4
3.613728232E0,-7.391469181E-2,-4.825835302E-2,-6.108652451E-4
3.615741701E0,-7.452555746E-2,-5.314527452E-2,3.054326167E-3
3.617755326E0,-7.391469181E-2,-5.375614017E-2,4.276056774E-3
3.619739026E0,-7.513642311E-2,-5.375614017E-2,4.276056774E-3
3.621753188E0,-7.452555746E-2,-5.742133409E-2,4.276056774E-3
3.623737735E0,-7.513642311E-2,-5.986479297E-2,5.497787148E-3
3.625751897E0,-7.635815442E-2,-6.108652428E-2,9.162978269E-3
3.627735905E0,-7.574728876E-2,-6.108652428E-2,8.552113548E-3
3.629749221E0,-7.880161703E-2,-6.108652428E-2,9.162978269E-3
3.631732230E0,-7.880161703E-2,-6.108652428E-2,4.886921961E-3
3.633748315E0,-7.819075137E-2,-5.986479297E-2,9.162978269E-3
3.635731400E0,-8.124507964E-2,-5.925392732E-2,8.552113548E-3
3.637744563E0,-7.880161703E-2,-5.742133409E-2,1.160643995E-2
3.639728571E0,-7.941248268E-2,-5.925392732E-2,1.038470957E-2
3.641743117E0,-7.819075137E-2,-5.681046844E-2,1.038470957E-2
3.643725817E0,-7.819075137E-2,-5.558873713E-2,9.162978269E-3
3.645740672E0,-7.635815442E-2,-5.681046844E-2,1.282817032E-2
3.647755142E0,-7.696902007E-2,-4.948008433E-2,1.343903504E-2
3.649738765E0,-7.269296050E-2,-4.703662544E-2,1.527163107E-2
3.651752697E0,-7.452555746E-2,-4.398229718E-2,1.649336144E-2
3.653736321E0,-7.391469181E-2,-4.459316283E-2,1.893682219E-2
3.655750560E0,-7.391469181E-2,-4.398229718E-2,2.076941915E-2
3.657734491E0,-7.269296050E-2,-4.214970022E-2,2.321287990E-2
3.659748038E0,-7.330382615E-2,-4.276056588E-2,2.199114859E-2
3.661732739E0,-7.147123665E-2,-4.337143153E-2,2.504547499E-2
3.663745593E0,-7.086037099E-2,-4.276056588E-2,2.504547499E-2
3.665729294E0,-7.208210230E-2,-4.337143153E-2,2.748893574E-2
3.667745071E0,-7.330382615E-2,-4.459316283E-2,2.748893574E-2
3.669727848E0,-7.208210230E-2,-4.642575979E-2,2.809980139E-2
3.671738549E0,-6.841690838E-2,-4.581489414E-2,2.871066704E-2
3.673754635E0,-7.024950534E-2,-4.642575979E-2,2.748893574E-2
3.675739797E0,-6.841690838E-2,-4.703662544E-2,2.993239649E-2
3.677753651E0,-6.597344577E-2,-4.703662544E-2,3.115412779E-2
3.679737121E0,-6.414084882E-2,-4.703662544E-2,3.115412779E-2
3.681752206E0,-6.291911751E-2,-4.886921868E-2,3.115412779E-2
3.683734676E0,-6.230825558E-2,-5.009094998E-2,2.871066704E-2
3.685749684E0,-6.230825558E-2,-5.070181563E-2,3.054326214E-2
3.687733385E0,-6.169738993E-2,-5.497787148E-2,3.054326214E-2
3.689747239E0,-5.681046844E-2,-5.681046844E-2,2.748893574E-2
3.691731555E0,-5.681046844E-2,-5.619960278E-2,2.871066704E-2
3.693745410E0,-5.558873713E-2,-5.742133409E-2,2.748893574E-2
3.695728187E0,-5.314527452E-2,-5.864306539E-2,2.626720630E-2
3.697743349E0,-5.436700583E-2,-5.803219974E-2,2.626720630E-2
3.699726665E0,-5.253441259E-2,-5.742133409E-2,2.809980139E-2
3.701740828E0,-5.192354694E-2,-5.986479297E-2,2.687807009E-2
3.703754990E0,-5.009094998E-2,-5.864306539E-2,2.443460934E-2
3.705738382E0,-5.192354694E-2,-5.864306539E-2,2.321287990E-2
3.707754083E0,-5.009094998E-2,-5.925392732E-2,2.199114859E-2
3.709736245E0,-4.886921868E-2,-5.986479297E-2,2.199114859E-2
3.711749484E0,-4.886921868E-2,-6.230825558E-2,1.893682219E-2
3.713734723E0,-5.131268129E-2,-6.230825558E-2,2.015855350E-2
3.715749193E0,-5.070181563E-2,-6.352998316E-2,1.649336144E-2
3.717731740E0,-5.070181563E-2,-6.352998316E-2,1.343903504E-2
3.719746748E0,-5.131268129E-2,-6.414084882E-2,1.282817032E-2
3.721730526E0,-5.436700583E-2,-6.414084882E-2,9.773843922E-3
3.723743996E0,-5.497787148E-2,-6.352998316E-2,7.330383174E-3
3.725727081E0,-5.314527452E-2,-6.169738993E-2,7.941247895E-3
3.727742781E0,-5.253441259E-2,-6.108652428E-2,4.886921961E-3
3.729755405E0,-5.375614017E-2,-5.864306539E-2,3.054326167E-3
3.731739721E0,-5.681046844E-2,-5.803219974E-2,0.000000000E0
3.733753652E0,-5.803219974E-2,-5.497787148E-2,-2.443460980E-3
3.735736738E0,-5.558873713E-2,-5.497787148E-2,-4.276056774E-3
3.737751208E0,-5.925392732E-2,-5.070181563E-2,-7.330383174E-3
3.739735446E0,-5.986479297E-2,-5.070181563E-2,-6.108652335E-3
3.741748763E0,-5.986479297E-2,-4.886921868E-2,-7.941247895E-3
3.743733309E0,-5.925392732E-2,-4.642575979E-2,-8.552113548E-3
3.745747548E0,-6.047565863E-2,-4.337143153E-2,-9.162978269E-3
3.747731479E0,-6.047565863E-2,-4.092797264E-2,-1.038470957E-2
3.749744719E0,-5.986479297E-2,-3.909537569E-2,-1.099557430E-2
3.751727804E0,-6.108652428E-2,-3.604105115E-2,-9.773843922E-3
3.753742043E0,-6.169738993E-2,-3.481931984E-2,-7.330383174E-3
3.755756744E0,-5.925392732E-2,-3.359758854E-2,-1.099557430E-2
3.757740444E0,-5.803219974E-2,-2.932153270E-2,-1.160643995E-2
3.759754606E0,-5.681046844E-2,-3.054326214E-2,-7.330383174E-3
3.761738691E0,-5.558873713E-2,-2.932153270E-2,-5.497787148E-3
3.763752239E0,-5.497787148E-2,-2.871066704E-2,-4.276056774E-3
3.765735554E0,-5.375614017E-2,-3.054326214E-2,-4.886921961E-3
3.767750947E0,-5.375614017E-2,-2.871066704E-2,1.221730490E-3
3.769734032E0,-5.070181563E-2,-3.115412779E-2,1.832595794E-3
3.771748810E0,-4.948008433E-2,-3.420845419E-2,5.497787148E-3
3.773731357E0,-5.070181563E-2,-3.420845419E-2,9.773843922E-3
3.775746057E0,-4.764748737E-2,-3.604105115E-2,1.099557430E-2
3.777729220E0,-4.703662544E-2,-4.031710699E-2,1.649336144E-2
3.779743689E0,-4.520402849E-2,-3.970624134E-2,2.076941915E-2
3.781727620E0,-4.092797264E-2,-4.153883830E-2,2.382374369E-2
3.783741783E0,-4.092797264E-2,-4.398229718E-2,2.687807009E-2
3.785756253E0,-3.726277873E-2,-4.886921868E-2,3.115412779E-2
3.787740645E0,-3.848451003E-2,-5.070181563E-2,3.359758854E-2
3.789753884E0,-3.176499158E-2,-5.436700583E-2,4.153883830E-2
3.791736662E0,-2.993239649E-2,-6.047565863E-2,4.092797264E-2
3.793751978E0,-2.993239649E-2,-6.108652428E-2,4.459316283E-2
3.795736063E0,-2.871066704E-2,-6.780604273E-2,4.886921868E-2
3.797748918E0,-2.443460934E-2,-7.269296050E-2,5.192354694E-2
3.799733619E0,-1.954768784E-2,-7.696902007E-2,5.497787148E-2
3.801746780E0,-1.832595654E-2,-8.124507964E-2,5.558873713E-2
3.803731404E0,-1.527163107E-2,-8.429940045E-2,5.803219974E-2
3.805744644E0,-1.404990070E-2,-8.918632567E-2,5.864306539E-2
3.807729267E0,-1.099557430E-2,-9.712757170E-2,5.986479297E-2
3.809742813E0,-9.162978269E-3,-9.773843735E-2,6.047565863E-2
3.811756745E0,-7.941247895E-3,-9.896016866E-2,6.230825558E-2
3.813740984E0,-4.276056774E-3,-1.014036313E-1,6.414084882E-2
3.815754531E0,-3.665191587E-3,-1.026253626E-1,6.414084882E-2
3.817738308E0,-2.443460980E-3,-1.020144969E-1,6.291911751E-2
3.819752471E0,-1.221730490E-3,-1.038470939E-1,6.169738993E-2
3.821736479E0,-1.221730490E-3,-1.026253626E-1,6.230825558E-2
3.823750333E0,1.832595794E-3,-1.026253626E-1,6.108652428E-2
3.825734265E0,1.221730490E-3,-1.007927656E-1,6.047565863E-2
3.827748812E0,-6.108652451E-4,-9.712757170E-2,5.864306539E-2
3.829731281E0,0.000000000E0,-9.407325089E-2,5.436700583E-2
3.831742366E0,-6.108652451E-4,-9.346238524E-2,5.497787148E-2
3.833758913E0,-1.832595794E-3,-8.735372871E-2,5.070181563E-2
3.835744229E0,-1.221730490E-3,-8.185594529E-2,4.825835302E-2
3.837727545E0,-2.443460980E-3,-7.941248268E-2,4.764748737E-2
3.839741169E0,-3.054326167E-3,-7.147123665E-2,4.337143153E-2
3.841755639E0,-3.665191587E-3,-6.414084882E-2,4.398229718E-2
3.843740262E0,-4.276056774E-3,-6.230825558E-2,4.092797264E-2
3.845753424E0,-4.886921961E-3,-5.375614017E-2,4.092797264E-2
3.847738125E0,-5.497787148E-3,-4.642575979E-2,3.848451003E-2
3.849750980E0,-4.886921961E-3,-4.398229718E-2,3.848451003E-2
3.851735603E0,-6.719517522E-3,-3.604105115E-2,3.543018550E-2
3.853749535E0,-7.330383174E-3,-2.687807009E-2,3.543018550E-2
3.855732928E0,-9.162978269E-3,-2.199114859E-2,3.543018550E-2
3.857746705E0,-1.282817032E-2,-1.343903504E-2,3.543018550E-2
3.859730790E0,-8.552113548E-3,-1.038470957E-2,3.298672289E-2
3.861745260E0,-1.099557430E-2,-6.108652335E-3,3.298672289E-2
3.863729807E0,-1.160643995E-2,0.000000000E0,3.420845419E-2
3.865742199E0,-1.160643995E-2,2.443460980E-3,3.298672289E-2
3.867757208E0,-1.404990070E-2,7.330383174E-3,3.359758854E-2
3.869741216E0,-1.343903504E-2,9.773843922E-3,3.481931984E-2
3.871754224E0,-1.343903504E-2,8.552113548E-3,3.604105115E-2
3.873739155E0,-1.221730467E-2,1.099557430E-2,3.665191308E-2
3.875753549E0,-1.343903504E-2,1.160643995E-2,3.909537569E-2
3.877736019E0,-1.466076635E-2,1.038470957E-2,3.909537569E-2
3.879749565E0,-1.527163107E-2,1.038470957E-2,4.031710699E-2
3.881734190E0,-1.404990070E-2,4.276056774E-3,3.787364438E-2
3.883748967E0,-1.404990070E-2,1.832595794E-3,3.970624134E-2
3.885732359E0,-1.771509275E-2,-1.221730490E-3,4.031710699E-2
3.887747137E0,-1.771509275E-2,-9.162978269E-3,3.787364438E-2
3.889730223E0,-1.710422710E-2,-1.343903504E-2,3.726277873E-2
3.891743846E0,-1.832595654E-2,-1.588249579E-2,3.970624134E-2
3.893727469E0,-1.954768784E-2,-2.015855350E-2,3.970624134E-2
3.895741401E0,-1.832595654E-2,-2.871066704E-2,3.726277873E-2
3.897755794E0,-1.832595654E-2,-3.176499158E-2,3.848451003E-2
3.899739187E0,-1.771509275E-2,-3.420845419E-2,3.787364438E-2
3.901753965E0,-2.015855350E-2,-3.909537569E-2,3.726277873E-2
3.903737434E0,-2.076941915E-2,-4.764748737E-2,3.665191308E-2
3.905751212E0,-2.015855350E-2,-4.764748737E-2,3.543018550E-2
3.907735835E0,-2.199114859E-2,-5.619960278E-2,3.787364438E-2
3.909749998E0,-2.443460934E-2,-5.864306539E-2,3.604105115E-2
3.911732237E0,-2.504547499E-2,-6.169738993E-2,3.665191308E-2
3.913746322E0,-2.504547499E-2,-6.475171447E-2,3.604105115E-2
3.915730714E0,-2.443460934E-2,-6.902777404E-2,3.726277873E-2
3.917744569E0,-2.382374369E-2,-7.147123665E-2,3.909537569E-2
3.919728500E0,-2.687807009E-2,-7.391469181E-2,3.543018550E-2
3.921742970E0,-2.626720630E-2,-7.330382615E-2,3.787364438E-2
3.923756902E0,-2.748893574E-2,-7.391469181E-2,3.726277873E-2
3.925740602E0,-2.504547499E-2,-7.513642311E-2,3.909537569E-2
3.927755918E0,-2.626720630E-2,-7.147123665E-2,3.970624134E-2
3.929738465E0,-2.687807009E-2,-7.147123665E-2,4.337143153E-2
3.931752858E0,-2.626720630E-2,-6.902777404E-2,4.153883830E-2
3.933736635E0,-2.443460934E-2,-6.719517708E-2,4.337143153E-2
3.935750105E0,-2.565634064E-2,-6.291911751E-2,4.459316283E-2
3.937732960E0,-2.260201424E-2,-5.803219974E-2,4.703662544E-2
3.939748276E0,-2.443460934E-2,-5.436700583E-2,4.948008433E-2
3.941732284E0,-2.443460934E-2,-4.948008433E-2,4.948008433E-2
3.943746524E0,-2.626720630E-2,-4.581489414E-2,4.948008433E-2
3.945729608E0,-2.504547499E-2,-4.642575979E-2,4.825835302E-2
3.947744617E0,-2.382374369E-2,-4.276056588E-2,5.009094998E-2
3.949727086E0,-2.443460934E-2,-4.092797264E-2,4.703662544E-2
3.951740710E0,-2.199114859E-2,-4.581489414E-2,4.886921868E-2
