"Time (s)","Linear Acceleration x (m/s^2)","Linear Acceleration y (m/s^2)","Linear Acceleration z (m/s^2)"
1.572100700E-2,-2.142536640E-2,1.651735306E-1,-1.163439751E-1
2.371581000E-2,1.500082016E-2,1.234941483E-1,-1.470618248E-1
3.171092000E-2,1.073770523E-1,1.412401199E-1,-1.757793427E-1
3.973856800E-2,1.137869358E-1,2.256684303E-1,-1.921615601E-1
4.773460100E-2,1.856017113E-2,2.534332275E-1,-2.491555214E-1
5.572909600E-2,-6.833493710E-2,2.672085762E-1,-2.792663574E-1
6.372543700E-2,-1.206214428E-1,2.420291901E-1,-3.250694275E-1
7.172031600E-2,-6.649756432E-2,2.082290649E-1,-3.366212845E-1
7.971604200E-2,-2.740323544E-2,2.051610947E-1,-3.053364754E-1
8.771169000E-2,2.473914623E-2,2.336115837E-1,-3.368501663E-1
9.573764600E-2,5.024468899E-2,2.602090836E-1,-3.366870880E-1
1.037339100E-1,5.892419815E-2,2.614917755E-1,-3.435111046E-1
1.117287890E-1,1.442193985E-2,2.317323685E-1,-3.114538193E-1
1.197254390E-1,-2.474248409E-2,2.106599808E-1,-2.985401154E-1
1.277213950E-1,-5.479562283E-2,2.418560982E-1,-3.729805946E-1
1.357165050E-1,-6.466948986E-2,2.283415794E-1,-2.117810249E-1
1.437119220E-1,-1.952195168E-2,2.126855850E-1,-2.512383461E-1
1.517371860E-1,-8.504033089E-2,1.757678986E-1,-2.876949310E-1
1.597332190E-1,-1.544359326E-1,1.682286263E-1,-2.231121063E-1
1.677295600E-1,-1.665179133E-1,1.758885384E-1,-1.942701340E-1
1.757250550E-1,-1.052740812E-1,1.190032959E-1,-1.707625389E-1
1.837203960E-1,-7.010662556E-2,1.171989441E-1,-2.764148712E-1
1.917161210E-1,-4.862987995E-2,9.430313110E-2,-2.377438545E-1
1.997432310E-1,-2.182745934E-2,9.564971924E-2,-1.962213516E-1
2.077386490E-1,1.716613770E-5,8.561325073E-2,-1.965174675E-1
2.157331440E-1,3.244161606E-2,7.129383087E-2,-2.062239647E-1
2.237292550E-1,8.281695843E-2,1.207637787E-2,-1.384367943E-1
2.317245950E-1,8.676016331E-2,-5.580806732E-2,-7.079601288E-2
2.397203210E-1,6.085777283E-2,-1.028594971E-1,-6.585597992E-2
2.477167380E-1,2.460122108E-2,-1.628198624E-1,1.003456116E-2
2.557419250E-1,-5.363714695E-2,-1.535797119E-1,-3.353548050E-2
2.637377270E-1,-9.514355659E-2,-1.776094437E-1,4.242897034E-2
2.717340680E-1,-4.758572578E-2,-1.547317505E-1,-1.773786545E-2
2.797291790E-1,2.340793610E-3,-1.582498550E-1,4.994535446E-2
2.877269810E-1,3.403413296E-2,-1.475152969E-1,-2.250671387E-2
2.957205530E-1,8.704996109E-2,-1.215009689E-1,3.348922729E-2
3.037156630E-1,1.242288351E-1,-1.440925598E-1,8.533859253E-2
3.117391570E-1,2.112081051E-1,-1.535634995E-1,5.724573135E-2
3.197376520E-1,3.393902779E-1,-1.827402115E-1,1.407804489E-1
3.277339920E-1,3.280391693E-1,-1.432523727E-1,1.347208023E-1
3.357291030E-1,2.041037083E-1,-7.790279388E-2,6.573200226E-2
3.437247520E-1,1.790859699E-1,-7.036113739E-2,1.158003807E-1
3.517199390E-1,2.207162380E-1,-9.511566162E-2,2.598567009E-1
3.597162790E-1,1.312658787E-1,-1.397867203E-1,1.493144035E-1
3.677439280E-1,9.000885487E-2,-1.205959320E-1,2.031841278E-1
3.757378070E-1,1.734051704E-1,-1.285610199E-1,1.125788689E-1
3.837341480E-1,1.964857578E-1,-8.197879791E-2,3.616189957E-2
3.917284120E-1,2.248420715E-1,-7.874107361E-2,3.643083572E-2
3.997241380E-1,2.857297659E-1,-4.689979553E-2,8.721351624E-4
4.077210940E-1,2.748537064E-1,-2.930641174E-2,-3.443431854E-2
4.157158190E-1,2.485181093E-1,1.029109955E-2,-8.116960526E-2
4.237426210E-1,1.882890463E-1,5.269336700E-2,-5.340003967E-2
4.317381160E-1,1.012388468E-1,1.218051910E-1,-9.721660614E-2
4.397343810E-1,6.336116791E-2,1.434631348E-1,-1.094269753E-1
4.477307220E-1,1.072231531E-1,6.713008881E-2,-1.405148506E-1
4.557249080E-1,1.106102467E-1,-3.305435181E-2,-2.073535919E-1
4.637206340E-1,1.590980291E-1,-8.327865601E-2,-1.931800842E-1
4.717152050E-1,1.495219469E-1,-5.471897125E-2,-2.773494720E-1
4.797425460E-1,1.371444464E-1,-4.079627991E-2,-7.691669464E-2
4.877389640E-1,1.458244324E-1,-1.157865524E-1,-4.207038879E-2
4.957337670E-1,1.488014460E-1,-1.812572479E-1,2.648782730E-2
5.037285690E-1,2.556847334E-1,-2.278957367E-1,6.858587265E-2
5.117249100E-1,3.597725630E-1,-2.057943344E-1,1.126608849E-1
5.197209430E-1,4.222004414E-1,-1.488208771E-1,1.462936401E-1
5.277172840E-1,4.523633718E-1,-9.539031982E-2,1.693682671E-1
5.357418550E-1,4.318914413E-1,-4.791545868E-2,1.696901321E-1
5.437385800E-1,4.146258831E-1,-4.226779938E-2,1.661920547E-1
5.517323840E-1,3.783756495E-1,-2.274513245E-2,-5.691528320E-3
5.597287240E-1,3.133112192E-1,-5.794429779E-2,-1.104636192E-1
5.677259880E-1,2.607762814E-1,-5.184268951E-2,-1.455035210E-1
5.757199440E-1,1.235982180E-1,-3.293895721E-2,-2.448043823E-1
5.837165160E-1,-4.051601887E-2,3.480625153E-2,-2.598056793E-1
5.917418560E-1,-1.551352739E-1,5.310249329E-2,-2.050714493E-1
5.997384290E-1,-2.048693895E-1,7.906532288E-2,-1.478595734E-1
6.077336160E-1,-2.170981169E-1,9.595298767E-2,-8.805751801E-3
6.157295720E-1,-1.495107412E-1,9.629631042E-2,5.141067505E-2
6.237247590E-1,-8.144509792E-2,9.657573700E-2,1.329312325E-1
6.317197920E-1,-7.039844990E-2,1.035432816E-1,2.134294510E-1
6.397158250E-1,-3.489327431E-2,7.866477966E-2,2.421827316E-1
6.477423960E-1,1.771461964E-2,6.002807617E-2,2.523508072E-1
6.557375070E-1,1.066601276E-2,7.636356354E-2,2.415733337E-1
6.637335400E-1,-1.094353199E-2,6.564521790E-2,2.055950165E-1
6.717294960E-1,-8.759117126E-2,5.935287476E-2,1.330285072E-1
6.797255290E-1,-1.640061140E-1,4.833793640E-2,4.135417938E-2
6.877213320E-1,-2.330831289E-1,2.789497375E-2,-2.375507355E-2
6.957160570E-1,-2.381967306E-1,-2.797889709E-2,-1.452178955E-1
7.037422440E-1,-2.490440607E-1,-4.022693634E-2,-2.438464165E-1
7.117373550E-1,-2.175967693E-1,-7.566642761E-2,-2.666015625E-1
7.197333880E-1,-1.435512304E-1,-1.009225845E-1,-2.234187126E-1
7.277297280E-1,-1.100827456E-1,-1.136445999E-1,-2.031559944E-1
7.357243000E-1,-7.656717300E-2,-1.094779968E-1,-1.203961372E-1
7.437202560E-1,-1.003384590E-1,-6.470108032E-2,-6.417465210E-2
7.517156740E-1,-1.100707054E-1,-5.856418610E-2,-3.000545502E-2
7.597418600E-1,-1.633875370E-1,-6.712627411E-2,-2.980041504E-2
7.677391250E-1,-1.843223572E-1,-1.143150330E-1,-7.290601730E-2
7.757330040E-1,-2.155704498E-1,-1.926555634E-1,-1.181945801E-1
7.837288070E-1,-2.851773500E-1,-2.393369675E-1,-2.222952843E-1
7.917238400E-1,-3.490951061E-1,-2.610445023E-1,-2.840104103E-1
7.997211030E-1,-4.343116283E-1,-2.666006088E-1,-3.503656387E-1
8.077169060E-1,-4.407814741E-1,-2.632141113E-1,-3.781123161E-1
8.157420940E-1,-4.078811407E-1,-2.735471725E-1,-4.041070938E-1
8.237372800E-1,-4.281562567E-1,-3.123273849E-1,-4.261016846E-1
8.317336210E-1,-5.622040033E-1,-3.956022263E-1,-5.318274498E-1
8.397289620E-1,-6.057003140E-1,-2.757863998E-1,-7.555196285E-1
8.477259950E-1,-6.124196649E-1,-2.510986328E-1,-5.414853096E-1
8.557197970E-1,-6.304442286E-1,-2.379827499E-1,-5.748293400E-1
8.637159070E-1,-6.068020463E-1,-2.245883942E-1,-5.853097439E-1
8.717405560E-1,-4.848117828E-1,-2.086877823E-1,-5.992777348E-1
8.797383590E-1,-3.906599283E-1,-1.115465164E-1,-6.884415150E-1
8.877337760E-1,-2.866433859E-1,-1.461410522E-2,-8.023252487E-1
8.957289630E-1,-2.011181116E-1,1.298503876E-1,-8.622503281E-1
9.037243040E-1,-8.747291565E-2,2.261371613E-1,-8.397083282E-1
9.117210290E-1,7.241654396E-2,2.859840393E-1,-8.098828793E-1
9.197169850E-1,2.411223650E-1,2.472476959E-1,-7.249970436E-1
9.277431730E-1,3.615778685E-1,2.366638184E-1,-6.262474060E-1
9.357379750E-1,3.679764271E-1,1.751794815E-1,-4.663929939E-1
9.437337010E-1,3.300294876E-1,1.460552216E-1,-2.946984768E-1
9.517261180E-1,2.425347567E-1,9.792137146E-2,-1.685545444E-1
9.597249210E-1,1.728975773E-1,6.509208679E-2,-1.367707253E-1
9.677205690E-1,1.545764208E-1,7.438850403E-2,-1.408479214E-1
9.757160640E-1,1.157189608E-1,8.339118958E-2,-1.984579563E-1
9.837424820E-1,1.418504715E-1,1.116056442E-1,-2.725887299E-1
9.917367460E-1,2.870981693E-1,1.735830307E-1,-3.623301983E-1
9.997336250E-1,3.787564039E-1,2.408590317E-1,-4.477295876E-1
1.007729966E0,4.861875772E-1,3.158884048E-1,-4.878332615E-1
1.015724768E0,6.140747070E-1,3.364086151E-1,-4.633953571E-1
1.023719570E0,7.212710381E-1,3.140878677E-1,-4.250972271E-1
1.031715296E0,8.234758377E-1,2.367420197E-1,-4.014830589E-1
1.039742484E0,8.491868973E-1,1.996488571E-1,-3.147971630E-1
1.047738440E0,8.321440220E-1,1.495971680E-1,-1.127581596E-1
1.055733934E0,8.179094791E-1,7.414245605E-2,3.336286545E-2
1.063729352E0,7.678129673E-1,-5.440711975E-3,1.182293892E-1
1.071724154E0,6.516625881E-1,-6.028175354E-2,1.870100498E-1
1.079719880E0,4.894032478E-1,-1.160650253E-1,1.904425621E-1
1.087716528E0,3.622331619E-1,-1.021203995E-1,1.516742706E-1
1.095741716E0,3.068609238E-1,-8.771419525E-2,8.403825760E-2
1.103737441E0,2.845187187E-1,-2.902221680E-2,-7.019877434E-2
1.111733243E0,3.150897026E-1,1.655578613E-2,-2.043974400E-1
1.119728661E0,3.827242851E-1,4.870414734E-2,-2.943348885E-1
1.127725925E0,4.631748199E-1,3.125286102E-2,-2.924656868E-1
1.135720419E0,5.676326752E-1,-9.872436523E-3,-3.500273228E-1
1.143716452E0,6.769769192E-1,-6.561279297E-2,-2.384345531E-1
1.151741409E0,7.857446671E-1,-1.339168549E-1,-1.489572525E-1
1.159737673E0,8.710422516E-1,-1.906604767E-1,-1.848626137E-1
1.167734322E0,8.887135983E-1,-1.806745529E-1,-1.650075912E-1
1.175729124E0,8.972334862E-1,-1.899833679E-1,-1.377310753E-1
1.183724849E0,8.987755775E-1,-1.610908508E-1,-1.148376465E-1
1.191719728E0,9.019222260E-1,-1.325721741E-1,-1.131267548E-1
1.199715762E0,8.550674915E-1,-8.287811279E-2,-1.602706909E-1
1.207743103E0,7.001471519E-1,-2.140140533E-2,-2.241365910E-1
1.215737675E0,6.068079472E-1,8.851051331E-3,-2.179777622E-1
1.223733938E0,4.744620323E-1,1.521778107E-2,-2.490167618E-1
1.231728741E0,3.657515049E-1,2.902221680E-2,-2.595350742E-1
1.239725389E0,3.025944233E-1,5.771732330E-2,-3.495926857E-1
1.247721191E0,3.115744591E-1,8.208084106E-2,-3.447840214E-1
1.255745841E0,4.041543007E-1,1.234827042E-1,-3.648509979E-1
1.263743028E0,5.419492722E-1,1.047172546E-1,-2.725839615E-1
1.271736907E0,6.839261055E-1,9.003925323E-2,-2.556037903E-1
1.279733247E0,8.036611080E-1,7.206439972E-2,-2.043275833E-1
1.287729896E0,8.017976284E-1,7.009983063E-2,-1.315004826E-1
1.295725006E0,7.635908127E-1,4.846382141E-2,-4.994678497E-2
1.303719808E0,6.497161388E-1,4.575443268E-2,4.687237740E-2
1.311745996E0,5.208201408E-1,2.387332916E-2,1.562626362E-1
1.319742721E0,3.602287769E-1,2.370262146E-2,2.115390301E-1
1.327738139E0,1.845841408E-1,1.902580261E-2,2.801702023E-1
1.335733172E0,6.284999847E-2,-3.322410583E-2,3.267719746E-1
1.343729897E0,-4.173541069E-2,-3.953647614E-2,2.641093731E-1
1.351724699E0,-1.135549545E-1,-4.917335510E-2,2.449195385E-1
1.359720041E0,-1.069471836E-1,-1.963710785E-2,2.385542393E-1
1.367747459E0,-8.281326294E-2,-2.788162231E-2,1.995763779E-1
1.375742338E0,2.002835274E-2,-9.584426880E-3,9.217572212E-2
1.383738063E0,1.149179935E-1,3.962993622E-2,5.439162254E-2
1.391732250E0,2.232408524E-1,6.468296051E-2,-9.081888199E-2
1.399729206E0,2.592439651E-1,1.159572601E-1,-1.640231609E-1
1.407726162E0,2.642295361E-1,1.192407608E-1,-1.371073723E-1
1.415719966E0,2.411773205E-1,9.624481201E-2,-1.370627880E-1
1.423745614E0,1.600143909E-1,7.822227478E-2,-3.050422668E-2
1.431742186E0,6.718134880E-2,4.865169525E-2,2.192997932E-2
1.439737065E0,-5.353283882E-2,2.935218811E-2,-3.369808197E-3
1.447734252E0,-1.688008308E-1,4.925823212E-2,3.818416595E-2
1.455729054E0,-2.557387352E-1,3.611278534E-2,2.037994862E-1
1.463724856E0,-3.110060692E-1,3.031063080E-2,1.492366791E-1
1.471719890E0,-3.425071239E-1,4.373931885E-2,1.000399590E-1
1.479746385E0,-3.698077202E-1,4.276180267E-2,1.089186668E-1
1.487742725E0,-3.830444813E-1,6.555843353E-2,1.416397095E-1
1.495737528E0,-3.462078571E-1,1.026000977E-1,7.852888107E-2
1.503733868E0,-3.522632122E-1,1.301536560E-1,-8.310794830E-3
1.511728132E0,-3.768377304E-1,1.316061020E-1,-2.544188499E-2
1.519724704E0,-3.837373257E-1,9.257888794E-2,-6.698131561E-3
1.527721430E0,-3.491551876E-1,1.297760010E-2,-2.165985107E-2
1.535746386E0,-3.236620426E-1,-3.545761108E-2,-7.510948181E-2
1.543742419E0,-3.169279099E-1,-7.437801361E-2,-7.390165329E-2
1.551737452E0,-3.215932846E-1,-5.105686188E-2,-1.353459358E-1
1.559733562E0,-3.350279331E-1,-3.255748749E-2,-1.232709885E-1
1.567729210E0,-3.518512249E-1,-7.375717163E-2,-1.548969746E-1
1.575724398E0,-3.815307617E-1,-7.165718079E-2,-1.606922150E-1
1.583720431E0,-4.141874313E-1,-1.003551483E-1,-1.596438885E-1
1.591742926E0,-4.638848305E-1,-8.784484863E-2,-1.729261875E-1
1.607738684E0,-5.623368025E-1,-2.748298645E-2,-2.430012226E-1
1.615732563E0,-5.879648924E-1,2.055454254E-2,-3.102736473E-1
1.623728827E0,-6.273007393E-1,9.181022644E-3,-1.942088604E-1
1.631724015E0,-6.094257832E-1,-3.304767609E-2,-2.776343822E-1
1.639719971E0,-6.254124641E-1,-6.056499481E-2,-2.872836590E-1
1.647747696E0,-6.303864717E-1,-8.792018890E-2,-2.998585701E-1
1.655742191E0,-6.391855478E-1,-1.036634445E-1,-2.258057594E-1
1.663737993E0,-6.513508558E-1,-1.244926453E-1,-2.424879074E-1
1.671733103E0,-6.619877815E-1,-1.241102219E-1,-2.256700993E-1
1.679729059E0,-6.708202362E-1,-9.072875977E-2,-1.714611053E-1
1.687725401E0,-7.207165956E-1,-7.944488525E-2,-1.496055126E-1
1.695720280E0,-7.420698404E-1,-1.164903641E-1,-1.455395222E-1
1.703746390E0,-8.394970894E-1,-8.695888519E-2,-6.414341927E-2
1.711740962E0,-9.026540518E-1,-8.930397034E-2,7.425856590E-2
1.719737918E0,-9.102916718E-1,-7.119560242E-2,1.466135979E-1
1.727734489E0,-8.709291220E-1,-3.284358978E-2,1.436042786E-1
1.735728985E0,-8.434729576E-1,4.958724976E-2,1.353313923E-1
1.743724787E0,-7.759159803E-1,1.111993790E-1,2.673964500E-1
1.751719205E0,-5.842515230E-1,1.158456802E-1,2.004981041E-1
1.759746315E0,-3.726248741E-1,6.345558167E-2,1.913592815E-1
1.767742732E0,-2.232015133E-1,1.597404480E-3,2.920353413E-1
1.775738073E0,-1.090744734E-1,-8.651161194E-2,3.799824715E-1
1.783733183E0,-3.915596008E-2,-1.791658401E-1,4.122793674E-1
1.791728294E0,1.088595390E-2,-2.956495285E-1,4.163379669E-1
1.799725019E0,3.916621208E-2,-4.975404739E-1,3.271582127E-1
1.807720975E0,6.982231140E-2,-6.409454346E-1,2.868523598E-1
1.815746547E0,4.396128654E-2,-7.398891449E-1,2.385835648E-1
1.823742349E0,1.970291138E-2,-7.966403961E-1,1.944775581E-1
1.831736843E0,-1.534461975E-3,-8.134031296E-1,1.758599281E-1
1.839732876E0,3.102350235E-2,-8.262777328E-1,2.992947102E-1
1.847729218E0,1.100616455E-1,-8.308792114E-1,3.291795254E-1
1.855724328E0,2.433638573E-1,-7.745962143E-1,3.369297981E-1
1.863720592E0,2.785658836E-1,-7.075881958E-1,2.865545750E-1
1.871745548E0,2.866084576E-1,-6.199064255E-1,2.188701630E-1
1.879741658E0,2.738687992E-1,-5.158081055E-1,1.845576763E-1
1.887738537E0,2.561762333E-1,-4.163045883E-1,1.337084770E-1
1.895733956E0,2.393803596E-1,-3.162450790E-1,9.031224251E-2
1.903729758E0,2.163457870E-1,-2.035198212E-1,5.216479301E-2
1.911724176E0,2.056765556E-1,-8.053207397E-2,5.063605309E-2
1.919720516E0,1.900355816E-1,5.733203888E-2,2.092123032E-2
1.927747934E0,1.497800350E-1,1.550045013E-1,1.628160477E-3
1.935742429E0,1.011645794E-1,2.484264374E-1,-3.555703163E-2
1.943737308E0,3.005957603E-2,3.038969040E-1,6.421136856E-2
1.951732342E0,5.987644196E-3,3.692045212E-1,2.756571770E-2
1.959728759E0,2.784729004E-3,4.611196518E-1,-2.834105492E-2
1.967725331E0,5.713701248E-3,5.532989502E-1,-7.932281494E-2
1.975720441E0,-4.794454575E-2,6.860780716E-1,-1.068465710E-1
1.983746089E0,-8.084511757E-2,7.998623848E-1,-1.324338913E-1
1.991741738E0,-1.736950874E-1,8.878159523E-1,-1.797783375E-1
1.999737771E0,-2.613568306E-1,9.336152077E-1,-2.362871170E-1
2.007734189E0,-3.870463371E-1,9.900593758E-1,-2.656931877E-1
2.015728607E0,-4.597516060E-1,1.023895741E0,-2.865781784E-1
2.023724948E0,-5.205376148E-1,1.001670361E0,-3.105056286E-1
2.031719750E0,-5.124657154E-1,9.616332054E-1,-2.845466137E-1
2.039746244E0,-5.265915394E-1,8.870792389E-1,-2.732059956E-1
2.047742354E0,-5.294215679E-1,8.211832047E-1,-1.829409599E-1
2.055738387E0,-4.824366570E-1,7.208781242E-1,-1.408216953E-1
2.063733191E0,-4.719099998E-1,6.508169174E-1,-1.156520844E-1
2.071728301E0,-4.475855827E-1,5.749530792E-1,-5.033373833E-2
2.079724334E0,-3.952133656E-1,5.290946960E-1,-7.432484627E-2
2.087720059E0,-3.173217773E-1,4.890594482E-1,2.734923363E-2
2.095746169E0,-2.309033871E-1,4.066686630E-1,2.670526505E-2
2.103742202E0,-1.174468994E-1,3.558378220E-1,9.754896164E-3
2.111737005E0,-2.950143814E-2,2.694644928E-1,1.390213966E-1
2.119733423E0,2.769470215E-2,1.927375793E-1,1.795337200E-1
2.127729379E0,1.708390713E-1,5.119323730E-2,2.318034172E-1
2.135723950E0,3.102221489E-1,-3.823471069E-2,2.624068260E-1
2.143720214E0,3.707318306E-1,-8.985614777E-2,1.837413311E-1
2.151745170E0,3.219790459E-1,-1.061582565E-1,2.367007732E-1
2.159741819E0,2.851829529E-1,-1.611166000E-1,2.121932507E-1
2.167737930E0,3.568565845E-1,-2.514438629E-1,8.065938950E-2
2.175733655E0,4.366736412E-1,-3.077850342E-1,8.828115463E-2
2.183729919E0,4.384520054E-1,-3.565893173E-1,1.126513481E-1
2.191723875E0,3.697237968E-1,-3.766241074E-1,1.382591724E-1
2.199750908E0,3.216516972E-1,-3.492422104E-1,2.785551548E-1
2.207746941E0,3.394865990E-1,-3.108539581E-1,4.223768711E-1
2.215742128E0,3.267023563E-1,-2.569923401E-1,5.002059937E-1
2.223737777E0,3.633131981E-1,-2.099409103E-1,7.030787468E-1
2.231732272E0,3.900530338E-1,-1.679515839E-1,7.893364429E-1
2.239729612E0,3.794195652E-1,-1.598806381E-1,8.460447788E-1
2.247726261E0,3.403599262E-1,-1.615734100E-1,9.055521488E-1
2.255750832E0,3.464791775E-1,-1.316242218E-1,8.242526054E-1
2.263746019E0,3.853218555E-1,-5.788421631E-2,6.893060207E-1
2.271741129E0,3.269946575E-1,-1.482009888E-2,6.277055740E-1
2.279737394E0,2.874376774E-1,4.880905151E-3,5.766940117E-1
2.287734042E0,3.058521748E-1,2.767658234E-2,4.927933216E-1
2.295729152E0,3.360450268E-1,5.382061005E-2,5.044009686E-1
2.303723724E0,4.006500244E-1,5.230998993E-2,5.438446999E-1
2.311747064E0,5.358772278E-1,1.364040375E-2,5.272855759E-1
2.319745944E0,8.171784878E-1,-7.217025757E-2,6.250212193E-1
2.327742593E0,1.022960901E0,-1.767444611E-1,6.030724049E-1
2.335737011E0,1.205459595E0,-3.358011246E-1,6.564586163E-1
2.343733044E0,1.354726315E0,-4.655981064E-1,5.917046070E-1
2.351728461E0,1.502160072E0,-5.702657700E-1,5.682621002E-1
2.359724494E0,1.781335354E0,-7.309961319E-1,4.053776264E-1
2.367751604E0,1.946627140E0,-8.644580841E-1,2.929337025E-1
2.375746176E0,1.982035160E0,-9.595556259E-1,1.186621189E-1
2.383741825E0,1.932928562E0,-9.718990326E-1,3.432521820E-1
2.391733858E0,2.226798534E0,-1.065073013E0,5.669765472E-1
2.399732660E0,2.888377666E0,-1.219759464E0,1.864709854E-1
2.407729693E0,3.473046780E0,-1.309481144E0,1.677412987E-1
2.415724496E0,4.012748241E0,-1.312534332E0,1.464037895E-1
2.423750375E0,4.257724285E0,-1.230537891E0,1.530501842E-1
2.431745485E0,4.359511375E0,-1.157866478E0,2.849891186E-1
2.439742365E0,4.298295021E0,-1.165936470E0,4.498455524E-1
2.447737783E0,4.039453983E0,-1.249726295E0,5.969188213E-1
2.455732969E0,3.521690369E0,-1.266491413E0,7.417078018E-1
2.463728618E0,3.003043175E0,-1.245220184E0,8.186409473E-1
2.471723728E0,2.510316372E0,-1.163245678E0,8.197462559E-1
2.479750607E0,2.132446766E0,-1.079181194E0,9.197468758E-1
2.487746333E0,1.928696156E0,-1.108706951E0,9.214639664E-1
2.495741751E0,1.891217709E0,-1.164275646E0,8.399829865E-1
2.503736784E0,1.945656776E0,-1.265906334E0,6.544771194E-1
2.511732817E0,1.998837948E0,-1.298965454E0,3.223438263E-1
2.519728927E0,1.947813034E0,-1.266849518E0,1.881055832E-1
2.527725883E0,1.959317684E0,-1.264373302E0,-1.200819016E-2
2.535751070E0,1.950191021E0,-1.252213001E0,-1.100230217E-1
2.543745950E0,1.898430347E0,-1.217451572E0,-2.433972359E-1
2.551740983E0,1.919683933E0,-1.173355103E0,-2.652964592E-1
2.559737708E0,1.974723816E0,-1.198719025E0,-2.143278122E-1
2.567733741E0,2.029309273E0,-1.175533772E0,-3.428316116E-2
2.575728774E0,1.998474121E0,-1.134834290E0,9.370708466E-2
2.583725115E0,1.995043278E0,-1.143373013E0,8.844327927E-2
2.591750764E0,2.092397690E0,-1.162745953E0,-1.106328964E-1
2.599745567E0,2.074002266E0,-1.233744621E0,-2.862741947E-1
2.607742754E0,1.947779179E0,-1.245301723E0,-4.537048340E-1
2.615737633E0,1.819704056E0,-1.208138466E0,-5.470552444E-1
2.623733050E0,1.758120537E0,-1.258203745E0,-6.540558338E-1
2.631728468E0,1.712078094E0,-1.301634789E0,-6.747784615E-1
2.639724501E0,1.567952156E0,-1.343972206E0,-7.104897499E-1
2.647750689E0,1.397089958E0,-1.260835886E0,-7.406938076E-1
2.655746030E0,1.199188232E0,-1.212759018E0,-7.690045834E-1
2.663742370E0,1.013015747E0,-1.120726109E0,-7.025005817E-1
2.671737173E0,1.033626556E0,-1.076149464E0,-7.138502598E-1
2.679733206E0,1.089484215E0,-1.072974086E0,-7.433633804E-1
2.687729316E0,1.143896103E0,-9.507108927E-1,-7.053117752E-1
2.695724964E0,1.111018181E0,-7.835915089E-1,-5.939409733E-1
2.703750844E0,1.050896645E0,-6.061319113E-1,-4.623675346E-1
2.711742569E0,8.797378540E-1,-4.557591081E-1,-4.403221607E-1
2.719742064E0,7.362489700E-1,-4.584378004E-1,-1.903710365E-1
2.727738020E0,7.163991928E-1,-4.795032442E-1,-2.120466232E-1
2.735733207E0,6.787204742E-1,-5.916754603E-1,-2.959854603E-1
2.743728548E0,5.646038055E-1,-6.746656299E-1,-3.950123787E-1
2.751723965E0,3.435869217E-1,-7.090466022E-1,-4.412485361E-1
2.759751461E0,-3.698730469E-2,-6.789854169E-1,-4.023164511E-1
2.767746571E0,-3.785438538E-1,-5.471692085E-1,-4.356411695E-1
2.775741604E0,-5.106716156E-1,-4.502971768E-1,-5.276267529E-1
2.783737098E0,-6.904859543E-1,-2.758961916E-1,-5.055121183E-1
2.791732439E0,-8.694505692E-1,-1.644231081E-1,-6.218056679E-1
2.799729088E0,-1.067250252E0,-9.345746040E-2,-6.472616196E-1
2.807724505E0,-1.292687416E0,-8.505547047E-2,-6.837562323E-1
2.815750770E0,-1.439716339E0,-1.266088486E-1,-6.927045584E-1
2.823746418E0,-1.624467373E0,-1.436901093E-1,-6.767383814E-1
2.831741528E0,-1.767293930E0,-1.830739975E-1,-5.965214968E-1
2.839738254E0,-1.922214508E0,-1.434433460E-1,-5.791494846E-1
2.847733979E0,-1.923852921E0,-1.977396011E-1,-5.056816339E-1
2.855729627E0,-1.859344482E0,-2.536783218E-1,-4.497878551E-1
2.863724507E0,-1.690633774E0,-3.507239819E-1,-3.746037483E-1
2.871749464E0,-1.503541946E0,-4.468777180E-1,-3.726706505E-1
2.879746112E0,-1.258856297E0,-4.499444962E-1,-4.476257563E-1
2.887742760E0,-1.010945320E0,-4.201138020E-1,-6.059663296E-1
2.895736947E0,-7.233319283E-1,-3.475480080E-1,-8.023609519E-1
2.903732903E0,-4.741678238E-1,-3.429446220E-1,-9.431027174E-1
2.911728398E0,-3.959436417E-1,-3.657369614E-1,-1.033663273E0
2.919724662E0,-5.631074905E-1,-3.922328949E-1,-1.058971286E0
2.927752080E0,-7.536344528E-1,-4.743103981E-1,-1.121767044E0
2.935746344E0,-9.708671570E-1,-5.519032478E-1,-1.113063574E0
2.943742069E0,-1.165312290E0,-6.470293999E-1,-1.068787813E0
2.951734410E0,-1.431154251E0,-7.554440498E-1,-9.960790873E-1
2.959732828E0,-1.679875374E0,-8.614468575E-1,-9.088859558E-1
2.967730169E0,-1.915669441E0,-1.009253025E0,-8.308792114E-1
2.975724355E0,-2.265602589E0,-1.067248344E0,-7.483663559E-1
2.983751082E0,-2.380894184E0,-1.094306946E0,-7.874848843E-1
2.991745576E0,-2.324303627E0,-1.139874935E0,-8.524918556E-1
2.999741994E0,-2.153388500E0,-1.179767132E0,-8.137538433E-1
3.007738565E0,-2.075961113E0,-1.205235004E0,-7.434836626E-1
3.015732522E0,-2.133936882E0,-1.201494217E0,-6.113309860E-1
3.023728862E0,-2.277059078E0,-1.202764988E0,-5.216698647E-1
3.031723896E0,-2.532416344E0,-1.139856339E0,-3.793069124E-1
3.039750391E0,-2.798099279E0,-1.101449490E0,-2.876379490E-1
3.047746501E0,-2.965228081E0,-1.159478188E0,-3.090898991E-1
3.055742226E0,-3.075380087E0,-1.278152466E0,-4.211537838E-1
3.063737336E0,-3.020517588E0,-1.429211140E0,-5.889869928E-1
3.071732369E0,-2.953838825E0,-1.547935486E0,-6.874240637E-1
3.079729094E0,-2.917871475E0,-1.605771065E0,-7.089513540E-1
3.087725051E0,-2.945993900E0,-1.626817703E0,-5.849866867E-1
3.095750392E0,-2.890535355E0,-1.682533264E0,-4.043366909E-1
3.103746348E0,-2.804360390E0,-1.706339836E0,-2.523310184E-1
3.111736920E0,-2.807133913E0,-1.624678612E0,-1.639187336E-1
3.119737491E0,-2.817864180E0,-1.492991447E0,-8.289980888E-2
3.127734524E0,-2.916765690E0,-1.287450314E0,-5.284547806E-2
3.135728019E0,-2.871916771E0,-1.202378273E0,-1.255669594E-1
3.143724976E0,-2.694902658E0,-1.207171917E0,-1.071808338E-1
3.151750009E0,-2.519363165E0,-1.239917755E0,-4.846048355E-2
3.159746273E0,-2.466559172E0,-1.243394375E0,-1.064825058E-2
3.167742613E0,-2.401550531E0,-1.217510223E0,1.429505348E-1
3.175737493E0,-2.278702259E0,-1.166931152E0,1.792495251E-1
3.183733141E0,-1.831568003E0,-1.046859741E0,2.998147011E-1
3.191727636E0,-1.713233471E0,-8.917770386E-1,7.743103504E-1
3.199724593E0,-2.398698568E0,-7.380170822E-1,1.052293062E0
3.207751395E0,-3.262292624E0,-5.703482628E-1,1.110097647E0
3.215746582E0,-3.445783138E0,-3.901324272E-1,1.126564741E0
3.223742307E0,-2.972974300E0,-1.614675522E-1,1.170825243E0
3.231736186E0,-2.213674784E0,-6.476545334E-2,1.156740665E0
3.239733142E0,-1.557962418E0,-7.259893417E-2,1.090629578E0
3.247729407E0,-1.008119106E0,-6.376838684E-2,1.078398466E0
3.255754440E0,-7.827410698E-1,-3.146696091E-2,1.106236219E0
3.263750473E0,-7.233572006E-1,4.766368866E-2,1.096510887E0
3.271745275E0,-7.514338493E-1,1.513924599E-1,1.095121622E0
3.279741616E0,-8.131313324E-1,2.236666679E-1,1.102434397E0
3.287738495E0,-7.703447342E-1,2.700643539E-1,9.929642677E-1
3.295733374E0,-6.706547737E-1,3.533320427E-1,9.346375465E-1
3.303729332E0,-6.085991859E-1,4.114956856E-1,9.339187145E-1
3.311754365E0,-5.968828201E-1,4.759769440E-1,9.102389812E-1
3.319750628E0,-5.710000992E-1,4.756946564E-1,7.845628262E-1
3.327746969E0,-4.995651245E-1,3.997898102E-1,6.938993931E-1
3.335741771E0,-5.081057549E-1,3.298521042E-1,5.961995125E-1
3.343737497E0,-4.310755730E-1,2.352857590E-1,4.762279987E-1
3.351732991E0,-3.651943207E-1,1.714067459E-1,4.110772610E-1
3.359728410E0,-3.473949432E-1,1.425094604E-1,3.192465305E-1
3.367756135E0,-3.481597900E-1,2.051410675E-1,1.823756695E-1
3.375750245E0,-3.437809944E-1,2.729101181E-1,1.158685684E-1
3.383745740E0,-3.172626495E-1,3.026037216E-1,5.477070808E-2
3.391741465E0,-3.442769051E-1,2.819480896E-1,-1.358366013E-2
3.399736575E0,-4.231905937E-1,2.631273270E-1,-1.237812042E-1
3.407734071E0,-4.762921333E-1,2.504234314E-1,-2.306051254E-1
3.415728642E0,-4.395060539E-1,2.056856155E-1,-3.696579933E-1
3.423755444E0,-2.197761536E-1,2.160387039E-1,-5.014953613E-1
3.431748939E0,2.130556107E-2,2.792854309E-1,-6.060416698E-1
3.439745356E0,2.215809822E-1,4.554738998E-1,-6.240599155E-1
3.447742236E0,3.227033615E-1,5.339670181E-1,-5.575275421E-1
3.455736807E0,3.452124596E-1,5.772361755E-1,-5.068476200E-1
3.463732457E0,3.099479675E-1,5.204324722E-1,-4.041922092E-1
3.471728490E0,1.250667572E-1,3.677825928E-1,-3.243575096E-1
3.479754446E0,-1.817779541E-1,1.854991913E-1,-2.430822849E-1
3.487751709E0,-4.637672901E-1,4.745006561E-2,-1.820154190E-1
3.495745896E0,-6.710007191E-1,-3.432464600E-2,-1.503980160E-1
3.503742160E0,-7.063379288E-1,-5.713272095E-2,-1.380617619E-1
3.511736732E0,-6.063845158E-1,-6.464576721E-2,-1.383674145E-1
3.519733073E0,-3.779902458E-1,-4.663658142E-2,-1.791069508E-1
3.527729029E0,-1.385345459E-1,6.828117371E-2,-2.591528893E-1
3.535754985E0,9.322261810E-2,1.911392212E-1,-3.206186295E-1
3.543750326E0,1.512346268E-1,3.066835403E-1,-3.560698032E-1
3.559742085E0,1.065802574E-1,2.799358368E-1,-4.367055893E-1
3.567737888E0,5.687808990E-2,2.123422623E-1,-4.283339977E-1
3.575733228E0,-5.222845078E-2,8.708858490E-2,-4.103641510E-1
3.583728723E0,-1.461458206E-1,3.157329559E-2,-3.246855736E-1
3.591751141E0,-2.274866104E-1,-1.474380493E-3,-2.228829861E-1
3.599750558E0,-2.965025902E-1,1.077651978E-4,-1.171212196E-1
3.607746284E0,-3.485333920E-1,3.341007233E-2,-7.537937164E-2
3.615741701E0,-3.216681480E-1,3.613376617E-2,-7.796287537E-2
3.623737735E0,-2.569570541E-1,3.701114655E-2,-8.373212814E-2
3.631732230E0,-1.905465126E-1,4.341411591E-2,-6.414771080E-2
3.639728571E0,-1.438922882E-1,3.149986267E-2,-2.439260483E-2
3.647755142E0,-1.362624168E-1,-6.036758423E-3,-3.342461586E-2
3.655750560E0,-9.847354889E-2,-4.753494263E-2,-4.813480377E-2
3.663745593E0,-8.584880829E-2,-9.534263611E-2,-4.437518120E-2
3.671738549E0,-9.091997147E-2,-1.065893173E-1,-3.389930725E-2
3.679737121E0,-5.136728287E-2,-1.149816513E-1,-4.744672775E-2
3.687733385E0,-1.005315781E-2,-6.086254120E-2,-2.255201340E-2
3.695728187E0,-1.456069946E-2,-1.630783081E-2,-1.880931854E-2
3.703754990E0,2.145862579E-2,2.821636200E-2,-2.673363686E-2
3.711749484E0,6.949853897E-2,8.934783936E-2,-7.263684273E-2
3.719746748E0,1.509885788E-1,7.857418060E-2,-9.670376778E-2
3.727742781E0,1.656255722E-1,7.247257233E-2,-1.087298393E-1
3.735736738E0,1.542606354E-1,3.747558594E-2,-1.159744263E-1
3.743733309E0,1.218099594E-1,-9.506225586E-3,-4.715561867E-2
3.751727804E0,2.995109558E-2,-7.078075409E-2,-7.825136185E-3
3.759754606E0,-3.997802734E-2,-1.295299530E-1,3.786826134E-2
3.767750947E0,-1.242790222E-1,-2.025308609E-1,7.370829582E-2
3.775746057E0,-1.876630783E-1,-2.417535782E-1,1.072955132E-1
3.783741783E0,-2.615370750E-1,-2.734870911E-1,1.676063538E-1
3.791736662E0,-2.834939957E-1,-2.569923401E-1,1.944856644E-1
3.799733619E0,-2.270474434E-1,-2.090759277E-1,2.213904858E-1
3.801746780E0,-2.214388847E-1,-1.945762634E-1,2.056562901E-1
3.803731404E0,-2.022852898E-1,-1.849994659E-1,1.960794926E-1
3.805744644E0,-1.639780998E-1,-1.466922760E-1,1.936852932E-1
3.807729267E0,-1.591897011E-1,-1.227502823E-1,1.888968945E-1
3.815754531E0,-1.013221741E-1,-3.174304962E-2,1.236965656E-1
3.823750333E0,-7.209777832E-4,6.860923767E-2,4.518175125E-2
3.831742366E0,1.045098305E-1,9.215736389E-2,3.919148445E-2
3.839741169E0,1.764001846E-1,8.918857574E-2,-7.263422012E-3
3.847738125E0,2.033538818E-1,5.970001221E-2,-4.197931290E-2
3.855732928E0,1.855525970E-1,-2.256488800E-2,-3.427410126E-2
3.863729807E0,9.427833557E-2,-6.890678406E-2,-5.388712883E-2
3.871754224E0,1.305961609E-2,-8.889579773E-2,-5.261349678E-2
3.879749565E0,-3.231096268E-2,-8.483600616E-2,-4.912137985E-2
3.887747137E0,-6.357145309E-2,-8.069324493E-2,-1.199507713E-2
3.895741401E0,-8.085966110E-2,-7.173442841E-2,-1.991939545E-2
3.903737434E0,-8.180189133E-2,-4.125308990E-2,-3.442430496E-2
3.911732237E0,-9.265375137E-2,-3.470802307E-2,-2.935600281E-2
3.919728500E0,-8.467864990E-2,-2.572536469E-2,-5.510044098E-2
3.927755918E0,-6.724929810E-2,-3.109550476E-2,-3.760933876E-2
3.935750105E0,-1.024956703E-1,-2.901077271E-3,-2.262568474E-2
3.943746524E0,-4.432487488E-2,6.243705750E-3,-3.667521477E-2
3.951740710E0,3.547382355E-2,-3.235340118E-2,3.877639771E-3
3.959737282E0,8.171701431E-2,-4.462051392E-2,-5.777359009E-3
3.967733315E0,4.127502441E-3,-3.568553925E-2,-1.781225204E-2
3.975728733E0,-4.438066483E-2,-1.259708405E-2,-2.736091614E-2
3.983755535E0,-6.431436539E-2,8.063316345E-3,-3.183960915E-2
3.991750106E0,-7.967042923E-2,5.018043518E-2,-3.819918633E-2
3.999746063E0,-6.648397446E-2,9.930419922E-2,-2.709960938E-2
4.007741789E0,-8.649587631E-2,7.386398315E-2,1.796627045E-2
4.015736899E0,-7.256793976E-2,7.208061218E-2,3.927755356E-2
4.023732932E0,-6.773376465E-2,4.378604889E-2,8.194136620E-2
4.031728119E0,-8.414077759E-2,1.300144196E-2,1.053028107E-1
4.039754921E0,-1.241092682E-1,-4.170513153E-2,1.257202625E-1
4.047751492E0,-5.399417877E-2,-8.181571960E-2,1.025228500E-1
4.055746296E0,3.992557526E-3,-1.264781952E-1,1.507611275E-1
4.063741175E0,2.057552338E-3,-9.924507141E-2,1.438415051E-1
4.071737131E0,-2.593851089E-2,-5.778121948E-2,1.488759518E-1
4.079732933E0,-8.008003235E-2,2.600669861E-3,1.327092648E-1
4.087729197E0,-5.527114868E-2,1.963043213E-2,8.854222298E-2
4.095754538E0,-4.028749466E-2,1.239776611E-2,6.227540970E-2
4.103749955E0,-2.548074722E-2,9.643554688E-3,3.224921227E-2
4.111745989E0,-1.070261002E-2,2.334308624E-2,1.261806488E-2
4.119741715E0,1.106643677E-2,-8.572578430E-3,2.230000496E-2
4.127738055E0,-5.489826202E-3,-1.904773712E-2,1.791954041E-2
4.135733088E0,-2.213096619E-2,-2.957820892E-2,-1.731753349E-2
4.143729121E0,-2.221775055E-2,6.055831909E-4,-4.990816116E-2
4.151752000E0,6.385803223E-3,3.083324432E-2,-7.057332993E-2
4.159750496E0,-1.529169083E-2,5.873012543E-2,-1.033604145E-1
4.167746529E0,1.295566559E-3,4.134559631E-2,-1.318237782E-1
4.175740408E0,3.700828552E-2,3.854751587E-2,-1.656045914E-1
4.183737595E0,8.705806732E-2,1.444625854E-2,-1.975712776E-1
4.191732782E0,1.682062149E-1,-2.361297607E-3,-2.130260468E-1
4.199759815E0,1.820344925E-1,-1.901531219E-2,-2.117402554E-1
4.207754925E0,2.026381493E-1,-2.110099792E-2,-1.864678860E-1
4.215750344E0,1.679720879E-1,-8.686065674E-3,-1.205675602E-1
4.223745761E0,1.546626091E-1,2.299594879E-2,-9.778761864E-2
4.231738410E0,1.342678070E-1,2.835369110E-2,-5.600881577E-2
4.239736981E0,9.993791580E-2,5.513477325E-2,-4.910469055E-3
4.247733322E0,2.821207047E-2,1.054229736E-1,5.927085876E-4
4.255728355E0,-4.506015778E-2,1.146945953E-1,2.013206482E-2
4.263754926E0,-6.525087357E-2,8.790969849E-2,2.750992775E-2
4.271749422E0,-9.230422974E-2,8.257579803E-2,2.273559570E-2
4.279746070E0,-8.804512024E-2,7.488822937E-2,8.025407791E-3
4.287742334E0,-5.708551407E-2,7.915401459E-2,-4.743337631E-3
4.295737444E0,-1.142549515E-2,8.578300476E-2,-6.338477135E-2
4.303732554E0,2.954769135E-2,5.658721924E-2,-9.126901627E-2
4.311758510E0,1.811122894E-2,4.895305634E-2,-7.405614853E-2
4.319754159E0,6.669521332E-3,3.426933289E-2,-8.113455772E-2
4.327751500E0,4.777431488E-3,2.925205231E-2,-5.488824844E-2
4.335745610E0,-5.724525452E-2,1.964569092E-2,-1.202464104E-2
4.343741720E0,-5.486536026E-2,-6.662368774E-3,-4.901647568E-3
4.351736138E0,-4.082345963E-2,-6.521224976E-3,9.542942047E-3
4.359732863E0,4.119396210E-3,-1.819705963E-2,3.106617928E-2
4.367760281E0,3.483819962E-2,-6.055831909E-3,5.512166023E-2
4.375754699E0,5.629014969E-2,4.182434082E-2,6.723165512E-2
4.383750117E0,1.818180084E-2,7.278633118E-2,4.105162621E-2
4.391742534E0,-1.229572296E-2,1.011648178E-1,2.672266960E-2
4.399741337E0,-4.467391968E-2,1.006965637E-1,-1.431965828E-2
4.407737908E0,-7.902908325E-2,8.097171783E-2,-2.214860916E-2
4.415732480E0,-8.448600769E-2,4.928016663E-2,-5.415987968E-2
4.423759205E0,-1.067242622E-1,3.670787811E-2,-6.928682327E-2
4.431753778E0,-7.893991470E-2,6.009769440E-2,-6.024479866E-2
4.439750349E0,-6.133079529E-3,9.792041779E-2,-4.355788231E-2
4.447746459E0,1.839399338E-2,1.117687225E-1,-5.258703232E-2
4.455741492E0,1.634693146E-2,1.328468323E-1,-2.310013771E-2
4.463737294E0,2.868938446E-2,1.156139374E-1,-2.715682983E-2
4.471732096E0,-1.989841461E-3,5.535411835E-2,2.117657661E-2
4.479759206E0,-2.997303009E-2,-2.435684204E-3,5.932307243E-2
4.487755163E0,-5.757284164E-2,-5.291461945E-2,6.787586212E-2
4.495750273E0,-6.354570389E-2,-1.582603455E-1,1.021335125E-1
4.503746383E0,-1.148490906E-1,-1.438045502E-1,1.143949032E-1
4.511741109E0,-1.325302124E-1,-1.315908432E-1,1.500484943E-1
4.519737526E0,-2.028384209E-1,-9.298324585E-2,1.184608936E-1
4.527733175E0,-2.825665474E-1,-4.486560822E-2,6.049799919E-2
4.535759055E0,-3.452391624E-1,-1.373100281E-2,2.666831017E-2
4.543755088E0,-3.906798363E-1,9.851455688E-3,2.735614777E-3
4.551746813E0,-3.807387352E-1,-5.397796631E-4,-6.352925301E-2
4.559745616E0,-2.874712944E-1,8.459091187E-4,-1.286499500E-1
4.567741418E0,-1.288819313E-1,-2.128410339E-2,-1.805822849E-1
4.575737451E0,-7.913589478E-3,-1.412105560E-2,-1.933534145E-1
4.583732561E0,4.737424850E-2,-2.571105957E-2,-1.722452641E-1
4.591758364E0,-1.249551773E-2,2.989006042E-2,-1.152963638E-1
4.599754474E0,-3.637075424E-2,4.242134094E-2,-1.040122509E-1
4.607751045E0,-1.014995575E-2,2.643775940E-2,-9.065008163E-2
4.615745925E0,8.789539337E-3,3.200531006E-2,-1.082839966E-1
4.623741958E0,-2.001285553E-2,1.835346222E-2,-1.211464405E-1
4.631736452E0,-8.416557312E-2,3.554439545E-2,-1.316449642E-1
4.639732793E0,-1.145696640E-1,2.631282806E-2,-1.134984493E-1
4.647759596E0,-1.282215118E-1,2.902507782E-2,-7.371854782E-2
4.655755014E0,-1.206483841E-1,7.921218872E-3,9.266376495E-3
4.663749739E0,-1.088080406E-1,-2.268123627E-2,5.685186386E-2
4.671744849E0,-1.408767700E-2,-2.916622162E-2,7.411789894E-2
4.679741497E0,7.242107391E-2,-5.711841583E-2,5.429267883E-2
4.687738146E0,1.537337303E-1,-6.362533569E-2,1.375913620E-2
4.695732102E0,2.326688766E-1,-8.707332611E-2,-1.432943344E-2
4.703758597E0,2.261509895E-1,-7.972717285E-2,-1.861286163E-2
4.711755169E0,1.987733841E-1,-8.207321167E-2,-1.875019073E-2
4.719750048E0,1.884889603E-1,-9.152793884E-2,-1.235198975E-2
4.727746081E0,1.164050102E-1,-7.221889496E-2,1.249361038E-2
4.735740576E0,4.713916779E-2,-6.966590881E-2,4.870581627E-2
4.743737147E0,-4.093217850E-2,-3.603363037E-2,8.934712410E-2
4.751732872E0,-4.540729523E-2,-2.857780457E-2,1.370317936E-1
4.759759137E0,-5.021047592E-2,1.245307922E-2,1.108124256E-1
4.767755786E0,-9.338378906E-2,5.101871490E-2,1.399381161E-1
4.775750511E0,-1.772046089E-1,6.316757202E-2,9.019708633E-2
4.783746544E0,-1.653609276E-1,2.509403229E-2,4.543066025E-3
4.791740500E0,-8.239841461E-2,2.070999146E-2,-4.703712463E-2
4.799737456E0,-9.685039520E-3,-1.459693909E-2,-7.186126709E-2
4.807732874E0,6.988286972E-2,-4.264163971E-2,-5.093121529E-2
4.815758754E0,1.302933693E-1,-3.955745697E-2,-2.999901772E-2
4.823754479E0,1.907072067E-1,-1.010131836E-2,-2.591013908E-2
4.831749512E0,2.658915520E-1,2.638816833E-2,-4.354238510E-2
4.839746468E0,2.934842110E-1,4.127693176E-2,-4.707336426E-2
4.847741886E0,2.686481476E-1,1.546382904E-2,-7.488775253E-2
4.855737304E0,2.038125992E-1,2.061367035E-2,-8.650684357E-2
4.863732491E0,5.122709274E-2,-3.672695160E-2,-5.558276176E-2
4.871756525E0,-8.603763580E-2,-8.715248108E-2,1.539039612E-2
4.879754635E0,-2.445745468E-1,-1.210241318E-1,5.779409409E-2
4.887751591E0,-3.893404007E-1,-1.380853653E-1,1.368284225E-1
4.895745854E0,-4.867887497E-1,-1.526279449E-1,1.852266788E-1
4.903741503E0,-5.550398827E-1,-1.673021317E-1,2.045738697E-1
4.911736305E0,-6.217281818E-1,-1.989927292E-1,2.798235416E-1
4.919733570E0,-7.069613934E-1,-2.548561096E-1,4.064152241E-1
4.927759526E0,-7.945649624E-1,-3.247332573E-1,6.147756577E-1
4.935754636E0,-8.915758133E-1,-4.054713249E-1,8.630278111E-1
4.943749977E0,-1.002318382E0,-5.421004295E-1,1.247483253E0
4.951741702E0,-1.131539583E0,-6.578893661E-1,1.549971819E0
4.959741812E0,-1.277413607E0,-8.172984123E-1,1.756578445E0
4.967737845E0,-1.381115437E0,-9.606132507E-1,1.804566383E0
4.975733264E0,-1.411290169E0,-1.138346195E0,1.692794800E0
4.983758527E0,-1.289639473E0,-1.362504482E0,1.466280460E0
4.991753868E0,-1.285868406E0,-1.518785000E0,1.315364122E0
4.999750209E0,-1.392024994E0,-1.655653954E0,1.100055695E0
5.007746319E0,-1.485406399E0,-1.724820137E0,9.895391464E-1
5.015741121E0,-1.542743206E0,-1.682320595E0,9.806339741E-1
5.023736539E0,-1.581965923E0,-1.658443928E0,9.610538483E-1
5.031731573E0,-1.653183460E0,-1.668726921E0,9.630253315E-1
5.039758683E0,-1.731912613E0,-1.739396095E0,9.429962635E-1
5.047755023E0,-1.842575073E0,-1.798166752E0,9.299223423E-1
5.055750518E0,-2.032890081E0,-1.834994793E0,8.848199844E-1
5.063745859E0,-2.198098898E0,-1.858443260E0,7.948772907E-1
5.071741045E0,-2.317877054E0,-1.839454174E0,7.277302742E-1
5.079736772E0,-2.401817560E0,-1.805908680E0,6.174707413E-1
5.087733343E0,-2.423314333E0,-1.778558254E0,5.008845329E-1
5.095758607E0,-2.429206371E0,-1.828862190E0,3.858160973E-1
5.103754025E0,-2.425910950E0,-1.870317936E0,3.022909164E-1
5.111748827E0,-2.381816149E0,-1.957610607E0,2.328488827E-1
5.119745783E0,-2.278301716E0,-2.101808548E0,8.902049065E-2
5.127742201E0,-2.142544031E0,-2.200784683E0,-8.300566673E-2
5.135737004E0,-1.902079105E0,-2.290830135E0,-3.418259621E-1
5.143732652E0,-1.724179268E0,-2.360111713E0,-5.449135303E-1
5.151757993E0,-1.564680576E0,-2.392730236E0,-8.776144981E-1
5.159755180E0,-1.401980400E0,-2.434186459E0,-1.147063971E0
5.167750674E0,-1.372225761E0,-2.434538364E0,-1.366111755E0
5.175745400E0,-1.286386490E0,-2.472397804E0,-1.553138971E0
5.183741817E0,-1.178998470E0,-2.481901169E0,-1.688187480E0
5.191735928E0,-1.066712856E0,-2.522759199E0,-1.789821267E0
5.199732961E0,-1.016403198E0,-2.530228615E0,-1.826313019E0
5.207759764E0,-9.961981773E-1,-2.542968035E0,-1.838317871E0
5.215754797E0,-9.724149704E-1,-2.558238506E0,-1.804247737E0
5.223750291E0,-8.914179802E-1,-2.502082348E0,-1.921274900E0
5.231745401E0,-7.640810013E-1,-2.396204233E0,-1.963552356E0
5.239741126E0,-7.339997292E-1,-2.247138262E0,-1.941004753E0
5.247738084E0,-6.246972084E-1,-2.224637032E0,-1.880017757E0
5.255732501E0,-1.895761490E-1,-2.374403238E0,-1.806094885E0
5.263758380E0,2.825469971E-1,-2.511849880E0,-1.749177575E0
5.271750798E0,6.871147156E-1,-2.706393242E0,-1.691505313E0
5.279750139E0,7.733583450E-1,-2.784687996E0,-1.616949558E0
5.287746172E0,6.873950958E-1,-2.784272671E0,-1.575704336E0
5.295740975E0,6.194076538E-1,-2.672815561E0,-1.484265924E0
5.303737085E0,6.331272125E-1,-2.505630493E0,-1.482315898E0
5.311731579E0,8.747329712E-1,-2.301734924E0,-1.573393345E0
5.319758920E0,1.150547981E0,-2.159705162E0,-1.736814380E0
5.327755569E0,1.258057594E0,-2.027320862E0,-1.741169691E0
5.335750140E0,1.053706169E0,-1.926211476E0,-1.624544740E0
5.343745788E0,9.228029251E-1,-1.903547168E0,-1.488483906E0
5.351738746E0,1.098561287E0,-1.927991271E0,-1.461715698E0
5.359736394E0,1.198564529E0,-1.885597348E0,-1.397838593E0
5.367763119E0,9.520006180E-1,-1.792371035E0,-1.319801331E0
5.375759152E0,3.121843338E-1,-1.594347358E0,-1.223970175E0
5.383754878E0,-6.175022125E-1,-1.323233843E0,-1.058176398E0
5.391749449E0,-1.296058655E0,-1.074630260E0,-9.080576897E-1
5.399745713E0,-1.698338985E0,-9.340863824E-1,-6.071739197E-1
5.407742132E0,-1.133363724E0,-1.083986640E0,-5.139187574E-1
5.415736857E0,-2.337770462E-1,-1.323794365E0,-2.592098713E-1
5.423763044E0,5.460882187E-1,-1.697174191E0,-1.028776169E-2
5.431755769E0,7.594909668E-1,-1.931923389E0,2.310864925E-1
5.439754264E0,8.060169220E-1,-2.140669107E0,3.727250099E-1
5.447750527E0,8.173618317E-1,-2.277032852E0,3.806989193E-1
5.455745638E0,7.345952988E-1,-2.222678185E0,3.033504486E-1
5.463741441E0,3.964195251E-1,-2.001227856E0,1.578850746E-1
5.471736243E0,-4.102134705E-2,-1.703000784E0,1.544458866E-1
5.479763353E0,-2.351245880E-1,-1.423327208E0,1.946732998E-1
5.487759386E0,1.299991608E-1,-1.351707458E0,1.695096493E-1
5.495754188E0,4.904298782E-1,-1.348939180E0,1.691694260E-1
5.503750529E0,6.289863586E-1,-1.448498249E0,1.717417240E-1
5.511744947E0,6.117687225E-1,-1.581535339E0,2.658255100E-1
5.519741365E0,6.388320923E-1,-1.811399937E0,4.028792381E-1
5.527737937E0,6.209096909E-1,-1.962693453E0,4.655764103E-1
5.535763508E0,4.978809357E-1,-2.109145164E0,4.305787086E-1
5.543758926E0,3.628826141E-1,-2.128544092E0,3.960971832E-1
5.551753805E0,2.878990173E-1,-2.041758537E0,3.617751598E-1
5.559750376E0,2.395601273E-1,-1.917671204E0,3.321475983E-1
5.567746103E0,2.160320282E-1,-1.769448280E0,3.764121532E-1
5.575741289E0,3.028068542E-1,-1.682497978E0,3.117651939E-1
5.583737015E0,3.637027740E-1,-1.620391846E0,3.028748035E-1
5.591759509E0,3.078994751E-1,-1.458524227E0,3.298580647E-1
5.599759235E0,2.100286484E-1,-1.352153301E0,3.653817177E-1
5.607754652E0,2.190141678E-1,-1.301045418E0,4.367635250E-1
5.615750378E0,4.569606781E-1,-1.394123077E0,4.329092503E-1
5.623745719E0,7.510061264E-1,-1.569827080E0,5.403132439E-1
5.631741214E0,1.158812523E0,-1.840613842E0,4.639507532E-1
5.639736324E0,1.362937450E0,-2.032879353E0,3.213905096E-1
5.647764280E0,1.295536995E0,-2.046167850E0,2.187596560E-1
5.655758236E0,1.179713726E0,-1.980029106E0,5.275487900E-2
5.663754192E0,1.188333988E0,-1.879042625E0,-1.147199869E-1
5.671746611E0,1.055997372E0,-1.739929199E0,-1.275753975E-1
5.679745644E0,7.070364952E-1,-1.592606544E0,-2.205845118E-1
5.687742369E0,5.704655647E-1,-1.422241211E0,-2.505664825E-1
5.695737171E0,4.724612236E-1,-1.275393963E0,-1.971375942E-1
5.703762666E0,4.319643974E-1,-1.125503063E0,-1.399772167E-1
5.711758084E0,3.001446724E-1,-9.583683014E-1,-9.735274315E-2
5.719754501E0,1.584324837E-1,-8.289661407E-1,7.713317871E-3
5.727750766E0,1.004624367E-1,-8.090953827E-1,1.746352911E-1
5.735744722E0,2.441020012E-1,-8.961400986E-1,3.548802137E-1
5.743741294E0,5.183916092E-1,-1.043765545E0,4.992512465E-1
5.751735865E0,9.061198235E-1,-1.266729832E0,6.766525507E-1
5.759762898E0,1.212290287E0,-1.357511044E0,6.566683054E-1
5.767759239E0,1.393144131E0,-1.390779018E0,5.868885517E-1
5.775754349E0,1.393815517E0,-1.232189178E0,4.381663799E-1
5.783750383E0,1.327347279E0,-1.044066429E0,2.629834414E-1
5.791744647E0,1.211856842E0,-8.134498596E-1,6.147706509E-2
5.799741218E0,1.130698681E0,-7.177810669E-1,-8.043897152E-2
5.807737559E0,1.055757523E0,-6.296367645E-1,-1.693220139E-1
5.815762592E0,1.060982227E0,-6.113243103E-1,-1.592950821E-1
5.823758625E0,1.047560692E0,-6.390438080E-1,-1.093225479E-1
5.831750351E0,1.057898045E0,-7.058124542E-1,1.217854023E-2
5.839749769E0,1.153426647E0,-7.974948883E-1,8.826625347E-2
5.847745802E0,1.245478153E0,-8.660726547E-1,2.149455547E-1
5.855740912E0,1.329880953E0,-8.882522583E-1,2.821124792E-1
5.863736868E0,1.356809616E0,-9.282379150E-1,3.354407549E-1
5.871761901E0,1.435654640E0,-9.286956787E-1,4.467660189E-1
5.879758857E0,1.525322437E0,-9.375219345E-1,5.415034294E-1
5.887755122E0,1.661169052E0,-9.452505112E-1,4.945290089E-1
5.895749385E0,1.743741751E0,-9.209604263E-1,4.568278790E-1
5.903745418E0,1.792157888E0,-8.332672119E-1,3.518447876E-1
5.911739913E0,1.773841143E0,-7.349948883E-1,2.374345064E-1
5.919736485E0,1.761303902E0,-6.280021667E-1,1.449725628E-1
5.927763364E0,1.756927729E0,-5.311822891E-1,9.373569489E-2
5.935758397E0,1.762809277E0,-4.539947510E-1,6.214988232E-2
5.943755123E0,1.719118595E0,-3.794708252E-1,7.169985771E-2
5.951749310E0,1.702333689E0,-3.505840302E-1,1.437801123E-1
5.959745651E0,1.698441029E0,-3.120040894E-1,2.376683950E-1
5.967741607E0,1.620062828E0,-3.165922165E-1,3.412041664E-1
5.975737332E0,1.570431232E0,-3.066606522E-1,4.400262833E-1
5.983763288E0,1.475461721E0,-3.060092926E-1,4.837276936E-1
5.991755552E0,1.380805492E0,-3.000888824E-1,5.011907816E-1
5.999754663E0,1.251491070E0,-3.035421371E-1,5.282378197E-1
6.007750388E0,1.105034828E0,-2.503166199E-1,5.235247612E-1
6.015745575E0,9.778530598E-1,-1.809663773E-1,4.915454388E-1
6.023740916E0,8.324635029E-1,-1.024618149E-1,4.082487822E-1
6.031735795E0,7.880136967E-1,-7.418155670E-2,3.289877176E-1
6.039762828E0,7.457218170E-1,-4.781341553E-2,2.539975643E-1
6.047759247E0,7.387111187E-1,-4.916286469E-2,2.125228643E-1
6.055753972E0,7.470757961E-1,-7.306957245E-2,2.046282291E-1
6.063750005E0,7.192683220E-1,-9.054851532E-2,1.968541145E-1
6.071744807E0,6.687200069E-1,-1.132431030E-1,2.010445595E-1
6.079741533E0,5.795366764E-1,-9.550285339E-2,2.145096064E-1
6.087736950E0,5.362422466E-1,-6.352615356E-2,2.177946568E-1
6.095763060E0,4.890427589E-1,-3.871250153E-2,2.013864517E-1
6.103757556E0,4.552278519E-1,-3.044700623E-2,1.679290533E-1
6.111753281E0,4.277858734E-1,-1.477050781E-2,1.913613081E-1
6.119750545E0,3.898828030E-1,3.460788727E-2,1.948269606E-1
6.127746039E0,3.633291721E-1,4.828643799E-2,2.139152288E-1
6.135741149E0,3.123359680E-1,6.938076019E-2,2.101081610E-1
6.143736259E0,2.872583866E-1,7.154750824E-2,2.190887928E-1
6.151758985E0,2.447330952E-1,5.957221985E-2,1.861485243E-1
6.159758095E0,1.970958710E-1,3.612041473E-2,1.289466619E-1
6.167755667E0,1.089398861E-1,1.550674438E-3,5.103051662E-2
6.175749238E0,7.263112068E-2,2.049446106E-3,1.619827747E-2
6.183745964E0,3.669023514E-3,3.890037537E-3,-3.550970554E-2
6.191740458E0,-1.963734627E-2,1.396751404E-2,-3.758823872E-2
6.199767261E0,-1.264858246E-2,4.629611969E-2,-7.179045677E-2
6.207763602E0,-4.558563232E-3,3.119373322E-2,-6.935763359E-2
6.215758943E0,6.376266479E-2,6.176185608E-2,-7.848262787E-2
6.223754668E0,7.949757576E-2,4.446315765E-2,-8.524322510E-2
6.231749163E0,9.978938103E-2,5.099296570E-2,-1.114046574E-1
6.239745811E0,7.688665390E-2,7.173538208E-3,-1.162462234E-1
6.247742229E0,5.411958694E-2,-3.911495209E-2,-5.949556828E-2
6.255766570E0,2.435946465E-2,-9.508132935E-2,-2.760577202E-2
6.263761911E0,-1.958918571E-2,-1.343946457E-1,-3.826856613E-3
6.271758560E0,-1.139092445E-1,-1.547412872E-1,-7.301211357E-3
6.279754670E0,-1.584050655E-1,-1.824855804E-1,-1.361346245E-2
6.287750703E0,-2.130060196E-1,-1.409349442E-1,-2.456855774E-2
6.295746120E0,-2.888231277E-1,-1.350755692E-1,-6.113755703E-2
6.303741538E0,-3.276133537E-1,-1.813602448E-1,-6.786835194E-2
6.311766494E0,-3.478209972E-1,-1.862106323E-1,-7.833361626E-2
6.319763682E0,-3.374598026E-1,-2.094869614E-1,-8.541798592E-2
6.327760023E0,-3.063127995E-1,-2.249832153E-1,-8.470714092E-2
6.335753902E0,-2.860236168E-1,-2.185716629E-1,-6.471419334E-2
6.343749012E0,-2.745611668E-1,-1.927843094E-1,-6.627786160E-2
6.351744737E0,-2.956702709E-1,-1.739282608E-1,-3.691542149E-2
6.359741078E0,-3.087606430E-1,-1.309881210E-1,-1.054537296E-2
6.367738034E0,-3.304834366E-1,-1.333932877E-1,2.698850632E-2
6.375763068E0,-3.463201523E-1,-1.116466522E-1,3.514027596E-2
6.383757562E0,-3.919949532E-1,-1.159687042E-1,4.502391815E-2
6.391750519E0,-4.053289890E-1,-6.733894348E-2,4.493212700E-2
6.399749552E0,-4.385054111E-1,-6.613922119E-2,4.699730873E-2
6.407746277E0,-4.533474445E-1,-6.933498383E-2,5.593407154E-2
6.415740464E0,-4.619445801E-1,-1.081600189E-1,1.048808098E-1
6.423766959E0,-4.501399994E-1,-1.755695343E-1,1.431179047E-1
6.431761454E0,-4.501256943E-1,-2.169265747E-1,2.250590324E-1
6.439758948E0,-4.545485973E-1,-2.106628418E-1,2.428220510E-1
6.447755289E0,-4.632549286E-1,-1.638183594E-1,1.946072578E-1
6.455749861E0,-4.667592049E-1,-9.303188324E-2,1.363648176E-1
6.463745586E0,-4.746568203E-1,-2.948760986E-3,7.139122486E-2
6.471740081E0,-4.773607254E-1,7.065010071E-2,2.815604210E-3
6.479767422E0,-4.764664173E-1,1.178846359E-1,-5.898582935E-2
6.487764148E0,-4.410984516E-1,1.243734360E-1,-1.041986942E-1
6.495758565E0,-4.234650135E-1,1.260910034E-1,-1.021113396E-1
6.503754906E0,-3.551104069E-1,1.274967194E-1,-9.623920918E-2
6.511748554E0,-3.033297062E-1,1.451931000E-1,-8.949089050E-2
6.519746433E0,-2.369325161E-1,2.006511688E-1,-4.898703098E-2
6.527742774E0,-1.581137180E-1,2.291412354E-1,2.445757389E-2
6.535766501E0,-1.282289028E-1,2.667675018E-1,9.460139275E-2
6.543763149E0,-5.609011650E-2,2.704792023E-1,1.470235586E-1
6.551757028E0,-3.391504288E-3,3.194131851E-1,1.839923859E-1
6.559754292E0,-1.297783852E-2,3.418521881E-1,1.746090651E-1
6.567750556E0,-3.422808647E-2,3.881902695E-1,1.501688957E-1
6.575745127E0,-6.478309631E-2,4.058074951E-1,1.014578342E-1
6.583741083E0,-7.578611374E-2,3.301296234E-1,6.697273254E-2
6.591766040E0,-6.958031654E-2,2.521648407E-1,5.160748959E-2
6.599762996E0,-7.474994659E-2,1.264925003E-1,2.921271324E-2
6.607759106E0,-6.956076622E-2,1.776409149E-2,1.632559299E-2
6.615753832E0,-7.794475555E-2,-5.487918854E-2,2.482235432E-2
6.623749942E0,-6.846761703E-2,-1.152915955E-1,2.125096321E-2
6.631744052E0,-4.389834404E-2,-1.156854630E-1,1.283204556E-2
6.639741008E0,-3.815865517E-2,-1.183500290E-1,3.342652321E-2
6.647767503E0,-1.831960678E-2,-1.067247391E-1,6.364738941E-2
6.655762921E0,-1.377820969E-2,-1.503868103E-1,9.641563892E-2
6.663759262E0,-2.255463600E-2,-1.966857910E-1,6.995201111E-2
6.671753525E0,-2.576494217E-2,-2.433013916E-1,2.729952335E-2
6.679749866E0,-3.788876534E-2,-2.973928452E-1,-1.211309433E-2
6.687746745E0,-4.449176788E-2,-2.846794128E-1,-4.329144955E-2
6.695740701E0,-3.072977066E-2,-2.673282623E-1,-7.122516632E-2
6.703766812E0,2.988004684E-2,-2.501115799E-1,-6.015026569E-2
6.711761691E0,7.541394234E-2,-2.162952423E-1,-7.289981842E-2
6.719758571E0,1.202118397E-1,-1.970300674E-1,-7.367074490E-2
6.727754604E0,1.834311485E-1,-1.923713684E-1,-7.237195969E-2
6.735750098E0,1.862866879E-1,-1.639518738E-1,-6.897473335E-2
6.743745439E0,1.241948605E-1,-1.404428482E-1,-7.780516148E-2
6.751740011E0,9.581279755E-2,-1.384897232E-1,-4.863977432E-2
6.759767121E0,6.323075294E-2,-1.220760345E-1,-1.977670193E-2
6.767763385E0,3.147029877E-2,-1.222467422E-1,-1.265084743E-2
6.775758187E0,2.183961868E-2,-8.635139465E-2,1.689791679E-3
6.783753682E0,5.620765686E-2,-8.616924286E-2,3.503048420E-2
6.791748715E0,8.637690544E-2,-4.035472870E-2,6.591892242E-2
6.799745748E0,1.050915718E-1,-4.031181335E-3,6.785249710E-2
6.807742013E0,1.480402946E-1,6.343078613E-2,7.900631428E-2
6.815766969E0,1.931550503E-1,1.259546280E-1,7.288050652E-2
6.823763002E0,1.899130344E-1,1.954145432E-1,8.759355545E-2
6.831757804E0,2.262539864E-1,2.093906403E-1,7.281386852E-2
6.839753606E0,2.300789356E-1,2.180728912E-1,7.872629166E-2
6.847750562E0,2.209665775E-1,1.760873795E-1,8.142149448E-2
6.855744980E0,1.919164658E-1,1.481285095E-1,1.264525652E-1
6.863739860E0,1.624531746E-1,1.151609421E-1,1.301391125E-1
6.871766278E0,1.279828548E-1,9.881591797E-2,1.286345720E-1
6.879762080E0,1.005687714E-1,4.174995422E-2,1.272252798E-1
6.887758421E0,7.068681717E-2,-4.159641266E-2,1.142798662E-1
6.895753454E0,3.581094742E-2,-7.219219208E-2,8.533322811E-2
6.903748948E0,4.138064384E-2,-1.026954651E-1,6.445288658E-2
6.911745289E0,5.595493317E-2,-7.574176788E-2,2.282679081E-2
6.919741246E0,9.843015671E-2,-1.774501801E-2,-6.091833115E-3
6.927767510E0,1.662893295E-1,-7.782936096E-3,-4.405534267E-2
6.935762543E0,2.258284092E-1,1.630973816E-2,-7.926821709E-2
6.943758268E0,2.602460384E-1,-2.956390381E-3,-1.070423126E-1
6.951750994E0,2.934472561E-1,3.811836243E-3,-1.227074862E-1
6.959749488E0,2.756226063E-1,-2.789497375E-2,-1.597146988E-1
6.967746061E0,2.717649937E-1,-4.294300079E-2,-1.607043743E-1
6.975740940E0,2.180349827E-1,-4.354476929E-2,-1.474058628E-1
6.983766819E0,1.625647545E-1,-2.244281769E-2,-1.556820869E-1
6.991761929E0,1.319167614E-1,-3.947067261E-2,-1.378576756E-1
6.999758270E0,7.347488403E-2,-2.036285400E-2,-1.512421370E-1
7.007755226E0,2.544307709E-2,-5.866050720E-3,-1.361234188E-1
7.015749720E0,-5.044388771E-2,1.362419128E-2,-1.330875158E-1
7.023745370E0,-1.040556431E-1,4.288959503E-2,-1.659252644E-1
7.031741403E0,-1.571903229E-1,6.281566620E-2,-2.005577087E-1
7.039767282E0,-2.265145779E-1,5.440139771E-2,-2.362854481E-1
7.047763930E0,-2.307505608E-1,6.315803528E-2,-2.512860298E-1
7.055758502E0,-2.819073200E-1,6.538867950E-2,-2.880885601E-1
7.063754150E0,-2.601420879E-1,7.301044464E-2,-2.753430605E-1
7.071749337E0,-2.204411030E-1,6.198501587E-2,-2.567692995E-1
7.079745064E0,-1.774630547E-1,6.330776215E-2,-2.589758635E-1
7.087741327E0,-1.008234024E-1,8.615112305E-2,-2.088204622E-1
7.095766899E0,-1.007022858E-1,1.137113571E-1,-2.094687223E-1
7.103763239E0,-7.667565346E-2,1.579065323E-1,-2.083183527E-1
7.111755657E0,-1.097612381E-1,1.517763138E-1,-1.768102646E-1
7.119754075E0,-1.493139267E-1,1.170892715E-1,-1.980733871E-1
7.127750186E0,-1.616263390E-1,7.544136047E-2,-1.811486483E-1
7.135745219E0,-2.016527653E-1,7.473659515E-2,-1.643745899E-1
7.143741559E0,-2.237782478E-1,8.629035950E-2,-1.572825909E-1
7.151766592E0,-2.497968674E-1,1.267633438E-1,-1.193312407E-1
7.159762933E0,-2.562611103E-1,2.055635452E-1,-9.382450581E-2
7.167759197E0,-2.410078049E-1,2.676029205E-1,-1.164389849E-1
7.175753461E0,-2.545657158E-1,3.032865524E-1,-1.246317625E-1
7.183749726E0,-2.350635529E-1,3.005685806E-1,-1.350309849E-1
7.191744605E0,-2.588598728E-1,2.739315033E-1,-1.306033134E-1
7.199772253E0,-2.610917091E-1,1.922960281E-1,-1.042337418E-1
7.207767748E0,-2.582638264E-1,1.515016556E-1,-9.180438519E-2
7.215762550E0,-2.309567928E-1,7.014751434E-2,-2.427983284E-2
7.223758583E0,-1.960632801E-1,2.480220795E-2,1.210594177E-2
7.231753616E0,-1.443226337E-1,8.156776428E-3,1.470541954E-2
7.247746606E0,-4.921555519E-2,1.268100739E-2,5.729079247E-2
7.255771024E0,-5.856609344E-2,4.821205139E-2,5.180490017E-2
7.263766672E0,-5.365347862E-2,5.733299255E-2,6.285023689E-2
7.271760321E0,-5.114746094E-2,8.793735504E-2,9.988665581E-2
7.279758738E0,-7.020950317E-2,9.450817108E-2,1.316488981E-1
7.287755157E0,-5.555868149E-2,1.058197021E-1,1.532814503E-1
7.295749882E0,-8.664655685E-2,1.361160278E-1,1.647551060E-1
7.303745684E0,-1.131184101E-1,1.567029953E-1,1.757130623E-1
7.311770871E0,-1.302807331E-1,1.627950668E-1,1.623790264E-1
7.319767827E0,-1.095044613E-1,1.615648270E-1,1.751356125E-1
7.327763245E0,-1.009862423E-1,1.650247574E-1,1.590297222E-1
7.335757740E0,-5.211853981E-2,1.516313553E-1,1.692377329E-1
7.343753850E0,8.230209351E-3,1.668062210E-1,1.648771763E-1
7.351749807E0,8.473324776E-2,1.506700516E-1,1.579284668E-1
7.359745301E0,1.126692295E-1,1.749572754E-1,1.599502563E-1
7.367772642E0,1.494913101E-1,1.486768723E-1,1.469324827E-1
7.375766906E0,1.903078556E-1,1.316576004E-1,1.428214312E-1
7.383762862E0,1.896669865E-1,1.310901642E-1,1.212754250E-1
7.391757433E0,1.598606110E-1,7.769203186E-2,1.066424847E-1
7.399754006E0,1.249630451E-1,3.375148773E-2,1.157137156E-1
7.407750346E0,5.913400650E-2,-5.364418030E-3,1.175234318E-1
7.415744610E0,-1.452684402E-3,-3.716468811E-2,1.218266487E-1
7.423771335E0,-5.200362206E-2,-5.436801910E-2,8.851182461E-2
7.431763445E0,-1.022121906E-1,-3.058815002E-2,5.633866787E-2
7.439762555E0,-1.355772018E-1,-2.576637268E-2,7.545185089E-2
7.447758896E0,-1.258430481E-1,1.031017303E-2,6.419694424E-2
7.455753930E0,-8.050489426E-2,1.768779755E-2,5.839669704E-2
7.463749425E0,-1.398634911E-2,2.747249603E-2,6.038296223E-2
7.471744227E0,6.150126457E-2,4.676246643E-2,2.935874462E-2
7.479771337E0,9.093809128E-2,5.875015259E-2,2.482759953E-2
7.487767601E0,1.294739246E-1,3.230953217E-2,2.747607231E-2
7.495762711E0,1.438615322E-1,2.015304565E-2,6.022930145E-3
7.503758129E0,1.485815048E-1,2.947425842E-2,1.543259621E-2
7.511753008E0,1.555104256E-1,2.906227112E-2,3.857493401E-2
7.519750272E0,1.311659813E-1,5.723094940E-2,6.343984604E-2
7.527745998E0,7.548928261E-2,3.497695923E-2,4.229366779E-2
7.535771184E0,3.866863251E-2,5.091285706E-2,2.569854259E-2
7.543767294E0,-1.768374443E-2,5.244445801E-2,-1.157522202E-4
7.551762020E0,-7.677984238E-2,3.958511353E-2,-2.793431282E-2
7.559758054E0,-9.566187859E-2,-6.822586060E-3,-4.079842567E-2
7.567754164E0,-1.030645370E-1,-1.975059509E-2,-1.960659027E-2
7.575749504E0,-1.106364727E-1,-3.027725220E-2,-1.006424427E-2
7.583745230E0,-7.035565376E-2,-4.796600342E-2,-2.425825596E-2
7.591769032E0,-4.435110092E-2,-5.364418030E-2,-2.980232239E-5
7.599767219E0,3.266811371E-3,-4.971790314E-2,-6.853461266E-3
7.607763252E0,2.473187447E-2,-5.055809021E-2,-2.337968349E-2
7.615758363E0,4.183983803E-2,-4.415225983E-2,-1.624846458E-2
7.623753088E0,3.791761398E-2,-5.920124054E-2,-3.091192245E-2
7.631748890E0,6.574249268E-2,-6.459236145E-2,-3.409171104E-2
7.639745462E0,3.206706047E-2,-8.900928497E-2,-4.726159573E-2
7.647772033E0,3.499293327E-2,-1.516370773E-1,-3.938806057E-2
7.655767374E0,2.420234680E-2,-1.566724777E-1,-2.218616009E-2
7.663762253E0,4.267930984E-3,-1.353311539E-1,8.946776390E-3
7.671754287E0,-1.290607452E-2,-1.306982040E-1,-3.295540810E-3
7.679754243E0,-4.659771919E-2,-7.574558258E-2,1.783442497E-2
7.687750584E0,-5.174064636E-2,-4.238796234E-2,1.264095306E-2
7.695745463E0,-8.838462830E-2,-3.306007385E-2,2.733826637E-3
7.703771265E0,-1.086347103E-1,-3.814983368E-2,-1.888120174E-2
7.711766145E0,-1.292753220E-1,-5.525398254E-2,-2.097725868E-2
7.719763025E0,-1.354899406E-1,-1.058149338E-1,-2.758538723E-2
7.727759365E0,-1.463913918E-1,-9.645462036E-2,-1.958966255E-2
7.735754475E0,-1.591987610E-1,-7.979679108E-2,1.227033138E-2
7.743749970E0,-1.357226372E-1,-4.627895355E-2,-3.747344017E-3
7.751744080E0,-1.378915310E-1,-3.893375397E-2,-5.534768105E-3
7.759770882E0,-1.015758514E-1,-1.479911804E-2,-3.853058815E-2
7.767767915E0,-1.176614761E-1,-2.576828003E-3,-5.006778240E-2
7.775762949E0,-1.332936287E-1,-1.414871216E-2,-9.735095501E-2
7.783758367E0,-1.648724079E-1,-6.315231323E-3,-1.156849861E-1
7.791753246E0,-1.833250523E-1,-1.726245880E-2,-1.264133453E-1
7.799749587E0,-2.028560638E-1,8.129119873E-3,-1.366845369E-1
7.807746774E0,-1.854267120E-1,3.376007080E-4,-1.274228096E-1
7.815770576E0,-1.768300533E-1,2.147960663E-2,-8.456623554E-2
7.823766917E0,-1.557660103E-1,3.794574738E-2,-7.530975342E-2
7.831758951E0,-1.296451092E-1,6.163787842E-2,-5.420565605E-2
7.839757984E0,-1.298899651E-1,1.139945984E-1,-5.736553669E-2
7.847754709E0,-1.443696022E-1,1.615657806E-1,-5.109834671E-2
7.855749742E0,-1.231238842E-1,1.588382721E-1,-9.490299225E-2
7.863744236E0,-1.401374340E-1,1.872959137E-1,-1.072374582E-1
7.871770731E0,-1.260831356E-1,1.702976227E-1,-1.288439035E-1
7.879766765E0,-8.812212944E-2,1.652870178E-1,-1.119335890E-1
7.887763490E0,-4.779386520E-2,1.267480850E-1,-9.978246689E-2
7.895758600E0,2.248525620E-3,9.541511536E-2,-9.964978695E-2
7.903753095E0,2.833509445E-2,4.729461670E-2,-8.764493465E-2
7.911748512E0,4.014825821E-2,8.756637573E-3,-7.093048096E-2
7.919745084E0,3.762054443E-2,-1.544570923E-2,-3.524553776E-2
7.927771963E0,2.062082291E-2,1.775550842E-2,-3.322601318E-2
7.935767382E0,3.934693336E-2,5.568313599E-2,-1.689386368E-2
7.943762492E0,2.884268761E-2,9.351730347E-2,-2.907061577E-2
7.951757602E0,3.686857224E-2,1.001214981E-1,-3.609895706E-2
7.959753942E0,3.461813927E-2,7.548999786E-2,-4.509699345E-2
7.967750591E0,4.842948914E-2,7.226943970E-2,-2.990472317E-2
7.975745316E0,5.451822281E-2,5.217456818E-2,-3.134560585E-2
7.983771272E0,6.988286972E-2,5.593967438E-2,-1.603460312E-2
7.991764152E0,7.779359818E-2,5.482196808E-2,-8.984804153E-4
7.999762416E0,8.793234825E-2,8.474731445E-2,4.424810410E-3
8.007758757E0,9.771656990E-2,1.001682281E-1,4.649281502E-3
8.015753867E0,7.872056961E-2,9.397315979E-2,1.410686970E-2
8.023749823E0,7.649207115E-2,1.092796326E-1,2.086734772E-2
8.031744702E0,7.206916809E-2,1.174173355E-1,2.980589867E-2
8.039771505E0,4.393219948E-2,1.303644180E-1,4.570603371E-2
8.047768154E0,4.966545105E-2,1.194200516E-1,3.267002106E-2
8.055762879E0,6.772780418E-2,1.085395813E-1,4.820835590E-2
8.063758604E0,1.000947952E-1,1.000299454E-1,2.780389786E-2
8.071753176E0,1.060700417E-1,8.668994904E-2,3.595852852E-2
8.079749209E0,1.188981533E-1,9.483814240E-2,1.550555229E-2
8.087745550E0,1.220159531E-1,7.899570465E-2,4.286122322E-2
8.095771353E0,1.154565811E-1,7.985973358E-2,2.454876900E-2
8.103767078E0,1.304869652E-1,6.394100189E-2,3.714346886E-2
8.111761880E0,1.785008907E-1,7.896327972E-2,3.264904022E-2
8.119758529E0,1.804769039E-1,9.145641327E-2,6.591677666E-3
8.127754254E0,1.958098412E-1,1.157121658E-1,-2.880465984E-2
8.135749364E0,2.031645775E-1,1.110935211E-1,-5.911922455E-2
8.143745397E0,2.074348927E-1,1.207370758E-1,-9.618782997E-2
8.151769739E0,2.158164978E-1,9.198379517E-2,-1.064431667E-1
8.159766695E0,2.094008923E-1,5.844783783E-2,-1.207704544E-1
8.167763113E0,2.122447491E-1,2.730846405E-2,-1.106446981E-1
8.175758146E0,2.219107151E-1,1.289463043E-2,-8.818447590E-2
8.183754179E0,2.119522095E-1,8.201599121E-4,-9.166586399E-2
8.191748673E0,2.134444714E-1,5.433082581E-3,-9.238314629E-2
8.199775168E0,1.999089718E-1,1.234912872E-2,-1.045879126E-1
8.207772740E0,2.166821957E-1,4.739761353E-3,-9.497487545E-2
8.215767004E0,1.778559685E-1,-2.968788147E-3,-8.273327351E-2
8.223762652E0,1.768662930E-1,1.077747345E-2,-8.466219902E-2
8.231757455E0,1.658530235E-1,-1.389026642E-2,-6.976616383E-2
8.239753257E0,1.666581631E-1,-3.143405914E-2,-5.017244816E-2
8.247750213E0,1.411488056E-1,-3.705692291E-2,-3.329503536E-2
8.255744708E0,1.632223129E-1,-3.083801270E-2,-7.149338722E-3
8.263771742E0,1.349868774E-1,-1.993274689E-2,1.361644268E-2
8.271765698E0,9.719347954E-2,2.862930298E-3,3.144788742E-2
8.279762885E0,9.512853622E-2,1.595687866E-2,4.400753975E-2
8.287758610E0,7.139968872E-2,7.404327393E-3,6.571018696E-2
8.295753181E0,1.665186882E-2,2.037239075E-2,7.991409302E-2
8.303749753E0,-1.394724846E-2,2.243995667E-3,9.638416767E-2
8.311775018E0,-3.008294106E-2,-1.110363007E-2,1.078776121E-1
8.319771128E0,-6.275057793E-2,-3.400230408E-2,1.335784197E-1
8.327768391E0,-6.178402901E-2,-5.213069916E-2,1.302319765E-1
8.335762271E0,-5.558848381E-2,-6.543159485E-2,1.384042501E-1
8.343757919E0,-7.288980484E-2,-4.278945923E-2,1.436263323E-1
8.351753029E0,-8.479857445E-2,-1.528930664E-2,1.458942890E-1
8.359749370E0,-9.115648270E-2,7.517814636E-3,1.522861719E-1
8.367776173E0,-7.520890236E-2,-1.027488708E-2,1.412969828E-1
8.375770975E0,-7.773828506E-2,3.667545319E-2,1.441681385E-1
8.383766470E0,-7.489824295E-2,3.104782104E-2,1.394995451E-1
8.391762810E0,-8.572101593E-2,3.748893738E-2,1.462503672E-1
8.399758151E0,-7.450652122E-2,4.157543182E-2,1.572072506E-1
8.407754799E0,-7.260632515E-2,3.369617462E-2,1.557657719E-1
8.415749909E0,-9.198403358E-2,-1.488304138E-2,1.467132568E-1
8.423774943E0,-8.255982399E-2,-3.956508636E-2,1.444319487E-1
8.431770669E0,-1.161620617E-1,-6.425094604E-2,1.348294020E-1
8.439766933E0,-1.473922729E-1,-8.656120300E-2,1.179834604E-1
8.447763581E0,-1.618731022E-1,-9.210968018E-2,8.922600746E-2
8.455757768E0,-1.857285500E-1,-9.280490875E-2,8.688509464E-2
8.463753570E0,-1.972537041E-1,-1.053695679E-1,9.419679642E-2
8.471749218E0,-2.011635303E-1,-1.202440262E-1,1.061445475E-1
8.479775714E0,-1.928694248E-1,-8.239555359E-2,8.692073822E-2
8.487771516E0,-1.961870193E-1,-1.042900085E-1,6.783378124E-2
8.495766857E0,-1.920599937E-1,-1.093225479E-1,6.335568428E-2
8.503762659E0,-1.783065796E-1,-9.276390076E-2,5.429327488E-2
8.511757385E0,-2.071692944E-1,-7.366085052E-2,6.697499752E-2
8.519752879E0,-1.997649670E-1,-2.096176147E-2,8.676588535E-2
8.527750066E0,-2.111401558E-1,-1.606464386E-2,7.774209976E-2
8.535775331E0,-1.938176155E-1,2.713394165E-2,5.679154396E-2
8.543771056E0,-1.861550808E-1,3.200721741E-2,4.545819759E-2
8.551764089E0,-1.881344318E-1,3.353118896E-3,2.222228050E-2
8.559761584E0,-1.926105022E-1,1.297569275E-2,2.770507336E-2
8.567758617E0,-1.945302486E-1,5.880355835E-3,3.080129623E-2
8.575753727E0,-2.036249638E-1,1.794528961E-2,2.677047253E-2
8.583748837E0,-2.151074409E-1,3.959941864E-2,1.325285435E-2
8.591775332E0,-1.932668686E-1,2.291870117E-2,-4.911184311E-3
8.599771673E0,-1.623041630E-1,1.373291016E-3,-1.324176788E-2
8.607767937E0,-1.770102978E-1,-1.045227051E-3,-3.579783440E-2
8.615761585E0,-1.348512173E-1,-3.575325012E-3,-5.809915066E-2
8.623758464E0,-8.400344849E-2,3.290176392E-3,-7.294070721E-2
8.631753266E0,-4.131150246E-2,-4.273414612E-2,-9.955811501E-2
8.639749300E0,1.212334633E-2,-7.941722870E-2,-1.424555779E-1
8.647777026E0,-6.956577301E-3,-1.424932480E-1,-1.774309874E-1
8.655771213E0,9.226322174E-3,-1.697006226E-1,-1.853302717E-1
8.663766630E0,1.751613617E-2,-1.874217987E-1,-1.854693890E-1
8.671761509E0,-1.055455208E-2,-1.931867599E-1,-1.801958084E-1
8.679758081E0,-6.264114380E-2,-1.701316833E-1,-1.862151623E-1
8.687754729E0,-1.263251305E-1,-1.109371185E-1,-1.770417690E-1
8.695749302E0,-1.203706264E-1,-4.199886322E-2,-1.719505787E-1
8.703776104E0,-1.357111931E-1,3.162384033E-3,-1.566425562E-1
8.711770214E0,-1.318190098E-1,3.884410858E-2,-1.528145075E-1
8.719766247E0,-1.348395348E-1,4.836940765E-2,-1.722310781E-1
8.727763511E0,-1.353428364E-1,4.598426819E-2,-1.339741945E-1
8.735758005E0,-1.166274548E-1,7.948589325E-2,-1.151256561E-1
8.743753423E0,-9.753203392E-2,7.949447632E-2,-9.671556950E-2
8.751748611E0,-6.590533257E-2,6.279945374E-2,-8.842706680E-2
8.759775952E0,-4.359292984E-2,8.674621582E-2,-4.024195671E-2
8.767771138E0,-4.228973389E-2,1.250457764E-1,-1.934468746E-2
8.775766248E0,-4.287862778E-2,1.585721970E-1,-4.945397377E-2
8.783762204E0,-3.105974197E-2,1.634159088E-1,-4.406177998E-2
8.791756776E0,-3.582143784E-2,1.826410294E-1,-5.802130699E-2
8.799753348E0,-5.937886238E-2,2.331018448E-1,-6.946921349E-2
8.807749997E0,-8.251833916E-2,2.429771423E-1,-6.410622597E-2
8.815775261E0,-6.210017204E-2,2.506017685E-1,-5.620002747E-2
8.823771909E0,-3.630256653E-2,2.919321060E-1,-5.285823345E-2
8.831765865E0,-7.640838623E-3,2.950925827E-1,-4.463231564E-2
8.839762206E0,4.535984993E-2,2.864007950E-1,-3.390872478E-2
8.847759085E0,8.904623985E-2,2.370872498E-1,-2.070605755E-2
8.855753658E0,1.160128117E-1,1.710042953E-1,-7.623910904E-3
8.863748998E0,1.190862656E-1,1.145038605E-1,-1.372802258E-2
8.871774877E0,1.126613617E-1,6.515216827E-2,-1.014113426E-3
8.879770987E0,1.089656353E-1,2.303600311E-2,-7.663607597E-3
8.887767328E0,1.006951332E-1,4.885673523E-3,-1.192092896E-4
8.895762053E0,7.840061188E-2,-6.024360657E-3,-1.431787014E-2
8.903758086E0,8.980536461E-2,-1.930046082E-2,9.694337845E-3
8.911752659E0,8.453845978E-2,-8.643150330E-3,2.390742302E-3
8.919749615E0,6.970024109E-2,2.354717255E-2,1.415419579E-2
8.927776648E0,6.176376343E-2,5.087757111E-2,9.172916412E-3
8.935771450E0,6.809568405E-2,5.903720856E-2,2.339315414E-2
8.943766329E0,8.110642433E-2,8.384418488E-2,8.990526199E-3
8.951758593E0,8.420538902E-2,7.746982574E-2,6.769299507E-3
8.959757165E0,1.012084484E-1,6.859779358E-2,2.377307415E-2
8.967754045E0,1.081480980E-1,5.961322784E-2,4.942655563E-3
8.975749155E0,1.219279766E-1,6.012916565E-2,1.490819454E-2
8.983775111E0,1.232693195E-1,6.052780151E-2,5.710721016E-3
8.991770759E0,1.505248547E-1,3.446197510E-2,1.074469090E-2
8.999767100E0,1.177875996E-1,4.186630249E-2,1.808512211E-2
9.007762595E0,1.351997852E-1,4.200935364E-2,1.796233654E-2
9.015758244E0,1.619169712E-1,5.164051056E-2,2.727615833E-2
9.023753739E0,1.357650757E-1,7.796096802E-2,5.325555801E-3
9.031748541E0,1.405909061E-1,8.747005463E-2,1.919972897E-2
9.039775343E0,1.261813641E-1,6.102848053E-2,1.859307289E-2
9.047772222E0,1.308150291E-1,5.128669739E-2,2.976095676E-2
9.055766409E0,1.613657475E-1,6.776714325E-2,1.701116562E-4
9.063762134E0,1.530942917E-1,6.493282318E-2,2.305757999E-2
9.071756938E0,1.611242294E-1,6.677246094E-2,-9.135484695E-3
9.079753355E0,1.306734085E-1,5.182647705E-2,-2.444112301E-2
9.087750004E0,1.242690086E-1,3.212165833E-2,-8.590102196E-3
9.095775191E0,1.297609806E-1,3.396034241E-2,-7.014870644E-3
9.103771300E0,9.479141235E-2,2.627658844E-2,3.042721748E-2
9.111763257E0,8.871531487E-2,3.778362274E-2,3.434360027E-2
9.119762367E0,8.032870293E-2,3.734016418E-2,2.147471905E-2
9.127759016E0,8.159685135E-2,5.129909515E-2,6.345510483E-3
9.135753510E0,4.690003395E-2,8.206367493E-2,-1.080489159E-2
9.143749313E0,6.251168251E-2,7.935047150E-2,-1.402854919E-3
9.151774884E0,7.073616982E-2,9.336948395E-2,-8.625745773E-3
9.159771456E0,6.470274925E-2,9.066200256E-2,-1.579022408E-2
9.167767258E0,7.775115967E-2,8.797264099E-2,-2.512335777E-2
9.175762292E0,8.117699623E-2,7.089233398E-2,-1.778054237E-2
9.183757479E0,6.544756889E-2,6.336879730E-2,-8.166909218E-3
9.191752281E0,7.377600670E-2,4.149532318E-2,-1.061785221E-2
9.199748853E0,6.312394142E-2,4.838085175E-2,-5.977272987E-3
9.207776039E0,4.298448563E-2,5.050659180E-2,-3.695964813E-3
9.215771380E0,3.253269196E-2,5.507469177E-2,-2.522683144E-2
9.223766490E0,1.986241341E-2,4.531192780E-2,-6.129860878E-3
9.231761678E0,1.923704147E-2,4.755210876E-2,-3.698229790E-3
9.239758249E0,2.825546265E-2,5.701351166E-2,-1.310789585E-2
9.247754052E0,2.526545525E-2,9.040355682E-2,-2.015256882E-2
9.255779239E0,3.914976120E-2,5.439281464E-2,-2.238309383E-2
9.263775579E0,4.108715057E-2,6.388282776E-2,-1.740300655E-2
9.271767612E0,2.646446228E-2,5.426216125E-2,-1.487433910E-2
9.279766415E0,5.029654503E-2,3.269100189E-2,-2.681314945E-2
9.287761910E0,3.831124306E-2,2.072620392E-2,-2.915072441E-2
9.295758174E0,3.833770752E-2,3.962516785E-3,-2.442359924E-2
9.303754207E0,2.651047707E-2,1.119899750E-2,-3.867661953E-2
9.311749086E0,7.482290268E-3,-6.980895996E-4,-2.884268761E-2
9.319776504E0,-1.138019562E-2,4.208564758E-3,1.713037491E-4
9.327771921E0,-8.706569672E-3,2.586746216E-2,-9.148955345E-3
9.335766416E0,1.799011230E-2,4.034233093E-2,1.011633873E-2
9.343761758E0,8.543491364E-3,4.279899597E-2,-1.660585403E-3
9.351757791E0,3.688335419E-3,4.279136658E-2,-1.611590385E-3
9.359753208E0,-1.560544968E-2,5.713272095E-2,-2.786350250E-2
9.367779703E0,-1.107621193E-2,4.751777649E-2,-3.727138042E-2
9.375776044E0,-2.108907700E-2,5.700874329E-2,-2.753329277E-2
9.383771153E0,-4.307508469E-2,8.327007294E-2,-3.448617458E-2
9.391766034E0,-1.963376999E-2,6.164073944E-2,-1.502978802E-2
9.399761759E0,-2.494955063E-2,4.240417480E-2,-1.710128784E-2
9.407758638E0,-3.277444839E-2,8.751869202E-3,-9.721159935E-3
9.415753748E0,-3.104996681E-2,-3.369331360E-3,-2.396595478E-2
9.423780320E0,-3.874611855E-2,2.763175964E-2,-1.912558079E-2
9.431771353E0,-6.520915031E-2,1.561737061E-2,-4.792487621E-2
9.439770847E0,-6.714868546E-2,2.528381348E-2,-2.893733978E-2
9.447767420E0,-5.655479431E-2,2.072906494E-2,-1.473402977E-2
9.455762299E0,-6.702113152E-2,1.869487762E-2,-2.206742764E-2
9.463758332E0,-5.557966232E-2,3.831768036E-2,-1.971936226E-2
9.471753057E0,-7.742595673E-2,5.561161041E-2,-1.731586456E-2
9.479779936E0,-5.374526978E-2,5.139350891E-2,-2.671086788E-2
9.487775969E0,-8.042240143E-2,3.042602539E-2,-2.394723892E-2
9.495770464E0,-5.925679207E-2,2.302169800E-3,-1.853454113E-2
9.503766421E0,-2.870965004E-2,-9.085655212E-3,-2.973580360E-2
9.511760992E0,-1.976466179E-2,-1.568794250E-2,-1.691663265E-2
9.519757641E0,1.070213318E-2,-2.947998047E-2,-1.127839088E-2
9.527753905E0,4.113054276E-2,-5.767726898E-2,-1.035213470E-3
9.535779861E0,4.544568062E-2,-4.994106293E-2,-1.736557484E-2
9.543774971E0,4.507422447E-2,-2.544403076E-2,-1.947736740E-2
9.551770005E0,2.080202103E-2,-5.759239197E-3,-1.462829113E-2
9.559766730E0,1.326894760E-2,3.306102753E-2,-2.181959152E-2
9.567762148E0,8.192062378E-4,1.199913025E-2,1.172196865E-2
9.575757796E0,-1.170897484E-2,3.160858154E-2,4.041147232E-2
9.583753906E0,-2.197575569E-2,5.357456207E-2,4.514026642E-2
9.591776939E0,-1.811480522E-2,3.239250183E-2,5.470120907E-2
9.599775741E0,-2.156400681E-2,1.118755341E-2,3.797698021E-2
9.607771775E0,5.972385406E-3,-2.202701569E-2,2.363514900E-2
9.615766578E0,-9.603023529E-3,-1.213455200E-2,3.332996368E-2
9.623761764E0,-8.299827576E-3,1.453590393E-2,5.971002579E-2
9.631756874E0,-2.084970474E-3,4.119110107E-2,6.425130367E-2
9.639753138E0,3.523731232E-2,4.388713837E-2,5.914771557E-2
9.647781171E0,4.106616974E-2,5.604076385E-2,5.863916874E-2
9.655775666E0,3.945064545E-2,2.261447906E-2,6.038236618E-2
9.663771700E0,3.025603294E-2,2.497291565E-2,6.194889545E-2
9.671764348E0,2.322745323E-2,3.924274445E-2,5.869483948E-2
9.679761689E0,2.817177773E-2,-1.570701599E-3,6.730246544E-2
9.687758337E0,-3.697872162E-4,-1.128196716E-2,8.051967621E-2
9.695753140E0,3.083634377E-2,-7.610511780E-2,9.121870995E-2
9.703779557E0,1.663756371E-2,-1.122245789E-1,9.203302860E-2
9.711774744E0,2.644705772E-2,-1.411952972E-1,1.045002937E-1
9.719771316E0,7.774591446E-3,-1.390533447E-1,1.093307734E-1
9.727767657E0,-2.249312401E-2,-1.153326035E-1,1.257247925E-1
9.735762536E0,-1.872086525E-2,-1.083211899E-1,1.320422888E-1
9.743757646E0,-1.196265221E-2,-2.703094482E-2,1.354260445E-1
9.751752756E0,-1.895594597E-2,2.557945251E-2,1.405634880E-1
9.759780097E0,-1.105570793E-2,1.189298630E-1,1.403553486E-1
9.767776439E0,-1.726388931E-2,1.787776947E-1,1.039559841E-1
9.775770702E0,-3.298711777E-2,2.194776535E-1,8.428156376E-2
9.783766966E0,-3.669953346E-2,2.051210403E-1,9.097385406E-2
9.791761769E0,-5.256342888E-2,2.026910782E-1,9.291386604E-2
9.799758109E0,-3.747415543E-2,1.404113770E-1,8.318674564E-2
9.807753835E0,-3.453302383E-2,6.616115570E-2,9.292316437E-2
9.815779406E0,-1.765608788E-2,-2.971553802E-2,1.052237749E-1
9.823775209E0,-8.055925369E-3,-1.231956482E-1,1.200830936E-1
9.831766935E0,-3.395795822E-3,-1.449098587E-1,1.252554655E-1
9.839766352E0,-1.062703133E-2,-1.570224762E-1,9.936404228E-2
9.847762616E0,1.075387001E-2,-1.691379547E-1,9.756600857E-2
9.855757188E0,-6.268501282E-3,-1.501522064E-1,8.382332325E-2
9.863753451E0,1.473999023E-2,-1.097049713E-1,7.955157757E-2
9.871778715E0,-1.253747940E-2,-5.021381378E-2,7.285356522E-2
9.879775441E0,2.917289734E-3,-5.175590515E-3,7.093405724E-2
9.887772705E0,-1.545739174E-2,3.737449646E-2,7.373094559E-2
9.895766507E0,-3.423190117E-2,7.025051117E-2,5.977547169E-2
9.903762540E0,-3.161835670E-2,6.476974487E-2,5.535411835E-2
9.911757035E0,-2.189326286E-2,8.321285248E-2,2.459025383E-2
9.919753145E0,-2.434325218E-2,9.204959869E-2,5.946874619E-3
9.927780256E0,-1.948928833E-2,1.248960495E-1,-1.006317139E-2
9.935775366E0,-2.670621872E-2,1.290178299E-1,-1.632571220E-2
9.943770783E0,-4.111981392E-2,1.403474808E-1,-3.437101841E-2
9.951765817E0,-3.870272636E-2,1.613159180E-1,-4.497897625E-2
9.959762157E0,-2.901768684E-2,1.248407364E-1,-4.601645470E-2
9.967758267E0,-4.303741455E-2,9.082126617E-2,-4.462468624E-2
9.975754223E0,-4.240918159E-2,7.600879669E-2,-3.853523731E-2
9.983779565E0,-4.149460793E-2,6.126213074E-2,-5.640220642E-2
9.991773060E0,-6.177759171E-2,5.618190765E-2,-4.311144352E-2
9.999770400E0,-5.526685715E-2,4.643630981E-2,-5.848610401E-2
1.000776728E1,-7.011485100E-2,6.792831421E-2,-9.740936756E-2
1.001576208E1,-6.583213806E-2,7.989501953E-2,-9.768295288E-2
1.002375781E1,-8.809208870E-2,1.158370972E-1,-1.166343689E-1
1.003175269E1,-8.678078651E-2,1.135063171E-1,-1.324708462E-1
1.003977941E1,-4.788017273E-2,1.254653931E-1,-1.405413151E-1
1.004777614E1,-3.826189041E-2,1.374053955E-1,-1.527490616E-1
1.005577063E1,-1.472592354E-2,1.373710632E-1,-1.547772884E-1
1.006376690E1,2.054548264E-2,1.493282318E-1,-1.635358334E-1
1.007176108E1,4.841256142E-2,1.469335556E-1,-1.671265364E-1
1.007975712E1,4.526424408E-2,1.350431442E-1,-1.799632311E-1
1.008775438E1,4.953050613E-2,1.184587479E-1,-1.758499146E-1
1.009577911E1,3.487133980E-2,1.019983292E-1,-1.952664852E-1
1.010377506E1,-1.038479805E-2,8.093261719E-2,-1.904184818E-1
1.011177048E1,-4.049611092E-2,6.730937958E-2,-1.827788353E-1
1.011976682E1,-5.795860291E-2,3.711032867E-2,-1.510854959E-1
1.012776316E1,-8.418536186E-2,4.061412811E-2,-1.218453646E-1
1.013575704E1,-8.568048477E-2,1.075744629E-2,-8.803260326E-2
1.014375315E1,-6.991291046E-2,-4.629135132E-3,-1.021604538E-1
1.015177649E1,-7.060670853E-2,6.422042847E-3,-1.161175966E-1
1.015977468E1,-9.027886391E-2,1.519107819E-2,-1.296581030E-1
1.016777164E1,-1.050431728E-1,7.289886475E-3,-1.164718866E-1
1.017576651E1,-8.848071098E-2,-1.008796692E-2,-1.077543497E-1
1.018376155E1,-7.662272453E-2,-2.744388580E-2,-7.028818130E-2
1.019175735E1,-4.308152199E-2,-4.477787018E-2,-4.240942001E-2
1.019978438E1,-9.435892105E-3,-5.735683441E-2,-3.402495384E-2
1.020778049E1,2.579689026E-4,-4.364681244E-2,-9.105086327E-3
1.021577499E1,-1.152873039E-2,-2.273082733E-2,-4.158520699E-2
1.022377156E1,-3.035306931E-2,-2.813434601E-2,-2.627241611E-2
1.023176521E1,-4.446244240E-2,-1.915645599E-2,-3.466272354E-2
1.023976240E1,-6.800508499E-2,-4.127597809E-2,-9.544610977E-3
1.024775820E1,-7.454371452E-2,-3.701782227E-2,3.704643250E-2
1.025578346E1,-6.135749817E-2,-5.903434753E-2,7.844221592E-2
1.026377950E1,-5.228662491E-2,1.718139648E-2,1.241407394E-1
1.027177461E1,-3.016781807E-2,8.156871796E-2,1.428624392E-1
1.027977087E1,-4.541110992E-2,1.388435364E-1,1.679342985E-1
1.028776752E1,-7.901930809E-2,1.674251556E-1,1.562526226E-1
1.029576209E1,-8.827757835E-2,1.792287827E-1,1.415606737E-1
1.030375720E1,-1.308944225E-1,1.478853226E-1,1.575415134E-1
1.031178300E1,-1.449716091E-1,1.260194778E-1,1.445078850E-1
1.031977996E1,-1.570875645E-1,1.088142395E-1,1.577039957E-1
1.032777630E1,-8.355069160E-2,6.984424591E-2,1.967208385E-1
1.033577079E1,1.049804688E-2,6.592750549E-3,2.112152576E-1
1.034376683E1,1.052482128E-1,3.633499146E-4,1.751092672E-1
1.035176163E1,1.452109814E-1,6.071472168E-2,1.056132317E-1
1.035975743E1,1.687419415E-1,1.398630142E-1,2.956390381E-2
1.036778362E1,1.665253639E-1,1.708583832E-1,-3.130114079E-2
1.037577904E1,1.726629734E-1,1.825571060E-1,-4.111170769E-2
1.038377530E1,2.136282921E-1,1.605520248E-1,-3.860533237E-2
1.039176672E1,2.366411686E-1,1.119966507E-1,-3.816568851E-2
1.039976621E1,2.063620090E-1,2.026939392E-2,-3.494739532E-2
1.040776309E1,1.996581554E-1,-6.190204620E-2,-5.016326904E-3
1.041575728E1,1.835453510E-1,-8.418655396E-2,4.404842854E-2
1.042378416E1,1.706528664E-1,-9.908866882E-2,3.094339371E-2
1.043177858E1,1.896328926E-1,-5.638790131E-2,5.121171474E-2
1.043977522E1,2.020759583E-1,-5.190753937E-2,3.999996185E-2
1.044777156E1,2.029671669E-1,-5.216598511E-2,4.048979282E-2
1.045576668E1,2.020039558E-1,-9.306621552E-2,4.301142693E-2
1.046376217E1,1.705019474E-1,-1.315107346E-1,4.270339012E-2
1.047175697E1,1.229991913E-1,-1.530961990E-1,5.152618885E-2
1.047978347E1,8.817481995E-2,-1.315031052E-1,9.341895580E-2
1.048777981E1,7.279634476E-2,-1.386375427E-1,9.900808334E-2
1.049577461E1,8.120560646E-2,-1.721916199E-1,9.473931789E-2
1.050377034E1,5.304837227E-2,-1.699962616E-1,9.277188778E-2
1.051176575E1,7.429361343E-3,-2.134399414E-1,7.411324978E-2
1.051976232E1,1.366496086E-2,-2.594766617E-1,5.776059628E-2
1.052775874E1,-2.382540703E-2,-2.960834503E-1,3.658986092E-2
1.053578370E1,-4.772472382E-2,-3.041658401E-1,4.398870468E-2
1.054377966E1,-6.288337708E-2,-2.813444138E-1,9.223222733E-4
1.055177169E1,-5.504703522E-2,-2.444257736E-1,-1.728415489E-3
1.055977049E1,-5.518841743E-2,-2.053384781E-1,1.554489136E-4
1.056776776E1,-7.527613640E-2,-1.377725601E-1,-2.230763435E-2
1.057576163E1,-1.271748543E-1,-6.562805176E-2,-1.151156425E-2
1.058375744E1,-1.626157761E-1,8.798599243E-3,-3.925180435E-2
1.059178270E1,-1.743938923E-1,7.355499268E-2,-2.401626110E-2
1.059977966E1,-1.699097157E-1,9.500503540E-2,9.848594666E-3
1.060777561E1,-2.110548019E-1,1.450510025E-1,3.120052814E-2
1.061577072E1,-2.544131279E-1,1.710653305E-1,3.029751778E-2
1.062376645E1,-2.713754177E-1,1.826276779E-1,-9.428381920E-3
1.063176071E1,-3.499137163E-1,1.823673248E-1,-6.352579594E-2
1.063975759E1,-3.771892786E-1,1.537599564E-1,-1.286691427E-1
1.064778386E1,-3.957544565E-1,1.137561798E-1,-1.446679831E-1
1.065577927E1,-4.313021898E-1,3.625392914E-2,-1.805032492E-1
1.066377500E1,-4.281917810E-1,-3.783226013E-2,-2.166330814E-1
1.067177003E1,-3.821049929E-1,-6.296253204E-2,-3.382779360E-1
1.067976645E1,-3.159971237E-1,-9.458160400E-2,-3.469815254E-1
1.068776302E1,-2.637655735E-1,-8.038330078E-2,-2.945674658E-1
1.069377412E1,-2.300727367E-1,-1.283798218E-1,-2.043248415E-1
1.069575721E1,-2.300727367E-1,-1.355619431E-1,-1.851712465E-1
1.070378347E1,-2.254431248E-1,-1.745090485E-1,-3.524839878E-2
1.071177666E1,-2.805733681E-1,-1.637191772E-1,7.551205158E-2
1.071977462E1,-3.110209703E-1,-1.770801544E-1,7.872462273E-2
1.072777188E1,-3.150042295E-1,-1.356058121E-1,5.649757385E-2
1.073576699E1,-3.190037012E-1,-1.205568314E-1,1.226258278E-2
1.074376179E1,-3.511584997E-1,-6.934928894E-2,-4.806053638E-2
1.075175744E1,-3.774262667E-1,-4.882049561E-2,-7.610476017E-2
1.075978370E1,-3.671528101E-1,3.188133240E-3,-1.053138971E-1
1.076777997E1,-2.926803827E-1,-3.091526031E-2,-1.118757725E-1
1.077577516E1,-2.028036118E-1,-5.806446075E-2,-1.203337908E-1
1.078377142E1,-1.646006107E-1,-7.362174988E-2,-6.209838390E-2
1.079176561E1,-1.300654411E-1,-3.223705292E-2,-1.234221458E-2
1.079976264E1,-1.363532543E-1,-2.235984802E-2,5.450904369E-2
1.080775775E1,-1.397852898E-1,1.841354370E-2,3.566288948E-2
1.081578324E1,-1.023173332E-1,5.408000946E-2,8.898353577E-2
1.082377966E1,-5.062603951E-2,7.255935669E-2,1.736164093E-1
1.083177470E1,-4.191756248E-2,2.831649780E-2,3.895264864E-1
1.083977042E1,6.210350990E-2,-5.967044830E-2,5.402268171E-1
1.084776746E1,1.548852921E-1,-9.596729279E-2,6.014916897E-1
1.085576226E1,2.306687832E-1,-1.285982132E-1,6.001799107E-1
1.086375737E1,2.049012184E-1,-7.865428925E-2,5.679020882E-1
1.087178009E1,1.545250416E-1,-5.360412598E-2,5.082294941E-1
1.087977928E1,1.066536903E-1,-6.740474701E-2,4.320236444E-1
1.088777554E1,1.003663540E-1,-1.077690125E-1,3.735767603E-1
1.089577073E1,1.430888176E-1,-1.673316956E-1,3.143769503E-1
1.090376669E1,1.869959831E-1,-1.814241409E-1,2.879654169E-1
1.091176149E1,2.275276184E-1,-1.715717316E-1,2.726047039E-1
1.091975691E1,2.263596058E-1,-1.306533813E-1,2.368904352E-1
1.092778525E1,2.124023438E-1,-1.137886047E-1,2.234143019E-1
1.093577920E1,2.123243809E-1,-7.318401337E-2,2.577064037E-1
1.094377493E1,2.237479687E-1,6.036758423E-4,3.127723932E-1
1.095176696E1,2.582569122E-1,7.148075104E-2,3.355722427E-1
1.095976600E1,3.271117210E-1,1.032590866E-1,3.687959909E-1
1.096776272E1,4.629237652E-1,7.175540924E-2,3.861106634E-1
1.097575775E1,6.756107807E-1,-2.346801758E-2,3.665034771E-1
1.098357301E1,8.913133144E-1,-6.550884247E-2,3.896856308E-1
1.099156842E1,1.071569681E0,-6.317996979E-2,4.233715534E-1
1.099956383E1,1.199077606E0,-1.560211182E-2,4.892897606E-1
1.100756100E1,1.271934271E0,2.221107483E-2,5.519495010E-1
1.101555610E1,1.335039139E0,-7.115364075E-3,5.960152149E-1
1.102355120E1,1.432838917E0,-5.092144012E-2,6.061568260E-1
1.103154568E1,1.586828232E0,-1.330776215E-1,8.988685608E-1
1.103957316E1,1.819977760E0,-3.085460663E-1,9.106862545E-1
1.104756918E1,2.222834110E0,-5.048427582E-1,1.025221586E0
1.105556428E1,2.686974525E0,-7.092599869E-1,1.102118969E0
1.106355969E1,2.916691780E0,-8.279132843E-1,1.019644499E0
1.107155471E1,2.964207411E0,-8.218936920E-1,8.996276855E-1
1.107955142E1,2.786463261E0,-7.728443146E-1,7.854454517E-1
1.108754706E1,2.485689640E0,-7.498893738E-1,6.245288849E-1
1.109557269E1,2.295166731E0,-7.360181808E-1,5.874538422E-1
1.110356802E1,2.210303068E0,-7.527427673E-1,6.296072006E-1
1.111156320E1,2.101195812E0,-7.211475372E-1,7.333755493E-1
1.111955860E1,2.023640633E0,-7.141351700E-1,8.819026947E-1
1.112755616E1,1.965199947E0,-6.118984222E-1,6.645874977E-1
1.113555057E1,2.011005402E0,-5.126409531E-1,6.670885086E-1
1.114354636E1,2.055384159E0,-4.469137192E-1,6.784341335E-1
1.115157215E1,2.019033432E0,-4.141483307E-1,6.045038700E-1
1.115956824E1,1.853291988E0,-4.042339325E-1,5.095083714E-1
1.116756419E1,1.571289539E0,-2.943048477E-1,3.150682449E-1
1.117555967E1,1.257833958E0,-1.695947647E-1,1.507639885E-2
1.118355500E1,8.891272545E-1,-5.827522278E-2,-3.175890446E-1
1.119155079E1,4.906377792E-1,-3.290843964E-2,-5.234498978E-1
1.119954681E1,1.330833435E-1,-4.719066620E-2,-5.947000980E-1
1.120757383E1,-1.029448509E-1,-3.616046906E-2,-7.209060192E-1
1.121556801E1,-2.138390541E-1,-3.357219696E-2,-7.782037258E-1
1.122356410E1,-2.926235199E-1,2.612686157E-2,-5.462789536E-1
1.123155889E1,-3.663697243E-1,1.543536186E-1,-4.023563862E-1
1.123955522E1,-5.193209648E-1,2.877993584E-1,-2.878518105E-1
1.124755209E1,-6.480078697E-1,4.431791306E-1,-2.190871239E-1
1.125557673E1,-7.531328201E-1,5.782480240E-1,-3.091852665E-1
1.126357252E1,-8.641552925E-1,7.258005142E-1,-4.115891457E-1
1.127156484E1,-1.023957729E0,8.456101418E-1,-4.583284855E-1
1.127956387E1,-1.220472336E0,8.972964287E-1,-4.797306061E-1
1.128756027E1,-1.338790417E0,9.409513474E-1,-3.744692802E-1
1.129555498E1,-1.352529049E0,9.413022995E-1,-3.733313084E-1
1.130355039E1,-1.350908279E0,9.267249107E-1,-3.153164387E-1
1.131157664E1,-1.393106461E0,8.692507744E-1,-2.621030807E-1
1.131957297E1,-1.429448128E0,7.729916573E-1,-1.675117016E-1
1.132756922E1,-1.494786739E0,7.131109238E-1,-3.910207748E-2
1.133556370E1,-1.558211803E0,6.657991409E-1,-1.313829422E-2
1.134355911E1,-1.607988358E0,6.838717461E-1,-7.018303871E-2
1.135155459E1,-1.577246189E0,7.249050140E-1,-1.229517460E-1
1.135955061E1,-1.472055912E0,8.530182838E-1,-1.393985748E-1
1.136757802E1,-1.341563225E0,9.529285431E-1,-3.925371170E-2
1.137557273E1,-1.138867378E0,9.449615479E-1,8.686232567E-2
1.138356822E1,-9.624729156E-1,8.765869141E-1,2.506821156E-1
1.139156331E1,-8.768129349E-1,8.096714020E-1,4.583096504E-1
1.139955987E1,-7.087039948E-1,7.006506920E-1,4.680993557E-1
1.140755528E1,-5.308442116E-1,5.404992104E-1,3.907384872E-1
1.141555076E1,-2.971010208E-1,3.985257149E-1,3.372945786E-1
1.142357686E1,-1.830468178E-1,3.342390060E-1,-1.458144188E-2
1.143157296E1,-9.330606461E-2,3.263325691E-1,-3.575854301E-1
1.143956805E1,-7.457780838E-2,2.978329659E-1,-6.543962955E-1
1.144756377E1,-1.224694252E-1,2.392072678E-1,-8.013975620E-1
1.145555848E1,-3.009533882E-1,2.123842239E-1,-9.421977997E-1
1.146355489E1,-5.580487251E-1,2.150869370E-1,-1.046766520E0
1.147155052E1,-8.050303459E-1,1.514115334E-1,-1.082100153E0
1.147957647E1,-7.664060593E-1,3.186941147E-2,-6.832370758E-1
1.148757372E1,-6.018490791E-1,-6.927680969E-2,-1.131329536E-1
1.149556789E1,-3.757123947E-1,-1.557178497E-1,5.220460892E-1
1.150356268E1,-3.381423950E-1,-2.414236069E-1,8.501701355E-1
1.151155809E1,-3.778371811E-1,-3.103957176E-1,9.735035896E-1
1.151955503E1,-3.682503700E-1,-3.477239609E-1,9.348788261E-1
1.152755075E1,-2.938346863E-1,-2.746853828E-1,7.798237801E-1
1.153557661E1,-7.628250122E-2,-1.516470909E-1,5.543093681E-1
1.154357225E1,1.927995682E-2,-1.094341278E-2,3.434047699E-1
1.155156673E1,2.019357681E-2,1.424045563E-1,1.107926369E-1
1.155956344E1,-5.257463455E-2,2.005620003E-1,2.728414536E-2
1.156755916E1,-1.541728973E-1,2.327156067E-1,5.049276352E-2
1.157555487E1,-3.764801025E-1,2.358369827E-1,6.068515778E-2
1.158354966E1,-5.115227699E-1,2.392911911E-1,8.795499802E-2
1.159157307E1,-5.510740280E-1,2.787656784E-1,1.173725128E-1
1.159957209E1,-5.294861794E-1,3.534359932E-1,-4.333686829E-2
1.160756788E1,-6.367239952E-1,4.589447975E-1,-3.634982109E-1
1.161556352E1,-5.984892845E-1,5.049962997E-1,-5.258314610E-1
1.162355923E1,-4.258575439E-1,4.633812904E-1,-5.444028378E-1
1.163155379E1,-2.404050827E-1,3.963079453E-1,-4.000556469E-1
1.163955035E1,-1.908273697E-1,3.828845024E-1,-2.518739700E-1
1.164757683E1,-1.986026764E-1,3.639335632E-1,-9.027767181E-2
1.165557139E1,-9.604454041E-2,3.824391365E-1,-1.407518387E-1
1.166356741E1,-8.750867844E-2,4.577374458E-1,-4.208657742E-1
1.167155966E1,-1.896696091E-1,5.809273720E-1,-7.479400635E-1
1.167955884E1,-3.212881088E-1,5.849766731E-1,-7.714080811E-1
1.168755578E1,-3.662972450E-1,5.124382973E-1,-5.210211277E-1
1.169555049E1,-3.934884071E-1,4.746432304E-1,-2.013263702E-1
1.170357574E1,-4.840855598E-1,4.106416702E-1,2.473778725E-1
1.171157146E1,-5.666084290E-1,3.646173477E-1,4.975399971E-1
1.171956748E1,-6.389641762E-1,3.048777580E-1,5.393276215E-1
1.172756388E1,-6.539344788E-1,3.396863937E-1,4.519739151E-1
1.173555837E1,-6.361060143E-1,3.935832977E-1,3.250823021E-1
1.174355431E1,-4.199471474E-1,4.455866814E-1,1.325316429E-1
1.175154918E1,-4.789161682E-2,4.280972481E-1,-1.981782913E-2
1.175957566E1,1.208171844E-1,4.461851120E-1,-1.321415901E-1
1.176757230E1,1.562209129E-1,4.547781944E-1,-1.738095284E-1
1.177556793E1,1.571955681E-1,5.066976547E-1,-1.985297203E-1
1.178356334E1,1.451110840E-1,5.230407715E-1,-2.130503654E-1
1.179155790E1,2.028937340E-1,4.673237801E-1,-1.711645126E-1
1.179955423E1,3.049683571E-1,4.052891731E-1,-1.340637207E-1
1.180755048E1,2.418804169E-1,4.682483673E-1,-1.624732018E-1
1.181557612E1,1.190876961E-1,5.423097610E-1,-2.551662922E-1
1.182357175E1,4.571294785E-2,5.594353676E-1,-3.312246799E-1
1.183156508E1,1.014447212E-1,5.077791214E-1,-4.395353794E-1
1.183956295E1,1.336312294E-1,5.236392021E-1,-4.927496910E-1
1.184755889E1,1.048083305E-1,5.401053429E-1,-4.323399067E-1
1.185555345E1,6.565332413E-2,5.881972313E-1,-3.932504654E-1
1.186355001E1,5.170297623E-2,6.201257706E-1,-4.489269257E-1
1.187157557E1,2.666139603E-2,6.626086235E-1,-6.029710770E-1
1.187957167E1,-4.522466660E-2,7.543540001E-1,-7.258353233E-1
1.188756731E1,-1.133108139E-1,8.046927452E-1,-8.249409199E-1
1.189556271E1,-1.964321136E-1,8.326983452E-1,-7.884440422E-1
1.190355904E1,-2.874526978E-1,7.997827530E-1,-6.190431118E-1
1.191155298E1,-3.203229904E-1,7.430710793E-1,-4.267303944E-1
1.191954962E1,-3.439221382E-1,6.426653862E-1,-2.251133919E-1
1.192757664E1,-3.805184364E-1,5.749273300E-1,-1.497180462E-1
1.193557143E1,-4.036483765E-1,5.067515373E-1,-1.451337337E-1
1.194356776E1,-4.202179909E-1,5.104560852E-1,-1.608886719E-1
1.195156193E1,-4.512143135E-1,5.076403618E-1,-2.402427197E-1
1.195955857E1,-4.238867760E-1,4.995107651E-1,-3.400928974E-1
1.196755467E1,-3.669929504E-1,5.122966766E-1,-4.198265076E-1
1.197554969E1,-2.760276794E-1,4.929533005E-1,-5.201361179E-1
1.198357563E1,-1.921563148E-1,5.104942322E-1,-6.072294712E-1
1.199156727E1,-1.845660210E-1,4.908242226E-1,-6.358728409E-1
1.199956675E1,-1.431279182E-1,4.937329292E-1,-6.252865791E-1
1.200756339E1,-1.208505630E-1,4.664225578E-1,-6.348702908E-1
1.201555810E1,-1.633162498E-1,4.353122711E-1,-6.523334980E-1
1.202355358E1,-2.465519905E-1,3.934497833E-1,-6.749777794E-1
1.203154868E1,-3.105535507E-1,3.126101494E-1,-6.903331280E-1
1.203957639E1,-4.005246162E-1,2.008008957E-1,-7.192046642E-1
1.204757203E1,-4.108619690E-1,1.183605194E-1,-7.109832764E-1
1.205556713E1,-4.179129601E-1,2.956533432E-2,-7.256197929E-1
1.206356230E1,-4.161930084E-1,-4.366731644E-2,-7.038807869E-1
1.207155740E1,-4.219703674E-1,-1.224646568E-1,-7.081558704E-1
1.207955335E1,-4.133810997E-1,-1.517295837E-1,-7.436041832E-1
1.208755060E1,-4.429526329E-1,-1.173510551E-1,-7.747955322E-1
1.209557554E1,-5.222654343E-1,-3.379487991E-2,-8.192272186E-1
1.210357126E1,-6.457486153E-1,5.579614639E-2,-8.615834713E-1
1.211156574E1,-7.913312912E-1,1.728758812E-1,-9.507856369E-1
1.211956276E1,-9.056038857E-1,2.101206779E-1,-9.916613102E-1
1.212755909E1,-9.841451645E-1,2.744503021E-1,-1.025370598E0
1.213555326E1,-9.954957962E-1,2.943873405E-1,-1.039790869E0
1.214354928E1,-1.052327633E0,3.510913849E-1,-1.018024445E0
1.215157353E1,-1.068409920E0,4.661574364E-1,-9.429926872E-1
1.215957117E1,-1.070327282E0,5.512552261E-1,-9.114875793E-1
1.216756719E1,-1.089303493E0,6.760115623E-1,-8.602321148E-1
1.217556160E1,-1.082190514E0,7.324857712E-1,-7.964115143E-1
1.218355792E1,-1.106594563E0,7.971577644E-1,-7.074871063E-1
1.219155272E1,-1.132437706E0,8.209877014E-1,-5.500407219E-1
1.219957981E1,-1.121525764E0,7.897067070E-1,-3.686666489E-1
1.220757553E1,-1.081634998E0,7.024302483E-1,-2.330002785E-1
1.221557101E1,-1.012795925E0,6.041827202E-1,-1.771566868E-1
1.222356726E1,-8.884158134E-1,5.209140778E-1,-5.857539177E-2
1.223155813E1,-5.763688087E-1,3.182616234E-1,4.960656166E-2
1.223955776E1,-2.536110878E-1,1.372704506E-1,1.131715775E-1
1.224755417E1,7.793474197E-2,-7.952070236E-2,2.466928959E-1
1.225554888E1,2.677807808E-1,-2.310237885E-1,2.526912689E-1
1.226357598E1,3.649687767E-1,-3.633542061E-1,2.604327202E-1
1.227156985E1,3.672056198E-1,-4.829745293E-1,1.987683773E-1
1.227956656E1,3.538956642E-1,-5.266456604E-1,1.836163998E-1
1.228756228E1,3.639431000E-1,-6.079716682E-1,1.783556938E-1
1.229555737E1,4.340844154E-1,-6.842637062E-1,1.582078934E-1
1.230355301E1,5.062131882E-1,-7.633872032E-1,1.491231918E-1
1.231157857E1,4.516839981E-1,-7.771410942E-1,9.156966209E-2
1.231957497E1,4.157061577E-1,-7.502226830E-1,4.745960236E-2
1.233556640E1,4.865951538E-1,-7.486968040E-1,6.346702576E-3
1.234356204E1,6.366887093E-1,-7.528066635E-1,-1.330995560E-2
1.235155690E1,7.809906006E-1,-7.750568390E-1,3.703474998E-2
1.235955346E1,8.966999054E-1,-7.336339951E-1,1.227631569E-1
1.236758056E1,9.051141739E-1,-7.172889709E-1,1.971750259E-1
1.237557535E1,9.074330330E-1,-6.730470657E-1,2.024466991E-1
1.238357053E1,8.560328484E-1,-6.654815674E-1,2.531592846E-1
1.239156432E1,8.033528328E-1,-6.324701309E-1,3.038706779E-1
1.239956218E1,7.419514656E-1,-6.218471527E-1,3.264851570E-1
1.240755797E1,6.799387932E-1,-6.007728577E-1,3.167049885E-1
1.241555300E1,6.502671242E-1,-5.597076416E-1,3.256061077E-1
1.242357917E1,6.285948753E-1,-5.680532455E-1,3.299369812E-1
1.243157396E1,6.456685066E-1,-5.827560425E-1,2.702128887E-1
1.243957121E1,6.917219162E-1,-5.607032776E-1,2.639567852E-1
1.244756723E1,7.301797867E-1,-5.333118439E-1,2.177646160E-1
1.245556172E1,7.155752182E-1,-4.550971985E-1,1.097679138E-1
1.246355743E1,6.661357880E-1,-3.792285919E-1,4.491853714E-2
1.247155222E1,6.424493790E-1,-3.196735382E-1,3.979229927E-2
1.247957909E1,6.401386261E-1,-2.810831070E-1,1.154198647E-1
1.248757626E1,7.029027939E-1,-2.919521332E-1,1.133401394E-1
1.249557051E1,7.637491226E-1,-3.211345673E-1,1.434903145E-1
1.250356561E1,7.793331146E-1,-3.280458450E-1,1.578187943E-1
1.251156125E1,7.804317474E-1,-3.270816803E-1,1.039564610E-1
1.251955827E1,7.621951103E-1,-3.421335220E-1,1.496341228E-1
1.252755337E1,7.339777946E-1,-3.254547119E-1,1.101777554E-1
1.253557892E1,6.480233669E-1,-3.296327591E-1,5.734038353E-2
1.254357456E1,5.721251965E-1,-3.567266464E-1,4.122233391E-2
1.255156689E1,5.640408993E-1,-3.683147430E-1,1.374149323E-2
1.255956545E1,5.017986298E-1,-3.547067642E-1,8.553504944E-3
1.256756178E1,4.456734657E-1,-3.587455750E-1,-2.920866013E-2
1.257555626E1,3.240664005E-1,-3.203744888E-1,-6.325292587E-2
1.258355282E1,2.454581261E-1,-3.301343918E-1,-6.918931007E-2
1.259157876E1,1.599516869E-1,-3.254451752E-1,-1.061859131E-1
1.259957448E1,8.949732780E-2,-3.060159683E-1,-1.114811897E-1
1.260757111E1,5.105161667E-2,-2.908878326E-1,-9.689259529E-2
1.261556560E1,-5.535912514E-2,-2.726058960E-1,-1.029706001E-1
1.262356123E1,-7.817006111E-2,-2.318344116E-1,-6.794261932E-2
1.263155641E1,-1.125314236E-1,-1.515655518E-1,-1.521427631E-1
1.263955297E1,-1.039323807E-1,-5.596351624E-2,-1.590863466E-1
1.264757914E1,-1.031002998E-1,1.642322540E-2,-1.583212614E-1
1.265557401E1,-1.175282001E-1,9.894943237E-2,-1.954075098E-1
1.266356972E1,-1.662580967E-1,1.629047394E-1,-1.985310316E-1
1.267156505E1,-2.130572796E-1,2.177772522E-1,-1.374052763E-1
1.267956115E1,-2.476847172E-1,2.373132706E-1,-7.256650925E-2
1.268755771E1,-3.009696007E-1,2.526674271E-1,-6.408119202E-2
1.269555257E1,-3.556249142E-1,2.616224289E-1,-6.507515907E-3
1.270357898E1,-3.860933781E-1,2.208957672E-1,-2.089142799E-3
1.271157408E1,-3.981266022E-1,1.900625229E-1,7.163882256E-3
1.271956956E1,-3.736648560E-1,1.258001328E-1,-4.731178284E-2
1.272756589E1,-3.590002060E-1,7.100009918E-2,-9.563720226E-2
1.273556099E1,-3.019483089E-1,3.991127014E-3,-7.778358459E-2
1.274355701E1,-2.868993282E-1,-2.997875214E-2,-9.692597389E-2
1.275155203E1,-2.659516335E-1,-7.162189484E-2,-1.316828728E-1
1.275957951E1,-2.652907372E-1,-1.544561386E-1,-1.177314520E-1
1.276757461E1,-2.296042442E-1,-2.570219040E-1,-5.354630947E-2
1.277557024E1,-1.806924343E-1,-3.459539413E-1,-7.124090195E-2
1.278356573E1,-1.476073265E-1,-3.853893280E-1,-9.886479378E-2
1.279156113E1,-1.426515579E-1,-4.137029648E-1,-9.088313580E-2
1.279955654E1,-1.067166328E-1,-3.903484344E-1,-8.059442043E-2
1.280755379E1,-1.327993870E-1,-3.821973801E-1,-7.272386551E-2
1.281557843E1,-1.113207340E-1,-4.372434616E-1,-4.320669174E-2
1.282357383E1,-1.283645630E-1,-4.189710617E-1,-4.958260059E-2
1.283156916E1,-1.361606121E-1,-4.471340179E-1,-8.263945580E-3
1.283956549E1,-1.321861744E-1,-4.522867203E-1,-9.100437164E-4
1.284756151E1,-1.547393799E-1,-4.391784668E-1,-1.071131229E-2
1.285555607E1,-1.659305096E-1,-3.815402985E-1,-1.836502552E-2
1.286355271E1,-1.750257015E-1,-3.558473587E-1,-6.979703903E-3
1.287157511E1,-1.915099621E-1,-3.165588379E-1,-5.069911480E-2
1.287957452E1,-1.718642712E-1,-3.090581894E-1,-3.234636784E-2
1.288757085E1,-1.451261044E-1,-2.903785706E-1,-7.271528244E-3
1.289556541E1,-1.447424889E-1,-2.437057495E-1,-2.084112167E-2
1.290356081E1,-1.964890957E-1,-2.431049347E-1,-3.715801239E-2
1.291155614E1,-2.303786278E-1,-2.477207184E-1,-2.988779545E-2
1.291955308E1,-2.342720032E-1,-2.311410904E-1,-5.157172680E-2
1.292757903E1,-2.961571217E-1,-2.075004578E-1,-4.675817490E-2
1.293557443E1,-3.292281628E-1,-2.053585052E-1,-3.697156906E-2
1.294356984E1,-3.566479683E-1,-1.837816238E-1,-5.801200867E-2
1.295156217E1,-3.686339855E-1,-1.810007095E-1,-6.185698509E-2
1.295956096E1,-3.768818378E-1,-1.634683609E-1,-5.112516880E-2
1.296755782E1,-4.003717899E-1,-1.598310471E-1,-6.631112099E-2
1.297555200E1,-4.103317261E-1,-1.365318298E-1,-7.608842850E-2
1.298357848E1,-4.470450878E-1,-1.030139923E-1,-7.550096512E-2
1.299157335E1,-4.745674133E-1,-7.121086121E-2,-8.588206768E-2
1.299956991E1,-4.928848743E-1,-4.825592041E-2,-1.045043468E-1
1.300756624E1,-5.333551168E-1,-6.045436859E-2,-1.259703636E-1
1.301556110E1,-6.007767916E-1,-4.794597626E-2,-1.477197409E-1
1.302355682E1,-6.449105740E-1,-3.467178345E-2,-1.288315058E-1
1.303155122E1,-6.715140343E-1,-1.376152039E-2,-1.078822613E-1
1.303957840E1,-7.113698721E-1,-1.401901245E-2,-5.695879459E-2
1.304757442E1,-6.528329849E-1,-2.266883850E-3,1.724958420E-3
1.305556952E1,-5.661351681E-1,1.996994019E-3,9.603989124E-2
1.306356461E1,-5.044038296E-1,-2.288818359E-2,1.229436398E-1
1.307156033E1,-4.271093607E-1,-4.112625122E-2,1.369633675E-1
1.307955627E1,-3.797730207E-1,-6.228923798E-2,1.332856417E-1
1.308755291E1,-2.862613201E-1,-7.696151733E-2,1.186830997E-1
1.309557793E1,-1.709535122E-1,-8.521461487E-2,1.051969528E-1
1.310357334E1,-8.948922157E-2,-6.797409058E-2,6.193828583E-2
1.311156805E1,3.659486771E-2,-1.213912964E-1,4.347681999E-2
1.311956507E1,8.867311478E-2,-1.207122803E-1,3.779685497E-2
1.312756101E1,1.259138584E-1,-1.303377151E-1,1.274895668E-2
1.313555619E1,2.185029984E-1,-1.261711121E-1,-2.941954136E-2
1.314355190E1,2.764067650E-1,-1.224470139E-1,-1.751923561E-2
1.315157738E1,2.596902847E-1,-1.022443771E-1,-5.942368507E-2
1.315957317E1,2.937774658E-1,-1.157960892E-1,-2.715814114E-2
1.316756981E1,3.191835880E-1,-7.447147369E-2,-1.445531845E-2
1.317556545E1,3.403139114E-1,-6.456089020E-2,4.859685898E-3
1.318356031E1,3.044414520E-1,-5.491542816E-2,7.069706917E-3
1.319155510E1,2.380840778E-1,-7.175827026E-2,1.662838459E-2
1.319955166E1,1.846439838E-1,-7.665348053E-2,5.199313164E-3
1.320757876E1,1.369190216E-1,-7.194232941E-2,4.333019257E-3
1.321557332E1,7.849860191E-2,-6.950187683E-2,4.573225975E-3
1.322356903E1,3.760600090E-2,-2.387428284E-2,-2.695989609E-2
1.323156413E1,-3.105163574E-2,-1.981735229E-3,-3.946638107E-2
1.323956008E1,-7.730197906E-2,-1.099205017E-2,-5.178451538E-2
1.324755771E1,-1.063020229E-1,4.090309143E-3,-7.578551769E-2
1.325558296E1,-1.420648098E-1,-1.898002625E-2,-8.976495266E-2
1.326357745E1,-1.442141533E-1,-1.560974121E-2,-1.078798771E-1
1.327157254E1,-1.367206573E-1,-4.326057434E-2,-1.253321171E-1
1.327956849E1,-1.077105999E-1,-1.814174652E-2,-1.300128698E-1
1.328756489E1,-7.870602608E-2,-2.644538879E-2,-1.363403797E-1
1.329556061E1,-6.397056580E-2,-2.505397797E-2,-1.539121866E-1
1.330355655E1,-1.364231110E-3,-1.396465302E-2,-2.112368345E-1
1.331158150E1,1.330208778E-2,-5.190849304E-3,-1.960252523E-1
1.331957875E1,2.770948410E-2,1.560688019E-2,-2.038887739E-1
1.332757454E1,5.854868889E-2,-1.148605347E-2,-2.136087418E-1
1.333556925E1,6.496286392E-2,1.403903961E-2,-2.108925581E-1
1.334356466E1,6.384682655E-2,1.321411133E-2,-2.388070822E-1
1.335156006E1,1.242647171E-1,9.916305542E-3,-2.373118401E-1
1.335955616E1,1.169660091E-1,-2.224159241E-2,-2.236281633E-1
1.336758318E1,5.651688576E-2,-8.083724976E-2,-2.050936222E-1
1.337557705E1,3.211379051E-2,-9.156894684E-2,-1.820901632E-1
1.338357345E1,6.052255630E-2,-8.799362183E-2,-1.453998089E-1
1.339156855E1,9.855818748E-2,-7.251739502E-2,-1.380382776E-1
1.339956457E1,1.221268177E-1,-2.844142914E-2,-9.559857845E-2
1.340756113E1,1.358435154E-1,6.337833405E-2,-1.064292192E-1
1.341555531E1,1.350090504E-1,7.127952576E-2,-9.631049633E-2
1.342358240E1,1.125280857E-1,7.429122925E-2,-9.640634060E-2
1.343157419E1,1.494016647E-1,9.630107880E-2,-1.063946486E-1
1.343957321E1,9.274196625E-2,1.014776230E-1,-1.215121746E-1
1.344756931E1,6.470155716E-2,1.042060852E-1,-1.296504736E-1
1.345556464E1,5.092477798E-2,7.815265656E-2,-1.164683104E-1
1.346356035E1,1.558494568E-2,7.364940643E-2,-1.463344097E-1
1.347155453E1,3.257632256E-2,4.992675781E-2,-1.402080059E-1
1.347958194E1,2.284789085E-2,3.094768524E-2,-1.648895741E-1
1.348757857E1,3.657865524E-2,-1.202392578E-2,-1.603747606E-1
1.349557313E1,4.718708992E-2,-1.437759399E-2,-1.911579370E-1
1.350356915E1,4.062438011E-2,-1.917839050E-2,-1.641489267E-1
1.351156356E1,4.308390617E-2,7.044792175E-3,-1.513234377E-1
1.351955935E1,2.617740631E-2,9.291648865E-3,-1.599211693E-1
1.352755629E1,4.713845253E-2,1.385116577E-2,-1.755501032E-1
1.353558116E1,6.528544426E-2,1.353454590E-2,-1.599807739E-1
1.354357726E1,4.967236519E-2,1.315689087E-2,-1.588088274E-1
1.355157197E1,2.918195724E-2,-4.024505615E-3,-1.458481550E-1
1.355956868E1,1.597499847E-2,-1.162338257E-2,-1.689233780E-1
1.356756493E1,-6.567001343E-3,-1.200008392E-2,-1.705453396E-1
1.357555973E1,-1.208734512E-2,-5.166053772E-3,-1.580284834E-1
1.358355459E1,-4.355096817E-2,-2.700138092E-2,-1.433657408E-1
1.359158100E1,-7.462739944E-2,3.890037537E-3,-1.337128878E-1
1.359957733E1,-8.867931366E-2,3.482437134E-2,-1.313894987E-1
1.360757304E1,-1.050045490E-1,-3.643035889E-3,-1.314408779E-1
1.361556852E1,-1.211555004E-1,2.736186981E-2,-1.194827557E-1
1.362356423E1,-1.324007511E-1,5.598258972E-2,-9.570026398E-2
1.363155895E1,-1.103260517E-1,6.298732758E-2,-6.731641293E-2
1.363955535E1,-1.146562099E-1,6.755733490E-2,-6.547462940E-2
1.364758176E1,-1.189355850E-1,4.578018188E-2,-5.901384354E-2
1.365557686E1,-1.017303467E-1,2.394771576E-2,-4.809558392E-2
1.366357257E1,-8.921575546E-2,2.126026154E-2,-6.138300896E-2
1.367156490E1,-1.218836308E-1,1.862812042E-2,-7.240056992E-2
1.367956346E1,-1.374137402E-1,3.283309937E-2,-6.672775745E-2
1.368755948E1,-1.311633587E-1,3.750038147E-2,-5.637073517E-2
1.369555512E1,-1.245746613E-1,5.898571014E-2,-7.730233669E-2
1.370358106E1,-1.392085552E-1,4.224872589E-2,-8.618140221E-2
1.371157700E1,-1.275119781E-1,4.466342926E-2,-6.632745266E-2
1.371957279E1,-1.277267933E-1,6.416320801E-3,-8.215630054E-2
1.372756943E1,-1.373512745E-1,-2.458667755E-2,-7.626366615E-2
1.373556453E1,-1.421096325E-1,6.669998169E-3,-6.083822250E-2
1.374355955E1,-1.348192692E-1,2.837276459E-2,-5.972874165E-2
1.375155403E1,-1.227812767E-1,1.415348053E-2,-4.426586628E-2
1.375958121E1,-1.131582260E-1,2.322196960E-3,-6.470716000E-2
1.376757715E1,-1.015181541E-1,9.543418884E-3,-4.220592976E-2
1.377557325E1,-1.091217995E-1,-7.218360901E-3,-5.338668823E-2
1.378356858E1,-1.261394024E-1,-2.155780792E-2,-6.462764740E-2
1.379156306E1,-1.166944504E-1,-1.193046570E-2,-4.957675934E-2
1.379955908E1,-1.261382103E-1,-1.182556152E-2,-6.090426445E-2
1.380755602E1,-1.541748047E-1,-3.074645996E-2,-6.027996540E-2
1.381558097E1,-1.387784481E-1,-2.324199677E-2,-4.997253418E-2
1.382357645E1,-1.493966579E-1,-1.805114746E-2,-5.396008492E-2
1.383157216E1,-1.548755169E-1,-3.432369232E-2,-3.637123108E-2
1.383956788E1,-1.409773827E-1,-2.651214600E-3,-4.023265839E-2
1.384756444E1,-1.293947697E-1,-1.646137238E-2,-2.023029327E-2
1.385555861E1,-1.224975586E-1,-3.922462463E-3,-2.664780617E-2
1.386355494E1,-9.655880928E-2,6.203651428E-3,-3.781330585E-2
1.387158019E1,-9.699034691E-2,4.328727722E-3,-2.759873867E-2
1.387957629E1,-1.046853065E-1,2.876949310E-2,-1.502335072E-2
1.388757323E1,-1.074090004E-1,3.887271881E-2,-7.339835167E-3
1.389556795E1,-1.006524563E-1,3.936862946E-2,-9.307384491E-3
1.390356312E1,-1.104629040E-1,2.074623108E-2,-1.372754574E-2
1.391155822E1,-1.010241508E-1,1.651096344E-2,-1.378893852E-3
1.391955424E1,-8.447217941E-2,4.575634003E-2,2.034723759E-2
1.392758257E1,-7.024383545E-2,2.232646942E-2,4.672253132E-2
1.393557667E1,-8.233213425E-2,6.111717224E-2,3.927981853E-2
1.394357215E1,-6.330990791E-2,8.551597595E-2,3.405892849E-2
1.395156717E1,-6.094598770E-2,7.640838623E-2,2.873325348E-2
1.395956381E1,-6.339240074E-2,5.052947998E-2,1.618134975E-2
1.396755990E1,-9.205317497E-2,2.707672119E-2,3.677845001E-3
1.397555492E1,-7.509827614E-2,1.561737061E-2,1.983392239E-2
1.398358018E1,-6.995368004E-2,2.093887329E-2,3.590357304E-2
1.399157281E1,-6.701540947E-2,4.784774780E-2,4.237544537E-2
1.399957230E1,-6.629681587E-2,6.042957306E-2,5.842828751E-2
1.400756832E1,-4.631972313E-2,4.908943176E-2,8.163845539E-2
1.401556342E1,-1.703786850E-2,7.358932495E-2,6.167590618E-2
1.402355913E1,-3.342461586E-2,5.735015869E-2,5.606913567E-2
1.403155415E1,-1.640224457E-2,4.110240936E-2,5.062842369E-2
1.403958132E1,-9.082078934E-3,3.439903259E-2,3.556406498E-2
1.404757704E1,-1.130414009E-2,2.052497864E-2,3.731060028E-2
1.405557214E1,-3.732204437E-2,-1.966571808E-2,3.177511692E-2
1.406356716E1,-1.771020889E-2,-2.870559692E-2,3.817570210E-2
1.407156295E1,-2.708673477E-3,-5.206871033E-2,1.827502251E-2
1.407955804E1,1.007199287E-2,-7.777881622E-2,5.644083023E-3
1.408755491E1,6.279706955E-3,-7.950687408E-2,1.934349537E-2
1.409558055E1,2.187967300E-2,-9.552669525E-2,2.107143402E-3
1.410357649E1,2.080202103E-2,-1.186914444E-1,1.618719101E-2
1.411157128E1,2.230286598E-2,-1.178817749E-1,3.021442890E-2
1.411956761E1,3.824830055E-2,-9.549903870E-2,2.518296242E-2
1.412756402E1,4.471182823E-2,-6.829738617E-2,4.176807404E-2
1.413555911E1,3.221964836E-2,-5.061817169E-2,5.129122734E-2
1.414355352E1,4.382109642E-2,-4.965400696E-2,4.177749157E-2
1.415157762E1,5.311679840E-2,-3.670692444E-2,5.378890038E-2
1.415957633E1,2.675032616E-2,-2.370834351E-2,5.141925812E-2
1.416757328E1,3.885865211E-2,-5.891799927E-3,5.140638351E-2
1.417556745E1,4.404735565E-2,2.388954163E-3,7.044959068E-2
1.418356316E1,2.315115929E-2,2.266025543E-2,9.160506725E-2
1.419155864E1,2.647233009E-2,3.815746307E-2,9.088909626E-2
1.419958482E1,3.457808495E-2,7.996749878E-2,7.081544399E-2
1.420758176E1,6.177425385E-2,8.340549469E-2,1.102325916E-1
1.421557594E1,6.246399879E-2,8.917045593E-2,8.956396580E-2
1.422357165E1,5.579042435E-2,9.966564178E-2,8.788049221E-2
1.423156613E1,7.034039497E-2,1.172437668E-1,1.147018671E-1
1.423956216E1,9.153306484E-2,1.274900436E-1,1.005406380E-1
1.424756002E1,9.075045586E-2,1.304512024E-1,6.953239441E-2
1.425555412E1,1.179419756E-1,1.284637451E-1,7.921206951E-2
1.426358060E1,1.323540211E-1,1.023502350E-1,5.767536163E-2
1.427157578E1,1.578197479E-1,9.757041931E-2,6.705582142E-2
1.427957203E1,1.323045492E-1,8.787536621E-2,4.788637161E-2
1.428756805E1,1.420021057E-1,7.324695587E-2,3.112876415E-2
1.429556322E1,1.008439064E-1,5.853271484E-2,9.860873222E-3
1.430355825E1,1.117779016E-1,3.417015076E-2,-1.099836826E-2
1.431155334E1,9.104788303E-2,3.128623962E-2,-1.471948624E-2
1.431957960E1,5.574405193E-2,1.165294647E-2,-2.279460430E-2
1.432757708E1,9.402275085E-2,-9.002685547E-4,-4.497075081E-2
1.433557133E1,7.670378685E-2,1.041889191E-2,-5.244851112E-2
1.434356727E1,3.770244122E-2,-4.602432251E-3,-4.053890705E-2
1.435156206E1,5.837893486E-2,-1.724338531E-2,-4.042434692E-2
1.435955847E1,3.822326660E-2,1.215934753E-3,-4.026830196E-2
1.436758488E1,4.659771919E-2,2.442932129E-2,-4.241812229E-2
1.437558005E1,3.101730347E-2,3.325843811E-2,-4.948508739E-2
1.438357576E1,2.016496658E-2,1.573944092E-2,-5.654835701E-2
1.439157140E1,-3.392696381E-4,3.171825409E-2,-8.756721020E-2
1.439956681E1,-3.526806831E-2,4.529857635E-2,-9.935235977E-2
1.440756313E1,-5.346632004E-2,3.014278412E-2,-9.675991535E-2
1.441555792E1,-7.399034500E-2,1.980400085E-2,-9.883797169E-2
1.442358471E1,-8.487224579E-2,3.343391418E-2,-8.401334286E-2
1.443157920E1,-9.322023392E-2,1.835918427E-2,-7.641446590E-2
1.443957583E1,-1.062712669E-1,1.528644562E-2,-8.305585384E-2
1.444757193E1,-1.118354797E-1,1.229000092E-2,-8.481407166E-2
1.445556695E1,-1.315703392E-1,1.415538788E-2,-9.826040268E-2
1.446356267E1,-1.437456608E-1,3.527641296E-2,-9.237074852E-2
1.447155753E1,-1.674357653E-1,3.019618988E-2,-9.574878216E-2
1.447958394E1,-1.595681906E-1,3.001594543E-2,-7.982110977E-2
1.448758065E1,-1.372146606E-1,4.662227631E-2,-7.106554508E-2
1.449557544E1,-1.648298502E-1,7.766056061E-2,-6.710135937E-2
1.450357146E1,-1.848367453E-1,8.961391449E-2,-2.979135513E-2
1.451156679E1,-1.521298885E-1,9.198474884E-2,-1.893329620E-2
1.451956320E1,-1.719242334E-1,8.714962006E-2,2.014136314E-2
1.452755983E1,-1.934362650E-1,5.604743958E-2,4.658114910E-2
1.453558416E1,-1.568343639E-1,4.654026031E-2,6.268298626E-2
1.454358010E1,-1.724895239E-1,6.816196442E-2,5.412733555E-2
1.455157466E1,-2.112225294E-1,2.524280548E-2,5.684244633E-2
1.455957130E1,-2.583197355E-1,1.125431061E-2,5.906414986E-2
1.456756817E1,-3.040513992E-1,4.694938660E-3,9.440207481E-2
1.457556296E1,-3.243052959E-1,-6.378173828E-3,7.666647434E-2
1.458355806E1,-3.499281406E-1,-1.232719421E-2,8.727490902E-2
1.459158431E1,-3.312962055E-1,3.468513489E-3,9.755551815E-2
1.459957971E1,-3.050403595E-1,-1.655960083E-2,7.913494110E-2
1.460757635E1,-2.835752964E-1,-3.416824341E-2,4.666590691E-2
1.461557106E1,-2.740054131E-1,-6.370353699E-2,5.280923843E-2
1.462356616E1,-2.455503941E-1,-5.977058411E-2,6.630468369E-2
1.463156164E1,-2.341030836E-1,-3.911495209E-2,5.602467060E-2
1.463955820E1,-2.040493488E-1,-3.293800354E-2,6.737780571E-2
1.464758445E1,-1.700037718E-1,-1.259803772E-2,7.133507729E-2
1.465557955E1,-1.537599564E-1,9.908676147E-3,6.562602520E-2
1.466357550E1,-1.409466267E-1,3.218460083E-2,4.067981243E-2
1.467157006E1,-1.646639109E-1,5.912303925E-2,1.097321510E-2
1.467956692E1,-1.695216894E-1,8.119869232E-2,2.907586098E-2
1.468756294E1,-1.982370615E-1,9.846878052E-2,3.016769886E-2
1.469555804E1,-2.030127048E-1,1.276817322E-1,1.670742035E-2
1.470358429E1,-1.887266636E-1,1.305284500E-1,1.994276047E-2
1.471157693E1,-1.748013496E-1,1.428995132E-1,-1.255261898E-2
1.471957510E1,-1.824883223E-1,1.217470169E-1,2.945423126E-3
1.472757136E1,-1.711509228E-1,1.341066360E-1,4.252433777E-3
1.473556646E1,-1.217759848E-1,9.855270386E-2,8.156418800E-3
1.474356194E1,-8.960402012E-2,4.616069794E-2,-1.416003704E-2
1.475155696E1,-5.317831039E-2,1.524353027E-2,-2.903437614E-2
1.475958382E1,-1.964497566E-2,-1.574134827E-2,-4.363977909E-2
1.476758100E1,4.669010639E-2,2.257251740E-2,-4.379701614E-2
1.477557456E1,6.458353996E-2,-3.859519958E-3,-8.459210396E-2
1.478357035E1,9.641194344E-2,-1.119995117E-2,-9.646368027E-2
1.479156545E1,8.945631981E-2,-3.774452209E-2,-1.343271732E-1
1.479956178E1,9.895956516E-2,-5.472755432E-2,-1.239647865E-1
1.480755810E1,1.082122326E-1,-7.170677185E-2,-1.107833385E-1
1.481558428E1,1.075879335E-1,-3.841876984E-2,-1.235743761E-1
1.482357907E1,8.498919010E-2,-9.994506836E-3,-7.884204388E-2
1.483157509E1,7.396507263E-2,8.794784546E-3,-7.942891121E-2
1.483957073E1,9.849536419E-2,5.146503448E-2,-8.231532574E-2
1.484756683E1,9.624409676E-2,6.533813477E-2,-8.983516693E-2
1.485556192E1,1.057522297E-1,6.242656708E-2,-7.804584503E-2
1.486355825E1,1.103839874E-1,6.432247162E-2,-6.599545479E-2
1.487158004E1,1.271693707E-1,7.103443146E-2,-6.596326828E-2
1.487957891E1,1.274163723E-1,8.975410461E-2,-4.922842979E-2
1.488757616E1,1.448122263E-1,1.324958801E-1,-3.966450691E-2
1.489557064E1,1.361356974E-1,1.489229202E-1,-3.274488449E-2
1.490356566E1,1.753038168E-1,1.342000961E-1,-1.634907722E-2
1.491156138E1,1.617169380E-1,1.410074234E-1,-1.194417477E-2
1.491955748E1,1.194028854E-1,1.214561462E-1,-1.729834080E-2
1.492758357E1,1.369168758E-1,9.471797943E-2,-5.880832672E-3
1.493557906E1,1.327713728E-1,9.668445587E-2,7.399320602E-4
1.494357446E1,1.570886374E-1,9.619808197E-2,7.326960564E-3
1.495156948E1,1.810668707E-1,8.365249634E-2,1.615846157E-2
1.495956650E1,2.188272476E-1,1.068954468E-1,1.056754589E-2
1.496756314E1,2.462236881E-1,9.404659271E-2,-4.711866379E-3
1.497555731E1,2.441644669E-1,1.289377213E-1,-1.279985905E-2
1.498358318E1,2.414090633E-1,1.445188522E-1,-8.980631828E-3
1.499157820E1,2.120964527E-1,1.887569427E-1,3.773558140E-2
1.499957461E1,2.113366127E-1,1.754388809E-1,6.008601189E-2
1.500757155E1,1.820900440E-1,1.717119217E-1,1.061199903E-1
1.501556626E1,2.099816799E-1,2.013416290E-1,1.682376862E-1
1.502356206E1,2.110284567E-1,2.139673233E-1,2.149561644E-1
1.503155654E1,2.330012321E-1,2.095336914E-1,2.245458364E-1
1.503958302E1,2.636873722E-1,2.095251083E-1,2.327980995E-1
1.504757989E1,2.581970692E-1,1.662178040E-1,2.017582655E-1
1.505557445E1,2.881247997E-1,1.442098618E-1,1.888759136E-1
1.507156556E1,2.833013535E-1,7.832050323E-2,1.539636850E-1
1.507956212E1,2.660064697E-1,5.378341675E-2,1.490039825E-1
1.508755845E1,2.634377480E-1,1.009368896E-2,1.651736498E-1
1.509558278E1,2.518033981E-1,-1.196002960E-2,1.334422827E-1
1.510357942E1,2.263131142E-1,-3.866195679E-2,1.163998842E-1
1.511157052E1,1.992371082E-1,-6.752109528E-2,1.046925783E-1
1.511956969E1,1.919806004E-1,-7.940578461E-2,9.834468365E-2
1.512756694E1,1.778960228E-1,-7.912445068E-2,6.414783001E-2
1.513556204E1,2.139005661E-1,-1.074991226E-1,2.842950821E-2
1.514355652E1,2.088353634E-1,-1.358566284E-1,2.216279507E-2
1.515158231E1,2.339751720E-1,-1.188602448E-1,1.877963543E-2
1.515957926E1,2.224521637E-1,-1.139192581E-1,-2.471590042E-2
1.516757536E1,2.316138744E-1,-1.258430481E-1,-4.122161865E-2
1.517556976E1,2.184333801E-1,-1.187505722E-1,-6.221652031E-2
1.518356609E1,1.974773407E-1,-1.141433716E-1,-5.890870094E-2
1.519156057E1,1.544113159E-1,-1.000804901E-1,-7.705104351E-2
1.519955698E1,8.961296082E-2,-7.168102264E-2,-8.545768261E-2
1.520758407E1,8.424663544E-2,-7.691574097E-2,-8.433949947E-2
1.521557856E1,4.504203796E-2,-7.980918884E-2,-1.332796812E-1
1.522357489E1,1.272320747E-2,-7.080936432E-2,-1.079611778E-1
1.523156906E1,-1.979780197E-2,-7.379245758E-2,-1.493705511E-1
1.523956570E1,-4.294157028E-2,-6.720542908E-2,-1.616864204E-1
1.524756256E1,-7.079315186E-2,-6.051158905E-2,-1.733248234E-1
1.525558697E1,-9.112238884E-2,-5.839824677E-2,-1.936129332E-1
1.526358268E1,-1.275408268E-1,-4.877948761E-2,-2.055406570E-1
1.527157563E1,-1.533474922E-1,-4.590606689E-2,-2.280938625E-1
1.527957411E1,-1.804518700E-1,-2.581596375E-2,-2.325158119E-1
1.528757036E1,-2.038016319E-1,-2.195644379E-2,-2.259585857E-1
1.529556546E1,-2.375109196E-1,4.014968872E-3,-2.157616615E-1
1.530356094E1,-2.364506721E-1,2.559661865E-2,-2.024655342E-1
1.531158650E1,-2.796368599E-1,6.425571442E-2,-1.602630615E-1
1.531958368E1,-2.477896214E-1,5.757236481E-2,-1.374837160E-1
1.532758000E1,-2.443141937E-1,9.878063202E-2,-1.199983358E-1
1.533557418E1,-2.475383282E-1,1.064310074E-1,-5.325400829E-2
1.534356935E1,-2.194662094E-1,1.259317398E-1,-4.506075382E-2
1.535156538E1,-2.007708549E-1,1.573209763E-1,-6.885254383E-2
1.535956078E1,-2.080175877E-1,1.766824722E-1,-2.664017677E-2
1.536758819E1,-2.218294144E-1,1.673326492E-1,-1.641929150E-2
1.537558259E1,-2.275342941E-1,1.270046234E-1,-3.542840481E-2
1.538357861E1,-2.561724186E-1,9.405994415E-2,-2.598321438E-2
1.539157410E1,-2.787854671E-1,4.704380035E-2,-2.132391930E-2
1.539956950E1,-2.954516411E-1,9.861946106E-3,2.383112907E-3
1.540756606E1,-2.565121651E-1,-2.959918976E-2,4.996383190E-2
1.541556116E1,-1.965208054E-1,-5.006790161E-2,8.290684223E-2
1.542358741E1,-7.625937462E-2,-7.822036743E-2,1.108375788E-1
1.543158212E1,3.835391998E-2,-9.280872345E-2,1.505103111E-1
1.543957845E1,1.109230518E-1,-1.035146713E-1,1.684890985E-1
1.544757486E1,2.629663944E-1,-1.750974655E-1,1.960761547E-1
1.545556934E1,4.556734562E-1,-2.454061508E-1,1.736463308E-1
1.546356498E1,7.008936405E-1,-3.528661728E-1,2.084767818E-1
1.547156015E1,1.002681732E0,-4.193630219E-1,2.280803919E-1
1.547958694E1,1.287266970E0,-5.561456680E-1,2.781378031E-1
1.548758350E1,1.568976641E0,-6.824388504E-1,1.992775202E-1
1.549557837E1,1.739737511E0,-7.833747864E-1,2.085444927E-1
1.550357370E1,1.947377682E0,-9.159812927E-1,1.519143581E-1
1.551156856E1,2.015198946E0,-1.089955330E0,2.619353533E-1
1.551956482E1,1.963775396E0,-1.211840630E0,3.302630186E-1
1.552756122E1,1.913160324E0,-1.335337639E0,3.539776802E-1
1.553558678E1,1.954261303E0,-1.433238029E0,2.783943415E-1
1.554358242E1,2.199719429E0,-1.493482590E0,1.672006845E-1
1.555157782E1,2.421066284E0,-1.499364853E0,9.476220608E-2
1.555957423E1,2.692352295E0,-1.527234077E0,-1.564061642E-2
1.556756986E1,2.927389145E0,-1.527427673E0,-2.621877193E-2
1.557556496E1,3.073364496E0,-1.562016487E0,4.218852520E-2
1.558356044E1,3.173595905E0,-1.545069695E0,5.095636845E-2
1.559158354E1,3.144092560E0,-1.589539528E0,1.108347178E-1
1.559958264E1,3.131268024E0,-1.631006241E0,7.864570618E-2
1.560757866E1,3.130329132E0,-1.679527283E0,-1.010894775E-4
1.561557376E1,3.141639233E0,-1.752182007E0,-4.147410393E-2
1.562356970E1,3.126392841E0,-1.789868355E0,-3.541553020E-2
1.563156426E1,3.011813641E0,-1.813830376E0,-3.867602348E-2
1.563956090E1,2.798458099E0,-1.790698051E0,-2.920973301E-2
1.564758761E1,2.575825214E0,-1.804269791E0,-5.269181728E-2
1.565558248E1,2.398229122E0,-1.808475494E0,-8.533489704E-2
1.566357819E1,2.203938961E0,-1.829652786E0,-8.377897739E-2
1.567157237E1,2.041294575E0,-1.865328789E0,-1.309369802E-1
1.567956954E1,1.938538551E0,-1.913740158E0,-1.778420210E-1
1.568756533E1,1.863885403E0,-1.925973892E0,-1.594616175E-1
1.569556097E1,1.878783226E0,-1.982038498E0,-2.261503339E-1
1.570358660E1,1.918586731E0,-1.977095604E0,-3.106307387E-1
1.571158201E1,1.885647774E0,-1.995111942E0,-3.582756519E-1
1.571957826E1,1.824194908E0,-1.906299114E0,-4.653437138E-1
1.572757374E1,1.651467323E0,-1.882422924E0,-5.050193071E-1
1.573556877E1,1.427692413E0,-1.801370144E0,-4.365302920E-1
1.574356425E1,1.219358921E0,-1.733012199E0,-3.482084274E-1
1.575155935E1,1.043082714E0,-1.744490147E0,-1.930108666E-1
1.575958675E1,1.023213387E0,-1.761881828E0,-1.973088384E-1
1.576758300E1,1.042435646E0,-1.814227581E0,-8.041149378E-2
1.577557787E1,1.088793755E0,-1.854119778E0,-6.230241060E-2
1.578357297E1,1.114677429E0,-1.857950211E0,3.344339132E-2
1.579156837E1,1.163265228E0,-1.862596035E0,1.226902008E-3
1.579956462E1,1.248458862E0,-1.767510414E0,-1.541051269E-1
1.580756095E1,1.274804115E0,-1.730669022E0,-3.139005303E-1
1.581558651E1,1.266724586E0,-1.700786591E0,-4.546300471E-1
1.582358192E1,1.068678856E0,-1.742106915E0,-4.843646288E-1
1.583157732E1,7.620859146E-1,-1.744257689E0,-5.521370173E-1
1.583957312E1,5.769987106E-1,-1.840615273E0,-5.443640947E-1
1.584756975E1,5.825729370E-1,-2.024949074E0,-5.051128268E-1
1.585556446E1,6.500740051E-1,-2.199709654E0,-4.492465854E-1
1.586356110E1,7.599716187E-1,-2.364380360E0,-4.022761583E-1
1.587158574E1,8.885545731E-1,-2.409278870E0,-3.101245165E-1
1.587958214E1,9.619703293E-1,-2.416212559E0,-2.686029971E-1
1.588757847E1,1.038199425E0,-2.305536747E0,-3.570727110E-1
